timestamp,rel_time,acc_x,acc_y,acc_z,gyro_x,gyro_y,gyro_z,azimuth,pitch,roll,label
10533549384000,0,-5.20911741711327,8.31107290123156,-0.474318980135025,-0.032070424,0.03390302,0.011911872,165.68161,-108.5381,-18.492605,STD
10533554369000,0.004985,-5.21077696389035,8.30822793348562,-0.471948200828525,-0.04550946,0.02687807,0.011911872,165.51328,-108.7086,-18.657202,STD
10533559361000,0.009977,-5.21243884102399,8.30537897080002,-0.46957409244376,-0.055283304,0.030848695,0.009468411,165.34433,-108.87807,-18.82018,STD
10533564384000,0.015,-5.21411103830809,8.30251231623877,-0.467185240998113,-0.053145275,0.040011674,0.007330383,165.17735,-109.04483,-18.980341,STD
10533569393000,0.020009,-5.21577857487908,8.29965365155683,-0.464803047708993,-0.050701816,0.03573562,-0.005192355,165.01457,-109.2125,-19.14158,STD
10533574352000,0.024968,-5.21742946604608,8.29682352215822,-0.46244463355033,-0.054061573,0.03756821,-0.00030543262,164.84879,-109.373215,-19.295713,STD
10533580331000,0.030947,-5.21940312805386,8.29355281560875,-0.459384833406814,-0.06291912,0.048258353,-0.0009162979,164.68285,-109.536415,-19.452301,STD
10533584451000,0.035067,-5.22039028128667,8.29444126176448,-0.452474755829437,-0.06078109,0.055283304,0.004581489,164.51903,-109.6942,-19.603203,STD
10533589349000,0.039965,-5.22156384355227,8.2954974776069,-0.444259814088176,-0.058948494,0.06841691,0.0021380284,164.3502,-109.859856,-19.762537,STD
10533595174000,0.04579,-5.22295951529526,8.29675359383436,-0.434490104892006,-0.06047566,0.08552113,0.004276057,164.17967,-110.020096,-19.916336,STD
10533599385000,0.050001,-5.2239684721553,8.29766166343674,-0.427427401814741,-0.05955936,0.08246681,0.00580322,164.01286,-110.17888,-20.068594,STD
10533604294000,0.05491,-5.22514467002419,8.29872025134414,-0.41919401083723,-0.056199603,0.10170906,0.008857546,163.83578,-110.3343,-20.217005,STD
10533609294000,0.05991,-5.22634267152032,8.29979846269818,-0.410807994359831,-0.062002823,0.10415252,0.009468411,163.66644,-110.48743,-20.363565,STD
10533614284000,0.0649,-5.22753827701345,8.30087451762952,-0.402438749915386,-0.05589417,0.10873401,0.01740966,163.49251,-110.63586,-20.5047,STD
10533619293000,0.069909,-5.22873843491227,8.301954669764,-0.394037638608328,-0.06169739,0.109650314,0.019547688,163.3207,-110.783066,-20.64517,STD
10533624286000,0.074902,-5.2299347592063,8.30303137162215,-0.385663362553997,-0.055588737,0.119729586,0.014966198,163.14655,-110.92844,-20.783062,STD
10533629270000,0.079886,-5.23112892709764,8.30410613269986,-0.377304181329325,-0.057726767,0.118202426,0.019242255,162.97766,-111.068214,-20.91594,STD
10533634315000,0.084931,-5.23233771060723,8.30519404795609,-0.368842690703629,-0.057421334,0.116675265,0.021685716,162.80748,-111.208115,-21.048546,STD
10533639286000,0.089902,-5.23352876369468,8.30626600568428,-0.360505313121799,-0.06047566,0.11026118,0.013744468,162.64107,-111.34763,-21.18108,STD
10533644291000,0.094907,-5.2347279631923,8.30734529524968,-0.352110910627922,-0.059253927,0.089491755,0.013744468,162.48152,-111.48247,-21.308998,STD
10533649336000,0.099952,-5.23593674670189,8.30843321050591,-0.343649420002227,-0.07391469,0.09040806,0.016798794,162.319,-111.61608,-21.436201,STD
10533654370000,0.104986,-5.23714289460819,8.30951875369716,-0.335206378612781,-0.074830994,0.073303826,0.019242255,162.17004,-111.74844,-21.562218,STD
10533659372000,0.109988,-5.23834137530492,8.31059739633574,-0.326817007728791,-0.069027774,0.07544186,0.01985312,162.01654,-111.8783,-21.685745,STD
10533664567000,0.115183,-5.23958609885939,8.3117176579326,-0.318103936608773,-0.06841691,0.071776666,0.018020526,161.87161,-112.00606,-21.80777,STD
10533669350000,0.119966,-5.24073210709059,8.31274907491387,-0.310081873246493,-0.070554934,0.05589417,0.016187929,161.73134,-112.131905,-21.927977,STD
10533674367000,0.124983,-5.2419341817918,8.31383095218652,-0.301667344313071,-0.07360926,0.062002823,0.016798794,161.58694,-112.25573,-22.045938,STD
10533679344000,0.12996,-5.24312667248104,8.31490420376834,-0.293319903511467,-0.079107046,0.062308256,0.014049901,161.45053,-112.379,-22.163912,STD
10533684382000,0.134998,-5.24433377878854,8.31599060952867,-0.28487015330884,-0.077579886,0.05955936,0.015271631,161.31467,-112.49933,-22.27877,STD
10533689375000,0.139991,-5.24553010308257,8.31706731138682,-0.276495877254509,-0.07269296,0.074830994,0.018936822,161.17455,-112.61788,-22.391684,STD
10533694363000,0.144979,-5.24672522937511,8.31814293503361,-0.268129987216655,-0.07574729,0.09101892,0.018936822,161.03632,-112.73513,-22.503613,STD
10533699399000,0.150015,-5.247931856482,8.31922890950941,-0.259683591420619,-0.07696902,0.09437868,0.0067195175,160.89865,-112.85341,-22.616331,STD
10533704376000,0.154992,-5.24912434717125,8.32030216109122,-0.251336150619016,-0.081855945,0.09437868,0.004276057,160.75877,-112.96705,-22.724491,STD
10533709362000,0.159978,-5.25031899426318,8.32137735345347,-0.242973614987753,-0.07849618,0.102319926,0.016798794,160.61697,-113.07855,-22.830084,STD
10533714359000,0.164975,-5.25151627695841,8.32245491788071,-0.23459263012024,-0.081855945,0.1001819,0.020463986,160.4796,-113.19118,-22.937504,STD
10533719380000,0.169996,-5.25271931006082,8.32353765772244,-0.226171392373636,-0.0888809,0.100792766,0.02443461,160.34074,-113.298645,-23.039621,STD
10533724366000,0.174982,-5.25391395715276,8.32461285008469,-0.217808856742374,-0.090713486,0.1020145,0.027794369,160.204,-113.403885,-23.1395,STD
10533729367000,0.179983,-5.25511219824918,8.325691277081,-0.209421163061679,-0.100792766,0.09437868,0.022907447,160.0713,-113.5083,-23.239397,STD
10533734680000,0.185296,-5.25638519463897,8.32683698446581,-0.200510181952794,-0.09468412,0.09040806,0.018936822,159.93875,-113.61077,-23.336685,STD
10533739412000,0.190028,-5.2575189832549,8.32785740369128,-0.192573655958584,-0.09590584,0.08093964,0.025350908,159.81187,-113.709595,-23.43133,STD
10533744333000,0.194949,-5.25869805632739,8.32891857930593,-0.184320138541528,-0.10170906,0.08124508,0.023518313,159.6844,-113.81056,-23.528004,STD
10533749362000,0.199978,-5.25990300623219,8.33000304428582,-0.175885483168559,-0.09254608,0.07666359,0.014966198,159.56279,-113.91085,-23.623728,STD
10533754379000,0.204995,-5.2611050809334,8.33108492155847,-0.167470954235137,-0.102319926,0.06078109,0.007941248,159.44597,-114.00886,-23.718458,STD
10533759381000,0.209997,-5.26230356163013,8.33216356419706,-0.159081583351147,-0.10476339,0.05467244,0.023823744,159.32915,-114.10211,-23.807636,STD
10533764357000,0.214973,-5.26349581271907,8.3332366001366,-0.150735819752839,-0.09896017,0.05681047,0.014049901,159.21521,-114.203125,-23.904886,STD
10533769382000,0.219998,-5.26469980422268,8.33432020254742,-0.142307873193053,-0.093767814,0.04428773,0.0125227375,159.10945,-114.29587,-23.994352,STD
10533774369000,0.224985,-5.26589469091491,8.33539561055194,-0.133943660358495,-0.092240654,0.044898596,0.013744468,158.99992,-114.38932,-24.084185,STD
10533780714000,0.23133,-5.2674149548135,8.33676386076022,-0.123301805448675,-0.08460484,0.04642576,0.016493361,158.8951,-114.48189,-24.172884,STD
10533784509000,0.235125,-5.26832423794906,8.33758222317794,-0.116936818942329,-0.08124508,0.046120327,0.01985312,158.79178,-114.57245,-24.259752,STD
10533789386000,0.240002,-5.26949276860838,8.33863391053268,-0.108757098470274,-0.07238753,0.05131268,0.027794369,158.941,-114.79797,-24.480247,STD
10533794364000,0.24498,-5.27068549889792,8.33970737775676,-0.100407980465375,-0.06566802,0.0571159,0.022907447,159.08595,-115.01954,-24.69704,STD
10533799353000,0.249969,-5.27188086479075,8.34078321704583,-0.0920404132242262,-0.064446285,0.059864793,0.024740042,159.22675,-115.23064,-24.903412,STD
10533804359000,0.254975,-5.27308030388868,8.3418627222535,-0.0836443335270541,-0.064446285,0.06780604,0.018020526,159.36003,-115.43943,-25.10732,STD
10533809365000,0.259981,-5.2742797429866,8.34294222746117,-0.075248253829882,-0.05681047,0.06719518,0.014049901,159.4916,-115.64117,-25.304157,STD
10533814355000,0.264971,-5.27547534847973,8.3440182823925,-0.0668790093854375,-0.050701816,0.08246681,0.02107485,159.61218,-115.83562,-25.493502,STD
10533819377000,0.269993,-5.27667862118244,8.3451012378765,-0.0584560944355377,-0.05955936,0.07849618,0.016798794,159.73518,-116.02817,-25.682,STD
10533824368000,0.274984,-5.27787446627587,8.34617750845011,-0.0500851727877978,-0.05131268,0.07391469,0.022602014,159.85065,-116.21126,-25.85988,STD
10533829356000,0.279972,-5.27906959256841,8.3472531320969,-0.0417192827499444,-0.058643065,0.081855945,0.023518313,159.95988,-116.39032,-26.034897,STD
10533834431000,0.285047,-5.28028556408698,8.34834751662126,-0.0332074760253841,-0.0571159,0.081855945,0.021685716,160.06993,-116.563934,-26.204176,STD
10533839433000,0.290049,-5.2814840447837,8.34942615925984,-0.0248181051413939,-0.058337633,0.071776666,0.022602014,160.17764,-116.73088,-26.367502,STD
10533844394000,0.29501,-5.28267270186816,8.35049596056533,-0.0164974995925184,-0.062308256,0.073303826,0.02687807,160.27863,-116.8923,-26.525293,STD
10533849365000,0.299981,-5.2838637549556,8.35156791829352,-0.00816012201068803,-0.062002823,0.061391957,0.023823744,160.38391,-117.05078,-26.68073,STD
10533854379000,0.304995,-5.28506511085592,8.35264914863935,0.000249375312847966,-0.0571159,0.056199603,0.024129177,160.48378,-117.20241,-26.829245,STD
10533859368000,0.309984,-5.28626047674875,8.35372498792842,0.00861694255399686,-0.055283304,0.043676864,0.021685716,160.58667,-117.35091,-26.975378,STD
10533864354000,0.31497,-5.28745512384069,8.35480018029067,0.0169794781852594,-0.070249505,0.04428773,0.02565634,160.68427,-117.49244,-27.11504,STD
10533869378000,0.319994,-5.288658875744,8.35588356705921,0.0254057475417502,-0.06780604,0.02107485,0.030543262,160.79051,-117.630844,-27.251698,STD
10533874376000,0.324992,-5.28985639803952,8.35696134712872,0.0337884096125585,-0.06169739,0.031154128,0.024129177,160.8828,-117.76657,-27.385506,STD
10533879346000,0.329962,-5.29104721152667,8.35803308921463,0.0421241099910933,-0.06658431,0.035430185,0.02565634,160.98178,-117.894135,-27.512283,STD
10533884402000,0.335018,-5.29225863063956,8.35912337653584,0.0506040498530394,-0.071776666,0.025045475,0.02107485,161.07907,-118.02145,-27.638798,STD
10533889378000,0.339994,-5.2934508817285,8.36019641247539,0.0589498134513471,-0.06261369,0.019547688,0.021991149,161.1709,-118.143295,-27.759268,STD
10533894360000,0.344976,-5.29464457041924,8.36127074226856,0.0673056402694277,-0.06627888,0.020463986,0.024740042,161.26117,-118.26129,-27.876865,STD
10533899359000,0.349975,-5.29584233231507,8.36234873798033,0.0756899795435315,-0.062002823,0.025045475,0.022602014,161.34921,-118.37744,-27.991978,STD
10533904376000,0.354992,-5.29704440701628,8.36343061525298,0.0841045084769539,-0.05467244,0.03359759,0.01740966,161.43307,-118.49006,-28.103521,STD
10533909363000,0.359979,-5.29823929370852,8.3645060232575,0.0924687213115119,-0.06841691,0.03481932,0.024129177,161.51555,-118.59566,-28.20892,STD
10533914355000,0.364971,-5.29943537840225,8.36558250947338,0.100841320162547,-0.06414085,0.028710667,0.0143553335,161.59465,-118.70512,-28.317142,STD
10533919938000,0.370554,-5.30077306687282,8.36678644027131,0.110205146161211,-0.05955936,0.03634648,0.017715093,161.66711,-118.805115,-28.41615,STD
10533924386000,0.375002,-5.30183880900378,8.36774561709186,0.117665346419506,-0.06352998,0.037873644,0.022296581,161.74098,-118.90411,-28.514727,STD
10533929344000,0.37996,-5.30302674728733,8.36881477147053,0.125980920358495,-0.052534413,0.045814894,0.026572637,161.80818,-119.00003,-28.609049,STD
10533934454000,0.38507,-5.30425110481637,8.36991670347436,0.134551429198397,-0.06566802,0.04153884,0.027794369,161.87679,-119.09129,-28.700296,STD
10533939460000,0.390076,-5.3054505439143,8.37099620868203,0.142947508895569,-0.06719518,0.036957346,0.03390302,161.94118,-119.17814,-28.785973,STD
10533944532000,0.395148,-5.30666579663197,8.37208994627958,0.151454284010243,-0.067500606,0.035124753,0.029932396,162.00388,-119.26422,-28.871542,STD
10533949384000,0.4,-5.30782833728381,8.37313624257754,0.159592074399911,-0.07574729,0.032375857,0.025045475,162.06657,-119.34581,-28.953188,STD
10533954376000,0.404992,-5.30902442197754,8.37421272879342,0.167964673250946,-0.07819075,0.03268129,0.03359759,162.12724,-119.4224,-29.029583,STD
10533959363000,0.409979,-5.31021930866977,8.37528813679794,0.176328886085504,-0.07941248,0.030848695,0.023518313,162.18695,-119.50284,-29.11033,STD
10533964360000,0.414976,-5.311416591365,8.37636570122517,0.184709870953017,-0.0720821,0.018936822,0.026267206,162.24867,-119.57513,-29.18287,STD
10533969394000,0.42001,-5.3126227392713,8.37745124441642,0.193152912342463,-0.07666359,0.0076358155,0.026267206,162.30862,-119.64812,-29.256765,STD
10533974364000,0.42498,-5.31381355275845,8.37852298650234,0.201488612720998,-0.06841691,0.013439035,0.02321288,162.36505,-119.71979,-29.32832,STD
10533980267000,0.430883,-5.31492838560046,8.37972596185683,0.21039032819226,-0.062002823,0.019242255,0.025350908,162.42348,-119.787445,-29.396418,STD
10533984480000,0.435096,-5.31291165786606,8.37992763884196,0.20736523448481,-0.06169739,0.007941248,0.023518313,162.48366,-119.854996,-29.464613,STD
10533989884000,0.4405,-5.31032480842939,8.38018632918795,0.203484957628635,-0.0580322,0.0061086523,0.018936822,162.62642,-119.94565,-29.562124,STD
10533994376000,0.444992,-5.30817452573702,8.3804013619478,0.200259531344783,-0.059864793,0.006414085,0.021380283,162.77,-120.03217,-29.655725,STD
10533999382000,0.449998,-5.30577819555938,8.38064099997001,0.196665033576091,-0.057726767,0.008552114,0.009773844,162.91068,-120.12186,-29.751966,STD
10534004379000,0.454995,-5.30338617360618,8.38088020716078,0.193076998148574,-0.056199603,0.013133603,0.020463986,163.04878,-120.202,-29.838444,STD
10534009365000,0.459981,-5.30099941726065,8.38111888777979,0.189496861138047,-0.047647487,0.015271631,0.018936822,163.18394,-120.286835,-29.929075,STD
10534014362000,0.464978,-5.29860739530745,8.38135809497056,0.18590882571053,-0.042455133,0.017104227,0.0143553335,163.3157,-120.367096,-30.01492,STD
10534019396000,0.470012,-5.29619766176485,8.38159907335726,0.182294222880407,-0.040011674,0.018936822,0.017715093,163.44478,-120.44347,-30.09641,STD
10534024370000,0.474986,-5.29381664971859,8.38183717953435,0.178722702324779,-0.03756821,0.022907447,0.013133603,163.57002,-120.52128,-30.178923,STD
10534029349000,0.479965,-5.29143324421429,8.38207552506223,0.17514759157961,-0.041233405,0.034208454,0.01863139,163.69049,-120.592865,-30.254993,STD
10534034423000,0.485039,-5.28900436300747,8.38231841825534,0.171504267233158,-0.03970624,0.036957346,0.011911872,163.80992,-120.66728,-30.333616,STD
10534039380000,0.489996,-5.2866314887185,8.3825557106397,0.16794495332197,-0.031154128,0.03268129,0.017715093,163.92642,-120.734566,-30.404734,STD
10534044368000,0.494984,-5.28424377498975,8.38279448699903,0.164363380235627,-0.035124753,0.048258353,0.021380283,164.0332,-120.80179,-30.475609,STD
10534049359000,0.499975,-5.28185462518619,8.38303340696884,0.160779653035559,-0.03359759,0.041233405,0.021991149,164.14696,-120.866684,-30.544151,STD
10534054375000,0.504991,-5.27945350809249,8.38327352369265,0.157177974887785,-0.040317107,0.029626964,0.016493361,164.25514,-120.92981,-30.611067,STD
10534059407000,0.510023,-5.2770447319331,8.38351440633904,0.153564808133479,-0.03726278,0.028710667,0.014660766,164.3603,-120.990204,-30.674639,STD
10534064359000,0.514975,-5.27467425110216,8.3837514593726,0.150009084411832,-0.044593163,0.02565634,0.02321288,164.46817,-121.046585,-30.735077,STD
10534069378000,0.519994,-5.27227169793364,8.38399171970689,0.146405252150333,-0.042760566,0.020463986,0.019242255,164.57468,-121.105576,-30.797646,STD
10534074368000,0.524984,-5.26988302682168,8.38423059180654,0.142822242988174,-0.04062254,0.01282817,0.022296581,164.68146,-121.158035,-30.853962,STD
10534079341000,0.529957,-5.26750249346702,8.38446865011347,0.139251440470454,-0.03940081,0.013439035,0.018936822,164.78497,-121.211655,-30.911243,STD
10534084469000,0.535085,-5.2650477629135,8.38471412829523,0.135569342076956,-0.033292156,-0.002443461,0.022907447,164.89476,-121.2608,-30.964216,STD
10534089397000,0.540013,-5.26268877068109,8.38495003244494,0.132030851265108,-0.04062254,-0.011301007,0.016187929,164.99966,-121.31172,-31.019169,STD
10534094366000,0.544982,-5.26031015209285,8.38518789927123,0.128462920899021,-0.031154128,-0.012217305,0.020158553,165.10553,-121.35759,-31.068274,STD
10534099372000,0.549988,-5.25791382191521,8.38542753729344,0.12486842313033,-0.03268129,-0.01740966,0.015882496,165.21329,-121.4053,-31.120094,STD
10534104375000,0.554991,-5.25551892781238,8.38566703170517,0.121276079475363,-0.028405234,-0.011301007,0.015577064,165.31573,-121.4496,-31.167618,STD
10534109371000,0.559987,-5.25312738455079,8.38590619102578,0.117688762085753,-0.03390302,-0.004276057,0.013439035,165.41737,-121.49356,-31.215206,STD
10534114356000,0.564972,-5.25074110689686,8.38614482377463,0.114109343113135,-0.023518313,-0.018325957,0.014660766,165.5221,-121.53573,-31.260519,STD
10534119377000,0.569993,-5.24833759634513,8.38638517984925,0.11050407477582,-0.01985312,-0.01038471,0.008246681,165.61494,-121.57866,-31.306326,STD
10534124365000,0.574981,-5.24594988261639,8.38662395620858,0.106922501689476,-0.02687807,-0.0076358155,0.00580322,165.71239,-121.61853,-31.349415,STD
10534129426000,0.580042,-5.24352722440044,8.3868662270896,0.103288511835831,-0.034208454,0.0030543262,0.004581489,165.80247,-121.65843,-31.392006,STD
10534134440000,0.585056,-5.24112706468995,8.3871062480731,0.0996882697638732,-0.029321533,0.008246681,0.007941248,165.89171,-121.69638,-31.432453,STD
10534139448000,0.590064,-5.23872977712909,8.38734598183563,0.096092335919365,-0.025350908,0.006414085,0.0076358155,165.9778,-121.733986,-31.472702,STD
10534144328000,0.594944,-5.23639376209375,8.38757958821765,0.0925883109271126,-0.032986723,-0.00061086525,0.0018325958,166.06216,-121.770584,-31.51212,STD
10534149375000,0.599991,-5.23397780556028,8.38782118891644,0.0889643736041827,-0.03023783,0.004276057,0.014049901,166.14194,-121.8013,-31.54486,STD
10534154386000,0.605002,-5.2315790819246,8.38806106628945,0.0853662856459498,-0.037873644,0.004886922,0.011911872,166.2233,-121.835754,-31.582169,STD
10534159370000,0.609986,-5.22919328296228,8.38829965116814,0.0817875847112395,-0.03726278,0.0012217305,0.020158553,166.30339,-121.86294,-31.611725,STD
10534164348000,0.614964,-5.22681035614959,8.38853794882586,0.0782131920039788,-0.04550946,0.00061086525,0.02107485,166.38045,-121.89106,-31.642645,STD
10534169374000,0.61999,-5.22440445213984,8.38877854425128,0.0746043334771221,-0.03848451,-0.0021380284,0.0143553335,166.45789,-121.918434,-31.672337,STD
10534174366000,0.624982,-5.22201482364467,8.38901751209125,0.0710198882391459,-0.05497787,-0.00030543262,0.021380283,166.5328,-121.93951,-31.696619,STD
10534180363000,0.630979,-5.2194251015927,8.38910939378897,0.0665819369250325,-0.04520403,-0.012217305,0.018020526,166.6113,-121.96548,-31.72498,STD
10534184462000,0.635078,-5.22001678990419,8.38753154044304,0.0624401012392417,-0.039095376,-0.016187929,0.015577064,166.68518,-121.98753,-31.749811,STD
10534189386000,0.640002,-5.220727566495,8.38563611475987,0.0574646440748519,-0.030543262,-0.014049901,0.020463986,166.86542,-122.05441,-31.81882,STD
10534194362000,0.644978,-5.22144584925615,8.38372067239604,0.0524366434960534,-0.040317107,-0.02076942,0.021991149,167.04544,-122.11917,-31.886353,STD
10534199363000,0.649979,-5.22216774075304,8.38179560662805,0.0473833816603277,-0.045814894,-0.011301007,0.02107485,167.2151,-122.180466,-31.949575,STD
10534204381000,0.654997,-5.22289208619023,8.37986399694523,0.0423129421698914,-0.0421497,-0.022907447,0.014660766,167.38986,-122.23979,-32.011375,STD
10534209365000,0.659981,-5.22361152374682,8.37794547509207,0.0372768579888762,-0.045814894,-0.021685716,0.0143553335,167.55324,-122.29432,-32.06828,STD
10534214357000,0.664973,-5.22433211609884,8.37602387374958,0.0322326902056443,-0.03268129,-0.023823744,0.0106901415,167.71745,-122.34941,-32.12536,STD
10534219380000,0.669996,-5.22505718328317,8.37409033938593,0.0271571984638226,-0.025961773,-0.01160644,0.015271631,167.87273,-122.39917,-32.17705,STD
10534224372000,0.674988,-5.2257777756352,8.37216873804344,0.0221130306805907,-0.027488936,-0.018325957,0.004276057,168.03091,-122.45187,-32.23193,STD
10534229350000,0.679966,-5.22649634709521,8.37025252580728,0.017083009201238,-0.022296581,-0.0143553335,0.010079277,168.17833,-122.49637,-32.27767,STD
10534234451000,0.685067,-5.22723267353504,8.36828896642265,0.0119287023378033,-0.027488936,-0.009162978,0.009773844,168.3237,-122.542816,-32.325848,STD
10534239402000,0.690018,-5.22794734756045,8.36638314746298,0.00692596301593203,-0.027794369,-0.009773844,0.0125227375,168.46652,-122.58467,-32.369118,STD
10534244994000,0.69561,-5.22875454957017,8.36423058442067,0.00127552506644626,-0.027488936,0.0036651916,0.01282817,168.59953,-122.62489,-32.410496,STD
10534249368000,0.699984,-5.22938593397477,8.362546873629,-0.00314418444554421,-0.03604105,0.0012217305,0.016187929,168.73512,-122.660995,-32.448345,STD
10534254379000,0.704995,-5.23010926896595,8.36061795849935,-0.00820755078404083,-0.02687807,0.00030543262,0.013744468,168.86256,-122.697174,-32.485405,STD
10534259368000,0.709984,-5.23082942826968,8.35869751196535,-0.0132486872164415,-0.038179077,-0.00030543262,0.011301007,168.98792,-122.72955,-32.51958,STD
10534264352000,0.714968,-5.23154886582627,8.35677899011219,-0.0182847713974567,-0.027183503,-0.002443461,0.01740966,169.1114,-122.75928,-32.550148,STD
10534269372000,0.719988,-5.23227349996232,8.35484661055704,-0.0233572317884471,-0.03176499,-0.0009162979,0.018325957,169.23091,-122.78852,-32.580986,STD
10534274370000,0.724986,-5.23299495841092,8.35292269959755,-0.0284074622733416,-0.03359759,-0.0070249503,0.017104227,169.35114,-122.81532,-32.609123,STD
10534279366000,0.729982,-5.23371612816066,8.3509995585104,-0.0334556718576819,-0.03756821,-0.013744468,0.018020526,169.46854,-122.8394,-32.634705,STD
10534284376000,0.734992,-5.23443931880241,8.34907102831691,-0.0385180277459014,-0.03359759,-0.009468411,0.015271631,169.58156,-122.86346,-32.659966,STD
10534289346000,0.739962,-5.23515673546698,8.34715789557008,-0.0435399656230374,-0.032986723,-0.0076358155,0.017715093,169.69527,-122.88401,-32.682076,STD
10534294338000,0.744954,-5.23587732781901,8.34523629422759,-0.0485841334062693,-0.043676864,-0.0143553335,0.017715093,169.80782,-122.904335,-32.704235,STD
10534299354000,0.74997,-5.23660138455733,8.34330545441711,-0.0536525519961514,-0.035124753,-0.02107485,0.018020526,169.91742,-122.92305,-32.72413,STD
10534304334000,0.75495,-5.2373202447162,8.34138847230861,-0.0586845943760582,-0.037873644,-0.025045475,0.016493361,170.02592,-122.94029,-32.743233,STD
10534309327000,0.759943,-5.23804098141765,8.33946648602996,-0.0637297726095673,-0.04062254,-0.035430185,0.008857546,170.13638,-122.9581,-32.762875,STD
10534314915000,0.765531,-5.23884760602965,8.33731546273231,-0.0693761687579447,-0.04062254,-0.03848451,0.0009162979,170.2433,-122.97516,-32.781654,STD
10534319348000,0.769964,-5.23948750705059,8.33560904070682,-0.0738554948362835,-0.04153884,-0.040011674,0.0036651916,170.3509,-122.98992,-32.798367,STD
10534324338000,0.774954,-5.24020781070375,8.33368820923666,-0.0788976417189612,-0.049785517,-0.031154128,0.00030543262,170.45331,-123.00717,-32.817596,STD
10534329349000,0.779965,-5.24093114569494,8.33175929410701,-0.0839610080574578,-0.043676864,-0.025045475,0.005192355,170.55508,-123.02045,-32.832478,STD
10534334389000,0.785005,-5.24165866681957,8.32981921582853,-0.0890536774539901,-0.024129177,-0.0070249503,-0.005497787,170.64714,-123.038086,-32.851154,STD
10534339482000,0.790098,-5.24239383846397,8.32785873593324,-0.094199900715208,-0.023518313,-0.0027488936,0.0027488936,170.74023,-123.04747,-32.862022,STD
10534344344000,0.79496,-5.24309566539016,8.32598717629237,-0.0991127099624183,-0.022602014,0.01282817,0.0018325958,170.82104,-123.06196,-32.876904,STD
10534349378000,0.799994,-5.24382232041822,8.3240494076309,-0.104199316657288,-0.021380283,0.007941248,0.0015271631,170.90579,-123.07294,-32.88853,STD
10534354295000,0.804911,-5.24453208656303,8.32215667650088,-0.109167700669738,-0.016798794,0.01038471,0.009162978,170.98128,-123.081085,-32.896793,STD
10534359286000,0.809902,-5.24525253456562,8.32023546009456,-0.114210858002693,-0.01863139,0.010079277,0.008857546,171.0576,-123.090515,-32.906635,STD
10534364290000,0.814906,-5.2459748591108,8.31830923951807,-0.11926715118925,-0.02443461,0.0067195175,0.008857546,171.13278,-123.09686,-32.9134,STD
10534369292000,0.819908,-5.24669689495712,8.31638378881392,-0.124321423475253,-0.017104227,0.005192355,0.0021380284,171.20581,-123.10472,-32.921337,STD
10534374284000,0.8249,-5.24741748730914,8.31446218747142,-0.129365591258485,-0.017104227,0.0076358155,0.006414085,171.27739,-123.10831,-32.925358,STD
10534379335000,0.829951,-5.24799762083038,8.31255678460935,-0.134724054613174,-0.016493361,0.002443461,0.0027488936,171.3503,-123.11551,-32.932957,STD
10534384418000,0.835034,-5.24678970231961,8.31110727735125,-0.143179489738212,-0.014049901,-0.009773844,0.006414085,171.42361,-123.11871,-32.936592,STD
10534389288000,0.839904,-5.2456324008938,8.30971851080651,-0.151280605036055,-0.021685716,-0.009468411,0.013439035,171.483,-123.12964,-32.946472,STD
10534394284000,0.8449,-5.24444515696703,8.30829381313555,-0.159591317978154,-0.027794369,-0.01863139,0.009468411,171.54826,-123.14178,-32.957912,STD
10534399290000,0.849906,-5.2432555366513,8.30686626378791,-0.167918665653924,-0.025350908,-0.022907447,0.01160644,171.61069,-123.14932,-32.96467,STD
10534404404000,0.85502,-5.24204025133475,8.30540791633209,-0.176425668453342,-0.017715093,-0.018936822,0.005497787,171.67177,-123.159454,-32.97409,STD
10534409411000,0.860027,-5.24085039338012,8.30398008181678,-0.184754679602479,-0.022907447,-0.025350908,0.0067195175,171.73671,-123.16576,-32.98027,STD
10534414406000,0.865022,-5.23966338709224,8.3025556693135,-0.193063729071211,-0.024129177,-0.028710667,0.004886922,171.79774,-123.17415,-32.98814,STD
10534419411000,0.870027,-5.23847400441541,8.30112840513353,-0.201389413273614,-0.02321288,-0.027794369,0.0106901415,171.8584,-123.17914,-32.99275,STD
10534424405000,0.875021,-5.23728723576643,8.29970427779791,-0.209696799268979,-0.016187929,-0.029321533,0.005497787,171.91945,-123.18713,-33.00037,STD
10534429457000,0.880073,-5.23608668406146,8.29826361073752,-0.218100666719636,-0.024129177,-0.031154128,0.0076358155,171.97932,-123.19028,-33.003544,STD
10534434529000,0.885145,-5.23488137957856,8.29681724032377,-0.226537803637636,-0.026267206,-0.023518313,0.01282817,172.03523,-123.19366,-33.006474,STD
10534439426000,0.890042,-5.23371766190254,8.29542077425198,-0.234683832716391,-0.03481932,-0.01740966,0.013133603,172.091,-123.19675,-33.00961,STD
10534444401000,0.895017,-5.2325354083926,8.29400206510206,-0.24295961271778,-0.032070424,-0.016798794,0.012217305,172.14502,-123.19838,-33.010998,STD
10534449451000,0.900067,-5.23133533196542,8.29256196837702,-0.251360153221703,-0.025350908,-0.011301007,0.0030543262,172.19408,-123.201614,-33.013947,STD
10534454480000,0.905096,-5.23014024595507,8.291127860173,-0.259725760784917,-0.018325957,-0.0070249503,0.01038471,172.24269,-123.2,-33.011967,STD
10534459403000,0.910019,-5.22897034966774,8.28972397974184,-0.267915040171217,-0.032986723,-0.009468411,0.0067195175,172.29031,-123.20314,-33.01525,STD
10534464408000,0.915024,-5.2277809669909,8.28829671556186,-0.27624072437362,-0.028710667,-0.0125227375,0.011911872,172.33621,-123.201935,-33.01339,STD
10534469401000,0.920017,-5.22659443598082,8.28687287339391,-0.284546446895617,-0.033292156,-0.011301007,0.014049901,172.38045,-123.201515,-33.012985,STD
10534474401000,0.925017,-5.22540624149847,8.28544703505228,-0.292863813731185,-0.040011674,-0.0021380284,0.015271631,172.42224,-123.199524,-33.01087,STD
10534479482000,0.930098,-5.2241987982655,8.28399809812952,-0.301315921909488,-0.03848451,-0.008552114,0.016493361,172.46814,-123.19665,-33.008053,STD
10534484533000,0.935149,-5.22299848419943,8.28255771623681,-0.309718125886779,-0.040317107,-0.011301007,0.020158553,172.509,-123.19213,-33.003662,STD
10534489385000,0.940001,-5.22184546027375,8.28117408271009,-0.317789298664013,-0.025961773,-0.011301007,0.024129177,172.55037,-123.18738,-32.9986,STD
10534494367000,0.944983,-5.22066154329153,8.27975337738649,-0.326076722978973,-0.023823744,-0.021380283,0.01863139,172.5952,-123.183624,-32.995186,STD
10534499397000,0.950013,-5.21946621964228,8.27831898401481,-0.334443994015553,-0.028710667,-0.027183503,0.020158553,172.6381,-123.17668,-32.988316,STD
10534504409000,0.955025,-5.21827517349317,8.27688972366116,-0.342781322531526,-0.031154128,-0.034513887,0.027488936,172.68416,-123.16948,-32.98128,STD
10534509402000,0.960018,-5.21708864248309,8.27546588149321,-0.351087045053524,-0.042455133,-0.036651913,0.02321288,172.72937,-123.164474,-32.976875,STD
10534514402000,0.965018,-5.21590044800073,8.27404004315158,-0.359404411889091,-0.03481932,-0.046120327,0.023518313,172.77898,-123.15633,-32.96911,STD
10534519410000,0.970026,-5.21471035240721,8.2726119234686,-0.367735086511596,-0.03176499,-0.035124753,0.026572637,172.82143,-123.147934,-32.961197,STD
10534524420000,0.975036,-5.21351978153589,8.27118323345029,-0.376069088080834,-0.042760566,-0.03390302,0.02321288,172.86934,-123.14085,-32.955135,STD
10534529481000,0.980097,-5.21231709108085,8.26973999988089,-0.384487926791796,-0.04184427,-0.036957346,0.01863139,172.91422,-123.13348,-32.948235,STD
10534534501000,0.985117,-5.21112414382056,8.2683084581859,-0.392838563094705,-0.04062254,-0.040317107,0.015882496,172.95793,-123.12607,-32.941563,STD
10534539488000,0.990104,-5.20993903864386,8.26688632702396,-0.4011343047765,-0.04153884,-0.022296581,0.0125227375,172.99446,-123.11989,-32.93582,STD
10534544342000,0.994958,-5.20878553944039,8.2655021231619,-0.409208804500469,-0.045814894,-0.021991149,0.016798794,173.03746,-123.11204,-32.928837,STD
10534549414000,1.00003,-5.20758023495749,8.26405575274815,-0.417645941418469,-0.032375857,-0.0030543262,0.014966198,173.06708,-123.10719,-32.923706,STD
10534554402000,1.005018,-5.2063948921419,8.26263333641854,-0.425943346573631,-0.03145956,-0.0012217305,0.006414085,173.10172,-123.10242,-32.919434,STD
10534559398000,1.010014,-5.20520764821513,8.26120863874759,-0.43425405951573,-0.018936822,0.0009162979,0.006414085,173.1295,-123.09631,-32.91278,STD
10534564399000,1.015015,-5.20401921609388,8.25978251523829,-0.442573089824664,-0.010079277,0.01740966,0.015577064,173.15132,-123.08978,-32.905502,STD
10534570266000,1.020882,-5.20262498868828,8.25810943652822,-0.452332688069519,-0.023518313,0.022907447,0.0061086523,173.17537,-123.088104,-32.903564,STD
10534574405000,1.025021,-5.20164140129579,8.25692912754902,-0.459217804336002,-0.022296581,0.029932396,0.0067195175,173.19348,-123.08152,-32.895752,STD
10534579364000,1.02998,-5.20046295000819,8.25551498108179,-0.467466968763517,-0.025045475,0.035124753,0.007330383,173.20993,-123.07703,-32.890507,STD
10534584515000,1.035131,-5.19252712867835,8.26672559661217,-0.450065583677368,-0.02321288,0.04795292,0.016187929,173.22144,-123.07008,-32.882412,STD
10534589304000,1.03992,-5.18349358619263,8.28027572168604,-0.427481718030333,-0.026267206,0.04337143,0.019242255,173.2369,-123.06435,-32.876003,STD
10534594374000,1.04499,-5.18452981507692,8.29784575076923,-0.403993910092308,-0.022296581,0.029321533,0.01985312,173.42459,-123.14626,-32.95445,STD
10534599331000,1.049947,-5.18909444946154,8.31610466961538,-0.381170719103846,-0.03145956,0.028710667,0.020463986,173.60509,-123.222946,-33.028072,STD
10534604413000,1.055029,-5.20699825475475,8.33206645795796,-0.357126698408408,-0.02687807,0.025045475,0.024129177,173.89316,-123.33977,-33.14207,STD
10534609383000,1.059999,-5.23082042492493,8.34636005855856,-0.333304518288288,-0.018936822,0.024129177,0.02443461,174.17348,-123.45151,-33.25124,STD
10534614340000,1.064956,-5.24795605672125,8.35727114736739,-0.322463925475047,-0.025961773,0.01282817,0.018936822,174.55467,-123.601395,-33.400238,STD
10534619365000,1.069981,-5.26211144082753,8.3667082343367,-0.317745470675556,-0.015882496,0.0061086523,0.017715093,174.92531,-123.74341,-33.54066,STD
10534624372000,1.074988,-5.27641661482558,8.37624490627506,-0.303804417945068,-0.010079277,-0.002443461,0.01863139,175.39806,-123.92774,-33.725243,STD
10534629430000,1.080046,-5.29098336075581,8.38595579981957,-0.284382012295509,-0.0076358155,-0.004581489,0.022602014,175.85881,-124.10277,-33.900406,STD
10534634447000,1.085063,-5.30210079759423,8.38009342953151,-0.299170042423298,-0.015577064,0.00030543262,0.013133603,176.40532,-124.3177,-34.11616,STD
10534640231000,1.090847,-5.31289119408785,8.36390814463816,-0.336936255509886,-0.022296581,0.00030543262,0.0070249503,176.716246317058,-124.434969815552,-34.2340736443641,STD
10534644401000,1.095017,-5.30498649550894,8.34751382122308,-0.356355322634554,-0.027183503,-0.0015271631,0.009162978,176.94041,-124.519516,-34.319084,STD
10534649399000,1.100015,-5.28792582925302,8.32557850801976,-0.375853213111666,-0.028099801,0.007330383,0.0061086523,177.49947,-124.7325,-34.53382,STD
10534654399000,1.105015,-5.2708583359998,8.3036344171801,-0.395358905865879,-0.02443461,0.003970624,0.005192355,178.06573,-124.94853,-34.75162,STD
10534659401000,1.110017,-5.25378401574927,8.28168154870411,-0.414872400897194,-0.020158553,0.015577064,0.002443461,178.61003,-125.15617,-34.96061,STD
10534664426000,1.115042,-5.23773058047562,8.27228901282506,-0.417235607863242,-0.03359759,0.030848695,0.0027488936,179.0928,-125.33099,-35.137096,STD
10534669476000,1.120092,-5.22214625411336,8.26917208246061,-0.411001870809139,-0.035430185,0.03268129,-0.0021380284,179.57114,-125.50354,-35.310944,STD
10534674399000,1.125015,-5.20695385041408,8.26613353826572,-0.40492490298392,-0.03176499,0.032375857,-0.00061086525,180.01598,-125.65799,-35.466343,STD
10534679400000,1.130016,-5.19152073830761,8.26304685138401,-0.398751651695292,-0.03390302,0.035430185,-0.0027488936,180.45609,-125.81101,-35.620453,STD
10534684500000,1.135116,-5.17578211168434,8.25989906032288,-0.392456194472336,-0.029932396,0.03726278,0.0036651916,180.86562,-125.94477,-35.754963,STD
10534689405000,1.140021,-5.16064525607901,8.2568716259788,-0.386401445907904,-0.028099801,0.03390302,-0.0015271631,181.27449,-126.07976,-35.89089,STD
10534694356000,1.144972,-5.17147023660556,8.26797233550168,-0.359669213041593,-0.03573562,0.03145956,0.0018325958,181.6815,-126.20774,-36.01991,STD
10534699359000,1.149975,-5.21397118018924,8.29630639651094,-0.307723585742164,-0.04153884,0.032986723,0.009162978,182.08682,-126.33348,-36.146584,STD
10534704374000,1.15499,-5.24659457830919,8.31872893530462,-0.279747669577297,-0.03970624,0.03023783,0.009773844,182.48639,-126.44717,-36.26153,STD
10534709470000,1.160086,-5.26596483939274,8.33325693451082,-0.284590234848184,-0.032070424,0.03176499,0.010079277,182.88222,-126.55654,-36.372025,STD
10534714353000,1.164969,-5.28067844515103,8.35297227573529,-0.277659833094197,-0.03145956,0.039095376,0.019242255,183.27167,-126.660416,-36.477924,STD
10534719440000,1.170056,-5.2903599200318,8.38201680147059,-0.253456135782989,-0.032986723,0.026572637,0.020158553,183.66574,-126.76442,-36.584145,STD
10534724298000,1.174914,-5.302399225,8.38922255379747,-0.244238889683544,-0.032375857,0.032070424,0.015882496,184.05777,-126.8698,-36.691322,STD
10534729370000,1.179986,-5.31947848055556,8.36360351441632,-0.257048373706048,-0.03481932,0.013439035,0.018325957,184.46083,-126.9704,-36.794502,STD
10534734356000,1.184972,-5.3322216908047,8.33882430301649,-0.273299889656429,-0.035430185,0.0061086523,0.011911872,184.84444,-127.06614,-36.892315,STD
10534739383000,1.189999,-5.31467227025426,8.31688701193839,-0.317173583051126,-0.034208454,0.004581489,0.015577064,185.23055,-127.15601,-36.984463,STD
10534744305000,1.194921,-5.29748940811993,8.29540792964549,-0.360130877439169,-0.03970624,0.004581489,0.00580322,185.61668,-127.25697,-37.08768,STD
10534749362000,1.199978,-5.28612917071381,8.27382384422949,-0.413144342411608,-0.03145956,0.0061086523,0.0061086523,186.00052,-127.35184,-37.18437,STD
10534754377000,1.204993,-5.27240551668009,8.25355132930649,-0.465205713183893,-0.034513887,0.007330383,0.00030543262,186.38133,-127.4482,-37.282936,STD
10534759373000,1.209989,-5.23815356657718,8.24070702684564,-0.508020682107382,-0.0290161,0.0125227375,0.00030543262,186.75403,-127.542,-37.37737,STD
10534764329000,1.214945,-5.20417585146309,8.22796556107382,-0.550492857044295,-0.036957346,0.018020526,0.004276057,187.12799,-127.63816,-37.473793,STD
10534769340000,1.219956,-5.18252846226572,8.23531561890879,-0.55987424789671,-0.034208454,0.03604105,0.0061086523,187.4923,-127.73233,-37.567493,STD
10534774715000,1.225331,-5.16152752183052,8.24637293694468,-0.56373145258909,-0.035430185,0.04795292,0.0061086523,187.682702807409,-127.780815502327,-37.6160092553336,STD
10534779652000,1.230268,-5.15249309955097,8.2644413098309,-0.532111611369065,-0.036651913,0.03604105,-0.0033597588,187.85759,-127.82535,-37.660572,STD
10534784410000,1.235026,-5.14378623683959,8.28185458068214,-0.501638205550779,-0.03848451,0.04886922,0.00030543262,188.21065,-127.90985,-37.743675,STD
10534789377000,1.239993,-5.15003970834777,8.30217339002425,-0.468815706918947,-0.032070424,0.060170226,0.004886922,188.55843,-127.989136,-37.8213,STD
10534794382000,1.244998,-5.15834121250433,8.32292671700727,-0.435610362075684,-0.03756821,0.06078109,0.006414085,188.90193,-128.06511,-37.895912,STD
10534799363000,1.249979,-5.15081664219117,8.35675656543915,-0.415838373169438,-0.03573562,0.06963864,0.012217305,189.21545,-128.12561,-37.954052,STD
10534804394000,1.25501,-5.13115678953382,8.40099169580741,-0.406008539218607,-0.036957346,0.07666359,0.015577064,189.52666,-128.18402,-38.010334,STD
10534809362000,1.259978,-5.15028253790215,8.39725419854969,-0.384431858257584,-0.04886922,0.09285152,0.021685716,189.82515,-128.23412,-38.05858,STD
10534814420000,1.265036,-5.1948088490859,8.36262257726483,-0.354747767897048,-0.052534413,0.08827003,0.027794369,190.12634,-128.28159,-38.104305,STD
10534819451000,1.270067,-5.21909555803767,8.35563219798511,-0.340108773946562,-0.063224554,0.06994407,0.02076942,190.41287,-128.31686,-38.138016,STD
10534824403000,1.275019,-5.23294414284324,8.36255636988368,-0.333184500824451,-0.047036625,0.042455133,0.026267206,190.70284,-128.34613,-38.165394,STD
10534829432000,1.280048,-5.2470080630749,8.36958820762155,-0.326152560289093,-0.032375857,0.04062254,0.0290161,190.99054,-128.38733,-38.20548,STD
10534834372000,1.284988,-5.26082308911277,8.37649560042829,-0.319245066504113,-0.040927973,0.04337143,0.03145956,191.28416,-128.4253,-38.242966,STD
10534839369000,1.289985,-5.27645678199858,8.36786084929277,-0.318666854029714,-0.021685716,0.04917465,0.02321288,191.57455,-128.46504,-38.281116,STD
10534844367000,1.294983,-5.29350435120586,8.34594227719548,-0.323537607706319,-0.02565634,0.04184427,0.025350908,191.86644,-128.49878,-38.31427,STD
10534849375000,1.299991,-5.31058602919508,8.32397985041213,-0.32841810678844,-0.03756821,0.019242255,0.024740042,192.15971,-128.53668,-38.351814,STD
10534854383000,1.304999,-5.32766770718429,8.30201742362878,-0.333298605870561,-0.043982297,0.012217305,0.022296581,192.44733,-128.57292,-38.38749,STD
10534859391000,1.310007,-5.33139396516357,8.27330213704686,-0.361175171618037,-0.052839845,0.010995574,0.013439035,192.7436,-128.60977,-38.424843,STD
10534864389000,1.315005,-5.32669165193045,8.24038623902151,-0.403496020176835,-0.052839845,0.013744468,0.01160644,193.03798,-128.64369,-38.45924,STD
10534869436000,1.320052,-5.30944141191687,8.23063963760675,-0.439417861924273,-0.064446285,0.014966198,0.008246681,193.33426,-128.6911,-38.5076,STD
10534874405000,1.325021,-5.28360060047391,8.23768704689737,-0.469957085229797,-0.040011674,0.03359759,-0.0033597588,193.61945,-128.74025,-38.556328,STD
10534879410000,1.330026,-5.25757257445821,8.24478551409389,-0.50071756271906,-0.04184427,0.047036625,0.0030543262,193.90598,-128.78886,-38.60477,STD
10534884496000,1.335112,-5.23112331565385,8.25199886157871,-0.531975862121736,-0.03359759,0.04520403,0.0009162979,194.18718,-128.84175,-38.656536,STD
10534889381000,1.339997,-5.20693053617021,8.27260835319149,-0.533448523191489,-0.044898596,0.034513887,-0.0015271631,194.4536,-128.88701,-38.700813,STD
10534895092000,1.345708,-5.17986813894112,8.31049593537853,-0.506386097704107,-0.048258353,0.04520403,0.0076358155,194.70988,-128.92789,-38.739876,STD
10534899388000,1.350004,-5.17383605929143,8.32932539966816,-0.500354031470818,-0.046731193,0.059253927,0.015271631,194.96378,-128.95993,-38.76917,STD
10534904404000,1.35502,-5.17852439885809,8.34339085896935,-0.505042415097599,-0.050396383,0.062308256,0.015271631,195.21465,-128.98944,-38.796143,STD
10534909390000,1.360006,-5.17665736904427,8.35537139979879,-0.494384813681087,-0.043676864,0.06841691,0.0070249503,195.45268,-129.00732,-38.811165,STD
10534914393000,1.365009,-5.16701693030181,8.36501198953722,-0.465463643416499,-0.043066,0.065973446,0.011911872,195.69035,-129.01982,-38.821175,STD
10534919329000,1.369945,-5.16606224152724,8.37325237952238,-0.441783461073931,-0.05131268,0.063224554,0.01282817,195.92282,-129.03345,-38.83218,STD
10534924402000,1.375018,-5.17532545392535,8.38019967395967,-0.423257067713428,-0.047647487,0.062002823,0.017715093,196.15323,-129.04358,-38.839355,STD
10534929357000,1.379973,-5.1843732003146,8.38698537156204,-0.405161605639449,-0.04428773,0.0571159,0.017715093,196.38255,-129.04758,-38.841553,STD
10534934491000,1.385107,-5.1937477976834,8.3940162033462,-0.386412442715573,-0.047036625,0.051618114,0.02076942,196.61015,-129.0482,-38.840466,STD
10534939436000,1.390052,-5.2090252368962,8.39130089619733,-0.372235613751285,-0.044593163,0.04520403,0.019242255,196.8371,-129.04933,-38.839767,STD
10534944325000,1.394941,-5.23964724150238,8.36505341147342,-0.367861048190227,-0.042455133,0.03481932,0.020463986,197.065,-129.04773,-38.836605,STD
10534949366000,1.399982,-5.26752630836544,8.34026973116383,-0.366177151685623,-0.04795292,0.033292156,0.022296581,197.29274,-129.04446,-38.832947,STD
10534954411000,1.405027,-5.26976921498538,8.33129782363864,-0.384120601376909,-0.03634648,0.032986723,0.0125227375,197.52077,-129.0438,-38.83153,STD
10534959556000,1.410172,-5.27205657961562,8.32214807850146,-0.402419719050183,-0.031154128,0.03604105,0.014660766,197.74893,-129.04756,-38.83503,STD
10534965243000,1.415859,-5.27458490666171,8.31203445350727,-0.422646557185832,-0.04917465,0.03634648,0.01740966,197.9749,-129.05243,-38.839985,STD
10534969423000,1.420039,-5.2764432514925,8.30460084132584,-0.437513478832923,-0.042455133,0.037873644,0.015271631,198.1962,-129.05774,-38.844437,STD
10534974402000,1.425018,-5.26712416065212,8.2992123032606,-0.457986891076244,-0.04062254,0.040317107,0.0143553335,198.41415,-129.06024,-38.846603,STD
10534979330000,1.429946,-5.25555405268448,8.29458416342241,-0.47881310958078,-0.048258353,0.03573562,0.015271631,198.63116,-129.06169,-38.84789,STD
10534984494000,1.43511,-5.24342985675411,8.28973438377053,-0.500636687575386,-0.049785517,0.03390302,0.012217305,198.8439,-129.06818,-38.853226,STD
10534989362000,1.439978,-5.2320006186075,8.28516259303751,-0.52120934010787,-0.048258353,0.06078109,0.015882496,199.04498,-129.0712,-38.854626,STD
10534994366000,1.444982,-5.21994888267621,8.29112740401888,-0.521331700220734,-0.05222898,0.058337633,0.013744468,199.25421,-129.0754,-38.85805,STD
10534999322000,1.449938,-5.20790681112803,8.30076126244482,-0.514106444717613,-0.047036625,0.06658431,0.0106901415,199.447,-129.07803,-38.85876,STD
10535004399000,1.455015,-5.19557073420105,8.31063033008576,-0.506704785680215,-0.04642576,0.06047566,0.004886922,199.63127,-129.07837,-38.856247,STD
10535009350000,1.459966,-5.18354081163546,8.32025446912265,-0.499486819579337,-0.047647487,0.06536258,0.017104227,199.80661,-129.07358,-38.848064,STD
10535014409000,1.465025,-5.2001315920707,8.3184291418979,-0.471283481179026,-0.048258353,0.0580322,0.017104227,199.98962,-129.07315,-38.844913,STD
10535019367000,1.469983,-5.22357475115039,8.3137404121655,-0.438463033988348,-0.036957346,0.06505715,0.01863139,200.1636,-129.06824,-38.8365,STD
10535024405000,1.475021,-5.2400441560507,8.31637057555952,-0.427253801762725,-0.042760566,0.055588737,0.019242255,200.34209,-129.05421,-38.820335,STD
10535029381000,1.479997,-5.25420161027926,8.3210898419489,-0.42253463392751,-0.044593163,0.062308256,0.014660766,200.50984,-129.04108,-38.80408,STD
10535034671000,1.485287,-5.26902641314691,8.32603114156714,-0.413806576353044,-0.045814894,0.054367006,0.015271631,200.68564,-129.02885,-38.790203,STD
10535039413000,1.490029,-5.28225488494029,8.33044024847073,-0.404987616644334,-0.03573562,0.04520403,0.020463986,200.85727,-129.01631,-38.77558,STD
10535044396000,1.495012,-5.28973611335459,8.32514398245964,-0.395548646318517,-0.0421497,0.04428773,0.01740966,201.0228,-129.00798,-38.765266,STD
10535049429000,1.500045,-5.29453978431333,8.3155369414989,-0.385941294369145,-0.047647487,0.032070424,0.01985312,201.19406,-128.99637,-38.751816,STD
10535054414000,1.50503,-5.29926178377779,8.312668,-0.389647200093656,-0.04917465,0.023518313,0.020158553,201.36258,-128.98697,-38.740837,STD
10535059409000,1.510025,-5.30397774629073,8.312668,-0.399079085724848,-0.037873644,0.023518313,0.021380283,201.5303,-128.9763,-38.728428,STD
10535064394000,1.51501,-5.30868426743728,8.312668,-0.408492088702125,-0.036957346,0.01282817,0.018325957,201.70479,-128.9679,-38.719376,STD
10535069415000,1.520031,-5.31342477750283,8.312668,-0.417973069233499,-0.041233405,0.0143553335,0.014966198,201.8726,-128.95888,-38.7092,STD
10535074403000,1.525019,-5.30668050604857,8.30703623935728,-0.427011143032598,-0.04153884,0.0061086523,0.016798794,202.05019,-128.94885,-38.698685,STD
10535079398000,1.530014,-5.29342823460153,8.29820123797211,-0.435845959913196,-0.04520403,0.0125227375,0.016493361,202.21931,-128.93958,-38.688725,STD
10535084428000,1.535044,-5.2814736147116,8.2836662294232,-0.450380934845539,-0.034208454,0.014966198,0.014660766,202.38968,-128.93266,-38.68046,STD
10535089375000,1.539991,-5.27123896743357,8.26319693486714,-0.470850362988766,-0.036651913,0.011301007,0.0106901415,202.55753,-128.92535,-38.672264,STD
10535094367000,1.544983,-5.25298870686637,8.25805811816767,-0.504499892525773,-0.047036625,0.009468411,0.008552114,202.72107,-128.91675,-38.662327,STD
10535099410000,1.550026,-5.22950309978603,8.2627553376775,-0.546774009793814,-0.04734206,0.021380283,0.0061086523,202.87857,-128.909,-38.652744,STD
10535104718000,1.555334,-5.19487761613068,8.27702503215927,-0.571152160816743,-0.043982297,0.037873644,0.013744468,203.02295,-128.89886,-38.639854,STD
10535109406000,1.560022,-5.15820879326187,8.2953592042879,-0.580319313886677,-0.040927973,0.051618114,0.0106901415,203.16174,-128.89192,-38.62995,STD
10535114384000,1.565,-5.13422187520759,8.30593210092922,-0.58134418653618,-0.04428773,0.048563786,0.017715093,203.30467,-128.87769,-38.61216,STD
10535119435000,1.570051,-5.11987655587189,8.31071397390273,-0.576562393451957,-0.053450707,0.043982297,0.013439035,203.44096,-128.86691,-38.59763,STD
10535124398000,1.575014,-5.13880080556492,8.31542206437853,-0.558084341559369,-0.048258353,0.046120327,0.01985312,203.57024,-128.84216,-38.568188,STD
10535129406000,1.580022,-5.18161878330523,8.32017968921734,-0.529539158851304,-0.057421334,0.04428773,0.020463986,203.70079,-128.81937,-38.54164,STD
10535134430000,1.585046,-5.21515706539462,8.31663840849957,-0.510295098976583,-0.05009095,0.051923547,0.023823744,203.82391,-128.78966,-38.507404,STD
10535139405000,1.590021,-5.24125533130278,8.30685146368741,-0.498333381751495,-0.044593163,0.04734206,0.028405234,203.9508,-128.75906,-38.472992,STD
10535144309000,1.594925,-5.26698113954672,8.29720419185649,-0.486542374460675,-0.03848451,0.045814894,0.029321533,204.07455,-128.73373,-38.44423,STD
10535149409000,1.600025,-5.2937351407792,8.28717134390834,-0.474280111576665,-0.04886922,0.032070424,0.027183503,204.203,-128.70752,-38.415394,STD
10535154361000,1.604977,-5.31971275138768,8.2774296452732,-0.462373694752819,-0.044898596,0.022907447,0.025045475,204.32887,-128.68166,-38.386158,STD
10535159405000,1.610021,-5.34617298319487,8.26750696192998,-0.450246076324006,-0.046120327,0.017104227,0.027183503,204.457,-128.6546,-38.356514,STD
10535164363000,1.614979,-5.37218206909892,8.25775345994431,-0.438325233308532,-0.039095376,0.006414085,0.027488936,204.58702,-128.62952,-38.328606,STD
10535169429000,1.620045,-5.39875771032318,8.24778749764915,-0.426144718843749,-0.03573562,0.0015271631,0.020463986,204.71524,-128.60567,-38.302094,STD
10535174308000,1.624924,-5.42435237150226,8.23818940644543,-0.414413820684713,-0.032070424,-0.0030543262,0.020463986,204.84615,-128.5808,-38.274475,STD
10535179427000,1.630043,-5.4188941383075,8.22861639183595,-0.422957949457976,-0.02443461,-0.02107485,0.014049901,204.98155,-128.55984,-38.25102,STD
10535184404000,1.63502,-5.40512777643208,8.21943910474632,-0.43672432091653,-0.01985312,-0.02076942,0.015882496,205.11053,-128.53642,-38.224697,STD
10535189395000,1.640011,-5.38719087488519,8.19217550443923,-0.444065160783753,-0.030543262,-0.031154128,0.008552114,205.2513,-128.53897,-38.22707,STD
10535194301000,1.644917,-5.36801196458822,8.15861203592203,-0.448859928411062,-0.018936822,-0.029321533,0.0015271631,205.38551,-128.54115,-38.22781,STD
10535199407000,1.650023,-5.34243529493778,8.16357986305792,-0.470686567023486,-0.0106901415,-0.032375857,0.0012217305,205.52222,-128.54172,-38.22736,STD
10535204412000,1.655028,-5.31552481444746,8.18152026143913,-0.497596958531861,-0.0143553335,-0.022296581,-0.0009162979,205.65112,-128.54407,-38.2283,STD
10535209401000,1.660017,-5.30247253089902,8.20202273149905,-0.502953013846864,-0.008857546,-0.026267206,-0.0018325958,205.78772,-128.54666,-38.229565,STD
10535214408000,1.665024,-5.29755424921791,8.22415519165085,-0.49557555537566,-0.013744468,-0.018325957,-0.0009162979,205.91429,-128.54816,-38.229584,STD
10535220106000,1.670722,-5.29195721126724,8.24934208159393,-0.487179957538848,-0.008857546,-0.01160644,-0.003970624,206.03903,-128.54475,-38.223488,STD
10535224405000,1.675021,-5.28773438463511,8.26834496679317,-0.480845686724447,-0.014966198,-0.00061086525,0.0018325958,206.15784,-128.53746,-38.213703,STD
10535229407000,1.680023,-5.27662837873552,8.2906428121031,-0.48535307484124,-0.014049901,0.00580322,0.0012217305,206.27077,-128.53235,-38.205456,STD
10535234574000,1.68519,-5.26276486608143,8.31374858610385,-0.494595384441539,-0.02565634,0.00580322,0.004276057,206.38083,-128.52345,-38.193935,STD
10535239427000,1.690043,-5.27218460287474,8.33966618408624,-0.500897467543121,-0.018936822,0.007941248,0.008857546,206.48471,-128.5073,-38.174404,STD
10535244409000,1.695025,-5.29667721971253,8.36905742659138,-0.505795985795688,-0.016798794,0.0143553335,0.01740966,206.58597,-128.4884,-38.152588,STD
10535249411000,1.700027,-5.30862259600722,8.39199238402889,-0.492213077482945,-0.020158553,0.002443461,0.020463986,206.69498,-128.46275,-38.12469,STD
10535254383000,1.704999,-5.31339956671348,8.41110026685393,-0.468328717759831,-0.040927973,0.004886922,0.021685716,206.79532,-128.43468,-38.09434,STD
10535259367000,1.709983,-5.32070062985293,8.42080011126336,-0.448541345186809,-0.028710667,0.01038471,0.023518313,206.90147,-128.40862,-38.065212,STD
10535264348000,1.714964,-5.32941562806248,8.42515729186078,-0.431111153113182,-0.03145956,0.0030543262,0.03176499,207.01,-128.3792,-38.034237,STD
10535269425000,1.720041,-5.34783209202958,8.41178094576828,-0.40557029483977,-0.03359759,-0.005192355,0.02687807,207.11807,-128.3533,-38.0067,STD
10535274373000,1.724989,-5.37703454157765,8.37771160764174,-0.371500631454396,-0.0290161,-0.01282817,0.030848695,207.22752,-128.32288,-37.974617,STD
10535279371000,1.729987,-5.37987169353052,8.34986959155208,-0.355528894365417,-0.026267206,-0.025350908,0.030848695,207.34074,-128.29543,-37.946526,STD
10535284359000,1.734975,-5.35624476269661,8.32860508982095,-0.357891594850134,-0.030848695,-0.03359759,0.024129177,207.45331,-128.26883,-37.919434,STD
10535289967000,1.740583,-5.32968104414878,8.30469744633495,-0.360547975026214,-0.037873644,-0.03481932,0.029626964,207.56154,-128.24628,-37.896984,STD
10535294342000,1.744958,-5.30895774374815,8.28604624443565,-0.362620311558018,-0.040927973,-0.035430185,0.025350908,207.67017,-128.2284,-37.8794,STD
10535299350000,1.749966,-5.27872906229459,8.27651658015191,-0.376852556203644,-0.03726278,-0.034208454,0.028099801,207.77722,-128.207,-37.858215,STD
10535304338000,1.754954,-5.24078497509805,8.28125942699697,-0.405310551026659,-0.046731193,-0.032375857,0.022296581,207.88206,-128.18874,-37.840656,STD
10535309326000,1.759942,-5.2028408879015,8.28600227384203,-0.433768545849675,-0.031154128,-0.028099801,0.025045475,207.98201,-128.16742,-37.818306,STD
10535314349000,1.764965,-5.16463055310033,8.29077840048652,-0.462426225880951,-0.03481932,-0.014049901,0.014966198,208.07565,-128.1504,-37.80091,STD
10535319327000,1.769943,-5.13382356483397,8.29252270642428,-0.483796719546261,-0.047647487,-0.022296581,0.017104227,208.17981,-128.12802,-37.77896,STD
10535324343000,1.774959,-5.11252422223864,8.29015605788748,-0.495629727468224,-0.04550946,0.004581489,0.018020526,208.26439,-128.1092,-37.758793,STD
10535329309000,1.779925,-5.0914371936644,8.28781300034486,-0.507344782759385,-0.038789943,0.013133603,0.020463986,208.35394,-128.07742,-37.72485,STD
10535334352000,1.784968,-5.07002320149769,8.2854336126712,-0.519241485101981,-0.04428773,0.012217305,0.02321288,208.43614,-128.0452,-37.690323,STD
10535339300000,1.789916,-5.05909683265225,8.2873275615469,-0.517400541612678,-0.044593163,0.029321533,0.021991149,208.50768,-128.01411,-37.655758,STD
10535344323000,1.794939,-5.06628863919067,8.2969169706967,-0.491030192130968,-0.051618114,0.031154128,0.020463986,208.58408,-127.98218,-37.62125,STD
10535349315000,1.799931,-5.07343606069969,8.30644719774743,-0.464822590177415,-0.04917465,0.035124753,0.02321288,208.6514,-127.94446,-37.57929,STD
10535354295000,1.804911,-5.08056630090701,8.31595451559853,-0.438677987267019,-0.047036625,0.040317107,0.029932396,208.7169,-127.90617,-37.536964,STD
10535359276000,1.809892,-5.09177182284279,8.32062301888498,-0.410025862527373,-0.05131268,0.030543262,0.025350908,208.78377,-127.86731,-37.494877,STD
10535364280000,1.814896,-5.1110274963335,8.31580902511301,-0.376328589743847,-0.06780604,0.030543262,0.028099801,208.84506,-127.82461,-37.448914,STD
10535369255000,1.819871,-5.13504689625262,8.31103147856501,-0.351068882064555,-0.06047566,0.027794369,0.029932396,208.90933,-127.782684,-37.404682,STD
10535374289000,1.824905,-5.1687702694314,8.3062137891476,-0.341433694387928,-0.06505715,0.029321533,0.020463986,208.971,-127.742744,-37.363365,STD
10535379336000,1.829952,-5.20479226142581,8.31095936511007,-0.330467316238372,-0.062002823,0.026572637,0.028405234,209.03714,-127.70133,-37.3212,STD
10535384318000,1.834934,-5.24434320168555,8.33293256857327,-0.317283660307636,-0.0580322,0.022296581,0.024129177,209.10165,-127.66646,-37.28571,STD
10535389289000,1.839905,-5.27764434972635,8.34850499921814,-0.309752420625489,-0.0729984,0.024740042,0.02076942,209.16454,-127.63446,-37.25395,STD
10535394403000,1.845019,-5.28243087779515,8.33414511512901,-0.328898542896794,-0.06780604,0.01282817,0.015271631,209.23297,-127.60559,-37.224907,STD
10535399312000,1.849928,-5.28577373769656,8.31974991821976,-0.349755168062998,-0.058948494,0.01160644,0.022296581,209.3032,-127.57765,-37.197838,STD
10535404367000,1.854983,-5.2810746043972,8.30095313968162,-0.387348457717919,-0.06536258,0.0061086523,0.015271631,209.37733,-127.55516,-37.177,STD
10535409578000,1.860194,-5.2762304533343,8.28157628251796,-0.426101896371093,-0.06505715,0.002443461,0.016493361,209.44914,-127.53194,-37.154247,STD
10535414355000,1.864971,-5.27178974912638,8.26381323383809,-0.461627741016308,-0.052839845,0.0018325958,0.009468411,209.52008,-127.51341,-37.13602,STD
10535419634000,1.87025,-5.2662176280191,8.24460364588117,-0.498336072445587,-0.056199603,0.00061086525,0.011911872,209.59177,-127.49144,-37.11497,STD
10535424367000,1.874983,-5.25372966250344,8.23211589769492,-0.502498708782257,-0.053145275,0.018325957,0.016493361,209.65556,-127.471634,-37.094837,STD
10535430443000,1.881059,-5.23671034997389,8.21896073520195,-0.506282773505397,-0.054367006,0.022296581,0.005192355,209.71764,-127.459946,-37.08132,STD
10535434459000,1.885075,-5.21327523507138,8.24574362378134,-0.489543377251915,-0.058643065,0.027488936,0.012217305,209.77292,-127.44168,-37.0607,STD
10535439373000,1.889989,-5.18459989776288,8.2785153156337,-0.469060958629004,-0.056505036,0.043676864,0.018020526,209.8167,-127.42473,-37.040497,STD
10535444366000,1.894982,-5.17417122715897,8.30159993476923,-0.446210439415385,-0.056199603,0.040011674,0.021991149,209.86522,-127.406105,-37.019302,STD
10535449377000,1.899993,-5.17909315984615,8.31636619538462,-0.421600493307692,-0.05375614,0.04337143,0.022296581,209.90501,-127.38712,-36.99694,STD
10535454375000,1.904991,-5.18401084959885,8.33407784550504,-0.388137470853734,-0.043676864,0.04550946,0.022907447,209.95187,-127.35692,-36.964077,STD
10535459363000,1.909979,-5.18892435282864,8.35373226887472,-0.348829424492903,-0.054061573,0.059253927,0.020158553,209.99275,-127.32724,-36.932022,STD
10535464584000,1.9152,-5.20754684368146,8.35773338383668,-0.338007797280243,-0.05100725,0.062308256,0.026572637,210.03833,-127.29473,-36.897182,STD
10535469406000,1.920022,-5.23092089274507,8.35383762763624,-0.341903472124177,-0.052839845,0.057726767,0.03023783,210.08109,-127.263596,-36.86415,STD
10535474334000,1.92495,-5.25807142065743,8.34812404705124,-0.346190915230422,-0.06078109,0.048563786,0.028099801,210.13626,-127.230064,-36.83084,STD
10535479430000,1.930046,-5.29476968246858,8.33763807863358,-0.351433527188742,-0.061391957,0.043066,0.029321533,210.19125,-127.1953,-36.796055,STD
10535484396000,1.935012,-5.32525293831554,8.32777115154211,-0.35029188044484,-0.056505036,0.028710667,0.025350908,210.24329,-127.16823,-36.768906,STD
10535489459000,1.940075,-5.34921860577303,8.31818518485568,-0.340705603451957,-0.063224554,0.023518313,0.028405234,210.29358,-127.13876,-36.739685,STD
10535494299000,1.944915,-5.37711354472477,8.30385448853211,-0.338713648268349,-0.056505036,0.014049901,0.01985312,210.34827,-127.12097,-36.72195,STD
10535499362000,1.949978,-5.41418318176606,8.28068584441896,-0.347981115590596,-0.05467244,0.010995574,0.014660766,210.40184,-127.101135,-36.702534,STD
10535504305000,1.954921,-5.43892594777413,8.25708325007469,-0.357142128845732,-0.04428773,0.009468411,0.011911872,210.46066,-127.09149,-36.693104,STD
10535509368000,1.959984,-5.43651153059456,8.23052405602032,-0.366800004299373,-0.04337143,0.0015271631,0.007330383,210.5215,-127.08346,-36.685833,STD
10535514315000,1.964931,-5.43415243089334,8.20457336809083,-0.376236605103077,-0.03604105,-0.0027488936,0.009468411,210.57451,-127.08406,-36.685867,STD
10535519434000,1.97005,-5.43171130872423,8.17772041245892,-0.386001302801514,-0.0290161,-0.013133603,-0.0033597588,210.63078,-127.08987,-36.691483,STD
10535524322000,1.974938,-5.424115184648,8.1606258678562,-0.40095698768925,-0.018936822,-0.005497787,0.004886922,210.68216,-127.088486,-36.689175,STD
10535529456000,1.980072,-5.40240010152813,8.16496897517887,-0.431358126731737,-0.032070424,-0.00580322,0.0012217305,210.73808,-127.09303,-36.693962,STD
10535534569000,1.985185,-5.37965363030134,8.16951835184152,-0.460942616422991,-0.03756821,-0.009468411,0.004276057,210.78975,-127.09984,-36.699516,STD
10535539382000,1.989998,-5.34290850094069,8.17686734701849,-0.479315204124681,-0.02076942,0.0021380284,0.0036651916,210.8349,-127.10852,-36.706165,STD
10535544358000,1.994974,-5.30491893856824,8.18446522775829,-0.498310009111926,-0.0290161,0.0067195175,0.00580322,210.88145,-127.10896,-36.705223,STD
10535549367000,1.999983,-5.26497410993072,8.21673399523672,-0.512331508262125,-0.025350908,0.002443461,0.008857546,210.92632,-127.109985,-36.70368,STD
10535554384000,2.005,-5.22336313510393,8.27221524672825,-0.52157842052348,-0.03023783,-0.0070249503,0.005192355,210.97052,-127.11123,-36.703075,STD
10535559346000,2.009962,-5.20127250691601,8.303091,-0.510731113672977,-0.022907447,0.0018325958,0.00580322,211.00856,-127.1028,-36.690895,STD
10535564353000,2.014969,-5.20373264425632,8.303091,-0.473828632272331,-0.03481932,0.002443461,0.0125227375,211.05226,-127.092514,-36.678364,STD
10535569402000,2.020018,-5.20621341785952,8.303091,-0.436616603394387,-0.034208454,0.01038471,0.017715093,211.07967,-127.07143,-36.652294,STD
10535574429000,2.025045,-5.20868338199169,8.303091,-0.399566718433123,-0.028099801,0.0030543262,0.013133603,211.11192,-127.05113,-36.62777,STD
10535580135000,2.030751,-5.21308351038458,8.31299218652489,-0.37977181854119,-0.016798794,-0.01160644,0.01038471,211.1441,-127.02929,-36.601505,STD
10535584430000,2.035046,-5.21717108019477,8.32525446914439,-0.375684334093213,-0.021991149,-0.0061086523,0.01160644,211.1715,-127.00737,-36.57525,STD
10535589400000,2.040016,-5.22440337721893,8.33938652662722,-0.365930349408284,-0.014049901,-0.009773844,0.008246681,211.21236,-126.989716,-36.55507,STD
10535594367000,2.044983,-5.23378556997041,8.3534606729783,-0.35185697700789,-0.017715093,-0.011911872,0.014966198,211.25072,-126.96834,-36.531647,STD
10535599398000,2.050014,-5.2282905741157,8.35819374135187,-0.356560685372397,-0.019547688,-0.02076942,0.011911872,211.29243,-126.95027,-36.511665,STD
10535604403000,2.055019,-5.2080509601715,8.35352281985903,-0.379914010170202,-0.016493361,-0.021380283,0.005497787,211.33163,-126.9315,-36.490765,STD
10535609393000,2.060009,-5.18787200441095,8.3488658971319,-0.403197344983597,-0.02107485,-0.023823744,0.0033597588,211.38142,-126.91478,-36.473183,STD
10535614411000,2.065027,-5.16757982004093,8.34418284337545,-0.426611327767889,-0.027183503,-0.018325957,-0.004276057,211.42749,-126.90155,-36.458836,STD
10535619458000,2.070074,-5.14717036318251,8.33947272533862,-0.450160624522039,-0.032070424,-0.022907447,0.0030543262,211.47777,-126.88462,-36.44129,STD
10535624403000,2.075019,-5.12717338197291,8.33485779890863,-0.473233989382207,-0.029932396,-0.012217305,-0.00030543262,211.51933,-126.87295,-36.428352,STD
10535629477000,2.080093,-5.10854954021739,8.33546461413043,-0.492060495923913,-0.030848695,0.0021380284,-0.0018325958,211.558,-126.859024,-36.413177,STD
10535634494000,2.08511,-5.09348459245401,8.34550857681856,-0.502103719275711,-0.024129177,0.0015271631,0.0015271631,211.59772,-126.84513,-36.397766,STD
10535639458000,2.090074,-5.08101726361732,8.35204271194134,-0.508637429664805,-0.023518313,0.0021380284,0.0036651916,211.62675,-126.82527,-36.373756,STD
10535644408000,2.095024,-5.07155898099561,8.35440734432362,-0.511002012665603,-0.03145956,0.01160644,0.006414085,211.65282,-126.80437,-36.34857,STD
10535649820000,2.100436,-5.06121792532921,8.35699267572825,-0.513587290079808,-0.030848695,0.019547688,0.011301007,211.68062,-126.78143,-36.3206,STD
10535654411000,2.105027,-5.0524456070431,8.35918581254988,-0.515780381101357,-0.025961773,0.029321533,0.014966198,211.70435,-126.75816,-36.292145,STD
10535659326000,2.109942,-5.06036891457137,8.35768315490902,-0.49323348203464,-0.036651913,0.035124753,0.017104227,211.72673,-126.73356,-36.26293,STD
10535664405000,2.115021,-5.09349971540333,8.35058332869514,-0.434071523726768,-0.03268129,0.040011674,0.016493361,211.74606,-126.7098,-36.233532,STD
10535669341000,2.119957,-5.12569771361292,8.34368339914372,-0.376575279149557,-0.017715093,0.041233405,0.026267206,211.7668,-126.67738,-36.19564,STD
10535674407000,2.125023,-5.15874371420648,8.3366017453537,-0.317564749362654,-0.027488936,0.029932396,0.03268129,211.79013,-126.64561,-36.15961,STD
10535679329000,2.129945,-5.18823052115768,8.33612793253493,-0.276291835768463,-0.031154128,0.037873644,0.034208454,211.80945,-126.613174,-36.121773,STD
10535684558000,2.135174,-5.21321908762475,8.35112190738523,-0.27129412247505,-0.038789943,0.029321533,0.034513887,211.83868,-126.57918,-36.083916,STD
10535689301000,2.139917,-5.23311868580439,8.36334091290419,-0.265362595392932,-0.04886922,0.031154128,0.0290161,211.86855,-126.55623,-36.061024,STD
10535694368000,2.144984,-5.24769235985584,8.37305642506757,-0.255646763657023,-0.04062254,0.022296581,0.029626964,211.905,-126.53232,-36.037304,STD
10535699381000,2.149997,-5.25905230708735,8.3824766141747,-0.250382248157476,-0.04153884,0.020158553,0.022602014,211.93626,-126.51462,-36.02033,STD
10535704411000,2.155027,-5.26356240071154,8.39149680142309,-0.254892247595731,-0.039095376,0.009162978,0.02107485,211.97346,-126.49602,-36.002476,STD
10535709356000,2.159972,-5.27010441055536,8.40172041055536,-0.263579519833571,-0.04886922,0.00030543262,0.01985312,212.0135,-126.48183,-35.98994,STD
10535714393000,2.165009,-5.28727710181559,8.41889310181559,-0.293631917821289,-0.05497787,-0.007330383,0.027183503,212.05663,-126.466064,-35.975826,STD
10535720126000,2.170742,-5.30488759063051,8.43451336252205,-0.327933386301421,-0.057726767,-0.0070249503,0.02321288,212.1029,-126.45204,-35.964157,STD
10535724405000,2.175021,-5.2972770579441,8.4040712317764,-0.354570405668121,-0.0580322,-0.007330383,0.014966198,212.1513,-126.43725,-35.95204,STD
10535729362000,2.179978,-5.28846064978178,8.36880559912712,-0.385428013754295,-0.05222898,-0.009162978,0.01282817,212.19695,-126.4236,-35.939873,STD
10535734522000,2.185138,-5.27103313621779,8.33750597302717,-0.438742195411611,-0.055283304,-0.0027488936,0.0106901415,212.2386,-126.41205,-35.929886,STD
10535739306000,2.189922,-5.25265735713426,8.30994172876767,-0.493869561443899,-0.057726767,-0.0070249503,0.010079277,212.2838,-126.40108,-35.920532,STD
10535744764000,2.19538,-5.23619065406035,8.2872248330261,-0.543269843492772,-0.040317107,0.0076358155,0.01282817,212.32225,-126.39331,-35.912273,STD
10535749332000,2.199948,-5.22345755903755,8.27024740254196,-0.58146930583875,-0.041233405,0.003970624,0.0106901415,212.36761,-126.386154,-35.906208,STD
10535754409000,2.205025,-5.21257010166585,8.26817883395577,-0.578484790904177,-0.041233405,0.013439035,0.012217305,212.39209,-126.37782,-35.895016,STD
10535759378000,2.209994,-5.20321634374447,8.27285555420147,-0.557438866103194,-0.04153884,0.028710667,0.0143553335,212.41536,-126.36975,-35.88411,STD
10535764387000,2.215003,-5.19378728891892,8.27756992162162,-0.536223523513514,-0.034208454,0.03848451,0.016187929,212.43365,-126.36232,-35.871944,STD
10535769445000,2.220061,-5.18426599538575,8.28233040683047,-0.514800644132678,-0.03970624,0.03604105,0.016798794,212.45085,-126.35394,-35.859386,STD
10535774404000,2.22502,-5.19026274098773,8.28240212139583,-0.483010617876682,-0.03359759,0.03359759,0.016493361,212.46631,-126.34485,-35.845375,STD
10535779439000,2.230055,-5.20452244466953,8.28002570264676,-0.444984721538765,-0.03359759,0.03756821,0.018020526,212.48048,-126.3345,-35.83055,STD
10535784471000,2.235087,-5.21877365200355,8.27765069983735,-0.406981482140076,-0.028710667,0.0290161,0.019242255,212.50359,-126.320114,-35.81309,STD
10535789665000,2.240281,-5.2334836621174,8.27519923628567,-0.367754768023067,-0.040317107,0.032070424,0.025961773,212.52141,-126.3031,-35.793285,STD
10535794366000,2.244982,-5.24563221410419,8.27720839644219,-0.351494371385006,-0.0421497,0.01863139,0.03145956,212.54942,-126.28758,-35.775204,STD
10535799403000,2.250019,-5.25789100485388,8.28211175913596,-0.34659084996493,-0.03390302,0.025045475,0.025045475,212.569,-126.27362,-35.75804,STD
10535804404000,2.25502,-5.27006218066074,8.28698007695045,-0.341722374558577,-0.04062254,0.013439035,0.025350908,212.60326,-126.26113,-35.746395,STD
10535809402000,2.260018,-5.28222605522236,8.29184547435832,-0.336856819653367,-0.043982297,0.0027488936,0.024740042,212.63428,-126.25128,-35.736637,STD
10535814399000,2.265015,-5.29245278476576,8.30259714054601,-0.345785022325581,-0.03023783,-0.0015271631,0.028405234,212.6697,-126.237236,-35.723114,STD
10535819509000,2.270125,-5.30187785487024,8.31673507785642,-0.362278947906977,-0.03604105,-0.013744468,0.01985312,212.71045,-126.22594,-35.713936,STD
10535824404000,2.27502,-5.31090637114449,8.33027817044634,-0.378078902059801,-0.039095376,-0.01160644,0.022907447,212.74513,-126.21396,-35.70306,STD
10535829399000,2.280015,-5.32011933106071,8.34409793499928,-0.394201633621262,-0.034513887,-0.013133603,0.016798794,212.78397,-126.20712,-35.697723,STD
10535834470000,2.285086,-5.31538469574118,8.35447092,-0.417370758785882,-0.03145956,-0.0076358155,0.015271631,212.81923,-126.19797,-35.689922,STD
10535839432000,2.290048,-5.29749480601882,8.361179544,-0.446441895550118,-0.038789943,-0.004276057,0.008552114,212.85464,-126.19178,-35.685417,STD
10535844383000,2.294999,-5.27964457546353,8.367873296,-0.475448586021647,-0.03604105,-0.004581489,0.0076358155,212.88516,-126.18425,-35.677876,STD
10535849410000,2.300026,-5.26152033611765,8.3746698,-0.504900541788235,-0.034513887,-0.005192355,0.008857546,212.91394,-126.177635,-35.671516,STD
10535854335000,2.304951,-5.23821635632458,8.37531760859189,-0.532209917899761,-0.03359759,-0.0067195175,0.015577064,212.94283,-126.16979,-35.66385,STD
10535859409000,2.310025,-5.19646603115036,8.35676202692124,-0.555404516085919,-0.034208454,0.0143553335,0.016493361,212.96333,-126.16324,-35.656742,STD
10535864362000,2.314978,-5.15762071564357,8.34781638930693,-0.568904036990099,-0.03268129,0.016187929,0.013133603,212.99184,-126.14909,-35.640858,STD
10535869464000,2.32008,-5.12859437683168,8.39135564495049,-0.530202361356436,-0.034513887,0.023518313,0.015882496,213.0111,-126.132935,-35.62229,STD
10535874455000,2.325071,-5.10375536844623,8.42554217661692,-0.49389824264734,-0.037873644,0.028099801,0.023823744,213.0292,-126.11241,-35.59843,STD
10535879404000,2.33002,-5.09922067910448,8.41193858208955,-0.466690651119403,-0.03481932,0.03481932,0.01863139,213.04356,-126.09523,-35.577477,STD
10535884500000,2.335116,-5.0945372650265,8.39788882888289,-0.437619544732473,-0.05589417,0.048258353,0.024129177,213.05473,-126.06331,-35.543285,STD
10535889463000,2.340079,-5.08978372457246,8.38362870387039,-0.394838554221422,-0.040927973,0.03970624,0.032070424,213.07118,-126.034386,-35.510883,STD
10535894549000,2.345165,-5.08895286409953,8.36902932582938,-0.353241208048973,-0.03634648,0.029321533,0.03268129,213.08551,-126.00552,-35.48057,STD
10535899413000,2.350029,-5.13494604703791,8.35523118364929,-0.339443344415482,-0.058643065,0.030543262,0.033292156,213.09908,-125.97442,-35.448467,STD
10535905147000,2.355763,-5.18183630617967,8.34296624508869,-0.321693405828724,-0.053145275,0.022296581,0.03573562,213.1171,-125.94335,-35.41676,STD
10535909389000,2.360005,-5.18571049897005,8.35071479248522,-0.302322425695213,-0.046120327,0.019242255,0.032986723,213.13254,-125.91325,-35.38675,STD
10535914321000,2.364937,-5.19021486456227,8.35972371180622,-0.279800578920465,-0.051923547,0.00030543262,0.03604105,213.1561,-125.88939,-35.364777,STD
10535919531000,2.370147,-5.21947516015492,8.35833405850831,-0.2866029852448,-0.039095376,0.0021380284,0.034513887,213.17296,-125.86916,-35.344677,STD
10535924302000,2.374918,-5.24841179695036,8.35610811867297,-0.295506563294198,-0.042455133,0.002443461,0.028099801,213.19647,-125.84887,-35.326138,STD
10535929399000,2.380015,-5.27932565939981,8.35373008150241,-0.305018518296877,-0.046120327,0.004581489,0.027794369,213.22339,-125.827805,-35.307133,STD
10535934360000,2.384976,-5.3094146669752,8.3514154959809,-0.314276671871194,-0.03756821,0.010995574,0.02443461,213.24785,-125.810165,-35.290962,STD
10535939500000,2.390116,-5.29756082626596,8.35487989338253,-0.347265135230373,-0.04795292,0.0070249503,0.01863139,213.27464,-125.79262,-35.27611,STD
10535944319000,2.394935,-5.27739498295383,8.35936128028354,-0.383115505143467,-0.051618114,0.005497787,0.01863139,213.29808,-125.77536,-35.260536,STD
10535949366000,2.399982,-5.2562750387338,8.36405469379036,-0.420662053587416,-0.04520403,0.0021380284,0.026572637,213.32436,-125.76706,-35.25416,STD
10535954381000,2.404997,-5.23528900341312,8.36871834917707,-0.457970541886682,-0.05009095,0.005192355,0.025045475,213.34804,-125.760826,-35.250324,STD
10535959363000,2.409979,-5.20218883852046,8.36678644749042,-0.499354892094336,-0.06047566,0.0076358155,0.013133603,213.37271,-125.75716,-35.24885,STD
10535964345000,2.414961,-5.16371948347107,8.36197767768595,-0.542632956694215,-0.061391957,0.02687807,0.014660766,213.39046,-125.75039,-35.24336,STD
10535969409000,2.420025,-5.13914794673632,8.35067181376402,-0.548867709345346,-0.057421334,0.03023783,0.021685716,213.41064,-125.73782,-35.230385,STD
10535974961000,2.425577,-5.11876221392696,8.33538186226397,-0.538674975980063,-0.049785517,0.038789943,0.019547688,213.42184,-125.72765,-35.218933,STD
10535979374000,2.42999,-5.09682765033075,8.32036305349439,-0.513385166407823,-0.05589417,0.040927973,0.022296581,213.43202,-125.70929,-35.19821,STD
10535984388000,2.435004,-5.06920734083022,8.30194954587288,-0.476557925243984,-0.043676864,0.044593163,0.024740042,213.43869,-125.69296,-35.178104,STD
10535989369000,2.439985,-5.07642950512275,8.27860724144597,-0.444780010359559,-0.04337143,0.04062254,0.024129177,213.45264,-125.6741,-35.157192,STD
10535994369000,2.444985,-5.11345540885366,8.25083757200851,-0.41701041341388,-0.03940081,0.04795292,0.025961773,213.46156,-125.654816,-35.13471,STD
10535999354000,2.44997,-5.15527359321343,8.23384264149444,-0.395594245892289,-0.038179077,0.032070424,0.028099801,213.48283,-125.63304,-35.111877,STD
10536004379000,2.454995,-5.20309133143879,8.22906130206677,-0.381249019292528,-0.05497787,0.01985312,0.032375857,213.50032,-125.60988,-35.08796,STD
10536009377000,2.459993,-5.25586049295724,8.2298424257995,-0.369008160783327,-0.04642576,0.013133603,0.03481932,213.52777,-125.59683,-35.07491,STD
10536014371000,2.464987,-5.31478136150608,8.23720742862276,-0.359188015170679,-0.03023783,0.005497787,0.0290161,213.55905,-125.584755,-35.063618,STD
10536019418000,2.470034,-5.37432754163544,8.24465059427134,-0.34926365095221,-0.027794369,-0.0033597588,0.03176499,213.5929,-125.57694,-35.05773,STD
10536024373000,2.474989,-5.43278827524768,8.25195808105333,-0.339520194502336,-0.022296581,-0.010079277,0.03023783,213.6276,-125.57285,-35.054832,STD
10536029382000,2.479998,-5.47442016331361,8.26563375739645,-0.33779494295858,-0.03848451,-0.023823744,0.027183503,213.65799,-125.56601,-35.049934,STD
10536034390000,2.485006,-5.50233389741003,8.28424288107479,-0.342447248167621,-0.04062254,-0.040317107,0.028099801,213.69128,-125.55936,-35.04463,STD
10536039372000,2.489988,-5.52338656507651,8.29113196189619,-0.351911010051005,-0.03634648,-0.03604105,0.02565634,213.72032,-125.569214,-35.057175,STD
10536045055000,2.495671,-5.53971568430843,8.28568880848085,-0.368240140650065,-0.042455133,-0.047647487,0.02687807,213.7599,-125.576904,-35.069057,STD
10536049349000,2.499965,-5.53291563691145,8.28875924594015,-0.383139755506077,-0.04062254,-0.051923547,0.02443461,213.79686,-125.58688,-35.082737,STD
10536054387000,2.505003,-5.50827672444081,8.29861501675008,-0.40285089577367,-0.04550946,-0.05100725,0.025961773,213.83522,-125.594574,-35.09474,STD
10536059369000,2.509985,-5.48168402149254,8.29282243701493,-0.419504147808955,-0.05589417,-0.06261369,0.019547688,213.8765,-125.60748,-35.11216,STD
10536064367000,2.514983,-5.45310789432836,8.27377185134328,-0.43379217160597,-0.04153884,-0.064446285,0.02076942,213.9134,-125.61836,-35.126175,STD
10536069329000,2.519945,-5.42506230500292,8.26235665836091,-0.472087907669846,-0.044593163,-0.06994407,0.01740966,213.95671,-125.628,-35.13987,STD
10536074383000,2.524999,-5.39679620879891,8.25764552754526,-0.533331378469924,-0.03726278,-0.064751714,0.016493361,213.996,-125.637344,-35.151783,STD
10536079353000,2.529969,-5.36459938289666,8.2398367579624,-0.576010369860719,-0.03481932,-0.06627888,0.01160644,214.03737,-125.64603,-35.16308,STD
10536084421000,2.535037,-5.32678095694945,8.20674568462063,-0.599646905822538,-0.02443461,-0.063224554,0.021991149,214.075,-125.65095,-35.169537,STD
10536089370000,2.539986,-5.299407230186,8.17792984800285,-0.604723909848562,-0.014049901,-0.05955936,0.022907447,214.1073,-125.655655,-35.173676,STD
10536094372000,2.544988,-5.2848011766643,8.15358634073585,-0.585249083699563,-0.021380283,-0.06566802,0.015577064,214.14139,-125.65911,-35.17709,STD
10536099359000,2.549975,-5.28103714832503,8.13606907368884,-0.557742595692939,-0.013133603,-0.058643065,0.017104227,214.1607,-125.65737,-35.172318,STD
10536104378000,2.554994,-5.29042594785624,8.12668032317609,-0.520187373058893,-0.0012217305,-0.049785517,0.022602014,214.18102,-125.65617,-35.16842,STD
10536109337000,2.559953,-5.31125269702822,8.11731231598959,-0.482715523058835,0.00030543262,-0.05100725,0.018325957,214.19954,-125.65588,-35.16611,STD
10536114405000,2.565021,-5.35010413513108,8.10759924094457,-0.443864008890334,0.002443461,-0.06811147,0.014049901,214.22055,-125.65444,-35.162365,STD
10536119363000,2.569979,-5.38418614011761,8.10777689115918,-0.40978195180903,0.002443461,-0.06505715,0.01863139,214.23567,-125.65471,-35.160774,STD
10536124407000,2.575023,-5.413074037576,8.12222114153294,-0.380894034241005,0.0030543262,-0.08674286,0.008246681,214.26422,-125.66031,-35.16576,STD
10536129343000,2.579959,-5.43179108174859,8.13767583611546,-0.358693501995758,0.0030543262,-0.093767814,0.01160644,214.27570563516,-125.664571918523,-35.169935243829,STD
10536134373000,2.584989,-5.43623360669556,8.1554462142396,-0.345365639540718,0.011301007,-0.09101892,0.004886922,214.28741,-125.668915,-35.17419,STD
10536139303000,2.589919,-5.43541116564789,8.17691885567062,-0.33518824,0.0076358155,-0.09560041,0.0106901415,214.31755,-125.67697,-35.183243,STD
10536144339000,2.594955,-5.41591997575145,8.21346502753221,-0.33518824,0.0076358155,-0.098043874,0.010079277,214.35004,-125.68827,-35.196487,STD
10536149324000,2.59994,-5.39662617479161,8.24964109320536,-0.33518824,0.013744468,-0.10476339,0.008246681,214.3764,-125.6994,-35.20893,STD
10536154380000,2.604996,-5.37705757746906,8.28633240474867,-0.33518824,0.01038471,-0.12156218,-0.0027488936,214.40622,-125.71248,-35.224113,STD
10536159318000,2.609934,-5.34610404550096,8.32112202138728,-0.350888483103083,0.0106901415,-0.12950343,-0.008246681,214.43488,-125.72453,-35.237736,STD
10536164343000,2.614959,-5.28119765026975,8.35357538843931,-0.411158705863198,0.00061086525,-0.13713925,-0.007941248,214.46837,-125.736984,-35.252827,STD
10536169402000,2.620018,-5.22154901774658,8.37906361384631,-0.460650340087077,-0.00030543262,-0.13255776,-0.008857546,214.49983,-125.73847,-35.255928,STD
10536174408000,2.625024,-5.18504088609741,8.37588909747376,-0.465412267131411,0.003970624,-0.12156218,-0.010995574,214.53094,-125.73984,-35.25909,STD
10536179386000,2.630002,-5.14873695494487,8.37273233708572,-0.470147559346091,0.0027488936,-0.122478485,-0.012217305,214.56462,-125.727264,-35.246796,STD
10536184530000,2.635146,-5.11122240656226,8.36947030907526,-0.475040758050856,0.004581489,-0.10903945,-0.010079277,214.58897,-125.71478,-35.233467,STD
10536189368000,2.639984,-5.07593947789293,8.36640232860974,-0.479642876117273,0.0012217305,-0.09987647,-0.011301007,214.62045,-125.70488,-35.223446,STD
10536194369000,2.644985,-5.03946781061815,8.36323098294871,-0.484400046942026,0.01160644,-0.08552113,-0.005497787,214.64526,-125.69314,-35.21029,STD
10536199371000,2.649987,-5.00723033073138,8.36415215438055,-0.480499003598032,0.01985312,-0.08582657,-0.00061086525,214.67146,-125.6818,-35.197952,STD
10536204412000,2.655028,-4.9979140627171,8.38744270281744,-0.429259753261289,0.013744468,-0.081855945,0.0021380284,214.69101,-125.66932,-35.184082,STD
10536209356000,2.659972,-4.99303718970588,8.40790885661765,-0.380431596764706,0.02076942,-0.07666359,-0.0021380284,214.71036,-125.64567,-35.156734,STD
10536214395000,2.665011,-5.03739159777574,8.40125557035845,-0.347165841658088,0.017715093,-0.07422013,0.014660766,214.72998,-125.61498,-35.123013,STD
10536219419000,2.670035,-5.08161397248162,8.3946220894761,-0.313999111422794,0.015271631,-0.06780604,0.013439035,214.75375,-125.591095,-35.096897,STD
10536224406000,2.675022,-5.12551066488971,8.38803746185662,-0.281076642536765,0.017715093,-0.07147124,0.011911872,214.78046,-125.56309,-35.066807,STD
10536229358000,2.679974,-5.16909927944853,8.38149904678309,-0.248385231683824,0.01863139,-0.0693332,0.007330383,214.80246,-125.53656,-35.038013,STD
10536234435000,2.685051,-5.19990518740208,8.37216524126614,-0.224338174329875,0.02565634,-0.07666359,0.0125227375,214.83276,-125.506805,-35.006565,STD
10536239305000,2.689921,-5.2245923650434,8.3622906795469,-0.204588411594326,0.02443461,-0.07666359,0.0061086523,214.85878,-125.481705,-34.979836,STD
10536244402000,2.695018,-5.25275464818653,8.35658325906736,-0.197143277823834,0.026267206,-0.08857546,0.009468411,214.9,-125.46924,-34.96901,STD
10536249322000,2.699938,-5.28039245598788,8.35197686157005,-0.192536971713755,0.02107485,-0.09254608,0.0067195175,214.93727,-125.45999,-34.961483,STD
10536254377000,2.704993,-5.27885042115461,8.35663623032819,-0.199083214755832,0.017715093,-0.10903945,0.0061086523,214.98308,-125.453674,-34.958176,STD
10536259300000,2.709916,-5.26952922969553,8.36362702659154,-0.208404413514729,0.018020526,-0.109650314,0.0018325958,215.02365,-125.4491,-34.956223,STD
10536264450000,2.715066,-5.25977823720838,8.370940169138,-0.218155413638296,0.013439035,-0.10842858,-0.0033597588,215.06766,-125.449135,-34.959908,STD
10536269393000,2.720009,-5.25041917781732,8.37795936595492,-0.227514480358837,0.0033597588,-0.113926366,-0.012217305,215.11296,-125.45104,-34.965828,STD
10536274372000,2.724988,-5.23134273810057,8.39645356189943,-0.233192879374942,0.0021380284,-0.106595986,-0.0070249503,215.16344,-125.450745,-34.96961,STD
10536279370000,2.729986,-5.2090156337065,8.4187806662935,-0.237658309579252,0.0015271631,-0.10873401,-0.01160644,215.21725,-125.45508,-34.978783,STD
10536284380000,2.734996,-5.15899156117468,8.43393083600305,-0.264783007581998,-0.009468411,-0.10781772,-0.009162978,215.26625,-125.45119,-34.979065,STD
10536289360000,2.739976,-5.09143086356108,8.44432496480331,-0.306358676231884,-0.009468411,-0.10048734,-0.01160644,215.31236,-125.4503,-34.981667,STD
10536294329000,2.744945,-5.04186307210834,8.45351301400612,-0.332956815751786,-0.016187929,-0.10415252,-0.0070249503,215.36635,-125.4383,-34.97436,STD
10536299955000,2.750571,-4.99188716955755,8.46350841369075,-0.357944813993136,-0.029321533,-0.09407325,-0.003970624,215.4118,-125.427246,-34.967503,STD
10536304332000,2.754948,-4.96117982027565,8.48153106643695,-0.376425119679121,-0.025045475,-0.079107046,0.00030543262,215.45497,-125.405426,-34.94777,STD
10536309342000,2.759958,-4.93018180067837,8.50736274943469,-0.397090476866588,-0.020158553,-0.058337633,0.003970624,215.49178,-125.38276,-34.92713,STD
10536314340000,2.764956,-4.89746950635189,8.53879093250497,-0.391507662677932,-0.024740042,-0.047647487,0.008246681,215.53465,-125.34956,-34.895874,STD
10536319336000,2.769952,-4.86417722511928,8.57208286610338,-0.377239553500994,-0.03848451,-0.03634648,0.019242255,215.56978,-125.31385,-34.861553,STD
10536324345000,2.774961,-4.85874413660811,8.57311177705581,-0.362485036064667,-0.033292156,-0.01038471,0.025961773,215.59259,-125.27489,-34.821358,STD
10536329339000,2.779955,-4.86320488950723,8.56270348300948,-0.347615902172548,-0.043066,-0.003970624,0.0290161,215.61812,-125.23343,-34.780098,STD
10536339347000,2.789963,-4.87214425975439,8.54184521172082,-0.31781808639515,-0.04520403,-0.0021380284,0.035124753,215.65863,-125.13281,-34.67817,STD
10536344301000,2.794917,-4.87656928375563,8.53152028406653,-0.303068048489352,-0.061391957,0.007941248,0.03634648,215.6811,-125.08618,-34.63188,STD
10536349361000,2.799977,-4.88108898933624,8.52097443547334,-0.288002406219804,-0.06719518,0.010079277,0.039095376,215.70508,-125.04022,-34.58631,STD
10536354291000,2.804907,-4.89874027540571,8.52025697748572,-0.266396121788571,-0.06505715,0.019547688,0.04337143,215.72295,-124.994934,-34.54111,STD
10536359288000,2.809904,-4.94796283842286,8.54213355794286,-0.228111877554286,-0.074830994,0.028710667,0.049785517,215.7401,-124.94845,-34.49538,STD
10536364269000,2.814885,-4.99089481663202,8.53925641035541,-0.197857152315612,-0.07788532,0.03940081,0.04886922,215.75952,-124.907974,-34.456112,STD
10536369632000,2.820248,-5.03157222390852,8.513832997624,-0.172433723656074,-0.07544186,0.04734206,0.04795292,215.77664,-124.86644,-34.41572,STD
10536374284000,2.8249,-5.06442021945796,8.5017130594659,-0.180248949865978,-0.08399397,0.044898596,0.050396383,215.79536,-124.82869,-34.380863,STD
10536379286000,2.829902,-5.09770941584434,8.49695736066713,-0.213538166115358,-0.08307768,0.045814894,0.048563786,215.80975,-124.79375,-34.347923,STD
10536384306000,2.834922,-5.13839304572108,8.48487671335182,-0.246908216002377,-0.09162979,0.04795292,0.04153884,215.82448,-124.76751,-34.32535,STD
10536389287000,2.839903,-5.18564169869255,8.46597742977417,-0.279982164542393,-0.094989546,0.032986723,0.043066,215.84471,-124.74029,-34.301903,STD
10536394281000,2.844897,-5.22294565915256,8.44315834084744,-0.29907478888972,-0.092240654,0.040317107,0.0421497,215.84293,-124.72079,-34.28402,STD
10536399307000,2.849923,-5.24995894004303,8.41614505995697,-0.303576986700963,-0.094989546,0.03176499,0.03573562,215.85147,-124.70257,-34.268642,STD
10536404343000,2.854959,-5.27670981209269,8.3846611006517,-0.308035460839971,-0.084910266,0.038179077,0.040011674,215.84152,-124.68944,-34.255947,STD
10536409355000,2.859971,-5.30277720231716,8.34555951629254,-0.312380040999276,-0.082161374,0.024740042,0.04062254,215.84108,-124.67907,-34.247257,STD
10536414315000,2.864931,-5.32782830732135,8.30720150811048,-0.318377389890399,-0.082161374,0.017715093,0.044898596,215.8311,-124.67294,-34.241955,STD
10536419407000,2.870023,-5.34920722893468,8.26978836738273,-0.334411508548882,-0.0852157,0.0106901415,0.04062254,215.82567,-124.6692,-34.239445,STD
10536424304000,2.87492,-5.36758617078963,8.22885785469028,-0.350864022483673,-0.07941248,0.008246681,0.038179077,215.81886,-124.67289,-34.244007,STD
10536429398000,2.880014,-5.38206772828023,8.17575822249159,-0.37017304471601,-0.074830994,0.0143553335,0.03848451,215.81158,-124.676735,-34.248844,STD
10536434350000,2.884966,-5.39762697100069,8.13881431101855,-0.380129789862144,-0.074830994,0.008857546,0.037873644,215.8048,-124.686325,-34.259464,STD
10536439752000,2.890368,-5.41815028497471,8.13368367003868,-0.369868186450461,-0.07788532,0.015577064,0.03634648,215.7919,-124.69587,-34.269474,STD
10536444339000,2.894955,-5.43406892144231,8.13606829663462,-0.357219498634615,-0.08124508,0.01740966,0.036651913,215.77917,-124.71243,-34.286278,STD
10536449359000,2.899975,-5.44793696105769,8.15455879086538,-0.334106240865385,-0.07269296,0.008857546,0.03390302,215.76787,-124.730225,-34.30408,STD
10536454349000,2.904965,-5.45517312341968,8.17442630545487,-0.31152604593051,-0.08032878,-0.0015271631,0.03023783,215.75505,-124.748764,-34.323887,STD
10536459367000,2.909983,-5.43817846926001,8.19991824233047,-0.290282830267881,-0.07391469,0.00061086525,0.028405234,215.74113,-124.768005,-34.343376,STD
10536464955000,2.915571,-5.42083308180678,8.22611651066499,-0.269232046173149,-0.06566802,-0.01160644,0.030848695,215.73805,-124.7863,-34.363686,STD
10536469397000,2.920013,-5.42528102676704,8.22166847281472,-0.282575890342953,-0.06047566,-0.015882496,0.025350908,215.73126,-124.80702,-34.386,STD
10536474521000,2.925137,-5.42901638402861,8.21655565415177,-0.297225358657132,-0.054367006,-0.029321533,0.028710667,215.74083,-124.82146,-34.402916,STD
10536479381000,2.929997,-5.41514771656734,8.21193266845451,-0.301848247810886,-0.050396383,-0.0290161,0.02321288,215.7464,-124.83963,-34.423157,STD
10536484612000,2.935228,-5.39988225426205,8.20840054992694,-0.307894573989284,-0.04520403,-0.04153884,0.026572637,215.7597,-124.8555,-34.441074,STD
10536489376000,2.939992,-5.38210392518266,8.22173418071116,-0.325673005170969,-0.032375857,-0.052534413,0.014049901,215.77138,-124.877396,-34.464485,STD
10536494714000,2.94533,-5.36176953949547,8.2366742410636,-0.345179192492452,-0.018325957,-0.062002823,0.016798794,215.79362,-124.88759,-34.477062,STD
10536499363000,2.949979,-5.33575062559657,8.24968392441804,-0.353852142660953,-0.021685716,-0.053450707,0.013744468,215.81218,-124.90233,-34.494144,STD
10536504372000,2.954988,-5.30771691087952,8.26370102571345,-0.363196691465862,-0.020463986,-0.046120327,0.011911872,215.83383,-124.91324,-34.50612,STD
10536509424000,2.96004,-5.26745650283393,8.27822913041079,-0.386327149068064,-0.027183503,-0.058337633,0.016493361,215.85889,-124.92232,-34.517002,STD
10536514319000,2.964935,-5.22748382038421,8.29233715042384,-0.409840451101971,-0.022602014,-0.04550946,0.008552114,215.87183,-124.935555,-34.530624,STD
10536519391000,2.970007,-5.18606575186839,8.30695530721774,-0.434203978766113,-0.014966198,-0.04153884,0.008857546,215.89233,-124.94052,-34.536068,STD
10536524308000,2.974924,-5.14591341691328,8.3211267340623,-0.45782295856197,-0.022296581,-0.03634648,0.0076358155,215.90729,-124.94742,-34.54348,STD
10536529393000,2.980009,-5.12614035077519,8.31394245865633,-0.451384349037468,-0.01863139,-0.036651913,0.0143553335,215.92276,-124.95239,-34.548256,STD
10536534369000,2.984985,-5.10854939174972,8.30514674953858,-0.442588809827427,-0.0125227375,-0.032070424,0.017104227,215.9343,-124.95832,-34.55391,STD
10536539372000,2.989988,-5.12020548892382,8.30133902629698,-0.405494333900243,-0.019242255,-0.023823744,0.016493361,215.94585,-124.94348,-34.53804,STD
10536544429000,2.995045,-5.14097012212377,8.2990318046782,-0.359350833856891,-0.01863139,-0.021991149,0.016493361,215.95802,-124.92844,-34.52148,STD
10536549355000,2.999971,-5.16119685400886,8.2967843509123,-0.314402666719547,-0.01160644,-0.017715093,0.027488936,215.96782,-124.908905,-34.500336,STD
10536554385000,3.005001,-5.18185062205231,8.29448944785861,-0.268505533000333,0.004581489,-0.014966198,0.021685716,215.97684,-124.89484,-34.48428,STD
10536559368000,3.009984,-5.21775193822586,8.28447331312908,-0.212833697004756,0.0070249503,-0.016187929,0.023518313,215.99612,-124.87355,-34.462242,STD
10536564364000,3.01498,-5.26538065575711,8.26859729498949,-0.149328701614866,0.00030543262,-0.025350908,0.02443461,216.01674,-124.85471,-34.442543,STD
10536569441000,3.020057,-5.28759215024176,8.27016965951069,-0.11073709976013,0.0012217305,-0.028710667,0.021685716,216.04079,-124.84369,-34.433064,STD
10536574370000,3.024986,-5.30128636696644,8.27701668445992,-0.081066223055894,-0.003970624,-0.040317107,0.020158553,216.07037,-124.83174,-34.42361,STD
10536579400000,3.030016,-5.31526119149986,8.28400401160429,-0.0507873612538439,0.00061086525,-0.047647487,0.014966198,216.10129,-124.82971,-34.42541,STD
10536584387000,3.035003,-5.32911654934242,8.29093160613094,-0.0207673445924475,-0.007941248,-0.05681047,0.005192355,216.13579,-124.82875,-34.429268,STD
10536589599000,3.040215,-5.32128953820867,8.31949792707227,-0.0144487585632428,-0.007330383,-0.06627888,0.003970624,216.18037,-124.82649,-34.43206,STD
10536594366000,3.044982,-5.30281885369949,8.35643958539422,-0.0213752700759116,-0.0067195175,-0.07422013,0.003970624,216.202237286432,-124.826408847093,-34.4345728068916,STD
10536599350000,3.049966,-5.28350735976331,8.39506287573965,-0.0286170853431953,-0.005497787,-0.0711658,0.003970624,216.2251,-124.826324,-34.4372,STD
10536604377000,3.054993,-5.26402925382087,8.43401939270723,-0.0359213801563243,-0.01282817,-0.062002823,0.003970624,216.244274378432,-124.827170282776,-34.4414816085871,STD
10536609365000,3.059981,-5.2068790620109,8.46896382644874,-0.0541784478437841,-0.02321288,-0.04917465,0.009468411,216.2633,-124.82801,-34.44573,STD
10536614350000,3.064966,-5.13121323090639,8.50206778187222,-0.0778240054965825,-0.030848695,-0.047036625,0.013133603,216.30386,-124.82922,-34.453575,STD
10536619454000,3.07007,-5.06977957801418,8.50748034909378,-0.108246594022853,-0.036651913,-0.042455133,0.02076942,216.33731,-124.81456,-34.444607,STD
10536625047000,3.075663,-5.01174228634752,8.49692791390859,-0.145179373421001,-0.04428773,-0.029321533,0.016187929,216.36584,-124.80235,-34.438007,STD
10536629381000,3.079997,-4.97639003724315,8.50314150361492,-0.17593191720605,-0.045814894,-0.024740042,0.025961773,216.39687,-124.77048,-34.410564,STD
10536634385000,3.085001,-4.93991953142123,8.5168177707382,-0.212402494432078,-0.040011674,-0.014966198,0.038789943,216.42078,-124.73974,-34.383636,STD
10536639369000,3.089985,-4.8918999385629,8.52571026154138,-0.24395664433406,-0.051618114,-0.011301007,0.034208454,216.44493,-124.706924,-34.354015,STD
10536644361000,3.094977,-4.83298477951465,8.53024229149682,-0.271148275131292,-0.05100725,0.0033597588,0.03726278,216.46213,-124.669785,-34.318733,STD
10536649355000,3.099971,-4.79318291080921,8.5319755021243,-0.280587850123506,-0.042455133,0.01282817,0.0571159,216.47847,-124.62297,-34.272663,STD
10536654380000,3.104996,-4.78129588877581,8.52959804806837,-0.26394600686444,-0.061086524,0.015882496,0.05955936,216.49132,-124.58015,-34.231365,STD
10536659330000,3.109946,-4.76958628498172,8.52725607840134,-0.24755254932566,-0.0711658,0.03359759,0.06719518,216.49942,-124.52379,-34.17423,STD
10536664348000,3.114964,-4.75771582198399,8.52488193622172,-0.230933888733821,-0.077579886,0.043066,0.07269296,216.50922,-124.467995,-34.11834,STD
10536669378000,3.119994,-4.7678231302466,8.51094932988847,-0.214948497223984,-0.08093964,0.05467244,0.07696902,216.5124,-124.4114,-34.06137,STD
10536674371000,3.124987,-4.81675074960606,8.47670030287527,-0.200270201198199,-0.07574729,0.06291912,0.08002335,216.51372,-124.35495,-34.004295,STD
10536679350000,3.129966,-4.87616597713216,8.45063931317707,-0.180172987727004,-0.0711658,0.06047566,0.07513642,216.51764,-124.29769,-33.947323,STD
10536684382000,3.134998,-4.95210125568249,8.43640114181603,-0.151697224819775,-0.073303826,0.063224554,0.07086037,216.51723,-124.240654,-33.890278,STD
10536689298000,3.139914,-5.01853795053521,8.419487937277,-0.127593643730329,-0.089491755,0.05467244,0.070249505,216.52065,-124.195,-33.84595,STD
10536694997000,3.145613,-5.08003449498592,8.3938643770892,-0.107094776315869,-0.09315695,0.046731193,0.059864793,216.5226,-124.1548,-33.806587,STD
10536699314000,3.14993,-5.12606197168813,8.379706,-0.0983870550582065,-0.08368854,0.03726278,0.056199603,216.52841,-124.13276,-33.7861,STD
10536704381000,3.154997,-5.17832569800983,8.379706,-0.109748722602669,-0.073303826,0.036651913,0.0421497,216.53317,-124.11702,-33.77197,STD
10536709313000,3.159929,-5.22919696270663,8.379706,-0.12080768142037,-0.07727446,0.040011674,0.03726278,216.5392,-124.11073,-33.768333,STD
10536714353000,3.164969,-5.28118219670335,8.379706,-0.13210880721948,-0.076358154,0.05100725,0.0290161,216.54211,-124.11006,-33.76952,STD
10536719892000,3.170508,-5.33101570389186,8.37929782208656,-0.145693161346343,-0.08582657,0.044898596,0.016493361,216.54933,-124.111496,-33.77367,STD
10536724370000,3.174986,-5.29361471368146,8.37462308884771,-0.169068794872997,-0.084910266,0.040011674,0.01160644,216.5523,-124.11351,-33.777634,STD
10536729400000,3.180016,-5.24827981346535,8.36637505742574,-0.19842005350495,-0.08552113,0.043982297,0.009468411,216.55663,-124.13963,-33.80568,STD
10536734388000,3.185004,-5.18378492856886,8.34057663654366,-0.245716211139514,-0.08368854,0.043676864,0.005192355,216.56357,-124.16722,-33.83525,STD
10536739727000,3.190343,-5.11475161051305,8.31296280954095,-0.296340546666967,-0.07941248,0.03726278,0.004581489,216.5702,-124.18873,-33.85791,STD
10536744335000,3.194951,-5.10330547011647,8.32123548282471,-0.288313704910806,-0.065973446,0.042455133,0.009162978,216.57285,-124.20976,-33.8794,STD
10536749325000,3.199941,-5.0915633127623,8.33062940488476,-0.278919966766426,-0.063224554,0.047036625,0.009468411,216.57755,-124.23132,-33.901817,STD
10536754378000,3.204994,-5.07967290773011,8.34014192756401,-0.269407630324832,-0.055283304,0.044898596,0.0125227375,216.58217,-124.244354,-33.913414,STD
10536759300000,3.209916,-5.06809076374269,8.34940783625731,-0.260141903040936,-0.0580322,0.051923547,0.018936822,216.58217,-124.255585,-33.923187,STD
10536764610000,3.215226,-5.09472496354802,8.34689099342607,-0.262658704061547,-0.054367006,0.05467244,0.0143553335,216.58418,-124.26915,-33.93497,STD
10536769386000,3.220002,-5.12522902437119,8.34253316644436,-0.267016453688072,-0.05131268,0.052839845,0.026267206,216.5861,-124.27569,-33.939823,STD
10536774367000,3.224983,-5.16989449496363,8.32804372076105,-0.258134342775602,-0.05100725,0.06291912,0.02565634,216.59131,-124.28131,-33.944256,STD
10536779370000,3.229986,-5.21904983319343,8.31016879779892,-0.244728421188211,-0.04337143,0.057726767,0.03268129,216.60292,-124.281555,-33.943363,STD
10536784385000,3.235001,-5.26946692586556,8.29380509182912,-0.205371350137424,-0.03268129,0.07391469,0.028099801,216.60268,-124.29343,-33.952946,STD
10536789363000,3.239979,-5.32025339717695,8.27856934664962,-0.149506130936401,-0.02687807,0.0571159,0.028405234,216.6159,-124.30161,-33.959732,STD
10536794364000,3.24498,-5.33935134138602,8.27098099201869,-0.140835178320031,-0.027183503,0.04795292,0.03145956,216.62056,-124.319824,-33.97644,STD
10536799377000,3.249993,-5.34636061225423,8.26630807971579,-0.15018081263286,-0.03176499,0.025961773,0.01863139,216.63487,-124.34181,-33.997707,STD
10536804371000,3.254987,-5.35334331696516,8.26165287843099,-0.159491025630718,-0.03176499,0.023823744,0.02443461,216.63757,-124.36246,-34.018425,STD
10536809370000,3.259986,-5.3603330127701,8.25699301635196,-0.168810560027253,-0.036957346,0.011911872,0.016493361,216.65013,-124.389496,-34.046783,STD
10536814395000,3.265011,-5.35347399301655,8.25838637992525,-0.188279097604912,-0.03481932,0.008246681,0.0106901415,216.6606,-124.413864,-34.07201,STD
10536819394000,3.27001,-5.33813771224773,8.26349854468767,-0.21383940363481,-0.035430185,-0.0021380284,0.0036651916,216.67685,-124.439804,-34.09959,STD
10536824368000,3.274984,-5.3167563452245,8.26828909147302,-0.262326802238086,-0.03359759,-0.0076358155,-0.0009162979,216.69035,-124.4694,-34.130146,STD
10536829390000,3.280006,-5.29307842618157,8.27302478406853,-0.319153971121505,-0.030543262,-0.0036651916,-0.0076358155,216.70346,-124.50072,-34.16243,STD
10536834377000,3.284993,-5.26651236467623,8.2710467415665,-0.3484450038038,-0.02076942,-0.0076358155,-0.008857546,216.71417,-124.52717,-34.18896,STD
10536839420000,3.290036,-5.23842252225669,8.26636500339279,-0.367171575193874,-0.02321288,-0.018936822,-0.014660766,216.72548,-124.55563,-34.217976,STD
10536844405000,3.295021,-5.22685274696171,8.26686787687718,-0.369327573507708,-0.018325957,-0.008857546,-0.011911872,216.73257,-124.57486,-34.235764,STD
10536849376000,3.299992,-5.22369633911487,8.27002416936847,-0.363014787476877,-0.016798794,0.0012217305,-0.013744468,216.74292,-124.596016,-34.25604,STD
10536854372000,3.304988,-5.22052405715896,8.2731963353887,-0.356670253377093,-0.011301007,0.004886922,-0.018020526,216.74724,-124.61159,-34.26961,STD
10536859372000,3.309988,-5.2173492353456,8.27637104117355,-0.350320639586275,-0.004581489,0.0015271631,-0.015882496,216.75069,-124.62535,-34.28126,STD
10536864349000,3.314965,-5.21418901771258,8.27953114331179,-0.344000234018896,-0.01038471,-0.005192355,-0.01038471,216.75764,-124.636,-34.29066,STD
10536869451000,3.320067,-5.21094942953423,8.28277061309465,-0.337521088106746,-0.007330383,-0.0027488936,-0.007330383,216.76257,-124.646774,-34.29951,STD
10536874370000,3.324986,-5.21543088589744,8.28958497435897,-0.318244658974359,-0.0012217305,0.003970624,-0.0033597588,216.76845,-124.65517,-34.30617,STD
10536879400000,3.330016,-5.22464855820895,8.29880279104478,-0.290591767164179,-0.0070249503,-0.00030543262,-0.0009162979,216.77724,-124.66235,-34.312225,STD
10536884358000,3.334974,-5.226354374261,8.32116784643115,-0.25190385408796,-0.009162978,-0.0012217305,0.0009162979,216.77808,-124.65651,-34.305824,STD
10536889376000,3.339992,-5.22140475219899,8.35581628622927,-0.202407080449068,-0.005497787,-0.008246681,0.005497787,216.78271,-124.64926,-34.298298,STD
10536894369000,3.344985,-5.24343017214996,8.36478094873756,-0.152540141216526,-0.008552114,-0.005497787,0.007330383,216.78633,-124.64264,-34.2923,STD
10536899360000,3.349976,-5.28457203146519,8.35563810118592,-0.102255493539021,-0.01282817,-0.014660766,0.003970624,216.79634,-124.63641,-34.287083,STD
10536904302000,3.354918,-5.31852885894657,8.34448695759917,-0.0831033667600113,-0.0027488936,-0.018325957,0.007330383,216.8081,-124.62491,-34.27709,STD
10536909363000,3.359979,-5.34593017063978,8.33078606331857,-0.0968039873183831,-0.004581489,-0.029321533,0.010079277,216.82507,-124.61414,-34.26883,STD
10536914384000,3.365,-5.37274528366013,8.31251171633987,-0.113131510993464,-0.014049901,-0.040927973,0.012217305,216.84543,-124.61,-34.268715,STD
10536919410000,3.370026,-5.39896151285403,8.28629548714597,-0.134104505298475,-0.017104227,-0.04337143,0.018020526,216.86603,-124.604355,-34.266857,STD
10536924368000,3.374984,-5.42084538618677,8.2644113540856,-0.158576267587549,-0.015882496,-0.043982297,0.0143553335,216.89241,-124.608795,-34.275234,STD
10536929410000,3.380026,-5.43963370272374,8.24562254708171,-0.186758909151751,-0.0076358155,-0.05100725,0.0036651916,216.92097,-124.61374,-34.284054,STD
10536934368000,3.384984,-5.46304274503678,8.2291332479089,-0.221872499750076,-0.016187929,-0.06078109,0.005192355,216.94759,-124.62108,-34.29545,STD
10536939372000,3.389988,-5.49201934928953,8.21464519792402,-0.26533728510128,-0.013439035,-0.06505715,0.0070249503,216.97363,-124.63177,-34.30942,STD
10536944301000,3.394917,-5.51288149323715,8.20525043011722,-0.299739368259693,0.01038471,-0.065973446,0.00580322,216.99416,-124.644516,-34.3245,STD
10536950258000,3.400874,-5.5283138295762,8.20010613895401,-0.330604492144274,0.010079277,-0.07788532,0.00580322,217.010886084403,-124.652623496566,-34.3346625340898,STD
10536954348000,3.404964,-5.52331619553903,8.19049935515799,-0.348388383860595,0.015271631,-0.08735373,-0.0036651916,217.02237,-124.65819,-34.34164,STD
10536959401000,3.410017,-5.47834261710037,8.1635153489777,-0.361880466784387,0.032070424,-0.0870483,-0.0012217305,217.03857,-124.67472,-34.358807,STD
10536964354000,3.41497,-5.43810406465782,8.14130013239041,-0.37400277884389,0.042760566,-0.09132435,-0.0067195175,217.0663,-124.69954,-34.384514,STD
10536969494000,3.42011,-5.42513101713081,8.14994890600018,-0.378327188226302,0.047647487,-0.09743301,-0.006414085,217.09407,-124.7216,-34.407097,STD
10536974315000,3.424931,-5.41296310621102,8.15806091720109,-0.382383215003075,0.04734206,-0.11026118,-0.005497787,217.13011,-124.73915,-34.425213,STD
10536979436000,3.430052,-5.4031150266289,8.19056208101983,-0.332496952730878,0.0571159,-0.122478485,-0.008857546,217.16705,-124.757614,-34.44383,STD
10536984481000,3.435097,-5.39399019848914,8.2270604407932,-0.273186765568461,0.05375614,-0.13164146,-0.007330383,217.20656,-124.77323,-34.4603,STD
10536989449000,3.440065,-5.40231829064137,8.24310395859275,-0.244472139947623,0.06261369,-0.13775012,-0.010995574,217.24297,-124.78987,-34.476524,STD
10536994340000,3.444956,-5.41620517319893,8.25236200919063,-0.225956415763415,0.059253927,-0.1459968,-0.0125227375,217.28247,-124.804245,-34.49131,STD
10536999385000,3.450001,-5.42545951937665,8.25686934117417,-0.216941935346467,0.06414085,-0.16065755,-0.019242255,217.33105,-124.81683,-34.505432,STD
10537004410000,3.455026,-5.43253441205528,8.25922768798393,-0.212225337764873,0.057421334,-0.1777618,-0.015577064,217.38249,-124.82584,-34.516712,STD
10537009405000,3.460021,-5.43956706656866,8.26157195511124,-0.207536898974811,0.060170226,-0.18936823,-0.020158553,217.43666,-124.840324,-34.53364,STD
10537014399000,3.465015,-5.44659831314319,8.26391575291581,-0.202849398811134,0.061086524,-0.19608775,-0.016187929,217.494,-124.850494,-34.546745,STD
10537020129000,3.470745,-5.43431606490385,8.26106216907051,-0.230886988958333,0.06261369,-0.1994475,-0.02565634,217.55223,-124.86536,-34.56454,STD
10537024409000,3.475025,-5.41789439423077,8.25695664423077,-0.2637305275,0.06383542,-0.20372356,-0.029932396,217.61186,-124.87713,-34.57928,STD
10537029443000,3.480059,-5.37300823122867,8.26977920705347,-0.289385171729238,0.060170226,-0.21197024,-0.04184427,217.67245,-124.89467,-34.60028,STD
10537034439000,3.485055,-5.31404022724687,8.29245919036784,-0.307529167853622,0.05955936,-0.21227567,-0.038789943,217.7306,-124.9087,-34.61741,STD
10537039407000,3.490023,-5.25055858762215,8.30565097577362,-0.303235003090391,0.065973446,-0.20677789,-0.04062254,217.78612,-124.93487,-34.644527,STD
10537044409000,3.495025,-5.18229269283388,8.31052721294788,-0.278854316197068,0.06811147,-0.20280726,-0.03726278,217.84113,-124.957596,-34.66837,STD
10537049399000,3.500015,-5.12545178079936,8.31804191865836,-0.278898779622414,0.06352998,-0.21471913,-0.035124753,217.89989,-124.969246,-34.680637,STD
10537054495000,3.505111,-5.0764424157863,8.32784345390641,-0.298502474452701,0.069027774,-0.20372356,-0.034513887,217.94818,-124.98016,-34.69109,STD
10537059401000,3.510017,-5.03911239818482,8.34427952860286,-0.311441132574257,0.06566802,-0.1966986,-0.025350908,218.00574,-124.97747,-34.68906,STD
10537064384000,3.515,-5.00848819034653,8.3661543869637,-0.320190902326733,0.06566802,-0.18234327,-0.022296581,218.05551,-124.97634,-34.68781,STD
10537069400000,3.520016,-4.97819319414649,8.3948035927061,-0.327498624308918,0.061086524,-0.18203785,-0.020463986,218.10738,-124.96481,-34.67592,STD
10537074406000,3.525022,-4.9488082963224,8.43398376330575,-0.3323961072796,0.061086524,-0.160963,-0.01282817,218.1463,-124.95092,-34.660618,STD
10537079344000,3.52996,-4.93902068367651,8.45724966271143,-0.328687392527861,0.051923547,-0.15057829,-0.014660766,218.18893,-124.93181,-34.640427,STD
10537084434000,3.53505,-4.95603257662921,8.45951784562947,-0.31280960287662,0.05681047,-0.13255776,-0.0143553335,218.22112,-124.910614,-34.616966,STD
10537089911000,3.540527,-4.9743379082013,8.46195848174775,-0.295724602106512,0.053450707,-0.122783914,-0.004886922,218.25406,-124.87938,-34.583748,STD
10537094373000,3.544989,-4.98925088783881,8.46394681812894,-0.281805801040925,0.042760566,-0.11178834,0.00030543262,218.27975,-124.849556,-34.551575,STD
10537099596000,3.550212,-5.00670729587259,8.46627426790908,-0.265513130049091,0.032986723,-0.108123146,0.005192355,218.30095,-124.81857,-34.517952,STD
10537104408000,3.555024,-5.02279005203927,8.46841856971685,-0.250502535981946,0.034208454,-0.09621128,0.004276057,218.31523,-124.78825,-34.484535,STD
10537109674000,3.56029,-5.04039017547521,8.47076518096368,-0.234075730421349,0.03756821,-0.09162979,0.0036651916,218.33435,-124.759186,-34.452724,STD
10537114393000,3.565009,-5.056162105307,8.47286804052954,-0.21935524135176,0.032986723,-0.087659165,0.0012217305,218.34929,-124.73111,-34.421894,STD
10537119390000,3.570006,-5.0728631719248,8.47509478120565,-0.203767556698076,0.021991149,-0.09560041,0.0067195175,218.37022,-124.70253,-34.390953,STD
10537124407000,3.575023,-5.08767058636682,8.50338807376312,-0.205100645193403,0.027488936,-0.09468412,0.0027488936,218.38618,-124.67813,-34.363503,STD
10537129300000,3.579916,-5.10172144351824,8.53617337451274,-0.209784236530735,0.037873644,-0.09010262,0.0070249503,218.4038,-124.65004,-34.332676,STD
10537134444000,3.58506,-5.09655300538367,8.55828182456484,-0.204776030796274,0.03176499,-0.09865474,0.009773844,218.42845,-124.632935,-34.31558,STD
10537139309000,3.589925,-5.08741520195146,8.57655724059819,-0.197922709232165,0.032375857,-0.100792766,0.003970624,218.4488,-124.61786,-34.299633,STD
10537144322000,3.594938,-5.0779994139544,8.59538861995587,-0.190860900187791,0.03940081,-0.089491755,0.0106901415,218.46758,-124.597534,-34.27818,STD
10537149328000,3.599944,-5.06859677387595,8.61419370375092,-0.183808952037754,0.032070424,-0.09773844,0.0106901415,218.493,-124.58055,-34.261105,STD
10537154419000,3.605035,-5.05216912965464,8.63308757968358,-0.18544969758634,0.0290161,-0.10598512,0.008857546,218.51581,-124.56172,-34.24171,STD
10537159537000,3.610153,-5.03325573494115,8.65200112251592,-0.190178046264712,0.027183503,-0.10415252,0.0067195175,218.53752,-124.5431,-34.222683,STD
10537164376000,3.614992,-5.01526436731218,8.64173466815882,-0.197815669293499,0.005497787,-0.09315695,0.008857546,218.56157,-124.517044,-34.197285,STD
10537169435000,3.620051,-4.99640531525885,8.61816079155313,-0.207245229782016,0.0015271631,-0.08002335,0.008246681,218.58356,-124.49344,-34.173622,STD
10537174403000,3.625019,-4.98340594907975,8.59121854294479,-0.229020818711656,-0.018325957,-0.08093964,0.00030543262,218.60887,-124.4671,-34.148453,STD
10537179488000,3.630104,-4.97344725214724,8.56134260812884,-0.258896935506135,-0.011301007,-0.06994407,0.009773844,218.62561,-124.43742,-34.11842,STD
10537184505000,3.635121,-4.96875615933327,8.52638404737304,-0.253691571276928,-0.02107485,-0.04520403,0.004886922,218.636,-124.41283,-34.094166,STD
10537189374000,3.63999,-4.96648357173701,8.49002221868603,-0.233238052725899,-0.02565634,-0.04917465,0.008857546,218.65274,-124.384056,-34.065697,STD
10537194366000,3.644982,-4.96415357434935,8.45274182254606,-0.212267840237353,-0.02321288,-0.04062254,0.007330383,218.6558,-124.35654,-34.037415,STD
10537199393000,3.650009,-4.96180724084219,8.41520004542353,-0.191150601018618,-0.021991149,-0.035430185,0.012217305,218.66164,-124.32648,-34.006954,STD
10537204394000,3.65501,-4.96348667740351,8.40156076200501,-0.163054376671679,-0.024129177,-0.04153884,0.005192355,218.66801,-124.3008,-33.981,STD
10537209408000,3.660024,-4.96830046926316,8.40637470466165,-0.129357456661654,-0.020158553,-0.0421497,0.011301007,218.67133,-124.27087,-33.950253,STD
10537214364000,3.66498,-4.98596258838828,8.39543707038577,-0.0915217904051049,-0.03481932,-0.04337143,0.007941248,218.67798,-124.25206,-33.932735,STD
10537219438000,3.670054,-5.01415127559702,8.37194645683071,-0.0492386565715943,-0.021380283,-0.040927973,0.014966198,218.68393,-124.23021,-33.91088,STD
10537224408000,3.675024,-5.04677499532683,8.35818400729567,-0.0334683094319235,-0.028099801,-0.03390302,0.005497787,218.7008,-124.216034,-33.899166,STD
10537229473000,3.680089,-5.08503319792961,8.35340164458247,-0.0430328411069703,-0.04153884,-0.039095376,0.010995574,218.72125,-124.19626,-33.88175,STD
10537234465000,3.685081,-5.11359705476613,8.35555564693112,-0.0776511364428656,-0.031154128,-0.038789943,0.0067195175,218.73827,-124.18935,-33.87747,STD
10537239409000,3.690025,-5.1322856089402,8.36490016794948,-0.138389297551214,-0.03604105,-0.038179077,0.011301007,218.75685,-124.1776,-33.869396,STD
10537244345000,3.694961,-5.13364401892744,8.37741074684543,-0.186944099219243,-0.04550946,-0.04642576,0.002443461,218.78032,-124.17944,-33.87484,STD
10537249392000,3.700008,-5.11246713950228,8.3943521619348,-0.220827128412198,-0.04520403,-0.05497787,-0.005497787,218.80334,-124.17993,-33.87864,STD
10537254325000,3.704941,-5.08963332978521,8.41142422452651,-0.25795869738652,-0.034513887,-0.06047566,-0.0067195175,218.82246,-124.182846,-33.88336,STD
10537259404000,3.71002,-5.05360709230769,8.43201053846154,-0.31971801,-0.032375857,-0.060170226,-0.005192355,218.84189,-124.186775,-33.889412,STD
10537264326000,3.714942,-5.0178099204834,8.44799571107952,-0.372680459805017,-0.02687807,-0.055588737,-0.0076358155,218.86737,-124.18756,-33.891197,STD
10537269516000,3.720132,-4.97742922219966,8.4530434037778,-0.408013591885854,-0.023518313,-0.043982297,-0.003970624,218.88995,-124.186035,-33.890457,STD
10537274326000,3.724942,-4.94293879430285,8.4549426011994,-0.428199557091454,-0.029932396,-0.040317107,-0.010995574,218.9102,-124.18373,-33.88735,STD
10537279472000,3.730088,-4.91338429533233,8.45001673993004,-0.418348030002998,-0.021380283,-0.029932396,-0.008246681,218.92429,-124.17817,-33.879898,STD
10537284369000,3.734985,-4.8871513059657,8.44542457363908,-0.409163882386279,-0.02107485,-0.022907447,-0.00061086525,218.93672,-124.166595,-33.865974,STD
10537289366000,3.739982,-4.86484739582401,8.44096369845265,-0.400242318329605,-0.017104227,0.0009162979,-0.003970624,218.93953,-124.15779,-33.853794,STD
10537294396000,3.745012,-4.84913978480876,8.43498333586032,-0.389373592911083,-0.015577064,0.003970624,-0.005192355,218.9538,-124.1449,-33.83816,STD
10537299434000,3.75005,-4.87037774165118,8.42082464868434,-0.368135621284359,-0.027183503,0.018325957,0.003970624,218.95627,-124.129745,-33.819798,STD
10537304392000,3.755008,-4.89127845424044,8.40689079179302,-0.347234894145554,-0.04550946,0.034513887,0.007941248,218.96303,-124.11459,-33.8019,STD
10537309416000,3.760032,-4.91245739333855,8.39277144991686,-0.326055940304216,-0.033292156,0.05100725,0.0106901415,218.96506,-124.0981,-33.78163,STD
10537314469000,3.765085,-4.93786600937124,8.37815653784542,-0.301809405626752,-0.033292156,0.0693332,0.017715093,218.96129,-124.078445,-33.758907,STD
10537319407000,3.770023,-5.00888654223068,8.35921781477773,-0.244992895292351,-0.040011674,0.070249505,0.014966198,218.95796,-124.061264,-33.738533,STD
10537324458000,3.775074,-5.08231426077154,8.3390671252505,-0.189981578486974,-0.050701816,0.06169739,0.015271631,218.95857,-124.04945,-33.72527,STD
10537329395000,3.780011,-5.16285270923848,8.31064128416834,-0.171031403623246,-0.05497787,0.06383542,0.0125227375,218.95523,-124.03946,-33.71358,STD
10537354241000,3.804857,-5.45766370122676,8.27480650042465,-0.0436536825741248,-0.054367006,0.044593163,0.011301007,218.99202,-124.09851,-33.780083,STD
10537359307000,3.809923,-5.46441227050273,8.27041650575409,-0.0501404720878256,-0.058948494,0.028099801,0.01282817,219.01237,-124.12814,-33.81375,STD
10537364261000,3.814877,-5.4596230037553,8.26562703896628,-0.0645085838929941,-0.058337633,0.01282817,0.0070249503,219.03079,-124.15959,-33.84892,STD
10537369311000,3.819927,-5.44670389871227,8.28491069537223,-0.0911897012595573,-0.04795292,0.010995574,0.00061086525,219.04527,-124.1936,-33.886868,STD
10537374265000,3.824881,-5.43238484515091,8.30877561851107,-0.119827628961771,-0.048563786,0.017104227,0.00061086525,219.054800919988,-124.211093147538,-33.9066533189492,STD
10537379322000,3.829938,-5.40271856977547,8.30485900498945,-0.159638258157743,-0.04917465,0.0076358155,-0.008857546,219.06453,-124.22895,-33.92685,STD
10537384316000,3.834932,-5.37059567823834,8.29568081692574,-0.200939270673575,-0.041233405,0.0021380284,-0.008246681,219.09116,-124.264694,-33.966408,STD
10537389288000,3.839904,-5.33447242845451,8.29470316950928,-0.219013768936393,-0.04184427,0.00061086525,-0.009468411,219.11589,-124.2996,-34.00445,STD
10537394265000,3.844881,-5.29702411641078,8.29626354299931,-0.229936163412119,-0.042455133,0.0106901415,-0.00580322,219.13782,-124.33223,-34.039715,STD
10537399345000,3.849961,-5.25880080413789,8.29785620872753,-0.241084599003175,-0.03940081,0.013744468,-0.0061086523,219.15958,-124.36173,-34.070686,STD
10537404298000,3.854914,-5.22153307467182,8.29940905781255,-0.251954323704455,-0.03634648,0.022296581,-0.002443461,219.17561,-124.38814,-34.098183,STD
10537409395000,3.860011,-5.18318184973975,8.30100705332766,-0.263140067052411,-0.04428773,0.027488936,-0.005192355,219.19102,-124.41528,-34.126698,STD
10537414989000,3.865605,-5.14109106059515,8.30276086672996,-0.275416513646185,-0.04734206,0.025961773,-0.00030543262,219.20569,-124.43866,-34.151104,STD
10537419451000,3.870067,-5.14780599770836,8.29983807388034,-0.259836666381707,-0.048563786,0.03726278,0.0036651916,219.21367,-124.46207,-34.17532,STD
10537424409000,3.875025,-5.16909528859662,8.29510706546107,-0.23381664371245,-0.050396383,0.0421497,0.0018325958,219.22397,-124.48488,-34.19925,STD
10537429491000,3.880107,-5.19091702645344,8.29025773412046,-0.207145858072037,-0.050396383,0.042760566,-0.0012217305,219.23538,-124.48158,-34.19659,STD
10537434513000,3.885129,-5.21248112868032,8.28546565580631,-0.180789957740248,-0.049785517,0.036651913,0.005192355,219.2474,-124.47611,-34.191814,STD
10537439410000,3.890026,-5.22535228850171,8.26895620053171,-0.148413223330801,-0.044593163,0.046731193,0.01160644,219.25104,-124.470215,-34.186054,STD
10537444411000,3.895027,-5.23444710938093,8.246219029624,-0.112033723287505,-0.046731193,0.033292156,0.0070249503,219.26451,-124.46553,-34.182407,STD
10537449394000,3.90001,-5.25217687883037,8.22512235400436,-0.0903027096144178,-0.03726278,0.022907447,0.0027488936,219.27786,-124.46417,-34.18303,STD
10537454416000,3.905032,-5.2771559427132,8.20513920722967,-0.0803110788447076,-0.047036625,0.027794369,0.003970624,219.29016,-124.46188,-34.18333,STD
10537459404000,3.91002,-5.30437462504373,8.20673460162927,-0.0900973198393723,-0.043676864,0.01863139,0.0009162979,219.31177,-124.46658,-34.19131,STD
10537464396000,3.915012,-5.33304612926683,8.22107041611275,-0.111600983184467,-0.030848695,0.007941248,-0.0015271631,219.33167,-124.47076,-34.198593,STD
10537469427000,3.920043,-5.36194162961667,8.23551822914688,-0.133272643899445,-0.03268129,0.004581489,0.0012217305,219.34221,-124.48146,-34.21229,STD
10537474406000,3.925022,-5.39053846846419,8.24981671078015,-0.154720308121245,-0.035124753,0.004276057,-0.007330383,219.35457,-124.49619,-34.229736,STD
10537479486000,3.930102,-5.39844086798649,8.25232886798649,-0.177196088557891,-0.038789943,-0.004276057,-0.011301007,219.3707,-124.50848,-34.245018,STD
10537484814000,3.93543,-5.39365326656033,8.24754126656033,-0.201133610779696,-0.029626964,-0.00030543262,-0.014049901,219.38197,-124.52286,-34.26171,STD
10537489370000,3.939986,-5.37946915519679,8.25053926094756,-0.22296265119025,-0.022907447,0.0036651916,-0.014966198,219.39203,-124.536514,-34.277782,STD
10537494366000,3.944982,-5.3542262022792,8.26063669515669,-0.24820572008547,-0.016493361,0.013439035,-0.016187929,219.39821,-124.55098,-34.294094,STD
10537499393000,3.950009,-5.31850160939431,8.26760131396786,-0.264208581804697,-0.022907447,0.0061086523,-0.01740966,219.40704,-124.56466,-34.309532,STD
10537504416000,3.955032,-5.27568945658344,8.27235807634116,-0.273722416996292,-0.017104227,0.00580322,-0.014660766,219.40999,-124.57776,-34.323395,STD
10537509403000,3.960019,-5.23318413982695,8.27708074684796,-0.283168066229913,-0.028405234,0.0033597588,-0.014049901,219.39893,-124.58296,-34.32906,STD
10537514412000,3.965028,-5.19049131214833,8.28182425127318,-0.292655384660074,-0.0290161,0.011301007,-0.0036651916,219.38509,-124.584984,-34.33081,STD
10537519472000,3.970088,-5.19556875240761,8.27769078193136,-0.288850089796785,-0.032375857,0.0106901415,-0.0036651916,219.37201,-124.59366,-34.33933,STD
10537524408000,3.975024,-5.23760545296753,8.26679246719584,-0.274837834058692,-0.036651913,0.015882496,-0.0012217305,219.35498,-124.59845,-34.343746,STD
10537529382000,3.979998,-5.27996577480403,8.25581025133391,-0.260717704390686,-0.052839845,0.03359759,0.0030543262,219.34293,-124.58673,-34.331783,STD
10537534436000,3.985052,-5.32300740459127,8.24465140152164,-0.246370471712338,-0.054061573,0.033292156,0.00580322,219.33562,-124.575356,-34.32011,STD
10537539407000,3.990023,-5.36534217737962,8.23367580943284,-0.23225885840722,-0.04917465,0.042760566,0.004886922,219.31923,-124.5638,-34.30799,STD
