timestamp,rel_time,acc_x,acc_y,acc_z,gyro_x,gyro_y,gyro_z,azimuth,pitch,roll,label
8597312736000,0,1.55472379179354,-9.44410223343243,-0.895027801276139,-0.04734206,0.1554652,0.0421497,287.21118,102.4018,10.08529,STD
8597317785000,0.005049,1.55738142988833,-9.44168620109426,-0.887296490225598,-0.051923547,0.16126843,0.04184427,287.26578,102.40191,10.113493,STD
8597322730000,0.009994,1.55998432558623,-9.4393199345242,-0.879724429788892,-0.03940081,0.16798794,0.03970624,287.3199,102.40035,10.141596,STD
8597327794000,0.015058,1.56264985921903,-9.43689672443101,-0.871970149899818,-0.03176499,0.16432275,0.037873644,287.37173,102.39983,10.168266,STD
8597332771000,0.020035,1.56526959873136,-9.43451514531691,-0.86434908927424,-0.02443461,0.14935656,0.040011674,287.42145,102.396416,10.192982,STD
8597338214000,0.025478,1.56813462629125,-9.43191057728034,-0.856014463398206,-0.030543262,0.14355333,0.038789943,287.4717,102.39474,10.218128,STD
8597342727000,0.029991,1.57051013049442,-9.42975103005471,-0.84910390551128,-0.03604105,0.13958271,0.03145956,287.5173,102.39239,10.242793,STD
8597347712000,0.034976,1.57313408096035,-9.42736562280461,-0.841470594838484,-0.027488936,0.12858713,0.03176499,287.55872,102.38691,10.264081,STD
8597352753000,0.040017,1.57578750810153,-9.42495341860244,-0.833751533835161,-0.023518313,0.11056661,0.019547688,287.59558,102.38739,10.289535,STD
8597357757000,0.045021,1.57842145958228,-9.42255891952932,-0.826089129300222,-0.027794369,0.101098195,0.03481932,287.63214,102.38088,10.305949,STD
8597362742000,0.050006,1.58104541004822,-9.42017351227921,-0.818455818627426,-0.036957346,0.08307768,0.030543262,287.65942,102.38177,10.329392,STD
8597367796000,0.05506,1.58370567998901,-9.41775508735603,-0.810716851297374,-0.03390302,0.07727446,0.016187929,287.68726,102.37998,10.350579,STD
8597372753000,0.060017,1.58631489211732,-9.41538307858196,-0.803126415789842,-0.026267206,0.07727446,0.01038471,287.71136,102.37766,10.3692875,STD
8597377810000,0.065074,1.58897674116571,-9.41296321810778,-0.795382854692083,-0.029626964,0.070249505,0.021380283,287.73157,102.37571,10.385936,STD
8597383693000,0.070957,1.59207337117396,-9.41014810259075,-0.786374476219052,-0.03726278,0.054061573,0.014049901,287.748,102.37875,10.408184,STD
8597387738000,0.075002,1.59420253459115,-9.40821250132161,-0.780180546094386,-0.040317107,0.058337633,0.0143553335,287.76874,102.37691,10.42478,STD
8597392720000,0.079984,1.59682490594948,-9.40582852962251,-0.772551829189297,-0.03970624,0.06352998,0.02443461,287.78497,102.37484,10.4393635,STD
8597397714000,0.084978,1.59945359373823,-9.40343881571939,-0.764904737213381,-0.040011674,0.0693332,0.030543262,287.80228,102.374016,10.45438,STD
8597402735000,0.089999,1.60209649349539,-9.40103618185725,-0.757216301328103,-0.0421497,0.07666359,0.03481932,287.8216,102.37118,10.466603,STD
8597407714000,0.094978,1.60471728574612,-9.39865364570914,-0.749592178190721,-0.04886922,0.06627888,0.035124753,287.8373,102.368416,10.477237,STD
8597412720000,0.099984,1.60735228996527,-9.39625818960202,-0.741926711143978,-0.042455133,0.06658431,0.032986723,287.858,102.36339,10.487383,STD
8597417732000,0.104996,1.60694216984033,-9.41249993047704,-0.680535490553407,-0.042760566,0.06811147,0.030543262,287.87582,102.36026,10.496737,STD
8597422737000,0.110001,1.60218843741942,-9.45528342298919,-0.542677165962511,-0.048258353,0.06261369,0.025045475,287.8913,102.358086,10.506838,STD
8597427668000,0.114932,1.60465908892975,-9.48814881478614,-0.463241659665183,-0.054061573,0.055588737,0.023823744,287.99725,102.38752,10.557541,STD
8597432734000,0.119998,1.61874349055545,-9.50692791890846,-0.472631270553513,-0.046120327,0.052839845,0.021380283,288.10092,102.41604,10.608308,STD
8597437659000,0.124923,1.61735418869742,-9.52240403852002,-0.489543269285352,-0.050396383,0.04917465,0.017104227,288.26587,102.45037,10.668784,STD
8597442719000,0.129983,1.58296896254435,-9.53222859401926,-0.523928521084643,-0.05589417,0.041233405,0.014049901,288.4275,102.48322,10.727986,STD
8597447671000,0.134935,1.55778765586693,-9.54173181882318,-0.547493917848219,-0.058643065,0.035124753,0.007941248,288.6163,102.53391,10.800623,STD
8597453139000,0.140403,1.54752533082652,-9.55199406349518,-0.552625066973691,-0.058948494,0.031154128,0.014966198,288.80347,102.58194,10.869163,STD
8597457651000,0.144915,1.53905722355103,-9.56046210445348,-0.556859109558571,-0.055283304,0.03268129,0.015271631,289.00598,102.64222,10.945786,STD
8597462739000,0.150003,1.5295080813042,-9.5700111719171,-0.561633668218118,-0.051923547,0.026572637,0.016187929,289.20605,102.70025,11.019152,STD
8597467760000,0.155024,1.52711533793103,-9.58010929885057,-0.577140209195402,-0.0571159,0.02321288,0.017715093,289.42776,102.76942,11.101588,STD
8597472726000,0.15999,1.54273389719212,-9.59182302463054,-0.620091175812808,-0.054061573,0.0036651916,0.017104227,289.64423,102.83689,11.183041,STD
8597477695000,0.164959,1.55836189174877,-9.60354382676519,-0.663068089449918,-0.036957346,0.002443461,0.023518313,289.8863,102.90906,11.267996,STD
8597482724000,0.169988,1.5794553663054,-9.61782762031593,-0.768701184463984,-0.035430185,-0.0027488936,0.013744468,290.12277,102.98679,11.356426,STD
8597487966000,0.17523,1.60255307452073,-9.63322614605593,-0.891889042007055,-0.019547688,-0.00580322,0.018325957,290.36182,103.054565,11.4383335,STD
8597492716000,0.17998,1.62348289405961,-9.64717940764787,-1.00351481906344,-0.0290161,-0.011911872,0.013744468,290.62122,103.152336,11.540978,STD
8597497701000,0.184965,1.64544818888094,-9.66182298849752,-1.12066313456367,-0.027183503,-0.004581489,0.016187929,290.92673,103.265396,11.660113,STD
8597502733000,0.189997,1.65126038055505,-9.67109744568194,-1.21915532649261,-0.020158553,-0.0021380284,0.01985312,291.2315,103.37889,11.778876,STD
8597507754000,0.195018,1.65565015733978,-9.67987709092569,-1.31572949901406,-0.015882496,0.0021380284,0.021685716,291.54135,103.49124,11.896665,STD
8597512772000,0.200036,1.68386853805853,-9.67131959461379,-1.38769327881016,-0.007330383,0.009162978,0.015882496,291.85608,103.642334,12.033865,STD
8597517735000,0.204999,1.72002745535325,-9.65685598742202,-1.45036871699549,-0.009468411,0.024129177,0.017104227,292.17767,103.79003,12.167543,STD
8597522804000,0.210068,1.75695865659583,-9.64208346579094,-1.51438278029619,-0.009468411,0.025045475,0.015577064,292.5388,103.9755,12.330291,STD
8597527654000,0.214918,1.79229429005934,-9.62794917304864,-1.57563119359436,-0.005497787,0.032375857,0.018020526,292.90942,104.15639,12.490204,STD
8597532784000,0.220048,1.82471360353791,-9.61082027039711,-1.62442694126354,-0.01160644,0.03848451,0.020463986,293.36386,104.38326,12.693553,STD
8597538895000,0.226159,1.86168713906137,-9.58969264611913,-1.67724633287906,-0.025350908,0.055588737,0.021380283,293.8262,104.60608,12.89421,STD
8597542748000,0.230012,1.87173430887183,-9.56367992304937,-1.6542999053057,-0.009162978,0.05681047,0.025961773,294.34613,104.88317,13.140529,STD
8597547756000,0.23502,1.87909587669992,-9.52441817672039,-1.60031502332054,-0.0143553335,0.047036625,0.025045475,294.8694,105.16011,13.3841715,STD
8597552768000,0.240032,1.88646332437452,-9.4851250711691,-1.54628702242006,-0.0125227375,0.03940081,0.015577064,295.56485,105.53515,13.72141,STD
8597557754000,0.245018,1.89379255304682,-9.4460358005628,-1.49253929446917,-0.016187929,0.032986723,0.016493361,296.25592,105.8991,14.048286,STD
8597562772000,0.250036,1.88082959551813,-9.42392826577219,-1.44099637013988,-0.02687807,0.020463986,0.018020526,297.21674,106.40761,14.5146475,STD
8597567764000,0.255028,1.85808367031116,-9.41028090065658,-1.39095533468456,-0.020158553,0.013133603,0.015882496,298.1645,106.89675,14.967794,STD
8597572756000,0.26002,1.83996160441176,-9.40721213235294,-1.3193107973652,-0.018325957,0.021991149,0.0076358155,299.623,107.64462,15.6774235,STD
8597577850000,0.265114,1.82501545882353,-9.41219376470588,-1.22963387181373,-0.008246681,0.0027488936,0.0018325958,301.025,108.35208,16.35438,STD
8597582778000,0.270042,1.860439187636,-9.37899014342235,-1.15041988991098,-0.009468411,-0.01160644,0.008552114,302.39273,109.01606,16.996857,STD
8597587761000,0.275025,1.92652199870425,-9.32234757903066,-1.07489668430267,-0.00580322,-0.0421497,0.019242255,303.70895,109.64379,17.608877,STD
8597592689000,0.279953,1.92456997517737,-9.34934043432407,-1.01477336136625,-0.0033597588,-0.04550946,0.025350908,304.95126,110.205086,18.166393,STD
8597597753000,0.285017,1.87342265268456,-9.43768611409396,-0.963626014597315,0.0018325958,-0.055588737,0.007330383,306.1506,110.74101,18.70146,STD
8597602729000,0.289993,1.81924895343287,-9.49073052315661,-0.875531782637619,0.01038471,-0.067500606,-0.004581489,307.31024,111.250336,19.22099,STD
8597607756000,0.29502,1.76057422400975,-9.51028864716636,-0.748403236258379,0.0036651916,-0.0571159,0.0012217305,308.4453,111.73566,19.717915,STD
8597612780000,0.300044,1.74995595324522,-9.50788560662853,-0.665335858800552,-0.009162978,-0.05589417,0.017104227,309.48212,112.141075,20.138914,STD
8597617806000,0.30507,1.78081655005918,-9.48652064480174,-0.620231906178733,-0.0027488936,-0.04062254,0.014660766,310.50546,112.52841,20.54589,STD
8597622755000,0.310019,1.81120435221444,-9.46548300133162,-0.575818961187611,-0.00030543262,-0.03848451,0.0033597588,311.40622,112.820015,20.86149,STD
8597627841000,0.315105,1.84243336045078,-9.44386298623989,-0.530176561061353,-0.0030543262,-0.03970624,0.008246681,312.2989,113.094444,21.160656,STD
8597632785000,0.320049,1.86468379471327,-9.40149943579009,-0.494004148212443,-0.009468411,-0.04184427,0.0061086523,313.1917,113.37099,21.46588,STD
8597637771000,0.325035,1.87863080809074,-9.33641298500633,-0.466110116603057,-0.012217305,-0.049785517,-0.0036651916,314.06976,113.634514,21.757969,STD
8597642742000,0.330006,1.88269387472249,-9.30498466124635,-0.473732096053554,-0.023823744,-0.054061573,-0.005497787,314.8775,113.85922,22.01443,STD
8597647762000,0.335026,1.87333155028238,-9.31902844118792,-0.529906076910419,-0.021991149,-0.070554934,-0.006414085,315.66946,114.07472,22.261642,STD
8597652729000,0.339993,1.84395448263566,-9.34952342801034,-0.628362260390698,-0.02565634,-0.08857546,-0.009773844,316.45987,114.29374,22.512175,STD
8597657742000,0.345006,1.77944688775194,-9.40906905963824,-0.802036549525581,-0.024740042,-0.082161374,-0.0076358155,317.24298,114.500374,22.750813,STD
8597662679000,0.349943,1.71364012210353,-9.45446750383607,-0.954985402965912,-0.029321533,-0.07391469,0.0027488936,318.04373,114.71536,22.99332,STD
8597667870000,0.355134,1.64122116016315,-9.4834351692726,-1.0901674921414,-0.02321288,-0.082161374,0.0070249503,318.82968,114.91852,23.224491,STD
8597672660000,0.359924,1.58589228615445,-9.51698599538809,-1.21539090462172,-0.027488936,-0.09437868,0.0027488936,319.72382,115.17208,23.499514,STD
8597677774000,0.365038,1.54744595576489,-9.56504384564812,-1.34995293553135,-0.035124753,-0.11728613,0.0076358155,320.59427,115.404526,23.752783,STD
8597682707000,0.369971,1.52886097019832,-9.59058080099648,-1.44881853237104,-0.034513887,-0.12492194,0.018325957,321.51004,115.64794,24.012472,STD
8597687773000,0.375037,1.54781999017683,-9.57399158118406,-1.48673654758206,-0.031154128,-0.11881329,0.019242255,322.40057,115.87343,24.253942,STD
8597692676000,0.37994,1.56616899826104,-9.55793612426729,-1.5234345398007,-0.04184427,-0.13041973,0.015271631,323.24652,116.07349,24.462605,STD
8597697764000,0.385028,1.58521035113326,-9.54127486283705,-1.56151722069168,-0.03970624,-0.13439035,0.02321288,324.07788,116.25061,24.650984,STD
8597702733000,0.389997,1.60479745956858,-9.52126389090389,-1.59850312673475,-0.048258353,-0.13836098,0.025350908,324.8864,116.415436,24.82518,STD
8597708631000,0.395895,1.63175363328243,-9.48352502252553,-1.64163306097165,-0.053145275,-0.13622294,0.02443461,325.67792,116.562355,24.982542,STD
8597712748000,0.400012,1.6478583798629,-9.46577107241443,-1.66312601421145,-0.043676864,-0.12736541,0.021380283,326.4478,116.70372,25.128473,STD
8597717824000,0.405088,1.65233133630383,-9.49260876435407,-1.64076132541866,-0.036651913,-0.13133603,0.01985312,327.19733,116.83097,25.259745,STD
8597722726000,0.40999,1.65665096445068,-9.51852648813029,-1.61916327489418,-0.035124753,-0.12583824,0.018020526,327.93073,116.95234,25.385317,STD
8597727777000,0.415041,1.6611018909643,-9.54523200073611,-1.59690873527788,-0.036651913,-0.105374254,0.016493361,328.6517,117.060326,25.498878,STD
8597732715000,0.419979,1.66545324220648,-9.57134006275304,-1.57515206993927,-0.041233405,-0.1142318,0.01282817,329.329,117.14795,25.591599,STD
8597738808000,0.426072,1.60631697835828,-9.62299732433979,-1.52440592742873,-0.02565634,-0.10842858,0.0061086523,330.0041,117.224,25.676424,STD
8597742735000,0.429999,1.55970574594337,-9.6588521185051,-1.4885510958242,-0.009468411,-0.10751228,0.0021380284,330.66223,117.290085,25.750526,STD
8597747752000,0.435016,1.51748735680431,-9.71436698054434,-1.40865779445307,-0.0125227375,-0.10598512,0.006414085,331.31665,117.342545,25.815191,STD
8597752734000,0.439998,1.48292435156784,-9.77361787612543,-1.31484420298044,-0.0076358155,-0.1133155,0.006414085,331.635331700979,117.36324026584,25.8438561712972,STD
8597757758000,0.445022,1.43990548451357,-9.81543499735275,-1.25794628451357,0.01160644,-0.10781772,0.0030543262,331.9567,117.38411,25.872763,STD
8597762764000,0.450028,1.39457929480004,-9.85169572194384,-1.21262009480004,0.013133603,-0.110872045,0.0061086523,332.6022,117.40453,25.908094,STD
8597767782000,0.455046,1.38224276722993,-9.85774559907463,-1.18118769678133,0.033292156,-0.1301143,0.010995574,333.23712,117.398575,25.92271,STD
8597772758000,0.460022,1.38703603361497,-9.84815896620398,-1.15722156505733,0.035124753,-0.1459968,0.017104227,333.85968,117.38495,25.927614,STD
8597778209000,0.465473,1.33485263172925,-9.84137167747036,-1.09184680967391,0.056199603,-0.15485434,0.0036651916,334.473,117.352646,25.918055,STD
8597782739000,0.470003,1.27054986364625,-9.83708518735178,-1.02325719336957,0.058643065,-0.15974127,-0.004886922,335.07117,117.31218,25.897562,STD
8597787691000,0.474955,1.23088373327103,-9.79871778981308,-0.962145070401869,0.055588737,-0.15607607,-0.01282817,335.6552,117.26611,25.869097,STD
8597792727000,0.479991,1.20834692728972,-9.74012181186916,-0.908056688981308,0.05222898,-0.14538592,0.0076358155,336.22955,117.20884,25.828983,STD
8597797693000,0.484957,1.20207115079869,-9.7034267275997,-0.846274418459748,0.057421334,-0.13836098,0.008552114,336.75998,117.12317,25.761492,STD
8597802705000,0.489969,1.21222642882683,-9.68819402263832,-0.775187419242569,0.064446285,-0.1469131,0.014049901,337.2816,117.027626,25.68301,STD
8597807721000,0.494985,1.23063442184866,-9.69653192184866,-0.709603082171973,0.06994407,-0.15790866,0.015271631,337.78955,116.92511,25.599478,STD
8597812697000,0.499961,1.2542653634335,-9.7201628634335,-0.648162599506099,0.06383542,-0.16707164,0.017715093,338.28745,116.81847,25.510473,STD
8597817744000,0.505008,1.2968253527839,-9.73548363814087,-0.600701186277911,0.08002335,-0.16920967,0.019547688,338.7508,116.69522,25.406754,STD
8597822821000,0.510085,1.35273881356013,-9.74480225634883,-0.563425531164351,0.08399397,-0.17654006,0.019242255,339.20303,116.57214,25.300505,STD
8597827752000,0.515016,1.40583895063025,-9.72727910294118,-0.516664710714286,0.08582657,-0.18020524,0.019547688,339.63284,116.437485,25.185144,STD
8597832723000,0.519987,1.45822685558223,-9.6844164117647,-0.459514273469388,0.08827003,-0.19639318,0.02076942,340.05078,116.301895,25.067799,STD
8597837720000,0.524984,1.50862897939607,-9.63392940684449,-0.435801098408656,0.092240654,-0.21502456,0.015882496,340.44672,116.16844,24.954346,STD
8597842718000,0.529982,1.55680703312531,-9.57611610457977,-0.445436714185204,0.09162979,-0.21868975,0.015577064,340.8374,116.033585,24.838562,STD
8597847942000,0.535206,1.60642634848248,-9.53495038946544,-0.463236546017231,0.08735373,-0.21533,0.009468411,341.2052,115.905945,24.730976,STD
8597852731000,0.539995,1.65132877954768,-9.51249919737615,-0.485687747483846,0.07666359,-0.21655174,0.01282817,341.56644,115.77667,24.620148,STD
8597857720000,0.544984,1.69326462817791,-9.49369657876614,-0.513151960961263,0.08582657,-0.23518312,0.008857546,341.92578,115.667694,24.529783,STD
8597862700000,0.549964,1.72975814439024,-9.48001122439024,-0.545083811463415,0.08582657,-0.23823744,0.0067195175,342.28506,115.55871,24.437721,STD
8597867724000,0.554988,1.77880263734138,-9.46396289121981,-0.606276952783463,0.089186326,-0.24709499,0.0030543262,342.63562,115.463715,24.359726,STD
8597872733000,0.559997,1.84752789089235,-9.4443272216537,-0.714273801760131,0.10048734,-0.24770586,-0.005497787,342.98233,115.369354,24.28265,STD
8597877691000,0.564955,1.9138724163759,-9.41953427228916,-0.859391770274699,0.090713486,-0.2648101,-0.003970624,343.31995,115.285484,24.213531,STD
8597882823000,0.570087,1.98019284428916,-9.38637413253012,-1.06309022390361,0.099265605,-0.27855456,-0.0018325958,343.65274,115.200386,24.14508,STD
8597887658000,0.574922,2.03282989170623,-9.35550915503118,-1.23601875605511,0.111177474,-0.28863382,0.0012217305,344.00314,115.1453,24.103033,STD
8597892723000,0.579987,2.06895136140743,-9.32390252722703,-1.38050430483105,0.10781772,-0.2968805,0.010079277,344.3431,115.08609,24.055235,STD
8597897665000,0.584929,2.11388137807323,-9.29420824174317,-1.52418053170835,0.11026118,-0.29046643,0.019547688,344.6768,115.04879,24.022371,STD
8597902734000,0.589998,2.20096184514087,-9.26859633966445,-1.68297448505856,0.11026118,-0.28008172,0.0290161,345.00208,115.00617,23.98326,STD
8597907653000,0.594917,2.28487591795883,-9.25614487516426,-1.8131374674551,0.11209377,-0.28802297,0.03481932,345.30444,114.97167,23.946802,STD
8597912701000,0.599965,2.36957799704774,-9.27308519369251,-1.88936934305738,0.11362094,-0.27977628,0.05375614,345.6094,114.9277,23.901577,STD
8597917961000,0.605225,2.459712764058,-9.29335216665011,-1.96709552279273,0.100792766,-0.2593123,0.05589417,345.83856,114.88063,23.84668,STD
8597922726000,0.60999,2.56395055817857,-9.34320554732347,-2.01694833558447,0.10445796,-0.2574797,0.0571159,346.06262,114.82588,23.78511,STD
8597928058000,0.615322,2.67881188941637,-9.39521025924157,-2.07185047265259,0.10598512,-0.25167647,0.06994407,346.25635,114.77364,23.721996,STD
8597932736000,0.62,2.76011918459261,-9.39948967523164,-2.11036450161429,0.099571034,-0.24098633,0.0720821,346.4504,114.7236,23.66124,STD
8597938528000,0.625792,2.85535786796135,-9.40111891057971,-2.14927146247343,0.105068825,-0.23609942,0.08399397,346.61,114.67012,23.597576,STD
8597942733000,0.629997,2.87092132457971,-9.36610101130435,-2.09090841889855,0.11301007,-0.23090707,0.08552113,346.77206,114.618904,23.536537,STD
8597947682000,0.634946,2.88923845818357,-9.32488731724638,-2.02221907225121,0.11453723,-0.23243423,0.095294975,346.91846,114.57493,23.481361,STD
8597952732000,0.639996,2.94083485985663,-9.28986027583632,-1.96249019781959,0.12858713,-0.25350907,0.099265605,347.05978,114.53015,23.42673,STD
8597957655000,0.644919,2.99716292007168,-9.25700179958184,-1.9061620885902,0.13713925,-0.24404067,0.11362094,347.21042,114.47992,23.36738,STD
8597962701000,0.649965,3.08754709199387,-9.22438493602758,-1.8885477274277,0.12736541,-0.21502456,0.13041973,347.37076,114.435745,23.316929,STD
8597967808000,0.655072,3.18590795112048,-9.19159781995786,-1.87918003587435,0.12308934,-0.1704314,0.1432479,347.53824,114.38721,23.264189,STD
8597972724000,0.659988,3.26940357176726,-9.15696905270615,-1.88724966895249,0.1020145,-0.118507855,0.15424347,347.71243,114.345764,23.22011,STD
8597977684000,0.664948,3.35016466518372,-9.12107546245395,-1.90070988242184,0.09437868,-0.042760566,0.16310102,347.90662,114.3002,23.175098,STD
8597982732000,0.669996,3.40334741872799,-9.08480831170633,-1.85706763365703,0.09285152,0.028405234,0.1563815,348.10593,114.27531,23.152391,STD
8597987710000,0.674974,3.43895863151211,-9.04919683331555,-1.78075767190268,0.07666359,0.0720821,0.15363261,348.3183,114.24784,23.126799,STD
8597992720000,0.679984,3.47294446363094,-9.02243781169219,-1.76574583766156,0.06078109,0.11484267,0.13316862,348.52432,114.2372,23.120768,STD
8597997716000,0.68498,3.50624331525154,-8.99865291767747,-1.77050281646451,0.035124753,0.15241088,0.12095132,348.73993,114.22611,23.1133,STD
8598002729000,0.689993,3.51827762305383,-8.97108356153692,-1.76452995389234,0.03145956,0.19700404,0.118507855,348.9772,114.225174,23.121655,STD
8598007720000,0.694984,3.52306027352411,-8.94238805823494,-1.75496465295177,0.03604105,0.23976462,0.12492194,349.22177,114.224815,23.13018,STD
8598012708000,0.699972,3.45377550794042,-8.97040566443085,-1.68206623433616,0.04337143,0.2501493,0.13622294,349.45398,114.227005,23.139832,STD
8598017752000,0.705016,3.35847987965082,-9.01805350345236,-1.58677050653975,0.04917465,0.2764165,0.13408493,349.70013,114.22909,23.151508,STD
8598022721000,0.709985,3.28093439550056,-9.03740310179978,-1.44771910168729,0.05222898,0.2929099,0.10781772,349.94177,114.23555,23.168087,STD
8598027721000,0.714985,3.20911727889014,-9.04637994844395,-1.2906192704162,0.040317107,0.2938262,0.09987647,350.18323,114.23663,23.17835,STD
8598033089000,0.720353,3.09874939198725,-9.06690500786397,-1.16863303812965,0.002443461,0.28252518,0.089186326,350.4477,114.227905,23.180384,STD
8598037701000,0.724965,2.98609925800213,-9.090373765356,-1.08883921364506,-0.03268129,0.28496864,0.08032878,350.71124,114.21974,23.182299,STD
8598042679000,0.729943,2.88020138626907,-9.11119546324549,-1.07625513231623,-0.039095376,0.28099802,0.08979719,351.00507,114.19875,23.176155,STD
8598047694000,0.734958,2.78028245472558,-9.13022752238954,-1.09528729082623,-0.05589417,0.27152961,0.09987647,351.29028,114.181175,23.169157,STD
8598052721000,0.739985,2.65123581454779,-9.18817046385245,-1.09808921274287,-0.052534413,0.2770274,0.09560041,351.58926,114.13949,23.14129,STD
8598057746000,0.74501,2.50884469066969,-9.26411244284446,-1.09334284525101,-0.06719518,0.28527406,0.08979719,351.87924,114.096375,23.108349,STD
8598062735000,0.749999,2.40474028817353,-9.28636310410063,-1.09489483034865,-0.089186326,0.30085114,0.09254608,352.16257,114.02803,23.049168,STD
8598067738000,0.755002,2.31931733375594,-9.28161729080824,-1.09964054453249,-0.111177474,0.32406402,0.09987647,352.44437,113.96,22.98923,STD
8598072733000,0.759997,2.23147506860672,-9.30178513648481,-1.08493804002133,-0.1133155,0.34208453,0.10720685,352.73645,113.859985,22.896284,STD
8598077768000,0.765032,2.14149795429181,-9.33606286529234,-1.05923028029145,-0.1151481,0.3640757,0.100792766,353.0305,113.762924,22.805218,STD
8598082727000,0.769991,2.04465464593675,-9.36269652712497,-1.01309390587085,-0.11026118,0.3817908,0.1133155,353.34055,113.64756,22.695858,STD
8598087702000,0.774966,1.93477789736438,-9.37839296354052,-0.934610554618933,-0.11789699,0.37507126,0.12370021,353.64304,113.53527,22.588053,STD
8598092713000,0.779977,1.79117539339614,-9.42912900609002,-0.879580822080122,-0.12308934,0.37507126,0.12339478,353.9567,113.40087,22.459373,STD
8598097794000,0.785058,1.61985450711771,-9.50784413464649,-0.842538451302693,-0.13164146,0.3827071,0.11148291,354.26434,113.26798,22.330961,STD
8598102702000,0.789966,1.49312889713949,-9.55677919964612,-0.830132052896884,-0.15332718,0.40103304,0.11056661,354.5886,113.11634,22.18437,STD
8598107649000,0.794913,1.40930153718667,-9.57540740460041,-0.844103299007176,-0.16676621,0.4071417,0.11178834,354.90497,112.96813,22.040655,STD
8598112639000,0.799903,1.36186210679,-9.60202797264318,-0.856246813580004,-0.16218472,0.4269948,0.11484267,355.2345,112.78064,21.857662,STD
8598117676000,0.80494,1.36660904062192,-9.64000324503051,-0.86574068124385,-0.16279559,0.4392121,0.12003502,355.558,112.595436,21.674997,STD
8598122635000,0.809899,1.34892278103466,-9.69851172364789,-0.869620254595645,-0.14935656,0.43799037,0.1133155,355.88348,112.397156,21.479424,STD
8598127653000,0.814917,1.29487711001943,-9.79186314599734,-0.864707016440037,-0.13591751,0.43310347,0.10567969,356.20602,112.19982,21.284542,STD
8598132608000,0.819872,1.2681358679845,-9.84295847253402,-0.845923038320254,-0.11881329,0.42577308,0.08827003,356.53296,112.00837,21.098097,STD
8598138393000,0.825657,1.27914242381047,-9.83745562560842,-0.801896567916956,-0.11453723,0.43493605,0.099265605,356.8581,111.81306,20.907452,STD
8598142585000,0.829849,1.2633833267832,-9.8408105677098,-0.758149921351377,-0.10293079,0.42913285,0.1020145,357.18152,111.61051,20.710964,STD
8598147669000,0.834933,1.21305230011277,-9.85453703326755,-0.689516556791655,-0.09315695,0.41263947,0.087964594,357.49835,111.411766,20.517868,STD
8598152616000,0.83988,1.16288727909184,-9.86137275979592,-0.6033114177,-0.07574729,0.4083634,0.0888809,357.80978,111.20892,20.322847,STD
8598157655000,0.844919,1.10872065142857,-9.85152408571429,-0.465432788,-0.06505715,0.39706242,0.0852157,358.10803,111.01346,20.13427,STD
8598162638000,0.849902,1.04291006048462,-9.83714323245526,-0.334426596167303,-0.057421334,0.3811799,0.094989546,358.4189,110.80641,19.938025,STD
8598167651000,0.854915,0.951198601463905,-9.81300865654535,-0.213753635974261,-0.058337633,0.34391713,0.10598512,358.71436,110.602646,19.743496,STD
8598172675000,0.859939,0.836558551574765,-9.78593806269987,-0.151573228512453,-0.051618114,0.3213151,0.103847094,359.00577,110.38517,19.540741,STD
8598177657000,0.864921,0.6793537552069,-9.75357268485318,-0.202433601819944,-0.056505036,0.29138273,0.094989546,359.2791,110.17093,19.338116,STD
8598182652000,0.869916,0.546872536663376,-9.72355062507404,-0.247202635328727,-0.052839845,0.2910773,0.087659165,359.55167,109.93859,19.120977,STD
8598187658000,0.874922,0.480615779328727,-9.69988751510365,-0.275598387060217,-0.061086524,0.28405234,0.102319926,359.80936,109.70775,18.902147,STD
8598192635000,0.879899,0.434247992550505,-9.67666585147774,-0.318825628983352,-0.062308256,0.26542094,0.106595986,0.06766193,109.46019,18.663458,STD
8598197647000,0.884911,0.4477157175,-9.65421966666667,-0.408610429166667,-0.056505036,0.2669481,0.11484267,0.3264955,109.21161,18.42328,STD
8598202725000,0.889989,0.457654594076124,-9.63121978789169,-0.486385014606608,-0.07360926,0.25961772,0.12217305,0.58058864,108.96039,18.175709,STD
8598207724000,0.894988,0.441348578853883,-9.60676069908038,-0.470079003641008,-0.06780604,0.26450464,0.13164146,0.8353051,108.708115,17.929108,STD
8598212682000,0.899946,0.425176299703678,-9.58250221491826,-0.453906728712534,-0.07238753,0.267559,0.13469578,1.0938551,108.47381,17.695019,STD
8598217732000,0.904996,0.436653653065873,-9.57298838497845,-0.453928465276011,-0.06291912,0.2501493,0.13713925,1.3441733,108.23917,17.461159,STD
8598222662000,0.909926,0.456031309940488,-9.56814387338395,-0.4587728757008,-0.05681047,0.22266038,0.13255776,1.5885346,108.00993,17.231411,STD
8598227719000,0.914983,0.474180119891823,-9.56360657874954,-0.48142680727081,-0.043066,0.20372356,0.12767084,1.8282278,107.77986,17.002207,STD
8598232704000,0.919968,0.491686673953062,-9.55922985111845,-0.507686629222589,-0.051618114,0.17012598,0.12156218,2.0518763,107.55641,16.776758,STD
8598237725000,0.924989,0.522941607638328,-9.57324527584814,-0.535858290555331,-0.04734206,0.12675454,0.1142318,2.2634888,107.337296,16.558718,STD
8598242860000,0.930124,0.562664467164782,-9.59807204684976,-0.565650446865913,-0.060170226,0.09468412,0.110872045,2.465466,107.12451,16.34383,STD
8598247713000,0.934977,0.596970034919355,-9.62150959637097,-0.596970034919355,-0.05467244,0.054061573,0.09865474,2.648998,106.92315,16.139889,STD
8598252731000,0.939995,0.630880788629032,-9.64573156330645,-0.630880788629032,-0.049480084,0.024129177,0.09040806,2.8238344,106.72616,15.9382925,STD
8598257721000,0.944985,0.673939452025015,-9.67279711842366,-0.644875375550923,-0.04550946,0.0018325958,0.08827003,2.9872744,106.54291,15.748257,STD
8598262701000,0.949965,0.721281633680762,-9.70120249662498,-0.649609638207266,-0.051923547,-0.027488936,0.07788532,3.1374044,106.36781,15.564889,STD
8598267744000,0.955008,0.746674471679029,-9.7170557100472,-0.629615346743088,-0.04795292,-0.04337143,0.076358154,3.2885613,106.198364,15.389233,STD
8598272726000,0.95999,0.760462628195742,-9.72624800635777,-0.59744295274251,-0.056199603,-0.055588737,0.07666359,3.4301698,106.03581,15.218045,STD
8598277721000,0.964985,0.7745083474906,-9.73282400059371,-0.592549067112606,-0.040011674,-0.06352998,0.07544186,3.5770433,105.884476,15.062348,STD
8598282808000,0.970072,0.788970241503067,-9.7376447208589,-0.607010925889571,-0.03940081,-0.063224554,0.07727446,3.720847,105.736916,14.9079,STD
8598287712000,0.974976,0.802731500521377,-9.74223162565293,-0.618153326102728,-0.03604105,-0.06505715,0.08032878,3.8642766,105.592255,14.759672,STD
8598292725000,0.979989,0.816663155103502,-9.74687512420197,-0.627441094207777,-0.043676864,-0.07238753,0.0888809,4.0043626,105.44905,14.611439,STD
8598297705000,0.984969,0.845682429824561,-9.75654816842105,-0.629616225087719,-0.050396383,-0.074830994,0.09407325,4.1423287,105.309456,14.467463,STD
8598302735000,0.989999,0.890423630959752,-9.77146219628483,-0.62464498628483,-0.036651913,-0.0693332,0.09162979,4.2786283,105.17087,14.325427,STD
8598307722000,0.994986,0.919135054781056,-9.77391774961567,-0.649173560134887,-0.033292156,-0.058948494,0.087964594,4.4127345,105.03579,14.186123,STD
8598312730000,0.999994,0.935783926644186,-9.76678237406397,-0.696741769360774,-0.03573562,-0.04917465,0.09132435,4.5465555,104.901115,14.047722,STD
8598317735000,1.004999,0.952422825141582,-9.75965127289859,-0.744281483253657,-0.037873644,-0.04062254,0.09254608,4.6790376,104.77669,13.920766,STD
8598322763000,1.010027,0.969138186109596,-9.75248740143814,-0.792039661366229,-0.03481932,-0.024129177,0.089186326,4.8146987,104.654434,13.796415,STD
8598327755000,1.015019,0.98304483624031,-9.74546273013566,-0.81775488693217,-0.04520403,-0.0125227375,0.09407325,4.9486012,104.530334,13.669925,STD
8598332833000,1.020097,0.994825599418605,-9.73839437063953,-0.824823354680233,-0.041233405,-0.01160644,0.08155051,5.0816345,104.41223,13.551229,STD
8598338770000,1.026034,1.00859920930233,-9.73013031976744,-0.833087532116279,-0.045814894,-0.0036651916,0.08246681,5.216041,104.3051,13.436659,STD
8598342766000,1.03003,1.0178697744186,-9.72456805813954,-0.838649878930233,-0.040317107,-0.004276057,0.07727446,5.345507,104.20307,13.328435,STD
8598347707000,1.034971,1.03214381600234,-9.71860258707728,-0.840902625845434,-0.04337143,-0.004276057,0.07666359,5.476595,104.100624,13.219824,STD
8598352757000,1.040021,1.05099693606861,-9.71388922093363,-0.836189358132736,-0.03390302,-0.005497787,0.06780604,5.6045628,104.00144,13.116167,STD
8598357711000,1.044975,1.07120702330078,-9.709245681168,-0.815183051652363,-0.036651913,-0.008246681,0.06383542,5.727895,103.90905,13.017216,STD
8598362712000,1.049976,1.09483017452895,-9.70452095225412,-0.763212069616257,-0.02321288,-0.011911872,0.054061573,5.848119,103.819244,12.923386,STD
8598367701000,1.054965,1.10321612407501,-9.70745990927522,-0.720143824075013,-0.02107485,-0.017104227,0.052534413,5.9678435,103.73652,12.834949,STD
8598372726000,1.05999,1.07882513573239,-9.72697310745058,-0.695752835732387,-0.021685716,-0.021685716,0.049785517,6.08424,103.656654,12.750341,STD
8598377652000,1.064916,1.04570650044274,-9.74118733057851,-0.66578313122196,-0.024740042,-0.030543262,0.045814894,6.1949496,103.581215,12.672394,STD
8598382738000,1.070002,0.992992592394726,-9.74597909917355,-0.622653581009445,-0.024129177,-0.03145956,0.051618114,6.304738,103.50454,12.593232,STD
8598387657000,1.074921,0.941904007369255,-9.7441691929477,-0.595913404385895,-0.021380283,-0.037873644,0.043982297,6.4027343,103.42562,12.511568,STD
8598392720000,1.079984,0.88907504256141,-9.72736014327456,-0.603117344786549,-0.024740042,-0.041233405,0.051618114,6.500294,103.34289,12.425008,STD
8598397690000,1.084954,0.837216469562203,-9.71085985157488,-0.61018895920315,-0.025045475,-0.03756821,0.058337633,6.59876,103.256905,12.333568,STD
8598402732000,1.089996,0.784606625485341,-9.69412052144414,-0.617363019542888,-0.01863139,-0.03604105,0.060170226,6.6943808,103.17126,12.242536,STD
8598407694000,1.094958,0.734478173637589,-9.68465446687849,-0.635005165508377,-0.02321288,-0.03604105,0.06078109,6.78946,103.08676,12.151329,STD
8598412770000,1.100034,0.687673015925284,-9.69401520518005,-0.68181035743212,-0.022296581,-0.027794369,0.06383542,6.886198,103.00133,12.060472,STD
8598417738000,1.105002,0.652200419308126,-9.70619259654063,-0.727058179897426,-0.022296581,-0.03176499,0.067500606,6.9832463,102.89875,11.950523,STD
8598422726000,1.10999,0.657004228479485,-9.73021164239742,-0.770292492536203,-0.027183503,-0.038179077,0.07086037,7.0807424,102.79765,11.841548,STD
8598428200000,1.115464,0.681970494845222,-9.75201183041723,-0.824211173532974,-0.02076942,-0.040011674,0.073303826,7.1820097,102.69048,11.724458,STD
8598432738000,1.120002,0.744640466800615,-9.76036799769275,-0.882703162190925,-0.024129177,-0.053450707,0.06780604,7.276694,102.588005,11.60999,STD
8598437706000,1.12497,0.809388555181606,-9.76747181372876,-0.93910785044985,-0.022296581,-0.054061573,0.069027774,7.3758082,102.4856,11.495304,STD
8598442718000,1.129982,0.848231910676441,-9.76061720526491,-0.94367766497834,-0.019547688,-0.06291912,0.067500606,7.4673123,102.38745,11.384143,STD
8598447732000,1.134996,0.887090766313134,-9.75375986152235,-0.948249303056124,-0.025961773,-0.06658431,0.06169739,7.5435047,102.30695,11.284828,STD
8598452733000,1.139997,0.925848871027753,-9.74692029709145,-0.952809088063503,-0.033292156,-0.07391469,0.06291912,7.615492,102.22632,11.185168,STD
8598457699000,1.144963,0.964335723259866,-9.74012860003808,-0.957336960958252,-0.02565634,-0.0842994,0.05589417,7.684495,102.149826,11.090828,STD
8598462704000,1.149968,1.01716906809992,-9.7373442471335,-0.944068457600328,-0.021380283,-0.086132,0.056505036,7.7534676,102.07363,10.995464,STD
8598467776000,1.15504,1.07186904074529,-9.73485783517609,-0.929150287018837,-0.020463986,-0.07788532,0.055588737,7.821569,102.00056,10.903979,STD
8598472723000,1.159987,1.12522092652539,-9.73243270111589,-0.914599776398444,-0.026267206,-0.083383106,0.048563786,7.879456,101.9515,10.83301,STD
8598478002000,1.165266,1.17900937165877,-9.72950495308057,-0.899157787232228,-0.017715093,-0.08307768,0.043676864,7.94081,101.90104,10.763009,STD
8598482717000,1.169981,1.1918495456872,-9.72308473199052,-0.886317599796209,-0.01160644,-0.076052725,0.039095376,8.00173,101.85401,10.695876,STD
8598487714000,1.174978,1.20545767922275,-9.71628052312796,-0.872709452051185,-0.014660766,-0.0693332,0.040317107,8.051951,101.82325,10.648389,STD
8598492720000,1.179984,1.21909032210427,-9.70946405933649,-0.859076794934597,-0.020158553,-0.061391957,0.040011674,8.103731,101.79393,10.603362,STD
8598498304000,1.185568,1.23429700964929,-9.70186055677725,-0.843870091510901,-0.02565634,-0.05589417,0.04062254,8.156109,101.76472,10.558324,STD
8598502702000,1.189966,1.23939593469004,-9.68136582654978,-0.870673867814653,-0.020158553,-0.04642576,0.038789943,8.211123,101.73576,10.514839,STD
8598507655000,1.194919,1.2443462467752,-9.65661426612398,-0.905326083425172,-0.028710667,-0.04337143,0.035430185,8.265094,101.709724,10.472028,STD
8598512759000,1.200023,1.24288746477167,-9.63873908480895,-0.911894093038211,-0.025045475,-0.030543262,0.042760566,8.325908,101.68557,10.435702,STD
8598517715000,1.204979,1.24055938213077,-9.62244265218031,-0.914222173248148,-0.018936822,-0.014049901,0.040927973,8.387381,101.66537,10.403309,STD
8598522761000,1.210025,1.23818902196007,-9.60585027949183,-0.916592530943739,-0.01863139,-0.0067195175,0.041233405,8.44822,101.645805,10.369617,STD
8598527654000,1.214918,1.23589053359003,-9.58976100490509,-0.91889101691372,-0.003970624,0.0125227375,0.03756821,8.516055,101.62501,10.338446,STD
8598532785000,1.220049,1.23164846854792,-9.59014351367898,-0.926892722718577,-0.01282817,0.030848695,0.03268129,8.583287,101.603096,10.306013,STD
8598538810000,1.226074,1.22612902909891,-9.59566278022766,-0.937931616024967,-0.01160644,0.029626964,0.025350908,8.649054,101.5796,10.275416,STD
8598542755000,1.230019,1.22251505588292,-9.5992766402334,-0.945159571891142,-0.008246681,0.040011674,0.024740042,8.722087,101.557,10.245231,STD
8598547757000,1.235021,1.21793277602831,-9.60385877654486,-0.954324143562273,-0.004886922,0.04184427,0.026267206,8.790871,101.5355,10.216241,STD
8598552763000,1.240027,1.20387418711944,-9.61791757142857,-0.954585605620609,-0.009468411,0.044898596,0.024129177,8.861572,101.51565,10.188745,STD
8598557760000,1.245024,1.18438319043886,-9.63740897515528,-0.94971283101008,-0.0076358155,0.058948494,0.025350908,8.934822,101.49323,10.16018,STD
8598562740000,1.250004,1.18103599191283,-9.64075624358354,-0.954281249951574,-0.017104227,0.0711658,0.025350908,9.007686,101.47267,10.130177,STD
8598568063000,1.255327,1.18597326129782,-9.63581887108959,-0.964155814498789,-0.014049901,0.06963864,0.034513887,9.079577,101.44754,10.097209,STD
8598572806000,1.26007,1.18451012656282,-9.62522589085878,-0.955201590515474,-0.02107485,0.077579886,0.03176499,9.1546335,101.42533,10.063581,STD
8598577753000,1.265017,1.17965498928059,-9.61066017483091,-0.935781016038123,-0.028710667,0.09193522,0.032070424,9.23018,101.39981,10.026764,STD
8598582772000,1.270036,1.18724893720379,-9.61483883145735,-0.932050795734597,-0.02076942,0.10354166,0.039095376,9.305596,101.373436,9.989953,STD
8598587763000,1.275027,1.20140705592417,-9.62899724585308,-0.93677016864139,-0.03726278,0.11178834,0.03634648,9.382592,101.35379,9.956211,STD
8598592764000,1.280028,1.21117267970033,-9.63876291711882,-0.923543776509533,-0.04520403,0.11759156,0.03634648,9.461393,101.32842,9.919912,STD
8598597751000,1.285015,1.21830486670815,-9.64589500482851,-0.89976980740455,-0.05497787,0.13744467,0.035430185,9.545127,101.30647,9.885327,STD
8598602729000,1.289993,1.2254241823137,-9.65301422131515,-0.876038742996167,-0.05589417,0.13347405,0.02687807,9.616356,101.29649,9.855922,STD
8598607759000,1.295023,1.23261786602121,-9.66020780486834,-0.852059784785206,-0.055588737,0.13897185,0.027488936,9.694902,101.28527,9.824922,STD
8598612752000,1.300016,1.21119380677162,-9.65730055248619,-0.819969076086638,-0.06536258,0.1469131,0.028405234,9.771421,101.27729,9.796149,STD
8598617715000,1.304979,1.17168837044932,-9.64800520994475,-0.782787487532391,-0.07819075,0.14996742,0.023518313,9.846606,101.27063,9.768796,STD
8598622722000,1.309986,1.13183269451425,-9.63862745856354,-0.745276261682883,-0.09101892,0.14508049,0.022602014,9.920434,101.26131,9.742403,STD
8598627717000,1.314981,1.09207253847357,-9.62927218232044,-0.7078549369139,-0.09040806,0.14172074,0.022602014,9.994086,101.25251,9.71714,STD
8598632731000,1.319995,1.0399953345844,-9.62218271483937,-0.656923047679755,-0.10293079,0.14263703,0.019242255,10.066125,101.2481,9.692962,STD
8598637732000,1.324996,0.976495360229475,-9.61729800530342,-0.593423098827129,-0.11148291,0.12705997,0.015882496,10.131162,101.24267,9.668118,STD
8598642714000,1.329978,0.940702942082552,-9.62004804165103,-0.562564630694184,-0.10995574,0.12339478,0.024129177,10.202491,101.21532,9.62568,STD
8598647704000,1.334968,0.92725409630394,-9.6290141260788,-0.558081682101313,-0.10170906,0.11728613,0.02565634,10.267284,101.190834,9.585901,STD
8598652727000,1.339991,0.904192318068536,-9.65703956414613,-0.549761879241008,-0.106595986,0.11484267,0.024740042,10.336834,101.15273,9.534106,STD
8598657717000,1.344981,0.868101871028037,-9.71117491673747,-0.536227970433305,-0.09101892,0.10995574,0.022296581,10.40291,101.110985,9.482689,STD
8598662736000,1.35,0.839881395418485,-9.7506278293336,-0.512336392116224,-0.086437434,0.12308934,0.021380283,10.470266,101.07016,9.42854,STD
8598667747000,1.355011,0.83036345709639,-9.75538688794129,-0.464746750198334,-0.08399397,0.11056661,0.020158553,10.527859,101.02866,9.374997,STD
8598672705000,1.359969,0.821065575949991,-9.76130583709036,-0.427146621272968,-0.0693332,0.100792766,0.024740042,10.592447,100.97563,9.312475,STD
8598677716000,1.36498,0.811974963182421,-9.77039663970449,-0.413510692629286,-0.07727446,0.10873401,0.027794369,10.657583,100.92714,9.251765,STD
8598683645000,1.370909,0.818833923677735,-9.7750435101972,-0.399349447264453,-0.07269296,0.10751228,0.0290161,10.721163,100.87043,9.190519,STD
8598687707000,1.374971,0.851617508896005,-9.76848666307096,-0.392792730220799,-0.06078109,0.109650314,0.034513887,10.787293,100.81296,9.128408,STD
8598692656000,1.37992,0.891559892757458,-9.76049802781055,-0.384804253448508,-0.05955936,0.1001819,0.034208454,10.849361,100.755875,9.066205,STD
8598697708000,1.384972,0.94698059274977,-9.68472828029451,-0.398659181767052,-0.057421334,0.07819075,0.034208454,10.90768,100.69649,9.003008,STD
8598702686000,1.38995,1.00548145417936,-9.59210205041415,-0.418159482484917,-0.05467244,0.073303826,0.03359759,10.967308,100.638115,8.941256,STD
8598707729000,1.394993,0.965890523876289,-9.64878909362699,-0.417590956680412,-0.05589417,0.057726767,0.03726278,11.017261,100.58766,8.889034,STD
8598712712000,1.399976,0.907748468907217,-9.73376582249297,-0.413118483010309,-0.050701816,0.032375857,0.030543262,11.061916,100.53935,8.840305,STD
8598717729000,1.404993,0.873194491805028,-9.74829701795793,-0.474617505095947,-0.05375614,0.015271631,0.021380283,11.105676,100.50477,8.806645,STD
8598722661000,1.409925,0.848960096328374,-9.73375660133402,-0.561861300469985,-0.063224554,-0.013133603,0.015882496,11.138126,100.47185,8.773305,STD
8598727721000,1.414985,0.802519983073661,-9.74009560542085,-0.61101124894994,-0.05467244,-0.01985312,0.021380283,11.176057,100.424484,8.725838,STD
8598732725000,1.419989,0.749503647976399,-9.75334949313174,-0.64635546927261,-0.059253927,-0.03268129,0.01740966,11.203262,100.38509,8.682464,STD
8598738816000,1.42608,0.699480360156822,-9.73445996696289,-0.652697674887611,-0.058643065,-0.05467244,0.016798794,11.231785,100.34302,8.632753,STD
8598742724000,1.429988,0.672090612033455,-9.71098295828542,-0.644871991709357,-0.06994407,-0.07360926,0.019242255,11.257195,100.30461,8.58389,STD
8598747711000,1.434975,0.675837503162791,-9.68325988744186,-0.665706516465116,-0.07544186,-0.10262536,0.0076358155,11.2815075,100.26756,8.530698,STD
8598753559000,1.440823,0.701886399162791,-9.65200164744186,-0.707384804465116,-0.061086524,-0.12156218,0.0125227375,11.303742,100.22548,8.472907,STD
8598757722000,1.444986,0.724745193491626,-9.63849105702777,-0.739675844221963,-0.07391469,-0.14080444,0.010995574,11.318633,100.188805,8.414899,STD
8598762712000,1.449976,0.75513838747085,-9.62835978079288,-0.78020013988658,-0.08460484,-0.14966199,0.021380283,11.331771,100.14653,8.353064,STD
8598767747000,1.455011,0.827257364841356,-9.60024600721558,-0.816264459931798,-0.0852157,-0.16310102,0.009162978,11.333992,100.11657,8.30223,STD
8598772727000,1.459991,0.921539293871701,-9.56253347187901,-0.849263115402787,-0.076358154,-0.17104226,0.005192355,11.336312,100.083206,8.247174,STD
8598777728000,1.464992,1.02904029996293,-9.53709837955325,-0.883869396681806,-0.0729984,-0.16371189,0.007941248,11.338773,100.06011,8.200428,STD
8598782749000,1.470013,1.14491887415887,-9.51927054861433,-0.919524337218463,-0.06811147,-0.15241088,0.0143553335,11.340662,100.035904,8.154605,STD
8598787730000,1.474994,1.21996494510935,-9.51309087775883,-0.935205242769362,-0.08032878,-0.14905111,0.01160644,11.339173,100.0323,8.130641,STD
8598792719000,1.479983,1.24872419276685,-9.52028083356742,-0.928015439613764,-0.079107046,-0.13072516,-0.005497787,11.345279,100.02755,8.110168,STD
8598797695000,1.484959,1.27740850151485,-9.52745205427368,-0.920844371162721,-0.087964594,-0.14019357,-0.011911872,11.33634,100.04461,8.109934,STD
8598802760000,1.490024,1.30660585356641,-9.53475153837279,-0.913545042042035,-0.093462385,-0.16554448,-0.010995574,11.327856,100.06249,8.112308,STD
8598807722000,1.494986,1.32852461433384,-9.53619154701378,-0.902871431203675,-0.102319926,-0.16798794,-0.012217305,11.324871,100.08504,8.11827,STD
8598812715000,1.499979,1.34316993206738,-9.53130967248596,-0.888226082885146,-0.10293079,-0.16523905,-0.019242255,11.316171,100.10749,8.124816,STD
8598817753000,1.505017,1.36261051186056,-9.50190532619001,-0.905627700661663,-0.09407325,-0.16798794,-0.019547688,11.298791,100.137764,8.139877,STD
8598823431000,1.510695,1.38946067818487,-9.44283472476792,-0.959328201530713,-0.09896017,-0.16737708,-0.029626964,11.282933,100.173294,8.159456,STD
8598827720000,1.514984,1.38911198381249,-9.45088331488159,-0.992762368667771,-0.10903945,-0.172264,-0.031154128,11.26424,100.206665,8.17907,STD
8598832735000,1.519999,1.37038962668356,-9.50705072838905,-1.02552662804795,-0.11209377,-0.19425514,-0.035124753,11.240659,100.24152,8.201227,STD
8598837719000,1.524983,1.31702771814441,-9.55409222446689,-1.03997390317995,-0.118507855,-0.21044308,-0.04184427,11.221912,100.28215,8.229942,STD
8598842722000,1.529986,1.21844175953984,-9.58994144276094,-1.03101150502245,-0.11759156,-0.21533,-0.06994407,11.199539,100.32674,8.264914,STD
8598847683000,1.534947,1.14328810979051,-9.61214974775545,-1.05436178200085,-0.12705997,-0.24770586,-0.08368854,11.167039,100.368935,8.290103,STD
8598852708000,1.539972,1.12271375322788,-9.60186289172723,-1.15723367223172,-0.13041973,-0.25809056,-0.07544186,11.139628,100.41009,8.316882,STD
8598857684000,1.544948,1.13346449751037,-9.5945512903861,-1.23458035698713,-0.12644911,-0.23518312,-0.06688975,11.120219,100.43742,8.32663,STD
8598862706000,1.54997,1.18758331991701,-9.59116879555524,-1.27855190681483,-0.1282817,-0.20372356,-0.070249505,11.100846,100.466324,8.337225,STD
8598867708000,1.554972,1.2414866153527,-9.58779977143259,-1.32234834095225,-0.13469578,-0.1957823,-0.076358154,11.083152,100.49606,8.340848,STD
8598872728000,1.559992,1.28391264372504,-9.5849715316654,-1.32380371920142,-0.12370021,-0.18478674,-0.070249505,11.076018,100.52013,8.34283,STD
8598877739000,1.565003,1.31787022912813,-9.58254593919636,-1.29469719210008,-0.116980694,-0.18203785,-0.070554934,11.068673,100.54788,8.34809,STD
8598882705000,1.569969,1.35152286714683,-9.58014212913824,-1.26585204869851,-0.119729586,-0.17623462,-0.06291912,11.0467005,100.58392,8.357757,STD
8598887728000,1.574992,1.38556177185241,-9.57771072802628,-1.23667581927723,-0.11484267,-0.18509217,-0.06811147,11.021429,100.61935,8.370501,STD
8598892665000,1.579929,1.41006052290722,-9.56792202971693,-1.23767809198146,-0.113926366,-0.18661933,-0.073303826,10.995174,100.65422,8.37979,STD
8598897704000,1.584968,1.42950551985494,-9.55333852311877,-1.25712303816863,-0.111177474,-0.2049453,-0.09132435,10.961638,100.69098,8.39321,STD
8598902730000,1.589994,1.50788906916473,-9.57600354560145,-1.29206514280376,-0.09682214,-0.2452624,-0.1001819,10.917429,100.72955,8.418149,STD
8598907761000,1.595025,1.61981324496516,-9.61979982082618,-1.33586157046763,-0.07819075,-0.23762658,-0.102319926,10.882059,100.76831,8.446821,STD
8598912784000,1.600048,1.59247659418581,-9.64391450649351,-1.28601879418581,-0.082161374,-0.16432275,-0.067500606,10.845648,100.80156,8.467686,STD
8598917792000,1.605056,1.49665109072927,-9.65828811688312,-1.19019329072927,-0.11056661,-0.11759156,-0.042760566,10.804448,100.83782,8.491138,STD
8598922759000,1.610023,1.43030458124875,-9.65664423199681,-1.16514760021943,-0.11362094,-0.12308934,-0.06383542,10.759057,100.8849,8.534604,STD
8598927760000,1.615024,1.37775826718532,-9.64709065599441,-1.174701525384,-0.1133155,-0.14752395,-0.07422013,10.72327,100.92739,8.56832,STD
8598932760000,1.620024,1.33758884544652,-9.61036833903989,-1.23095185782739,-0.12461651,-0.1704314,-0.071776666,10.68751,100.954735,8.585512,STD
8598939026000,1.62629,1.29522500114719,-9.54682251729615,-1.33156578068302,-0.12370021,-0.16157386,-0.053450707,10.654745,100.97799,8.601161,STD
8598942762000,1.630026,1.27742387344041,-9.53087908984456,-1.36968682454922,-0.12767084,-0.14294247,-0.049480084,10.6261215,101.00394,8.612321,STD
8598947715000,1.634979,1.26267763759586,-9.53579462155441,-1.39426391850777,-0.12339478,-0.13255776,-0.055588737,10.598678,101.02583,8.621169,STD
8598952732000,1.639996,1.2837497714695,-9.53625471684405,-1.42575241357962,-0.119729586,-0.13805555,-0.052534413,10.5695715,101.047646,8.617607,STD
8598957724000,1.644988,1.34734944531314,-9.53136233207123,-1.4648907254912,-0.094989546,-0.14202617,-0.048258353,10.544418,101.06534,8.615925,STD
8598962717000,1.649981,1.40685263784045,-9.5613475508982,-1.49830130519606,-0.086132,-0.13805555,-0.036651913,10.5140705,101.07889,8.604973,STD
8598967813000,1.655077,1.46341444807804,-9.62733617365269,-1.52658228414139,-0.07941248,-0.13775012,-0.041233405,10.4820385,101.090744,8.597527,STD
8598972785000,1.660049,1.49822370562157,-9.6820865310035,-1.543986930664,-0.08674286,-0.12614368,-0.037873644,10.451424,101.10957,8.596391,STD
8598977754000,1.665018,1.50772687470794,-9.72485069266101,-1.54873846559161,-0.080634214,-0.11911872,-0.03604105,10.420206,101.12571,8.597032,STD
8598982742000,1.670006,1.53927046584382,-9.73913705967248,-1.54742191337286,-0.07422013,-0.12095132,-0.038179077,10.381641,101.15454,8.60593,STD
8598987765000,1.675029,1.60004659349823,-9.71576164473492,-1.53807172298945,-0.061086524,-0.12339478,-0.03481932,10.346013,101.17869,8.612984,STD
8598992684000,1.679948,1.65956436613052,-9.69287021210943,-1.52891512603625,-0.056505036,-0.12308934,-0.035430185,10.311033,101.20424,8.622361,STD
8598997738000,1.685002,1.72071558037806,-9.66935053321347,-1.51950722991885,-0.047036625,-0.105068825,-0.039095376,10.281259,101.22586,8.632236,STD
8599002655000,1.689919,1.77540763734021,-9.64457097525773,-1.49543508868041,-0.03970624,-0.093462385,-0.04062254,10.248802,101.24817,8.641491,STD
8599007758000,1.695022,1.82075136970103,-9.61434227628866,-1.43497679640206,-0.041233405,-0.090713486,-0.05100725,10.219183,101.272575,8.654593,STD
8599012710000,1.699974,1.86880271149769,-9.57377531659599,-1.37944130694873,-0.044593163,-0.09896017,-0.06169739,10.180652,101.312454,8.69279,STD
8599017789000,1.705053,1.9250563077101,-9.51283368003084,-1.32787560424056,-0.052839845,-0.10720685,-0.073303826,10.142969,101.35515,8.733678,STD
8599022657000,1.709921,1.96577193153739,-9.45882934231305,-1.27897306335346,-0.04917465,-0.12370021,-0.08399397,10.094357,101.40891,8.78724,STD
8599027776000,1.71504,1.97487989980492,-9.41328950097538,-1.22887919032977,-0.043676864,-0.13683382,-0.095294975,10.044499,101.46531,8.843191,STD
8599032810000,1.720074,1.97235759572769,-9.37414921820723,-1.19370342074266,-0.047647487,-0.15485434,-0.096516706,9.984322,101.52809,8.910949,STD
8599037752000,1.725016,1.91094098692354,-9.36470081273707,-1.23149822657217,-0.056199603,-0.17654006,-0.1001819,9.919526,101.59261,8.980885,STD
8599042727000,1.729991,1.8552248242047,-9.34316255117566,-1.28086148070539,-0.045814894,-0.17654006,-0.105374254,9.841191,101.655975,9.051044,STD
8599047757000,1.735021,1.83618854520846,-9.24798065925706,-1.39983827412567,-0.052534413,-0.16126843,-0.09712757,9.762724,101.72061,9.117314,STD
8599052733000,1.739997,1.80090443591155,-9.17633063267961,-1.50582392653592,-0.06261369,-0.12217305,-0.06566802,9.697426,101.772934,9.166477,STD
8599057739000,1.745003,1.64260248392035,-9.27227161947168,-1.52501212389434,-0.050701816,-0.08155051,-0.0693332,9.637164,101.82747,9.223237,STD
8599062747000,1.750011,1.49811274787166,-9.35912060818026,-1.53928637984815,-0.032375857,-0.10262536,-0.07849618,9.564296,101.88664,9.266753,STD
8599067752000,1.755016,1.45350310809699,-9.38025144114622,-1.51815544881705,-0.034208454,-0.14202617,-0.0720821,9.499185,101.94325,9.307096,STD
8599072710000,1.759974,1.40931238002449,-9.40118384271369,-1.49722295010531,-0.038179077,-0.1432479,-0.048563786,9.45856,101.968,9.313618,STD
8599078445000,1.765709,1.35819623934362,-9.42539669527308,-1.47300998517757,-0.033292156,-0.13133603,-0.044593163,9.411047,101.99381,9.322991,STD
8599082933000,1.770197,1.32013077025291,-9.44713784323565,-1.45126873376154,-0.03756821,-0.13469578,-0.026572637,9.362727,102.01815,9.323085,STD
8599087754000,1.775018,1.30159604771176,-9.5027414302489,-1.3956648564432,-0.046731193,-0.15149458,-0.025045475,9.314551,102.04468,9.326814,STD
8599092914000,1.780178,1.28257983463796,-9.56085779060665,-1.33541172818004,-0.051618114,-0.16279559,-0.011911872,9.276637,102.048004,9.3049555,STD
8599097710000,1.784974,1.27401957128879,-9.59937953433976,-1.27120937317119,-0.0571159,-0.16493362,-0.014660766,9.237148,102.05614,9.287506,STD
8599102756000,1.79002,1.2650130890411,-9.63990929223744,-1.203660356621,-0.06078109,-0.16920967,-0.02076942,9.191046,102.05903,9.262249,STD
8599107640000,1.794904,1.25484408604086,-9.63919769596908,-1.21568972791828,-0.047647487,-0.16371189,-0.00580322,9.149231,102.0558,9.232923,STD
8599112687000,1.799951,1.2482933568218,-9.63279758412888,-1.23798134504773,-0.03604105,-0.15943582,-0.0012217305,9.106543,102.05707,9.208849,STD
8599117678000,1.804942,1.29107187495028,-9.61378503072793,-1.27125353684368,-0.03756821,-0.14477506,0.002443461,9.067371,102.045105,9.178256,STD
8599122724000,1.809988,1.33627502759996,-9.59468626647928,-1.30340183017499,-0.03359759,-0.12980886,0.009162978,9.031673,102.028824,9.1446905,STD
8599127660000,1.814924,1.40485217482999,-9.57754162163388,-1.31626004528062,-0.03604105,-0.10903945,-0.00030543262,9.002511,102.017204,9.116474,STD
8599132664000,1.819928,1.47437406395865,-9.56016078638136,-1.32929539949225,-0.01985312,-0.09162979,-0.003970624,8.974676,102.0074,9.09414,STD
8599138419000,1.825683,1.71658739520344,-9.40451145311059,-1.35093638628677,-0.019547688,-0.07391469,0.0009162979,8.953708,102.00136,9.073535,STD
8599142636000,1.8299,1.91112607205084,-9.27619873639438,-1.36749285470944,-0.02076942,-0.05100725,0.0070249503,8.939811,101.993324,9.055075,STD
8599147761000,1.835025,1.86890473417071,-9.34825275027198,-1.24263688301849,-0.02443461,-0.054061573,-0.032986723,8.916521,102.00637,9.063158,STD
8599152661000,1.839925,1.79928795145881,-9.44107554722579,-1.10804443321135,-0.021685716,-0.11881329,-0.04153884,8.883958,102.010216,9.059234,STD
8599157653000,1.844917,1.74014655185594,-9.51570438001605,-1.16783050015048,-0.018936822,-0.13652839,-0.04337143,8.833053,102.063385,9.110411,STD
8599162631000,1.849895,1.68275487623395,-9.58744391211878,-1.25391798861356,-0.01985312,-0.15515977,-0.05681047,8.763526,102.120026,9.16407,STD
8599167682000,1.854946,1.60698041897074,-9.62613103229062,-1.28568876094854,-0.008552114,-0.16676621,-0.06719518,8.688821,102.151794,9.199167,STD
8599172609000,1.859873,1.53079885660949,-9.65946012401614,-1.30949551783047,-0.01038471,-0.18081611,-0.062308256,8.609646,102.185295,9.232697,STD
8599177662000,1.864926,1.49848721870638,-9.61454829036761,-1.3806600469986,-0.016493361,-0.17012598,-0.04337143,8.540512,102.20511,9.24941,STD
8599182868000,1.870132,1.47064720709167,-9.55886855784086,-1.45954007990693,0.0015271631,-0.1386664,-0.03390302,8.474735,102.22158,9.267862,STD
8599187661000,1.874925,1.42625118406191,-9.54993399707887,-1.46368530609337,0.01160644,-0.1255328,-0.027794369,8.414864,102.22733,9.266044,STD
8599192587000,1.879851,1.37548081838774,-9.55235143037975,-1.44917951978681,0.012217305,-0.11942416,-0.028405234,8.363404,102.23103,9.264911,STD
8599197735000,1.884999,1.32242238507662,-9.55487781012658,-1.43402000133245,0.0030543262,-0.11026118,-0.026267206,8.319121,102.23585,9.257274,STD
8599202594000,1.889858,1.27234256233793,-9.55726236319377,-1.41971151256598,0.0015271631,-0.08857546,-0.029932396,8.2810545,102.2406,9.252713,STD
8599207663000,1.894927,1.24398996903003,-9.58183132131955,-1.42139720619399,-0.014049901,-0.071776666,-0.02687807,8.245615,102.24776,9.246279,STD
8599212623000,1.899887,1.22060201826686,-9.60989695992122,-1.42607479634663,-0.01160644,-0.05681047,-0.017715093,8.216828,102.25124,9.240308,STD
8599217706000,1.90497,1.23227905606716,-9.63514469508394,-1.43495657803358,-0.02107485,-0.04520403,-0.010995574,8.188687,102.24257,9.212157,STD
8599222601000,1.909865,1.25113034228411,-9.65870880285513,-1.44438222114205,-0.02321288,-0.04153884,-0.0061086523,8.163784,102.23082,9.183052,STD
8599227647000,1.914911,1.28614551263022,-9.67484216162318,-1.38687828738962,-0.017715093,-0.032070424,-0.003970624,8.146978,102.21512,9.148936,STD
8599232661000,1.919925,1.32425892695704,-9.6891349718226,-1.31541567905546,-0.015882496,-0.03573562,-0.003970624,8.13706212299092,102.208037230708,9.13085516661675,STD
8599237664000,1.924928,1.38197085223285,-9.69563595454545,-1.24383650428628,-0.02565634,-0.04062254,0.0015271631,8.127168,102.20097,9.112814,STD
8599242626000,1.92989,1.4435499053429,-9.70037240909091,-1.17278365177432,-0.03145956,-0.05131268,0.0012217305,8.1088505,102.18898,9.081674,STD
8599247668000,1.934932,1.51762144022874,-9.68194662506216,-1.11620517513675,-0.039095376,-0.04917465,-0.0033597588,8.091386,102.17928,9.059647,STD
8599252657000,1.939921,1.59364918583789,-9.65818797006464,-1.06393613414222,-0.04062254,-0.054061573,-0.0033597588,8.0697155,102.16893,9.036389,STD
8599257744000,1.945008,1.61634493858515,-9.62737619806028,-1.07577311575544,-0.034208454,-0.04550946,-0.0061086523,8.043216,102.1601,9.026482,STD
8599262741000,1.950005,1.62544549380051,-9.5955245398878,-1.10307478140154,-0.038789943,-0.056199603,-0.008857546,8.010573,102.15401,9.016103,STD
8599267814000,1.955078,1.62975569020325,-9.56939809796754,-1.12619692956573,-0.02107485,-0.059864793,-0.015882496,7.9771676,102.15169,9.024716,STD
8599272836000,1.9601,1.63209982870303,-9.54595671296973,-1.14729420054101,-0.008246681,-0.040317107,-0.016493361,7.948247,102.150604,9.032943,STD
8599277750000,1.965014,1.63439355562217,-9.52301944377833,-1.16793776676415,-0.010995574,-0.032070424,-0.012217305,7.9108777,102.1564,9.042981,STD
8599282849000,1.970113,1.63677363571185,-9.49921864288151,-1.18935851242384,0.014660766,-0.01282817,-0.011301007,7.882792,102.15532,9.055419,STD
8599287759000,1.975023,1.63324127104686,-9.48915175977069,-1.17953036889831,0.006414085,0.005497787,-0.004886922,7.8542156,102.15515,9.063198,STD
8599292754000,1.980018,1.62608731551346,-9.48676705812562,-1.15091452186441,0.0067195175,0.006414085,-0.00580322,7.8264465,102.15028,9.072943,STD
8599297719000,1.984983,1.61897632667996,-9.48439667901296,-1.12247054177966,0.005192355,0.0033597588,-0.002443461,7.8043365,102.14978,9.082407,STD
8599302728000,1.989992,1.61180232001994,-9.48200529351944,-1.09377449016949,0.008552114,0.0036651916,-0.005192355,7.7835383,102.15003,9.094009,STD
8599307755000,1.995019,1.59471547316231,-9.49522702683769,-1.10204243757277,0.004276057,0.0015271631,-0.005192355,7.7731852633403,102.150527643462,9.09886878378648,STD
8599312769000,2.000033,1.5710262402072,-9.5189162597928,-1.13520736370992,0.0033597588,0.005192355,-0.004886922,7.762859,102.151024,9.103716,STD
8599317805000,2.005069,1.55418994802776,-9.53985020328462,-1.15331453688841,0.0009162979,0.015882496,-0.0027488936,7.745231,102.15128,9.114042,STD
8599322782000,2.010046,1.54254132562686,-9.55848786289653,-1.16030372005963,-0.0012217305,0.006414085,-0.004886922,7.7169394,102.142624,9.119366,STD
8599327748000,2.015012,1.53091844862408,-9.57708433017254,-1.16727745597048,0.014966198,0.0143553335,0.0030543262,7.6995077,102.12701,9.1167755,STD
8599332781000,2.020045,1.51913875874187,-9.59593169622171,-1.17434527973997,0.007941248,0.015271631,0.009773844,7.677696,102.11736,9.114721,STD
8599337696000,2.02496,1.5152593599849,-9.6161567999245,-1.1758233400151,0.015577064,0.017104227,0.0070249503,7.658797,102.10286,9.113724,STD
8599342724000,2.029988,1.51980373053983,-9.63887865269913,-1.17127896946017,0.02076942,0.02107485,0.012217305,7.6417937,102.087524,9.108977,STD
8599347704000,2.034968,1.52357897222108,-9.64995392921718,-1.16577017428601,0.024740042,0.0143553335,0.011911872,7.632405,102.080536,9.105982,STD
8599352769000,2.040033,1.52607057341278,-9.63998757648449,-1.15829534469386,0.020158553,0.014966198,0.015577064,7.6267934,102.072464,9.100998,STD
8599357749000,2.045013,1.52852036096158,-9.63018847745017,-1.15094595646702,0.020158553,0.02107485,0.014660766,7.6251116,102.06391,9.099321,STD
8599362730000,2.049994,1.53097064043559,-9.62038741072529,-1.14359509245942,0.019242255,0.029626964,0.02443461,7.624963,102.05356,9.093819,STD
8599368534000,2.055798,1.53811417122274,-9.61802663123053,-1.14255257040498,0.021380283,0.04917465,0.025045475,7.6293516,102.0451,9.091945,STD
8599372825000,2.060089,1.54611539072235,-9.62202730364097,-1.14655315926791,0.02076942,0.063224554,0.03023783,7.635181,102.03446,9.086232,STD
8599377705000,2.064969,1.55258435388332,-9.61669943473777,-1.15321259455215,0.024129177,0.070554934,0.027488936,7.6437516,102.02488,9.08483,STD
8599382793000,2.070057,1.55545570087213,-9.59660003579847,-1.16326232400412,0.018936822,0.079107046,0.01985312,7.6564813,102.0172,9.083951,STD
8599387672000,2.074936,1.55820910141426,-9.57732626075427,-1.17289924027696,0.017104227,0.0870483,0.028099801,7.6687336,101.99783,9.078184,STD
8599392781000,2.080045,1.56109229948144,-9.5571439043901,-1.18299044856512,0.0143553335,0.08735373,0.018936822,7.679942,101.98551,9.079533,STD
8599397797000,2.085061,1.56392301420153,-9.53732893090748,-1.19289796486447,0.01160644,0.08002335,0.016187929,7.6914806,101.970825,9.076733,STD
8599402736000,2.09,1.56671027496759,-9.51781813464938,-1.20265339209782,0.02107485,0.086437434,0.020463986,7.7066255,101.95522,9.075026,STD
8599407764000,2.095028,1.56954776173247,-9.49795575692398,-1.21258461058928,0.0106901415,0.09101892,0.015271631,7.7129993,101.94638,9.074425,STD
8599412804000,2.100068,1.56783427900843,-9.48785392132693,-1.21349247900843,0.013439035,0.09315695,0.015882496,7.7207336,101.931595,9.07117,STD
8599417878000,2.105142,1.56342997526511,-9.483449525605,-1.20908817526511,0.015271631,0.09987647,0.013744468,7.7305846,101.92097,9.070519,STD
8599422716000,2.10998,1.5570533226163,-9.48302214046016,-1.20271150190897,0.0125227375,0.10170906,0.016187929,7.737887,101.91524,9.071524,STD
8599427727000,2.114991,1.5474101810007,-9.48784383713453,-1.19306830994675,0.014049901,0.10354166,0.013744468,7.746602,101.910095,9.0746765,STD
8599432739000,2.120003,1.54485211272984,-9.49260668638736,-1.18254721773399,0.011301007,0.106595986,0.013133603,7.7588058,101.90045,9.075671,STD
8599438222000,2.125486,1.55253529250354,-9.4977286636102,-1.16974184679803,0.026267206,0.09132435,0.014966198,7.7659416,101.88759,9.075937,STD
8599442665000,2.129929,1.55876114837341,-9.50187911861679,-1.15936536256158,0.02687807,0.09896017,0.015882496,7.7876534,101.88044,9.079035,STD
8599447767000,2.135031,1.56591044314003,-9.50664518241233,-1.14744980492611,0.027183503,0.09285152,0.009468411,7.8004045,101.87209,9.082441,STD
8599452653000,2.139917,1.56088361246829,-9.51115655369727,-1.13547742583858,0.021991149,0.09193522,0.018936822,7.8170505,101.86124,9.081423,STD
8599457760000,2.145024,1.52871584643428,-9.51575203795922,-1.12169126096026,0.028099801,0.089491755,0.007941248,7.830059,101.854416,9.087579,STD
8599462693000,2.149957,1.4997682458588,-9.52029360832455,-1.1137523656059,0.02443461,0.09590584,0.009162978,7.8528323,101.8503,9.094327,STD
8599467796000,2.15506,1.4791695481138,-9.52544339030559,-1.12920138891465,0.015882496,0.084910266,0.011911872,7.8689547,101.848145,9.102646,STD
8599472726000,2.15999,1.46122316416272,-9.52623745335856,-1.14232549055818,0.018325957,0.0720821,0.015271631,7.890311,101.84152,9.105379,STD
8599477747000,2.165011,1.44757554463576,-9.51713885033113,-1.15142390357616,0.016187929,0.076358154,0.009773844,7.9126472,101.838684,9.109839,STD
8599482744000,2.170008,1.43309741850855,-9.50720135633289,-1.15964950207573,0.014966198,0.07360926,0.009468411,7.9305263,101.8315,9.106983,STD
8599487690000,2.174954,1.41488985500673,-9.4935459094753,-1.16420142859889,0.01740966,0.0693332,0.012217305,7.9486494,101.82464,9.104793,STD
8599492698000,2.179962,1.39956552860518,-9.48689686435673,-1.16386443131214,0.008857546,0.058948494,0.008552114,7.9756184,101.814384,9.103682,STD
8599497710000,2.184974,1.41373993230633,-9.5483186554779,-1.11661669854316,0.008857546,0.048258353,0.007330383,8.00079,101.801285,9.100768,STD
8599502733000,2.189997,1.42830077828349,-9.60587612753826,-1.06751558784635,0.0027488936,0.043982297,0.0106901415,8.025444,101.78894,9.094033,STD
8599507663000,2.194927,1.44719184590377,-9.61059900540162,-0.99667382536761,0.00030543262,0.01740966,0.0009162979,8.039574,101.77938,9.090095,STD
8599512800000,2.200064,1.46649684418771,-9.61552915673244,-0.931441140542889,-0.0027488936,-0.010079277,-0.002443461,8.052165,101.76639,9.084819,STD
8599517737000,2.205001,1.48099863181679,-9.62036318689296,-0.960444741038749,-0.0036651916,-0.02687807,-0.006414085,8.059503,101.75605,9.081905,STD
8599522693000,2.209957,1.49250816417225,-9.62174371808612,-0.985428676114833,-0.013133603,-0.022602014,-0.0076358155,8.063806,101.744896,9.083066,STD
8599527719000,2.214983,1.47869007896651,-9.59410745148325,-0.976216619311005,-0.0067195175,-0.013133603,-0.01038471,8.064538,101.73271,9.085406,STD
8599532907000,2.220171,1.46322731485507,-9.56636254830918,-0.96870327294686,0.00061086525,0.0027488936,-0.004276057,8.067442,101.72424,9.088129,STD
8599538788000,2.226052,1.42354849906401,-9.54935760366345,-0.99704524194847,-0.005192355,0.0009162979,-0.0030543262,8.067588,101.71896,9.09264,STD
8599542905000,2.230169,1.39755629948801,-9.53915737991846,-1.01448409948801,0.0018325958,0.030543262,0.004886922,8.084252,101.713356,9.096105,STD
8599547715000,2.234979,1.38882122638665,-9.5478921793875,-1.00574902638665,0.0009162979,0.045814894,0.0027488936,8.095715,101.71223,9.101343,STD
8599552707000,2.239971,1.37975563700578,-9.5569574847824,-0.996683437005784,-0.002443461,0.054367006,0.0033597588,8.1158495,101.70514,9.097941,STD
8599557724000,2.244988,1.38341909137609,-9.55329406931212,-0.990175911498543,0.0015271631,0.06719518,0.008857546,8.141223,101.69634,9.094356,STD
8599562735000,2.249999,1.3881327093704,-9.54858051694333,-0.983891087506139,0.0018325958,0.06261369,0.008857546,8.163332,101.68992,9.091686,STD
8599567733000,2.254997,1.39283409886062,-9.54387919290836,-0.977622568185836,0.005497787,0.06078109,0.014660766,8.195937,101.67494,9.085409,STD
8599572661000,2.259925,1.39746964255967,-9.53924371374783,-0.971441843253773,0.0036651916,0.07086037,0.019242255,8.229899,101.66137,9.079608,STD
8599577982000,2.265246,1.40247486334348,-9.53423856264938,-0.964768215542023,0.0106901415,0.05681047,0.015271631,8.255619,101.64644,9.073556,STD
8599582751000,2.270015,1.40696084303114,-9.52975264541794,-0.958786909291818,0.013439035,0.048563786,0.015271631,8.285511,101.63094,9.065573,STD
8599587727000,2.274991,1.41181557319577,-9.557098092085,-0.933530748356431,0.0143553335,0.04642576,0.008246681,8.308433,101.614784,9.058446,STD
8599592683000,2.279947,1.41668813371317,-9.59120550692947,-0.904295975433734,0.0061086523,0.03940081,0.01160644,8.327512,101.59785,9.047956,STD
8599597704000,2.284968,1.3885046938948,-9.61245392134832,-0.91258961128766,0.004276057,0.026572637,0.014660766,8.347891,101.58664,9.045552,STD
8599602668000,2.289932,1.35541578638759,-9.63136174157303,-0.926770545558318,-0.002443461,0.022907447,0.016187929,8.368445,101.577545,9.042596,STD
8599607726000,2.29499,1.36395883159614,-9.63621504227019,-0.927003248390609,-0.0036651916,0.008552114,0.02076942,8.38044,101.56023,9.035551,STD
8599612710000,2.299974,1.37977422006532,-9.63847442729338,-0.92474391055098,0.010995574,0.00030543262,0.009773844,8.392294,101.54483,9.03264,STD
8599617815000,2.305079,1.39597356961091,-9.64078866496261,-0.92242972121083,0.00030543262,0.0061086523,0.0061086523,8.4068165,101.52749,9.019368,STD
8599622762000,2.310026,1.41167154849475,-9.64303127686263,-0.920187156144088,-0.01038471,-0.00061086525,0.01740966,8.415324,101.50717,9.004448,STD
8599627717000,2.314981,1.44348413300971,-9.64058034843582,-0.909579703247034,-0.018325957,-0.004886922,0.015882496,8.430183,101.49203,8.996216,STD
8599632776000,2.32004,1.48529554009709,-9.63535380658037,-0.893900410581446,-0.017104227,-0.008857546,0.0067195175,8.443069,101.476746,8.9868965,STD
8599637727000,2.324991,1.49948030623221,-9.62876937893807,-0.896141564318383,-0.008857546,-0.0076358155,0.01282817,8.4542055,101.46311,8.980132,STD
8599642720000,2.329984,1.50651980408283,-9.62172973407596,-0.903181059718814,-0.016798794,-0.014049901,0.01282817,8.461242,101.45579,8.977302,STD
8599647720000,2.334984,1.51356917104721,-9.614680219894,-0.910230424229561,-0.024740042,-0.021380283,0.0036651916,8.461264,101.45555,8.982379,STD
8599652700000,2.339964,1.52059034054372,-9.60765890376877,-0.917251591282265,-0.014966198,-0.019242255,0.004581489,8.462484,101.45137,8.984646,STD
8599657721000,2.344985,1.52605832230945,-9.60219115720958,-0.949488568254994,-0.019242255,-0.013133603,0.006414085,8.46244,101.452896,8.989044,STD
8599662740000,2.350004,1.5308348262546,-9.59741505227069,-0.992477128699195,-0.01863139,0.0009162979,0.00580322,8.465223,101.4522,8.99415,STD
8599667740000,2.355004,1.52270299684797,-9.60554686969056,-1.02473673966942,-0.016493361,0.010079277,0.0033597588,8.456165,101.4509,8.997203,STD
8599672727000,2.359991,1.50893416109937,-9.61931551374207,-1.05227445909091,-0.01038471,0.01038471,0.005497787,8.448885,101.447975,8.999322,STD
8599677715000,2.364979,1.51487077745193,-9.6105508520101,-1.06585362959798,-0.018020526,0.0143553335,0.0030543262,8.438553,101.453636,9.002664,STD
8599682774000,2.370038,1.53368968758982,-9.58702733715285,-1.07055833256943,-0.01038471,0.020158553,0.005497787,8.4293375,101.4539,9.004129,STD
8599687724000,2.374988,1.55482082626819,-9.57421597522611,-1.07519337066457,-0.009773844,0.03145956,0.008857546,8.424036,101.45621,9.002822,STD
8599692724000,2.379988,1.57835793794731,-9.56950844475029,-1.0799008028313,-0.016187929,0.02076942,0.004886922,8.414083,101.45945,9.002403,STD
8599697694000,2.384958,1.59231430617452,-9.56466554027092,-1.04627747339074,-0.016493361,0.024740042,0.006414085,8.41034,101.46155,9.004215,STD
8599702706000,2.38997,1.59735462136932,-9.55962511981518,-0.975712981717946,-0.024129177,0.016798794,0.0036651916,8.399972,101.46783,9.007563,STD
8599707719000,2.394983,1.58701941790025,-9.56175550828109,-0.953573753948723,-0.018936822,0.008552114,0.0036651916,8.3924798071964,101.47086635982,9.01117656881559,STD
8599712711000,2.399975,1.56688902725742,-9.56846577084308,-0.962520595531955,-0.028710667,-0.002443461,-0.003970624,8.385019,101.47389,9.014775,STD
8599717704000,2.404968,1.5467546040844,-9.57517737760831,-0.971469229351081,-0.02076942,-0.0067195175,-0.0067195175,8.372372,101.47853,9.021587,STD
8599722725000,2.409989,1.52650727006644,-9.58192662206419,-0.980468045775241,-0.011301007,-0.014660766,-0.003970624,8.35336,101.48105,9.030221,STD
8599727787000,2.415051,1.50442195924961,-9.58812672454403,-0.995124540750391,-0.01863139,-0.0076358155,0.003970624,8.334826,101.483086,9.037046,STD
8599732730000,2.419994,1.47975383918708,-9.59306045158937,-1.01979266081292,-0.034513887,-0.008552114,0.00030543262,8.311828,101.48714,9.045875,STD
8599738797000,2.426061,1.48017560863735,-9.59894559238809,-1.0462344980773,-0.022296581,-0.007330383,0.002443461,8.301999,101.48163,9.045257,STD
8599742729000,2.429993,1.4987399833169,-9.60265815716821,-1.06108603659042,-0.014966198,-0.0061086523,0.009162978,8.292175,101.47956,9.04441,STD
8599747698000,2.434962,1.5074514877898,-9.6017478438949,-1.0669184877898,-0.01863139,-0.010079277,0.004886922,8.279715,101.47573,9.039601,STD
8599752706000,2.43997,1.49262595010819,-9.59186446172076,-1.05209295010819,-0.014966198,-0.0015271631,0.011301007,8.27213,101.465645,9.030609,STD
8599757715000,2.444979,1.48851901965068,-9.58124147543666,-1.03358693476399,-0.0125227375,0.00030543262,0.012217305,8.257819,101.46032,9.026938,STD
8599763348000,2.450612,1.49890175831208,-9.5682630521099,-1.00763004745465,-0.017715093,-0.0036651916,0.0070249503,8.244608,101.45589,9.023517,STD
8599767778000,2.455042,1.50706712885531,-9.55805633893086,-0.987216589123322,-0.02565634,-0.019547688,0.007941248,8.230006,101.44763,9.015763,STD
8599772727000,2.459991,1.51618911955926,-9.54665385055093,-0.964411576644373,-0.01863139,-0.023823744,0.00580322,8.217599,101.4398,9.010868,STD
8599777650000,2.464914,1.52337847915347,-9.53983251656362,-0.952767807552908,-0.021991149,-0.028099801,0.0076358155,8.20119,101.4343,9.004307,STD
8599782789000,2.470053,1.52585247378475,-9.54478035082692,-0.970085782888453,-0.02443461,-0.019547688,0.0106901415,8.18762,101.42788,8.998587,STD
8599787653000,2.474917,1.52819407913336,-9.54946341481928,-0.986477032554165,-0.021380283,-0.015271631,0.0061086523,8.168565,101.42049,8.998114,STD
8599792721000,2.479985,1.53063389325894,-9.55434289021264,-1.00355574417132,-0.023823744,-0.01863139,0.0067195175,8.150453,101.41297,8.995567,STD
8599797760000,2.485024,1.53967245796976,-9.56208315804681,-1.01957158094963,-0.01038471,-0.018020526,0.004886922,8.137739,101.40092,8.995639,STD
8599802756000,2.49002,1.56271290520081,-9.57590768621786,-1.03339586853511,-0.014966198,-0.011301007,-0.00030543262,8.125992,101.39351,8.996772,STD
8599807677000,2.494941,1.59228722983789,-9.5852826935157,-1.03396043713273,-0.0067195175,-0.01863139,0.010079277,8.114252,101.38204,8.9952545,STD
8599812720000,2.499984,1.64611238998987,-9.58038939959473,-0.989921660445795,-0.0106901415,-0.013133603,0.009162978,8.107669,101.37754,8.9991455,STD
8599817722000,2.504986,1.68316555147197,-9.58268812132008,-0.949447125239077,-0.018325957,-0.023823744,0.0076358155,8.098627,101.373215,9.004981,STD
8599822728000,2.509992,1.67417596572286,-9.60516208569286,-0.917983556343521,-0.015271631,-0.03481932,-0.0015271631,8.090772,101.36997,9.013377,STD
8599827708000,2.514972,1.66362692676951,-9.62377852268603,-0.892772204646098,-0.027183503,-0.045814894,0.00061086525,8.076726,101.373825,9.029261,STD
8599833436000,2.5207,1.63873764635007,-9.6154822210123,-0.912130522952208,-0.04428773,-0.050396383,-0.0009162979,8.061014,101.38115,9.048377,STD
8599837721000,2.524985,1.62011848318713,-9.60927592690059,-0.926612086140351,-0.03604105,-0.04795292,0.0015271631,8.059026,101.38272,9.06832,STD
8599842754000,2.530018,1.59824911371244,-9.60198624702561,-0.9436215861464,-0.03970624,-0.038179077,-0.002443461,8.057432,101.391136,9.090215,STD
8599847735000,2.534999,1.57718269122373,-9.59297052096606,-0.97038997828278,-0.03176499,-0.008246681,-0.002443461,8.058801,101.390816,9.108415,STD
8599852762000,2.540026,1.55887235636588,-9.57465975591899,-1.04820915237235,-0.03726278,0.0033597588,0.0036651916,8.057667,101.393105,9.125376,STD
8599857817000,2.545081,1.54150293557258,-9.55874219328226,-1.1230278017089,-0.03145956,0.030848695,0.00580322,8.07194,101.389305,9.136449,STD
8599862758000,2.550022,1.53685552278531,-9.57268443164408,-1.15555906037124,-0.04153884,0.052839845,0.01863139,8.088207,101.385445,9.14269,STD
8599867934000,2.555198,1.53387280176198,-9.58511696785162,-1.18277270132921,-0.03145956,0.087659165,0.020158553,8.115881,101.38173,9.148329,STD
8599872800000,2.560064,1.5578814602473,-9.56591018145286,-1.11074682615147,-0.017715093,0.070554934,0.010995574,8.134424,101.378586,9.152088,STD
8599877689000,2.564953,1.58033911994299,-9.54857505289472,-1.04221179796972,-0.022296581,0.033292156,0.0076358155,8.156953,101.37586,9.152107,STD
8599882779000,2.570043,1.58261685986169,-9.55540817751507,-1.01943436310686,-0.03726278,0.025350908,-0.00061086525,8.181843,101.37584,9.156253,STD
8599887665000,2.574929,1.58480331118639,-9.56196744016635,-0.997569815613756,-0.022602014,0.0061086523,0.0015271631,8.191061,101.370094,9.162711,STD
8599892754000,2.580018,1.58708060361198,-9.56879922232606,-0.974796855688986,-0.022602014,-0.021380283,-0.0015271631,8.194768,101.372444,9.172141,STD
8599897680000,2.584944,1.589284954661,-9.57541218340265,-0.952753310672398,-0.029626964,-0.045814894,-0.002443461,8.193704,101.37262,9.179605,STD
8599903095000,2.590359,1.54036877674784,-9.59738245011783,-0.952218961508248,-0.03970624,-0.048258353,-0.005192355,8.181324,101.37978,9.186492,STD
8599907656000,2.59492,1.48890001460134,-9.61882774901807,-0.956508043681265,-0.032986723,-0.055283304,-0.009468411,8.160883,101.385796,9.193125,STD
8599912760000,2.600024,1.45357319665292,-9.62823358070394,-0.996648310942745,-0.03268129,-0.060170226,-0.007330383,8.143973,101.389725,9.200455,STD
8599917709000,2.604973,1.42630044281193,-9.63277914251463,-1.04664849413062,-0.025350908,-0.052839845,-0.00061086525,8.1288805,101.391304,9.207835,STD
8599922759000,2.610023,1.40407773122218,-9.62430051730069,-1.05638075030352,-0.026267206,-0.04886922,-0.0027488936,8.115882,101.38709,9.205286,STD
8599927727000,2.614991,1.38482326307163,-9.60985944000405,-1.0467535664913,-0.021991149,-0.035430185,0.007330383,8.108664,101.37666,9.198149,STD
8599932752000,2.620016,1.39355658487741,-9.60776727322692,-1.02714528381372,-0.0143553335,-0.016493361,0.009162978,8.107222,101.37043,9.189526,STD
8599938999000,2.626263,1.41915283728814,-9.61170523728813,-0.997611141355932,-0.017104227,-0.011911872,0.016187929,8.106203,101.36185,9.176796,STD
8599942754000,2.630018,1.434538450831,-9.61407230228731,-0.979858507302946,-0.014049901,-0.009773844,0.01038471,8.106575,101.35205,9.163863,STD
8599947741000,2.635005,1.45497202066809,-9.61721599154188,-0.956281307297022,-0.01282817,-0.028710667,0.0061086523,8.102607,101.34128,9.148291,STD
8599952757000,2.640021,1.47552441415172,-9.62037796172454,-0.932567003060063,-0.018325957,-0.041233405,0.0106901415,8.101299,101.33064,9.132441,STD
8599957756000,2.64502,1.49600715239427,-9.62352921550107,-0.908933070268883,-0.025961773,-0.04184427,0.0143553335,8.097995,101.32158,9.118156,STD
8599962765000,2.650029,1.5155369929284,-9.60971808701235,-0.915192769860741,-0.013744468,-0.043982297,0.011911872,8.089628,101.31181,9.104116,STD
8599967788000,2.655052,1.53454124677531,-9.5859628937284,-0.938947958183704,-0.021685716,-0.045814894,0.010079277,8.081659,101.30592,9.089242,STD
8599972844000,2.660108,1.53454109786233,-9.58706188134929,-0.956893703500686,-0.020463986,-0.04428773,0.006414085,8.070333,101.30232,9.088505,STD
8599977759000,2.665023,1.52300202927045,-9.60321660629535,-0.970740540025005,-0.027488936,-0.018020526,0.005497787,8.065925,101.30136,9.088414,STD
8599982787000,2.670051,1.51119766774858,-9.61974274200824,-0.98490572701265,-0.011301007,-0.015577064,0.008857546,8.049407,101.29923,9.089593,STD
8599987763000,2.675027,1.49951538792901,-9.63609796303197,-0.99892441644195,-0.01282817,-0.008857546,0.01038471,8.041795,101.30189,9.092588,STD
8599992740000,2.680004,1.4952310514812,-9.6388478897187,-1.0043154485188,-0.016493361,-0.008552114,0.006414085,8.033144,101.30273,9.096087,STD
8599997703000,2.684967,1.49759747709236,-9.62938198959423,-1.00194902290764,-0.014660766,0.020158553,0.017715093,8.035308,101.29909,9.096003,STD
8600002725000,2.689989,1.49999203470251,-9.61980355912372,-0.999554465297486,-0.01282817,0.02107485,0.014966198,8.024972,101.295876,9.091835,STD
8600007758000,2.695022,1.50239183726164,-9.61020414841922,-0.997154662738362,-0.009773844,-0.004276057,0.014966198,8.015929,101.28904,9.083933,STD
8600012712000,2.699976,1.50119271139141,-9.59607349497438,-0.988890234174222,-0.008552114,-0.01282817,0.013744468,8.014975,101.284775,9.079312,STD
8600017769000,2.705033,1.4964203545132,-9.57698416712653,-0.974573163539614,-0.0033597588,-0.03359759,0.010079277,8.003293,101.28,9.074297,STD
8600022745000,2.710009,1.48942871565714,-9.56836829485714,-0.968395771085714,-0.008246681,-0.042455133,-0.0009162979,7.99198,101.27985,9.073541,STD
8600027769000,2.715033,1.47986571576646,-9.57075909475777,-0.970786521058385,-0.0030543262,-0.038179077,-0.0009162979,7.98420877747379,101.277853442836,9.07056623015477,STD
8600032760000,2.720024,1.47036553016646,-9.57313419075776,-0.973161567458385,-0.017715093,-0.048258353,0.008552114,7.9764886,101.27587,9.067611,STD
8600037742000,2.725006,1.46088247573665,-9.57550500387578,-0.975532331065839,-0.018020526,-0.054367006,-0.0070249503,7.957716,101.27868,9.071644,STD
8600042662000,2.729926,1.4566917536838,-9.57477265014832,-0.991074462194232,-0.0067195175,-0.043676864,0.004581489,7.950509,101.27222,9.067898,STD
8600047761000,2.735025,1.45906650946846,-9.57002303939114,-1.02432106797646,-0.01160644,-0.032986723,0.00061086525,7.9407463,101.27578,9.0728445,STD
8600052657000,2.739921,1.46134672212226,-9.56546251884453,-1.05624406893936,-0.011911872,-0.026572637,0.010079277,7.935264,101.26837,9.067156,STD
8600057748000,2.745012,1.46371775206925,-9.5607203599183,-1.08943851295531,-0.014966198,-0.040011674,0.0021380284,7.9265327,101.2673,9.067328,STD
8600062671000,2.749935,1.47436861055193,-9.56069213365132,-1.09571423321328,-0.012217305,-0.03940081,-0.0015271631,7.93129,101.25951,9.065975,STD
8600067767000,2.755031,1.50287247863331,-9.57019362143483,-1.04820773680522,-0.01038471,-0.042760566,0.0021380284,7.930982,101.25271,9.064246,STD
8600072747000,2.760011,1.52071691730154,-9.57813721624503,-1.00782546066104,-0.0070249503,-0.04337143,-0.005192355,7.9302516,101.25338,9.066978,STD
8600077782000,2.765046,1.51370627641756,-9.58281107444024,-0.982119767659203,-0.011301007,-0.056199603,-0.0076358155,7.925352,101.253105,9.066782,STD
8600082736000,2.77,1.50680841843559,-9.5874097424639,-0.956827612121741,-0.015271631,-0.06352998,-0.0015271631,7.920276,101.25321,9.072223,STD
8600088436000,2.7757,1.49887184384996,-9.59270090268489,-0.927726827591354,-0.014049901,-0.06169739,0.008857546,7.914276,101.252785,9.076921,STD
8600092747000,2.780011,1.48955321128581,-9.59300854586669,-0.915701448035111,-0.02107485,-0.065973446,0.004581489,7.905352,101.255196,9.083596,STD
8600097755000,2.785019,1.46179554885695,-9.57450305112376,-0.952711683929777,-0.012217305,-0.06414085,-0.009773844,7.8988366,101.25481,9.090467,STD
8600102729000,2.789993,1.43688484661834,-9.55801685041755,-0.986047257180875,-0.013133603,-0.054061573,0.0009162979,7.897568,101.24558,9.089507,STD
8600107749000,2.795013,1.44129670657979,-9.56242875644673,-0.981635443287143,-0.018020526,-0.036651913,0.003970624,7.8982058,101.24091,9.095062,STD
8600112700000,2.799964,1.44564792543819,-9.56678002073965,-0.977284269863265,-0.009162978,-0.01740966,0.008246681,7.904215,101.23012,9.092185,STD
8600117802000,2.805066,1.46445746865407,-9.54887047927326,-0.967654491709304,-0.015882496,0.0036651916,0.018325957,7.915943,101.22092,9.08746,STD
8600123160000,2.810424,1.48508767706792,-9.53062969266981,-0.957339359683927,-0.015577064,0.0036651916,0.018020526,7.92203126917278,101.215583003317,9.08609532294703,STD
8600127751000,2.815015,1.49353557577097,-9.55174943942742,-0.953115388279374,-0.014966198,0.00580322,0.016493361,7.927248,101.21101,9.084926,STD
8600132726000,2.81999,1.50269007284081,-9.57463568210203,-0.948538115846863,-0.007330383,0.022907447,0.021685716,7.941296,101.201035,9.077955,STD
8600138875000,2.826139,1.51171943662564,-9.58224767136996,-0.937222737339638,-0.018020526,0.013744468,0.018936822,7.9463415,101.1992,9.077319,STD
8600142720000,2.829984,1.51724672512759,-9.58593260732513,-0.929853021260883,-0.027794369,0.016798794,0.015271631,7.9596815,101.19507,9.076382,STD
8600147712000,2.834976,1.52442285625938,-9.59071679465626,-0.920284848916241,-0.028710667,0.008857546,0.02443461,7.966968,101.18936,9.073054,STD
8600152664000,2.839928,1.53154148634044,-9.59546264715301,-0.910793344619233,-0.038789943,0.014049901,0.013439035,7.9778895,101.19233,9.076935,STD
8600158346000,2.84561,1.52616635731094,-9.595961,-0.908572131462188,-0.03573562,0.015577064,0.017715093,7.9772325,101.19057,9.071357,STD
8600162716000,2.84998,1.52098310497634,-9.595961,-0.907535480995269,-0.039095376,0.02076942,0.02076942,7.9787717,101.1942,9.069546,STD
8600167747000,2.855011,1.51501584124743,-9.595961,-0.906342028249486,-0.03023783,0.021991149,0.0125227375,7.9786105,101.19755,9.072387,STD
8600172658000,2.859922,1.5091909093904,-9.595961,-0.905177041878081,-0.024129177,0.034208454,0.01160644,7.9834595,101.19933,9.072776,STD
8600177716000,2.86498,1.50319162099031,-9.595961,-0.903977184198063,-0.03604105,0.03359759,0.005497787,7.9831786,101.20526,9.076006,STD
8600182704000,2.869968,1.49727535951549,-9.595961,-0.902793931903099,-0.028710667,0.02107485,0.0106901415,7.9832425,101.20443,9.0762005,STD
8600187725000,2.874989,1.4913199567759,-9.595961,-0.901602851355181,-0.024129177,0.0106901415,0.014966198,7.979862,101.206604,9.076912,STD
8600192658000,2.879922,1.48546893074236,-9.595961,-0.900432646148473,-0.022602014,0.012217305,0.015271631,7.9764514,101.20771,9.077268,STD
8600197716000,2.88498,1.48519318514973,-9.59674911930852,-0.904948974190435,-0.025961773,0.003970624,0.009773844,7.9673586,101.20923,9.07747,STD
8600202681000,2.889945,1.4861336656276,-9.59768952122315,-0.910591860985799,-0.021380283,-0.0012217305,0.01160644,7.9599986,101.20739,9.075718,STD
8600207725000,2.894989,1.48708911044741,-9.59864488622968,-0.916324533895328,-0.020463986,-0.005192355,0.005497787,7.9521046,101.2061,9.073188,STD
8600212742000,2.900006,1.48803944087187,-9.59959513726809,-0.922026520411409,-0.014966198,-0.00061086525,0.005192355,7.9456663,101.20161,9.068766,STD
8600217732000,2.904996,1.48898465690099,-9.60054027433839,-0.92769782053404,-0.019242255,-0.00580322,-0.0036651916,7.9268947,101.194695,9.063542,STD
8600222702000,2.909966,1.4899260844891,-9.60148162328415,-0.933346389994857,-0.016187929,-0.009162978,0.004581489,7.9109344,101.18211,9.054071,STD
8600228160000,2.915424,1.49095995003758,-9.60251540246845,-0.93954958760394,-0.015271631,-0.007941248,0.009468411,7.8907113,101.17349,9.046914,STD
8600232751000,2.920015,1.49182958666878,-9.60338496645437,-0.944767411023379,-0.014049901,-0.0033597588,0.0106901415,7.871195,101.16362,9.038837,STD
8600237725000,2.924989,1.49277177194509,-9.60432707302504,-0.950420526616559,-0.018020526,0.0067195175,0.01038471,7.86202,101.15237,9.0325165,STD
8600242741000,2.930005,1.49372191294751,-9.60527713465723,-0.956121376599549,-0.01863139,0.010995574,0.014660766,7.852966,101.13942,9.02479,STD
8600247712000,2.934976,1.50700046032106,-9.59902787374882,-0.951171352847025,-0.020463986,0.023518313,0.01740966,7.846423,101.131134,9.018265,STD
8600252734000,2.939998,1.52516653760151,-9.58994511964117,-0.942088290495751,-0.02443461,0.021380283,0.019242255,7.8372564,101.1228,9.010698,STD
8600257722000,2.944986,1.53510565494398,-9.58356734505602,-0.927260668450073,-0.01863139,0.026572637,0.017104227,7.833485,101.115776,9.004693,STD
8600262719000,2.949983,1.53976773667803,-9.57890526332197,-0.908612735821724,-0.026572637,0.024129177,0.016493361,7.827207,101.11109,8.997631,STD
8600267723000,2.954987,1.53931330698529,-9.56659649448529,-0.902772499705882,-0.035430185,0.021991149,0.0125227375,7.8210626,101.109604,8.996518,STD
8600272724000,2.959988,1.53467954373065,-9.5480619253096,-0.907406166191951,-0.036957346,0.01038471,0.011301007,7.811718,101.10779,8.994506,STD
8600277719000,2.964983,1.53450628070175,-9.54736889128559,-0.907579425602531,-0.03145956,0.014660766,0.013133603,7.801888,101.10442,8.992666,STD
8600282759000,2.970023,1.53913364912281,-9.56587788179465,-0.902952153816509,-0.03573562,0.0290161,0.015271631,7.7919354,101.10327,8.991196,STD
8600287724000,2.974988,1.53911890051918,-9.57405995788866,-0.909376798350159,-0.04062254,0.022296581,0.0125227375,7.777423,101.102264,8.98978,STD
8600292722000,2.979986,1.53221593259302,-9.56715713412172,-0.93238654087107,-0.040011674,0.025045475,0.009162978,7.7700334,101.100784,8.988825,STD
8600297839000,2.985103,1.52514860828766,-9.56008995740794,-0.955944134404384,-0.04153884,0.03756821,0.01740966,7.7698574,101.09536,8.987109,STD
8600302728000,2.989992,1.51839618528026,-9.55333767541583,-0.978452063813095,-0.048258353,0.04062254,0.0106901415,7.7671876,101.09509,8.990404,STD
8600307656000,2.99492,1.5131354,-9.55025989621632,-0.992167808827723,-0.047036625,0.03940081,0.008552114,7.7732797,101.09389,8.993112,STD
8600312714000,2.999978,1.5131354,-9.56012682120487,-0.97490058706778,-0.051618114,0.031154128,0.01160644,7.7779775,101.095055,8.995971,STD
8600317700000,3.004964,1.5131354,-9.56985329174518,-0.957879162058868,-0.05100725,0.04153884,0.010995574,7.7864237,101.09099,8.9957285,STD
8600322728000,3.009992,1.5131354,-9.57966169404695,-0.940714355611855,-0.04184427,0.038179077,0.010079277,7.7885585,101.08573,8.994017,STD
8600327653000,3.014917,1.51060553401206,-9.58828137307435,-0.924522981219022,-0.04642576,0.03573562,0.0076358155,7.79242,101.08284,8.992728,STD
8600332755000,3.020019,1.50187843714222,-9.59482660459924,-0.909250550305872,-0.043066,0.036651913,0.013439035,7.7964373,101.075554,8.989382,STD
8600338889000,3.026153,1.49138607881223,-9.60269576378656,-0.890888909533378,-0.05467244,0.034208454,0.0076358155,7.798696,101.07254,8.989782,STD
8600342724000,3.029988,1.48482621670016,-9.60761559187319,-0.879409142275061,-0.048563786,0.035124753,0.010079277,7.8025627,101.06297,8.986377,STD
8600347713000,3.034977,1.47629240911811,-9.61401585845055,-0.864474967867828,-0.056199603,0.022296581,0.0033597588,7.8012085,101.06125,8.986728,STD
8600352736000,3.04,1.46517497255443,-9.62476724760523,-0.867704560658926,-0.04642576,0.024129177,0.004276057,7.8046007,101.05344,8.984747,STD
8600357657000,3.044921,1.45377503680697,-9.63616720716013,-0.874544550676343,-0.04337143,0.034208454,0.006414085,7.806506,101.04941,8.984209,STD
8600362712000,3.049976,1.44206467809869,-9.64787759032414,-0.881570795248186,-0.048258353,0.032070424,0.01282817,7.8111763,101.044495,8.981093,STD
8600367750000,3.055014,1.43039370140784,-9.65954859138849,-0.888573410510885,-0.04886922,0.038789943,0.011301007,7.820935,101.03982,8.980215,STD
8600372739000,3.060003,1.42033237574712,-9.65969200335339,-0.907172694579347,-0.039095376,0.04062254,0.011301007,7.8287807,101.03248,8.976871,STD
8600377706000,3.06497,1.41094911067166,-9.65500032182661,-0.930630607423809,-0.03940081,0.040317107,0.0106901415,7.837681,101.02748,8.97427,STD
8600382722000,3.069986,1.42567316631922,-9.64447980688692,-0.935546610800372,-0.03940081,0.03756821,0.013744468,7.8510237,101.02639,8.968783,STD
8600387727000,3.074991,1.45243834123779,-9.63109742903676,-0.931085756077245,-0.04062254,0.040927973,0.016798794,7.8657627,101.02552,8.963612,STD
8600392726000,3.07999,1.46796189368272,-9.61384908187453,-0.937081745199522,-0.03726278,0.036651913,0.013439035,7.8823285,101.02568,8.958868,STD
8600397748000,3.085012,1.4731912825704,-9.59293163553333,-0.952769939164945,-0.050396383,0.02443461,0.013133603,7.8974295,101.02716,8.95219,STD
8600402729000,3.089993,1.49099343628441,-9.57991777044959,-0.954447635863537,-0.047647487,0.03023783,0.0125227375,7.910313,101.0296,8.951434,STD
8600407754000,3.095018,1.51482162998614,-9.57038629391959,-0.949681972242028,-0.043982297,0.028710667,0.013133603,7.91747,101.03357,8.949715,STD
8600412745000,3.100009,1.51956128884494,-9.56407902304193,-0.93865111653481,-0.051618114,0.018936822,0.01282817,7.930893,101.040855,8.951984,STD
8600417778000,3.105042,1.51479467151899,-9.55931230617089,-0.924351264556962,-0.046731193,0.022296581,0.014660766,7.947396,101.0445,8.953634,STD
8600422758000,3.110022,1.49789786529968,-9.55460574763407,-0.922420956940063,-0.049480084,0.015577064,0.00580322,7.9557676,101.05643,8.962426,STD
8600427749000,3.115013,1.47433821979495,-9.54989421214511,-0.92713288604101,-0.04795292,0.019242255,0.0061086523,7.9681726,101.06393,8.968273,STD
8600432764000,3.120028,1.4728817459679,-9.54998452175595,-0.93085783151228,-0.050396383,0.014660766,0.00580322,7.9775157,101.08092,8.978115,STD
8600437765000,3.125029,1.48523105347128,-9.55307174385999,-0.933945150328757,-0.04642576,0.015882496,0.0036651916,7.9892325,101.09633,8.988319,STD
8600442750000,3.130014,1.49754085109263,-9.55614908882873,-0.937022591700509,-0.047036625,0.025045475,0.002443461,8.003287,101.10909,8.993675,STD
8600447758000,3.135022,1.50990744416941,-9.55924063217946,-0.940114231899052,-0.045814894,0.01863139,0.007941248,8.013093,101.119316,8.996985,STD
8600452762000,3.140026,1.52226415977567,-9.56232970624637,-0.943203402736415,-0.040927973,0.021685716,0.009162978,8.035054,101.13016,9.004647,STD
8600457743000,3.145007,1.53456407992651,-9.56540458193128,-0.946278374746986,-0.042760566,0.013439035,-0.0027488936,8.0512,101.1432,9.0135565,STD
8600462766000,3.15003,1.54395925668642,-9.57560307046128,-0.960663532194245,-0.04184427,0.017715093,0.0036651916,8.072017,101.149994,9.017086,STD
8600467789000,3.155053,1.549048525,-9.59596025,-0.9911994875,-0.05589417,0.007330383,0.0033597588,8.085193,101.163445,9.024795,STD
8600472757000,3.160021,1.55020141711116,-9.59808932858991,-1.009288587551,-0.047647487,0.01038471,-0.00061086525,8.100496,101.1777,9.038761,STD
8600477745000,3.165009,1.5478246343666,-9.58382868175938,-1.01641901023982,-0.04550946,0.014049901,-0.0021380284,8.112729,101.194214,9.051366,STD
8600483203000,3.170467,1.5452238965519,-9.56822430918499,-1.02422130515474,-0.050396383,0.021991149,0.0009162979,8.126468,101.21149,9.063517,STD
8600487729000,3.174993,1.54306725687631,-9.55528451617076,-1.03069129174047,-0.055283304,0.023823744,-0.0030543262,8.138863,101.22976,9.077563,STD
8600492719000,3.179983,1.53067352723658,-9.5391228721954,-1.03877209378018,-0.055283304,0.022907447,-0.004581489,8.158036,101.24979,9.092554,STD
8600497715000,3.184979,1.50802565606362,-9.52100427255515,-1.04783125170879,-0.04550946,0.03573562,0.0012217305,8.18128,101.26742,9.106518,STD
8600502709000,3.189973,1.49216203523752,-9.51613821467228,-1.05253891761876,-0.055588737,0.042760566,0.006414085,8.201903,101.28905,9.120013,STD
8600507761000,3.195025,1.48731316837042,-9.53310934996994,-1.05011448418521,-0.057726767,0.03970624,0.003970624,8.222681,101.30742,9.133573,STD
8600512717000,3.199981,1.48255644149128,-9.54975799338545,-1.04773612074564,-0.059864793,0.03634648,0.00580322,8.240995,101.317055,9.136826,STD
8600517918000,3.205182,1.47756456568451,-9.56722966295851,-1.04524018284225,-0.061086524,0.04184427,0.00061086525,8.260248,101.3286,9.142661,STD
8600522679000,3.209943,1.47833336201974,-9.58381728743892,-1.03686165766025,-0.05100725,0.0290161,0.005192355,8.273276,101.33544,9.144195,STD
8600527740000,3.215004,1.48762112379036,-9.60239271399828,-1.01828608562805,-0.04428773,0.023823744,0.005192355,8.28935,101.344826,9.148636,STD
8600532680000,3.219944,1.49812752781204,-9.610968329907,-1.00141897218796,-0.050396383,0.019242255,0.0009162979,8.300257,101.34946,9.148261,STD
8600538843000,3.226107,1.51546139518355,-9.59363470386686,-0.984085104816447,-0.04917465,0.014660766,0.005192355,8.309749,101.34957,9.1452,STD
8600542653000,3.229917,1.52844080858419,-9.58752974325112,-0.977980019324141,-0.053145275,0.004276057,-0.0012217305,8.315231,101.35461,9.147486,STD
8600547758000,3.235022,1.55217826542047,-9.59227732384929,-0.98272750077685,-0.041233405,0.0076358155,0.002443461,8.323699,101.3533,9.14593,STD
8600553213000,3.240477,1.56498155397822,-9.5917498635338,-0.987814782841166,-0.040317107,0.011301007,0.00030543262,8.327657,101.35887,9.1507635,STD
8600557760000,3.245024,1.54789303312077,-9.57893323869322,-0.992086901903267,-0.04428773,0.01160644,0.0027488936,8.331781,101.361244,9.153139,STD
8600562735000,3.249999,1.53303694752325,-9.56573418305181,-0.995239968096413,-0.04886922,0.0143553335,0.0015271631,8.335667,101.36835,9.161521,STD
8600567796000,3.25506,1.53763641582843,-9.55653572670336,-0.990640595843614,-0.05222898,0.019242255,0.0030543262,8.340304,101.37451,9.168303,STD
8600572706000,3.25997,1.54100920135796,-9.54832179121318,-0.987512696245632,-0.04184427,0.01985312,0.0009162979,8.337247,101.37059,9.168288,STD
8600577762000,3.265026,1.52408742817773,-9.55315641767349,-1.00926922209685,-0.04184427,0.013133603,0.0027488936,8.333712,101.36778,9.16667,STD
8600582762000,3.270026,1.50735307970045,-9.55793749605592,-1.03078477376935,-0.03634648,0.020158553,0.0076358155,8.33394,101.36294,9.166557,STD
8600587767000,3.275031,1.49060199687469,-9.56272335551673,-1.05232184099351,-0.049785517,0.021991149,0.0076358155,8.330698,101.36212,9.166954,STD
8600592851000,3.280115,1.47514889616391,-9.56530581631916,-1.07067821966784,-0.040927973,0.019242255,0.008552114,8.32589,101.3518,9.164011,STD
8600597735000,3.284999,1.47937067531366,-9.5399750532539,-1.04534750068598,-0.03756821,0.016187929,0.002443461,8.321362,101.34652,9.163227,STD
8600602715000,3.289979,1.48367543783735,-9.51414638821193,-1.01951888059392,-0.043982297,0.005497787,0.0070249503,8.316562,101.33619,9.151694,STD
8600607758000,3.295022,1.48836804160836,-9.53354733241352,-1.02306758321671,-0.04520403,-0.004581489,0.00061086525,8.310601,101.32867,9.145177,STD
8600612686000,3.29995,1.49301911782793,-9.56145388686311,-1.03236973565586,-0.030848695,-0.005192355,-0.0021380284,8.304776,101.31796,9.136553,STD
8600617775000,3.305039,1.48669942302373,-9.57087126452999,-1.03611571325453,-0.03573562,-0.00580322,0.003970624,8.290976,101.30916,9.127421,STD
8600623021000,3.310285,1.47731054378621,-9.57556580218651,-1.03846295757335,-0.04428773,-0.013439035,-0.0021380284,8.274819,101.3024,9.122591,STD
8600627747000,3.315011,1.46885231975332,-9.57979500252289,-1.04057753566156,-0.03268129,-0.014049901,-0.0021380284,8.26875408803287,101.296239451464,9.11837182526964,STD
8600632756000,3.32002,1.45988760452252,-9.58427745374696,-1.04281873787143,-0.029932396,-0.0106901415,0.0012217305,8.262326,101.28971,9.1139,STD
8600637757000,3.325021,1.45696093427716,-9.58509763885929,-1.03744031518242,-0.024129177,-0.011911872,-0.0033597588,8.246414,101.28344,9.109116,STD
8600642743000,3.330007,1.45938392736591,-9.58267459516923,-1.02532532443802,-0.026572637,0.0030543262,-0.005192355,8.22747,101.27361,9.100223,STD
8600647749000,3.335013,1.46181663964074,-9.58024183209012,-1.01316173766174,-0.023823744,-0.00061086525,0.0030543262,8.20504,101.25833,9.085583,STD
8600652777000,3.340041,1.46426004302025,-9.57779837768306,-1.00094469525042,-0.03848451,-0.00030543262,0.004276057,8.188248,101.24887,9.074521,STD
8600657755000,3.345019,1.47068843157488,-9.58224414512077,-0.99326938421256,-0.028405234,0.0030543262,-0.0015271631,8.17197,101.23509,9.063646,STD
8600662714000,3.349978,1.47986550427053,-9.5914214094686,-0.988680847864734,-0.028710667,0.0076358155,0.004276057,8.15707,101.22295,9.049632,STD
8600667706000,3.35497,1.49417712707726,-9.59107483442178,-0.996183227077263,-0.030543262,0.0067195175,0.0015271631,8.14126,101.21263,9.041424,STD
8600672708000,3.359972,1.51342887171707,-9.58144876107706,-1.01543497171707,-0.03023783,0.0015271631,0.002443461,8.126256,101.20024,9.03092,STD
8600677719000,3.364983,1.53004290582172,-9.57925061113293,-1.0173876196937,-0.030848695,0.008246681,0.0030543262,8.119072,101.192986,9.025924,STD
8600682743000,3.370007,1.54421353531318,-9.58397423650108,-1.00321703952484,-0.03268129,0.0033597588,0.0030543262,8.107342,101.1861,9.020518,STD
8600687725000,3.374989,1.54450527940707,-9.5886965137752,-1.0029252964464,-0.025961773,0.0076358155,0.009162978,8.105848,101.18614,9.021225,STD
8600692728000,3.379992,1.53015723673388,-9.59347927789978,-1.01727328917948,-0.02687807,0.004886922,0.0030543262,8.100605,101.19053,9.024992,STD
8600697698000,3.384962,1.51590657541409,-9.59369241109559,-1.01110705082818,-0.035430185,0.00580322,-0.0030543262,8.097032,101.19481,9.030072,STD
8600702732000,3.389996,1.50147544055079,-9.58888193234883,-0.982244781101577,-0.025045475,0.007330383,0.006414085,8.093225,101.19381,9.032314,STD
8600707716000,3.39498,1.49190844510825,-9.58845739819129,-0.963110779391614,-0.036957346,0.015577064,0.006414085,8.093239007026,101.194135163103,9.03380024550838,STD
8600712695000,3.399959,1.487552650169,-9.5928132840961,-0.954399166771718,-0.025961773,0.022296581,0.005192355,8.093253,101.19446,9.035285,STD
8600717731000,3.404995,1.4857804932481,-9.59550249267546,-0.946728356751898,-0.034513887,0.015882496,0.00030543262,8.087826,101.19345,9.036007,STD
8600722808000,3.410072,1.49063680703156,-9.59388368760821,-0.941872042968438,-0.034513887,0.025961773,0.01160644,8.093068,101.18431,9.031367,STD
8600727650000,3.414914,1.49526833575709,-9.59233981245838,-0.937240514242909,-0.03268129,0.02321288,0.004581489,8.095666,101.18507,9.034128,STD
8600732749000,3.420013,1.5001456932481,-9.59071399267546,-0.932363156751898,-0.034208454,0.02687807,0.0061086523,8.1035385,101.18181,9.03177,STD
8600738519000,3.425783,1.50566488381942,-9.58887422406446,-0.926843966180583,-0.034208454,0.029626964,0.005497787,8.10632,101.17776,9.03005,STD
8600742727000,3.429991,1.50968997115461,-9.58753250026635,-0.922818878845386,-0.04428773,0.01985312,0.002443461,8.1064625,101.17596,9.028332,STD
8600747725000,3.434989,1.51117481739258,-9.58573045881605,-0.923948146162683,-0.0421497,0.019547688,-0.00061086525,8.11003,101.172325,9.02721,STD
8600752736000,3.44,1.50413722466637,-9.58338454558342,-0.940369208104805,-0.03726278,0.021380283,-0.0009162979,8.111385,101.17001,9.025947,STD
8600757713000,3.444977,1.49714738251943,-9.58105454954294,-0.956678851945544,-0.044898596,0.0143553335,0.00061086525,8.105937,101.17259,9.027174,STD
8600762712000,3.449976,1.49012664293885,-9.57871425414284,-0.973060589851884,-0.04184427,0.02107485,0.0033597588,8.105062,101.17231,9.02863,STD
8600767735000,3.454999,1.48532024503525,-9.57772226414904,-0.985495854964753,-0.049480084,0.019547688,0.003970624,8.103088,101.17981,9.032061,STD
8600772727000,3.459991,1.49013468467271,-9.58253680433031,-0.980681415327291,-0.047036625,0.016798794,-0.00030543262,8.102613,101.18539,9.036181,STD
8600777723000,3.464987,1.49493654087714,-9.58447447836848,-0.977789040877141,-0.047647487,0.016493361,0.0033597588,8.103462,101.19041,9.034751,STD
8600782759000,3.470023,1.49971119336699,-9.57492497396298,-0.982563693366993,-0.042455133,0.015577064,0.01160644,8.103388,101.19371,9.033069,STD
8600787723000,3.474987,1.50595765459908,-9.56563068036866,-0.983212356359447,-0.049785517,0.01282817,0.01038471,8.102286,101.20064,9.033773,STD
8600792717000,3.479981,1.51918158248848,-9.55681500460829,-0.965580429493088,-0.042455133,0.0033597588,0.0036651916,8.099129,101.20342,9.033462,STD
8600798090000,3.485354,1.53185991553861,-9.54979332888465,-0.949391105624404,-0.04642576,-0.002443461,-0.004581489,8.099793,101.20825,9.035625,STD
8600802720000,3.489984,1.5271633172969,-9.56857962376867,-0.963480924870247,-0.032986723,-0.0015271631,-0.00061086525,8.099859,101.207535,9.036092,STD
8600808218000,3.495482,1.52367195514626,-9.5873437751896,-0.975874544853738,-0.03940081,-0.009773844,-0.0012217305,8.094184,101.21497,9.042888,STD
8600812708000,3.499972,1.52755420794511,-9.59122610906465,-0.971992292054894,-0.03390302,-0.016493361,-0.007941248,8.089155,101.218575,9.050272,STD
8600817760000,3.505024,1.53192239082701,-9.59559438317082,-0.967624109172987,-0.038789943,-0.014660766,-0.002443461,8.081482,101.22228,9.051572,STD
8600822722000,3.509986,1.52798053183305,-9.59452481395195,-0.961512868279303,-0.04153884,-0.014660766,-0.004886922,8.071063,101.228004,9.056737,STD
8600827652000,3.514916,1.52329989100823,-9.59296456776048,-0.955272005700406,-0.028710667,-0.0012217305,-0.0018325958,8.065619,101.22928,9.05928,STD
8600832739000,3.520003,1.51847019123624,-9.59135463421566,-0.94883239759922,-0.03940081,-0.0012217305,0.0070249503,8.056366,101.234375,9.061237,STD
8600837660000,3.524924,1.51379809519183,-9.58979723634381,-0.942602928075741,-0.041233405,-0.0012217305,0.0027488936,8.05393132306931,101.236063244059,9.06411992643564,STD
8600842839000,3.530103,1.50888104877565,-9.58815818664287,-0.936046857630283,-0.036651913,0.0012217305,0.00061086525,8.051369,101.23784,9.067154,STD
8600847683000,3.534947,1.50428205807475,-9.58662515772777,-0.929914862025379,-0.039095376,0.010995574,0.0012217305,8.045489,101.24378,9.068589,STD
8600852731000,3.539995,1.51764585152971,-9.5843714964699,-0.932975173004511,-0.04184427,-0.0033597588,0.007330383,8.031561,101.24357,9.067329,STD
8600857655000,3.544919,1.53383008543832,-9.58205941821926,-0.937599232937831,-0.038179077,-0.0030543262,0.0030543262,8.0245,101.24494,9.069693,STD
8600862714000,3.549978,1.55045803818886,-9.5796839503334,-0.942350069494018,-0.039095376,-0.0018325958,-0.0021380284,8.015083,101.24341,9.067958,STD
8600867739000,3.555003,1.56697423952736,-9.57732444724456,-0.947068977122965,-0.034208454,-0.0012217305,-0.002443461,8.005834,101.24024,9.066169,STD
8600872723000,3.559987,1.57388602105123,-9.57022742049376,-0.934944969230157,-0.041233405,-0.003970624,0.0021380284,7.9961677,101.23936,9.064478,STD
8600878288000,3.565552,1.57860196583488,-9.56079533395275,-0.91608119501991,-0.041233405,-0.009468411,0.00030543262,7.98586,101.23812,9.064713,STD
8600882735000,3.569999,1.57495670625985,-9.57069398435038,-0.912404854146623,-0.04184427,-0.0106901415,-0.0009162979,7.9671164,101.238556,9.066656,STD
8600887730000,3.574994,1.56490815757799,-9.59581535605504,-0.917429123241256,-0.038789943,0.00061086525,-0.003970624,7.9506993,101.239334,9.070009,STD
8600892722000,3.579986,1.55960576429881,-9.60412338239552,-0.925028400185793,-0.043982297,-0.005192355,0.0012217305,7.9293237,101.24,9.072328,STD
8600897699000,3.584963,1.55730561307789,-9.60182342331821,-0.934229017078467,-0.04062254,0.0009162979,0.009162978,7.914947,101.23887,9.0755415,STD
8600902732000,3.589996,1.55497958111186,-9.59949758565775,-0.943533157086671,-0.045814894,0.0061086523,0.0061086523,7.899748,101.23965,9.077693,STD
8600907724000,3.594988,1.5526724975485,-9.5971906948171,-0.952761503385291,-0.04734206,0.00061086525,0.0018325958,7.8837814,101.237854,9.077934,STD
8600912725000,3.599989,1.55479443676339,-9.59149192431947,-0.956563448579121,-0.03145956,0.0015271631,0.002443461,7.8831606,101.237404,9.082925,STD
8600917761000,3.605025,1.56200783263536,-9.58187386229933,-0.954158970734869,-0.040011674,-0.005497787,0.0036651916,7.8785505,101.24209,9.088394,STD
8600922754000,3.610018,1.56915963676339,-9.57233792431947,-0.95177502357912,-0.035124753,-0.01740966,0.004581489,7.8759146,101.24079,9.093057,STD
8600927760000,3.615024,1.57633006165121,-9.56277715814139,-0.949384869471034,-0.033292156,-0.010995574,0.00580322,7.8765664,101.24108,9.09757,STD
8600932759000,3.620023,1.57805103065442,-9.55977511366246,-0.94385971130884,-0.036651913,-0.01160644,0.005192355,7.871786,101.24171,9.101685,STD
8600938810000,3.626074,1.57250671216992,-9.56531954793341,-0.932771074339839,-0.035430185,-0.01282817,0.0012217305,7.8686204,101.24183,9.106551,STD
8600942698000,3.629962,1.57400033556432,-9.56893205332676,-0.934056312232627,-0.0290161,-0.025961773,-0.0015271631,7.8566303,101.24819,9.113957,STD
8600947746000,3.63501,1.58353087995071,-9.57369742503696,-0.948352153691474,-0.03604105,-0.021991149,-0.003970624,7.849232,101.257286,9.122812,STD
8600952689000,3.639953,1.59051550542978,-9.57910378431182,-0.967633578581471,-0.03359759,-0.026267206,-0.0033597588,7.832755,101.25982,9.128079,STD
8600957757000,3.645021,1.59286850016483,-9.58616267023804,-0.998222534706938,-0.03481932,-0.016187929,0.0018325958,7.821904,101.263596,9.133319,STD
8600962682000,3.649946,1.5951551021913,-9.59302238081156,-1.02794838492752,-0.032070424,-0.010995574,0.002443461,7.8078666,101.26921,9.140833,STD
8600967784000,3.655048,1.59752388260532,-9.60012862311534,-1.05874255504436,-0.03359759,-0.011911872,0.0067195175,7.795502,101.27362,9.14592,STD
8600972684000,3.659948,1.60034251201502,-9.60248960638298,-1.07608431730288,-0.031154128,-0.004886922,0.006414085,7.7880116,101.273544,9.151708,STD
8600977755000,3.665019,1.60540758844389,-9.58729458865248,-1.04569380584063,-0.03176499,0.002443461,0.004886922,7.780611,101.27364,9.1566105,STD
8600982739000,3.670003,1.61152878331024,-9.57549433093193,-1.02209301668976,-0.0290161,0.007941248,0.008552114,7.776345,101.27806,9.161218,STD
8600987761000,3.675025,1.62041299677658,-9.57105213143068,-1.01320880322342,-0.037873644,0.004886922,0.005192355,7.771481,101.28637,9.168104,STD
8600992711000,3.679975,1.62963250619824,-9.56407918760352,-1.00398929928515,-0.03756821,0.015882496,0.0125227375,7.772408,101.288826,9.173184,STD
8600997715000,3.684979,1.64216562641444,-9.53901294717113,-0.991456222692006,-0.036957346,0.0036651916,0.008857546,7.7652984,101.2959,9.181334,STD
8601002715000,3.689979,1.65468872814925,-9.51396674370151,-0.978933164545375,-0.041233405,0.0125227375,0.007330383,7.7737055,101.30045,9.191399,STD
8601007758000,3.695022,1.66080219914266,-9.50174005323497,-0.972819700857342,-0.042455133,0.0036651916,0.006414085,7.773223,101.30504,9.201116,STD
8601012723000,3.699987,1.66554238576413,-9.49225997697139,-0.968079514235869,-0.042760566,-0.003970624,0.0009162979,7.775228,101.31149,9.212634,STD
8601017823000,3.705087,1.6604370826544,-9.50049482785808,-0.979112093429698,-0.030543262,-0.004886922,0.0015271631,7.7753577,101.316986,9.226127,STD
8601022667000,3.709931,1.65366380470628,-9.51178358514625,-0.9926586021755,-0.03390302,-0.0018325958,-0.0015271631,7.7740207,101.32709,9.2417965,STD
8601027783000,3.715047,1.64651019405753,-9.52370622806249,-1.00696577367499,-0.03145956,0.014966198,0.007330383,7.7804475,101.335175,9.257504,STD
8601032714000,3.719978,1.63961526557648,-9.53519773553317,-1.0207555826398,-0.03268129,0.005192355,0.005192355,7.7794037,101.34747,9.276016,STD
8601037741000,3.725005,1.64101571042747,-9.55202717108481,-1.05853643958721,-0.021685716,0.0027488936,0.00580322,7.7873116,101.357155,9.292959,STD
8601042716000,3.72998,1.64567623864815,-9.57066918663797,-1.10514177045877,-0.02107485,0.007330383,0.010079277,7.7941904,101.36807,9.308938,STD
8601047749000,3.735013,1.67715677179938,-9.59041883789668,-1.12593113515867,-0.03390302,0.01282817,0.018020526,7.801638,101.376816,9.319407,STD
8601052727000,3.739991,1.7210659162522,-9.61037752097463,-1.13391460838985,-0.023823744,0.018936822,0.013439035,7.810045,101.38344,9.332076,STD
8601057692000,3.744956,1.74659945376728,-9.62022395251895,-1.13815096344182,-0.029626964,0.028099801,0.013133603,7.8168597,101.391785,9.33901,STD
8601062731000,3.749995,1.72508474346857,-9.6040881444494,-1.13277228586714,-0.02565634,0.027183503,0.008552114,7.8220353,101.39878,9.348099,STD
8601067736000,3.755,1.70977844150979,-9.59372597408003,-1.1278282207549,-0.026572637,0.02687807,0.004581489,7.8293037,101.4162,9.367574,STD
8601072764000,3.760028,1.70066820588402,-9.58917076113897,-1.12327310294201,-0.027488936,0.030543262,0.007941248,7.8372226,101.431854,9.385847,STD
8601077739000,3.765003,1.69329879533873,-9.58458795783133,-1.11599638834683,-0.03634648,0.027488936,0.0067195175,7.843729,101.44788,9.402695,STD
8601082753000,3.770017,1.68855673774442,-9.57984580120482,-1.10414124436105,-0.034208454,0.027794369,0.005192355,7.852037,101.46116,9.418461,STD
8601087676000,3.77494,1.68390074461782,-9.57518971084337,-1.09250126154454,-0.038789943,0.03756821,0.005192355,7.866198,101.4773,9.434123,STD
8601092739000,3.780003,1.67911234461782,-9.57040121084337,-1.08053026154454,-0.03268129,0.04428773,0.005192355,7.879145,101.49124,9.4496565,STD
8601097688000,3.784952,1.675174364118,-9.5649295243829,-1.074902907646,-0.037873644,0.05222898,0.008857546,7.898484,101.504326,9.464552,STD
8601102705000,3.789969,1.67276382801525,-9.55769801675697,-1.08213451595424,-0.036957346,0.051618114,0.0070249503,7.9165545,101.516335,9.480423,STD
8601107597000,3.794861,1.67041335111379,-9.55064668422637,-1.08918594665864,-0.03573562,0.055588737,0.01282817,7.9387517,101.52372,9.491819,STD
8601112647000,3.799911,1.6679869593819,-9.54336761037528,-1.0964651218543,-0.037873644,0.062002823,0.01282817,7.9606442,101.53297,9.504967,STD
8601117636000,3.8049,1.66559096304609,-9.53617964068136,-1.08973123761523,-0.04428773,0.064446285,0.014049901,7.9840016,101.53905,9.515763,STD
8601122653000,3.809917,1.66318380845691,-9.52895802610221,-1.05362389364228,-0.046731193,0.0580322,0.014049901,8.00595,101.54487,9.526366,STD
8601127611000,3.814875,1.66080496204409,-9.52182133782565,-1.01794117261022,-0.047036625,0.051923547,0.0125227375,8.026167,101.54897,9.534667,STD
8601132926000,3.82019,1.65825482717435,-9.51417077344689,-0.979689122935872,-0.058643065,0.04550946,0.013439035,8.043991,101.55451,9.541704,STD
8601138387000,3.825651,1.65055210582551,-9.51600460269147,-0.947288237200145,-0.05681047,0.044593163,0.017715093,8.062609,101.56209,9.549657,STD
8601142659000,3.829923,1.63946678284863,-9.52709011858743,-0.928812747778179,-0.058948494,0.045814894,0.009773844,8.079183,101.57445,9.560323,STD
8601147636000,3.8349,1.62360500582106,-9.54016951207294,-0.910909682963631,-0.051923547,0.04917465,0.010995574,8.096783,101.57757,9.567492,STD
8601152663000,3.839927,1.58501763092876,-9.55463957619477,-0.920556521650135,-0.061086524,0.04520403,0.006414085,8.111701,101.58663,9.57801,STD
8601157646000,3.84491,1.54904751050308,-9.57022397905544,-0.930746640559548,-0.058643065,0.044593163,0.006414085,8.129657,101.58731,9.583962,STD
8601162641000,3.849905,1.52940223704312,-9.59478050677618,-0.945480582833676,-0.056199603,0.04734206,0.006414085,8.146837,101.59036,9.590895,STD
8601167750000,3.855014,1.509738753955,-9.61542279215959,-0.958298271421944,-0.058643065,0.05009095,0.007330383,8.16384,101.58716,9.588528,STD
8601172654000,3.859918,1.49261937861616,-9.61697913003281,-0.961410882165225,-0.050701816,0.056199603,0.009468411,8.182278,101.58159,9.585916,STD
8601177648000,3.864912,1.47518582224542,-9.61856403038738,-0.964580616678265,-0.06414085,0.052839845,0.008246681,8.201845,101.58169,9.580935,STD
8601182696000,3.86996,1.45756375725553,-9.62016606823077,-0.96778462545316,-0.052534413,0.051923547,0.008552114,8.223546,101.57557,9.575115,STD
8601187649000,3.874913,1.44027332779932,-9.62173795678828,-0.970928336915532,-0.0580322,0.051923547,0.012217305,8.23817,101.57512,9.567078,STD
8601192662000,3.879926,1.42277344432183,-9.62332888700003,-0.974110130891076,-0.06169739,0.040011674,0.017715093,8.248919,101.57191,9.55803,STD
8601197639000,3.884903,1.41028603675701,-9.62344321207798,-0.977458180932002,-0.055283304,0.03481932,0.016493361,8.261283,101.56857,9.550104,STD
8601202952000,3.890216,1.42964192988112,-9.61376511393248,-0.98229712894912,-0.05497787,0.040011674,0.009773844,8.273082,101.566734,9.542237,STD
8601207820000,3.895084,1.44708918431141,-9.60454572603952,-0.986741529253907,-0.06047566,0.022296581,0.010079277,8.280613,101.555954,9.521722,STD
8601212738000,3.900002,1.4609784613585,-9.5906565940234,-0.991371304384154,-0.05467244,0.015577064,0.0067195175,8.292336,101.54585,9.504951,STD
8601218105000,3.905369,1.47591484698689,-9.57735032292611,-0.996096564585222,-0.052839845,0.013439035,0.007330383,8.300214,101.54303,9.492021,STD
8601222855000,3.910119,1.48706295322387,-9.58292437022424,-0.997211374044848,-0.06047566,0.01863139,0.008246681,8.308165,101.541435,9.48015,STD
8601228113000,3.915377,1.49940332008577,-9.58909454721235,-0.99844540944247,-0.06811147,0.017715093,0.0143553335,8.312711,101.540924,9.4696,STD
8601232748000,3.920012,1.51028152480333,-9.59453364389168,-0.999533228778336,-0.053145275,0.019547688,0.013439035,8.31933,101.53922,9.46115,STD
8601237673000,3.924937,1.52184035074378,-9.6003130508271,-1.00068911016542,-0.053450707,0.0143553335,0.0125227375,8.321392,101.53754,9.4494505,STD
8601242755000,3.930019,1.53376765093248,-9.60627669469428,-1.00188183893886,-0.06414085,0.018325957,0.017715093,8.326839,101.533875,9.436829,STD
8601247713000,3.934977,1.54540392687416,-9.61209482658988,-1.00304546531798,-0.04917465,0.012217305,0.021991149,8.327895,101.52648,9.424416,STD
8601252752000,3.940016,1.55723030736429,-9.61800801066046,-1.00422810213209,-0.05375614,0.013133603,0.014049901,8.326381,101.52053,9.411368,STD
8601257654000,3.944918,1.56873515300086,-9.62376042747212,-1.00537858549442,-0.04795292,0.016798794,0.015271631,8.324586,101.50754,9.394783,STD
8601262774000,3.950038,1.60193592079788,-9.61685593117792,-0.989894889601059,-0.05375614,0.005192355,0.010079277,8.318376,101.50077,9.382135,STD
8601267769000,3.955033,1.6381137358858,-9.60781128852335,-0.9718059820571,-0.050396383,0.00061086525,0.010995574,8.315667,101.490036,9.368077,STD
8601273146000,3.96041,1.64520877280105,-9.60153327102567,-0.977267135994725,-0.042455133,-0.0076358155,0.009773844,8.309757,101.49569,9.3677025,STD
8601277665000,3.964929,1.6430135024754,-9.59714286791113,-0.988243487623009,-0.050396383,-0.010079277,0.007330383,8.30435,101.50325,9.367471,STD
8601282759000,3.970023,1.64053890476819,-9.59219382753373,-1.00061647615907,-0.051618114,-0.0021380284,0.010995574,8.293516,101.512505,9.372737,STD
8601287725000,3.974989,1.63812648776504,-9.58736914466876,-1.0126785611748,-0.046731193,-0.009162978,0.0030543262,8.277491,101.52502,9.38134,STD
8601292751000,3.980015,1.63383612184442,-9.57119296668973,-1.04172598674508,-0.043982297,0.0067195175,0.002443461,8.270982,101.53522,9.387772,STD
8601297754000,3.985018,1.62910025840664,-9.55224961184145,-1.07487708026095,-0.05009095,0.013133603,0.006414085,8.25988,101.54656,9.394508,STD
8601302701000,3.989965,1.63519122690109,-9.55521090341955,-1.09644745380219,-0.050396383,0.032070424,0.0012217305,8.256846,101.55933,9.403859,STD
8601307786000,3.99505,1.64462608653492,-9.56464546749976,-1.11531717306984,-0.059864793,0.032070424,0.01160644,8.250998,101.569725,9.4071,STD
8601312751000,4.000015,1.66677139139426,-9.57049017764224,-1.12700661911751,-0.055283304,0.03726278,0.014966198,8.2497225,101.58377,9.413513,STD
8601317817000,4.005081,1.69451340220147,-9.57511393462308,-1.13625393995997,-0.05375614,0.03634648,0.01038471,8.24685,101.59882,9.41889,STD
8601322818000,4.010082,1.70775791559107,-9.57063423990986,-1.1303810532268,-0.058948494,0.043066,0.008552114,8.247251,101.61448,9.424063,STD
8601327757000,4.015021,1.71260321524278,-9.56094343822987,-1.11584515427167,-0.05955936,0.040927973,0.01038471,8.244853,101.62884,9.428996,STD
8601332784000,4.020048,1.71711058931216,-9.55192880069587,-1.13380714438398,-0.06658431,0.033292156,0.004886922,8.233786,101.65037,9.439129,STD
8601338824000,4.026088,1.72227107392274,-9.54160815478633,-1.17509107515389,-0.059253927,0.025350908,0.004276057,8.222446,101.66748,9.447096,STD
8601342719000,4.029983,1.70339624648582,-9.53952146794081,-1.18445974950678,-0.053145275,0.032986723,0.0070249503,8.206343,101.68059,9.453456,STD
8601347769000,4.035033,1.65370153779285,-9.5420062526716,-1.1770055250411,-0.055588737,0.038179077,0.0021380284,8.187406,101.69551,9.461792,STD
8601352821000,4.040085,1.60398714802713,-9.54449202147554,-1.16954834840732,-0.064751714,0.028405234,0.00580322,8.166409,101.71071,9.467261,STD
8601357756000,4.04502,1.55542410101726,-9.54692022199959,-1.16226387360769,-0.056199603,0.042455133,0.009468411,8.153956,101.72407,9.475036,STD
8601362734000,4.049998,1.54983401000249,-9.54431728209216,-1.14500825556164,-0.061391957,0.03848451,0.008246681,8.133871,101.741165,9.482161,STD
8601367794000,4.055058,1.58362835739975,-9.53707549579078,-1.11845559364384,-0.059864793,0.044898596,0.01038471,8.121395,101.753716,9.488084,STD
8601372800000,4.060064,1.61706205365878,-9.52991099337484,-1.09218630005479,-0.04886922,0.03726278,0.003970624,8.110659,101.75268,9.478165,STD
8601377756000,4.06502,1.6501618136787,-9.52281805011208,-1.06617938454795,-0.04795292,0.03848451,0.0070249503,8.1050205,101.750374,9.465761,STD
8601382740000,4.070004,1.66286575109016,-9.52167847319813,-1.04528530211368,-0.053450707,0.043676864,0.012217305,8.1033535,101.744896,9.4552965,STD
8601387744000,4.075008,1.65602163883652,-9.52624129410645,-1.02931573861754,-0.043676864,0.040011674,0.010079277,8.099499,101.7378,9.446028,STD
8601392749000,4.080013,1.64917615885461,-9.53080502684947,-1.01334298376178,-0.047647487,0.032986723,0.0125227375,8.092071,101.73905,9.448113,STD
