timestamp,rel_time,acc_x,acc_y,acc_z,gyro_x,gyro_y,gyro_z,azimuth,pitch,roll,label
4144633854000,0,-3.28221070676884,-9.07820516530327,-1.67371251720636,-0.0290161,0.024740042,0.015577064,337.05676,111.0316,-17.459538,STD
4144638864000,0.00501,-3.27909186841192,-9.07748541776589,-1.67107349551028,-0.03390302,0.018325957,0.018325957,337.0359,111.003075,-17.47773,STD
4144643865000,0.010011,-3.27597863275864,-9.07676696318816,-1.66843921457173,-0.041233405,0.0067195175,0.01740966,337.01825,110.97644,-17.496088,STD
4144648867000,0.015013,-3.27286477458273,-9.07604836494825,-1.66580440688234,-0.034513887,0.013439035,0.018325957,337.00543,110.95097,-17.514908,STD
4144653849000,0.019995,-3.26976336685934,-9.075332639952,-1.66318013420971,-0.035124753,0.013744468,0.014966198,336.98804,110.927895,-17.533142,STD
4144658874000,0.02502,-3.26663519066303,-9.07461073748187,-1.66053321125106,-0.038179077,0.016798794,0.02076942,336.97507,110.90793,-17.553509,STD
4144663834000,0.02998,-3.26354747843742,-9.07389817305365,-1.65792052709685,-0.028405234,0.016798794,0.016798794,336.96143,110.88423,-17.570217,STD
4144668852000,0.034998,-3.26042365989949,-9.07317727621881,-1.65527729139407,-0.027794369,0.027183503,0.01740966,336.95325,110.866104,-17.588917,STD
4144673838000,0.039984,-3.2573197620856,-9.07246097657383,-1.65265091171809,-0.036651913,0.030848695,0.019242255,336.9438,110.848495,-17.607117,STD
4144678849000,0.044995,-3.25420030120606,-9.07174108537427,-1.65001136327116,-0.038789943,0.031154128,0.016798794,336.93692,110.83006,-17.623802,STD
4144684610000,0.050756,-3.25061394835692,-9.07091344753738,-1.64697675169608,-0.036957346,0.032375857,0.01863139,336.93246,110.814926,-17.641851,STD
4144688840000,0.054986,-3.24798067764838,-9.07030575650283,-1.64474859565328,-0.045814894,0.021991149,0.026572637,336.92554,110.80362,-17.661469,STD
4144693874000,0.06002,-3.24484689874844,-9.06958256107305,-1.6420969319371,-0.03573562,0.027183503,0.027794369,336.92386,110.788994,-17.67868,STD
4144698859000,0.065005,-3.24174362345717,-9.06886640509025,-1.63947107901195,-0.034208454,0.03268129,0.026267206,336.9202,110.779045,-17.697708,STD
4144703846000,0.069992,-3.23863910312066,-9.06814996178309,-1.63684417258513,-0.035124753,0.022296581,0.028710667,336.91428,110.77008,-17.718601,STD
4144708854000,0.075,-3.23552150980899,-9.06743050157008,-1.63420620439072,-0.037873644,0.021380283,0.021991149,336.91272,110.75936,-17.735518,STD
4144713819000,0.079965,-3.23243068497025,-9.06671721883094,-1.63159088648232,-0.037873644,0.015882496,0.021685716,336.90784,110.7513,-17.755539,STD
4144718850000,0.084996,-3.22929877363818,-9.06599445438772,-1.62894080301865,-0.04062254,0.023518313,0.01863139,336.9066,110.742455,-17.772072,STD
4144723836000,0.089982,-3.22619487582429,-9.06527815474274,-1.62631442334267,-0.024740042,0.016798794,0.017715093,336.90015,110.73207,-17.790009,STD
4144728851000,0.094997,-3.22307292485424,-9.06455768889445,-1.62367276789239,-0.028710667,0.022602014,0.019547688,336.90015,110.72557,-17.806635,STD
4144733853000,0.099999,-3.21995906667833,-9.06383909065453,-1.62103796020301,-0.04062254,0.020463986,0.018020526,336.89615,110.71761,-17.822714,STD
4144738872000,0.105018,-3.21683462561778,-9.06311805015751,-1.61839419774939,-0.036651913,0.0143553335,0.015271631,336.8932,110.708786,-17.838737,STD
4144743860000,0.110006,-3.21372948275864,-9.06240146318816,-1.61576676457173,-0.042760566,0.018020526,0.015271631,336.89304,110.704,-17.854546,STD
4144748902000,0.115048,-3.21059072367768,-9.06167711846092,-1.61311088684884,-0.034513887,0.02687807,0.01863139,336.8931,110.69736,-17.870438,STD
4144754662000,0.120808,-3.20700499335117,-9.06084962428621,-1.6100768020246,-0.03726278,0.038789943,0.024740042,336.89575,110.69437,-17.88661,STD
4144758844000,0.12499,-3.20440160372869,-9.06024882903645,-1.607873930022,-0.04520403,0.03145956,0.02076942,336.8953,110.68981,-17.901312,STD
4144763854000,0.13,-3.20128276537177,-9.05952908149908,-1.60523490832592,-0.053145275,0.032986723,0.029626964,336.9023,110.69083,-17.92013,STD
4144768849000,0.134995,-3.19817326485424,-9.05881148889445,-1.60260378789239,-0.04795292,0.03848451,0.0290161,336.90787,110.68819,-17.935202,STD
4144773839000,0.139985,-3.19506687694985,-9.05809461460073,-1.59997530121306,-0.04520403,0.041233405,0.025961773,336.91364,110.688896,-17.951935,STD
4144778882000,0.145028,-3.19192749534627,-9.05737012621131,-1.59731889673934,-0.047036625,0.025961773,0.023823744,336.91592,110.689926,-17.969227,STD
4144783938000,0.150084,-3.18878002094855,-9.05664377021351,-1.59465564450473,-0.056505036,0.034513887,0.027183503,336.9264,110.69258,-17.985691,STD
4144788818000,0.154964,-3.18574211053303,-9.05594269875994,-1.59208510041752,-0.04337143,0.02687807,0.028710667,336.92758,110.69167,-18.002487,STD
4144793952000,0.160098,-3.18254607937047,-9.05520513711186,-1.58938076161758,-0.046120327,0.029626964,0.022907447,336.93436,110.69351,-18.016994,STD
4144798979000,0.165125,-3.17941665812891,-9.05448294731737,-1.58673278515726,-0.047647487,0.032375857,0.02443461,336.9396,110.695854,-18.034185,STD
4144803893000,0.170039,-3.1763575819441,-9.05377699134957,-1.58414433154158,-0.040927973,0.023823744,0.031154128,336.94247,110.69758,-18.051493,STD
4144808970000,0.175116,-3.17319703457123,-9.05304761844592,-1.58147001753938,-0.04337143,0.01863139,0.019242255,336.94638,110.69673,-18.0635,STD
4144813904000,0.18005,-3.1701255079339,-9.05233878923446,-1.57887102890695,-0.036957346,0.016187929,0.020463986,336.94992,110.69896,-18.081179,STD
4144818875000,0.185021,-3.1670309479594,-9.05162464452223,-1.57625255049352,-0.027794369,0.016187929,0.013439035,336.9518,110.696365,-18.093159,STD
4144824164000,0.19031,-3.16373842578979,-9.05086481523576,-1.57346656531377,-0.04062254,0.01740966,0.017104227,336.95425,110.69919,-18.108397,STD
4144828810000,0.194956,-3.16084618566878,-9.05019736073304,-1.57101928092255,-0.0421497,0.020463986,0.02107485,336.95712,110.697914,-18.12155,STD
4144833866000,0.200012,-3.16197381860774,-9.0496751325628,-1.57100318018301,-0.039095376,0.015271631,0.016493361,336.95792,110.696785,-18.133535,STD
4144838838000,0.204984,-3.16387648085032,-9.04919948128187,-1.57147884636451,-0.037873644,0.015882496,0.015271631,336.9619,110.69818,-18.146982,STD
4144843944000,0.21009,-3.16583042160064,-9.04871101075886,-1.57196733218968,-0.037873644,0.02107485,0.019547688,336.9385,110.69939,-18.163288,STD
4144848882000,0.215028,-3.16772007287857,-9.04823861212145,-1.57243974562578,-0.036651913,0.023823744,0.026572637,336.91556,110.7008,-18.179716,STD
4144853849000,0.219995,-3.169620821744,-9.04776343917046,-1.57291493346237,-0.05131268,0.02565634,0.02107485,336.89426,110.702354,-18.1932,STD
4144858859000,0.225005,-3.17153802565295,-9.04728415258208,-1.57339423506521,-0.050396383,0.025961773,0.021685716,336.8748,110.70503,-18.209896,STD
4144863851000,0.229997,-3.17344834140415,-9.04680658798144,-1.57387181462636,-0.044898596,0.02565634,0.021685716,336.85608,110.70753,-18.224405,STD
4144868847000,0.234993,-3.17536018785707,-9.04632864071686,-1.57434977686345,-0.04886922,0.029626964,0.025045475,336.8396,110.712166,-18.239418,STD
4144873816000,0.239962,-3.17726170207335,-9.04585327643389,-1.574825156038,-0.03726278,0.028405234,0.01863139,336.82166,110.71157,-18.251587,STD
4144878852000,0.244998,-3.17918885554351,-9.04537150252988,-1.57530694503439,-0.040011674,0.022296581,0.023518313,336.80484,110.717125,-18.267561,STD
4144883845000,0.249991,-3.18109955397014,-9.04489384226326,-1.57578462026453,-0.04062254,0.028710667,0.014966198,336.79095,110.71591,-18.277075,STD
4144888831000,0.254977,-3.18300757366875,-9.04441685165853,-1.57626162581178,-0.03481932,0.01160644,0.016493361,336.7697,110.71806,-18.29192,STD
4144893860000,0.260006,-3.18493204841089,-9.04393574741642,-1.5767427451253,-0.029932396,0.025350908,0.01863139,336.75967,110.71849,-18.302423,STD
4144898863000,0.265009,-3.18684657359183,-9.04345713048994,-1.57722137704526,-0.036651913,0.020463986,0.016187929,336.73956,110.71901,-18.31351,STD
4144903850000,0.269996,-3.18875497596588,-9.04298004421923,-1.5776984782615,-0.04153884,0.02565634,0.022602014,336.72766,110.72156,-18.326265,STD
4144908912000,0.275058,-3.19069207899724,-9.0424957829996,-1.57818275465144,-0.042760566,0.016798794,0.017715093,336.71,110.72109,-18.3358,STD
4144913895000,0.280041,-3.19259895066956,-9.04201907939283,-1.57865947319175,-0.03634648,0.025961773,0.018020526,336.70032,110.72322,-18.34717,STD
4144918886000,0.285032,-3.19450888374532,-9.04154161045818,-1.57913695708392,-0.04184427,0.03176499,0.018020526,336.68732,110.72579,-18.357393,STD
4144923844000,0.28999,-3.19640618853187,-9.04106729850105,-1.57961128389966,-0.038789943,0.027488936,0.01985312,336.67462,110.72701,-18.36802,STD
4144928862000,0.295008,-3.19832645384427,-9.04058724658479,-1.58009135085437,-0.040011674,0.03390302,0.016493361,336.66696,110.728226,-18.376154,STD
4144933849000,0.299995,-3.20023485621831,-9.04011016031408,-1.58056845207061,-0.034513887,0.02687807,0.020158553,336.6549,110.73045,-18.387411,STD
4144938832000,0.304978,-3.20214172789063,-9.03963345670731,-1.58104517061092,-0.03970624,0.022907447,0.018325957,336.6456,110.732025,-18.395517,STD
4144943916000,0.310062,-3.20408724978148,-9.03914709083598,-1.58153155171847,-0.051923547,0.014049901,0.014049901,336.6332,110.73415,-18.404318,STD
4144948939000,0.315085,-3.20600942847103,-9.03866656058979,-1.58201209701809,-0.04062254,0.015577064,0.02107485,336.62366,110.73635,-18.415253,STD
4144953848000,0.319994,-3.20788798216146,-9.03819693626597,-1.58248173605368,-0.04795292,0.016798794,0.021991149,336.61127,110.73985,-18.42345,STD
4144958864000,0.32501,-3.209807482123,-9.03771707568167,-1.58296161167042,-0.042455133,0.01160644,0.02565634,336.59836,110.74273,-18.434387,STD
4144963860000,0.330006,-3.21171932857592,-9.03723912841709,-1.58343957390751,-0.04642576,0.012217305,0.02107485,336.5876,110.745834,-18.442648,STD
4144968849000,0.334995,-3.21362849630083,-9.03676185081441,-1.58391686646171,-0.046120327,0.008246681,0.019547688,336.57468,110.749344,-18.45298,STD
4144973858000,0.340004,-3.21554531753435,-9.03628265989201,-1.58439607239557,-0.046120327,0.009468411,0.021991149,336.56387,110.7532,-18.4626,STD
4144978852000,0.344998,-3.21745639863641,-9.0358049039594,-1.58487384329469,-0.03970624,0.0021380284,0.02076942,336.54953,110.754814,-18.471106,STD
4144983850000,0.349996,-3.21936901044019,-9.03532676536285,-1.58535199686974,-0.04062254,-0.00030543262,0.02076942,336.53757,110.75827,-18.480097,STD
4144988836000,0.354982,-3.22127703013881,-9.03484977475813,-1.585829002417,-0.040927973,0.002443461,0.020158553,336.52536,110.76032,-18.488417,STD
4144993874000,0.36002,-3.22320494895983,-9.03436780952214,-1.58631098275135,-0.04062254,0.014049901,0.016798794,336.51538,110.76169,-18.495396,STD
4144998855000,0.365001,-3.22511105528128,-9.03389129724735,-1.5867875099537,-0.030543262,0.02107485,0.02076942,336.5056,110.76355,-18.504128,STD
4145003847000,0.369993,-3.22702137103248,-9.03341373264671,-1.58726508951485,-0.034513887,0.011911872,0.01985312,336.4944,110.76507,-18.510584,STD
4145008859000,0.375005,-3.2289393402923,-9.03293425472636,-1.58774458245566,-0.03726278,0.01038471,0.02076942,336.4881,110.766685,-18.517832,STD
4145013860000,0.380006,-3.23085310012237,-9.03245582913185,-1.58822302303766,-0.042455133,0.02443461,0.022907447,336.48407,110.769226,-18.524685,STD
4145018850000,0.384996,-3.23276265052271,-9.03197845586318,-1.58870041126084,-0.04184427,0.022602014,0.021685716,336.47507,110.770744,-18.531492,STD
4145023841000,0.389987,-3.23467258359848,-9.03150098692853,-1.58917789515302,-0.042455133,0.028710667,0.029321533,336.47336,110.77588,-18.540203,STD
4145028793000,0.394939,-3.23656759233244,-9.03102724896732,-1.58965164795487,-0.044593163,0.0290161,0.023518313,336.46887,110.77733,-18.54498,STD
4145033835000,0.399981,-3.23772952861321,-9.03054452766432,-1.5922489200002,-0.049480084,0.025961773,0.026267206,336.46616,110.783295,-18.55402,STD
4145038823000,0.404969,-3.23868480032496,-9.03006688183359,-1.59535355555711,-0.03726278,0.02076942,0.020463986,336.4623,110.78363,-18.558952,STD
4145043981000,0.410127,-3.23967262941262,-9.02957295697495,-1.59856400267069,-0.044593163,0.02321288,0.025350908,336.45395,110.80138,-18.579086,STD
4145048877000,0.415023,-3.24061028183859,-9.02910412097109,-1.60161137550282,-0.035124753,0.018325957,0.02076942,336.44153,110.811195,-18.595015,STD
4145053844000,0.41999,-3.24156153175685,-9.0286284860791,-1.60470294022037,-0.049785517,0.018325957,0.022907447,336.43225,110.82758,-18.613352,STD
4145058840000,0.424986,-3.24251833558041,-9.02815007417647,-1.60781255514466,-0.05467244,0.017104227,0.020158553,336.42114,110.8388,-18.628845,STD
4145063842000,0.429988,-3.24347628848782,-9.02767108771991,-1.61092590459447,-0.042760566,0.020158553,0.024129177,336.41214,110.85163,-18.646137,STD
4145068850000,0.434996,-3.2444353904791,-9.02719152670943,-1.61404298856981,-0.04734206,0.01740966,0.023518313,336.40106,110.86488,-18.66122,STD
4145073850000,0.439996,-3.24539296035856,-9.02671273177085,-1.61715509317778,-0.043982297,0.015882496,0.025350908,336.3919,110.87695,-18.67746,STD
4145079428000,0.445574,-3.24646122531609,-9.02617858813736,-1.62062695707844,-0.04886922,0.020463986,0.028099801,336.3842,110.890366,-18.693174,STD
4145083853000,0.449999,-3.24730867465941,-9.02575485461672,-1.62338116965649,-0.040317107,0.025350908,0.025045475,336.37625,110.900314,-18.707378,STD
4145088859000,0.455005,-3.24826739362273,-9.02527548512421,-1.62649700878999,-0.03634648,0.029626964,0.03268129,336.37048,110.91454,-18.72474,STD
4145093980000,0.460126,-3.24924813669328,-9.02478510334812,-1.62968442632947,-0.046731193,0.03268129,0.033292156,336.3656,110.926636,-18.738705,STD
4145098867000,0.465013,-3.25018406549347,-9.02431712917515,-1.6327261973733,-0.053450707,0.023823744,0.031154128,336.35895,110.93873,-18.754,STD
4145103855000,0.470001,-3.25113933720522,-9.02383948334442,-1.63583083293021,-0.04520403,0.027183503,0.027794369,336.35703,110.94974,-18.768002,STD
4145108840000,0.474986,-3.25209403437505,-9.02336212479065,-1.63893360122436,-0.042455133,0.027794369,0.03176499,336.35214,110.96325,-18.783596,STD
4145113894000,0.48004,-3.25306194600921,-9.02287815886673,-1.6420793165621,-0.042455133,0.022296581,0.030848695,336.34625,110.97366,-18.796637,STD
4145118882000,0.485028,-3.25401721772096,-9.022400513036,-1.64518395211901,-0.03634648,0.033292156,0.026572637,336.34573,110.98285,-18.80868,STD
4145123867000,0.490013,-3.25497191489079,-9.02192315448223,-1.64828672041315,-0.051923547,0.021685716,0.02687807,336.33725,110.9954,-18.82271,STD
4145128866000,0.495012,-3.25592929325628,-9.02144445530264,-1.6513982026002,-0.040317107,0.022907447,0.029626964,336.33597,111.00314,-18.83483,STD
4145133910000,0.500056,-3.25689528975068,-9.0209614469686,-1.65453769372872,-0.028405234,0.018020526,0.03390302,336.3297,111.01296,-18.847958,STD
4145138829000,0.504975,-3.2578373469981,-9.02049040850802,-1.65759938224204,-0.038179077,0.016187929,0.024129177,336.3244,111.02089,-18.85737,STD
4145143896000,0.510042,-3.25880774831394,-9.02000519771726,-1.66075318905176,-0.042760566,0.025961773,0.027183503,336.3222,111.030914,-18.870962,STD
4145149134000,0.51528,-3.25981089851967,-9.01950361213961,-1.66401342983907,-0.040011674,0.024129177,0.029321533,336.31577,111.03831,-18.881887,STD
4145153894000,0.52004,-3.26072250504492,-9.01904779935807,-1.66697615342586,-0.051923547,0.029321533,0.032375857,336.3147,111.04889,-18.89287,STD
4145158886000,0.525032,-3.26167854281258,-9.01856977049139,-1.67008327866645,-0.04062254,0.03390302,0.030848695,336.31296,111.055435,-18.903,STD
4145163919000,0.530065,-3.26264243265325,-9.01808781550622,-1.67321592316484,-0.04184427,0.03940081,0.03145956,336.31342,111.06605,-18.914005,STD
4145168887000,0.535033,-3.26359387408548,-9.01761208485524,-1.67630811030332,-0.049480084,0.03573562,0.030543262,336.31247,111.07509,-18.924126,STD
4145173846000,0.539992,-3.26454359189193,-9.01713721603516,-1.6793946956535,-0.05497787,0.028099801,0.03390302,336.3123,111.085075,-18.935326,STD
4145178926000,0.545072,-3.26551648288947,-9.01665076037756,-1.6825565939352,-0.044898596,0.03023783,0.03023783,336.31357,111.091805,-18.943758,STD
4145183884000,0.55003,-3.26646600918194,-9.01617598731646,-1.68564255686446,-0.047647487,0.024740042,0.027488936,336.3106,111.101616,-18.953827,STD
4145188827000,0.554973,-3.26741266276478,-9.01570265064018,-1.6887191834799,-0.052839845,0.02687807,0.025045475,336.31052,111.10942,-18.962254,STD
4145193947000,0.560093,-3.26839321432135,-9.01521236462307,-1.69190597859846,-0.057726767,0.028405234,0.027794369,336.30887,111.11797,-18.971436,STD
4145198877000,0.565023,-3.2693373782225,-9.01474027281363,-1.69497451374192,-0.056199603,0.03604105,0.026572637,336.30945,111.12453,-18.97821,STD
4145203850000,0.569996,-3.27028977722462,-9.01426406336771,-1.69806981298501,-0.051618114,0.0290161,0.02565634,336.30634,111.13187,-18.98624,STD
4145208842000,0.574988,-3.27124581499228,-9.01378603450103,-1.7011769382256,-0.045814894,0.024129177,0.02687807,336.3062,111.1389,-18.99389,STD
4145213859000,0.580005,-3.27220664060933,-9.01330561165966,-1.70429962398924,-0.03634648,0.01985312,0.027488936,336.3042,111.144356,-19.001228,STD
4145218865000,0.585011,-3.27316535957265,-9.01282624216715,-1.70741546312274,-0.03940081,0.021380283,0.030543262,336.30273,111.15145,-19.009373,STD
4145223851000,0.589997,-3.27412024825645,-9.0123487878544,-1.71051885383781,-0.042760566,0.023823744,0.028405234,336.3002,111.156136,-19.016193,STD
4145228791000,0.594937,-3.27506632729736,-9.01187573845508,-1.71359361319048,-0.039095376,0.028099801,0.026572637,336.29904,111.161064,-19.0236,STD
4145233850000,0.599996,-3.27411565115292,-9.01139094236389,-1.71444042480785,-0.047647487,0.03726278,0.027488936,336.30017,111.167946,-19.030657,STD
4145238830000,0.604976,-3.27268373169736,-9.01091362591073,-1.71467907805044,-0.032986723,0.029321533,0.029932396,336.29758,111.17136,-19.038088,STD
4145243852000,0.609998,-3.27123973581265,-9.01043228389712,-1.71491974403122,-0.04428773,0.025350908,0.027183503,336.28625,111.18495,-19.049723,STD
4145248865000,0.615011,-3.26979832773419,-9.0099518045036,-1.71515997871097,-0.046731193,0.029321533,0.02687807,336.27557,111.196556,-19.062296,STD
4145253849000,0.619995,-3.26836525814251,-9.00947410466373,-1.71539882364291,-0.04184427,0.026267206,0.028099801,336.26193,111.20794,-19.074612,STD
4145258855000,0.625001,-3.26692586280224,-9.00899429619696,-1.71563872286629,-0.037873644,0.023823744,0.030848695,336.25006,111.21966,-19.086641,STD
4145263855000,0.630001,-3.26548819266613,-9.00851506281025,-1.71587833455564,-0.040927973,0.023823744,0.027488936,336.2381,111.23002,-19.096922,STD
4145268855000,0.635001,-3.26405052253002,-9.00803582942354,-1.716117946245,-0.039095376,0.028710667,0.028710667,336.22763,111.240845,-19.108747,STD
4145273842000,0.639988,-3.26261659033627,-9.00755784204364,-1.71635693494396,-0.04337143,0.026267206,0.02565634,336.21497,111.25049,-19.11838,STD
4145278861000,0.645007,-3.26117345705364,-9.00707678757006,-1.71659745715773,-0.043982297,0.027794369,0.022602014,336.20532,111.25947,-19.12759,STD
4145283850000,0.649996,-3.25973894979183,-9.0065986084968,-1.71683654170136,-0.03726278,0.02321288,0.02443461,336.1935,111.26824,-19.137392,STD
4145288875000,0.655021,-3.25829409130504,-9.00611697894315,-1.71707735144916,-0.043676864,0.031154128,0.031154128,336.1863,111.2789,-19.146742,STD
4145293852000,0.659998,-3.25686303445156,-9.00563995003002,-1.71731586092474,-0.055588737,0.0421497,0.03573562,336.17896,111.289085,-19.15578,STD
4145298860000,0.665006,-3.25542306404323,-9.0051599498699,-1.71755585599279,-0.043066,0.040317107,0.028710667,336.17014,111.29549,-19.16334,STD
4145303845000,0.669991,-3.25398970691753,-9.00468215418335,-1.71779474884708,-0.047647487,0.03634648,0.0290161,336.16467,111.30814,-19.173517,STD
4145308868000,0.675014,-3.2525454234988,-9.00420071632306,-1.7180354627502,-0.05589417,0.029321533,0.027794369,336.15753,111.31724,-19.18125,STD
4145313863000,0.680009,-3.25110919103283,-9.00372196216973,-1.71827483482786,-0.04886922,0.034208454,0.030543262,336.15314,111.32587,-19.189552,STD
4145318850000,0.684996,-3.24967525883907,-9.00324397478983,-1.71851382352682,-0.047647487,0.03390302,0.032986723,336.14523,111.335495,-19.197704,STD
4145323848000,0.689994,-3.24823816377102,-9.00276493309648,-1.7187533393715,-0.04886922,0.035430185,0.03145956,336.13947,111.34397,-19.204924,STD
4145328866000,0.695012,-3.24679531802242,-9.00228397446958,-1.71899381366293,-0.044898596,0.03940081,0.030543262,336.13467,111.35218,-19.212633,STD
4145333850000,0.699996,-3.24536224843074,-9.0018062746297,-1.71923265859488,-0.038789943,0.03573562,0.028099801,336.12808,111.359215,-19.219511,STD
4145338827000,0.704973,-3.24393119157726,-9.00132924571657,-1.71947116807046,-0.04642576,0.043982297,0.03023783,336.12656,111.36817,-19.226454,STD
4145343918000,0.710064,-3.24246735584468,-9.00084129028223,-1.71971514069255,-0.036957346,0.040011674,0.030543262,336.12024,111.37302,-19.23275,STD
4145348926000,0.715072,-3.24102738543635,-9.0003612901221,-1.71995513576061,-0.04642576,0.036957346,0.028710667,336.11673,111.380905,-19.238422,STD
4145353866000,0.720012,-3.23960696734187,-8.99988780753603,-1.72019187210969,-0.03573562,0.045814894,0.028099801,336.11584,111.3854,-19.243961,STD
4145358861000,0.725007,-3.2381707348759,-8.99940905338271,-1.72043124418735,-0.03940081,0.046120327,0.0290161,336.1116,111.39254,-19.249779,STD
4145363870000,0.730016,-3.23673047693355,-8.9989289573759,-1.72067128717774,-0.03970624,0.038789943,0.031154128,336.10782,111.397995,-19.255579,STD
4145368851000,0.734997,-3.23529826994396,-8.99845154507606,-1.72090998834267,-0.03390302,0.03573562,0.030543262,336.1054,111.40255,-19.260506,STD
4145373846000,0.739992,-3.23386203747798,-8.99797279092274,-1.72114936042034,-0.035124753,0.05222898,0.030848695,336.10693,111.40863,-19.265545,STD
4145378826000,0.744972,-3.23243011802242,-8.99749547446958,-1.72138801366293,-0.03604105,0.049480084,0.032070424,336.10196,111.41392,-19.271563,STD
4145383831000,0.749977,-3.23099101021617,-8.99701576184948,-1.72162786496397,-0.034513887,0.05009095,0.03176499,336.1029,111.41863,-19.276186,STD
4145388847000,0.754993,-3.22954873953563,-8.99653499491593,-1.72186824341073,-0.03359759,0.043982297,0.032070424,336.10114,111.4239,-19.281654,STD
4145393836000,0.759982,-3.22811423227382,-8.99605681584267,-1.72210732795436,-0.03604105,0.038179077,0.030848695,336.09958,111.428795,-19.286446,STD
4145398867000,0.765013,-3.22666764858287,-8.99557461120897,-1.72234842523619,-0.03023783,0.035430185,0.025350908,336.09702,111.43145,-19.290129,STD
4145404497000,0.770643,-3.22504883200961,-8.99503499441553,-1.7226182279984,-0.049480084,0.03573562,0.023518313,336.09387,111.43798,-19.29449,STD
4145408853000,0.774999,-3.22379633378703,-8.99461748628903,-1.72282697770216,-0.034513887,0.057421334,0.024129177,336.0963,111.43878,-19.297016,STD
4145413876000,0.780022,-3.22235205036829,-8.99413604842874,-1.72306769160528,-0.03940081,0.028710667,0.02321288,336.08368,111.44336,-19.300846,STD
4145418829000,0.784975,-3.22092789433147,-8.99366131983587,-1.72330505094476,-0.048258353,0.029626964,0.028405234,336.08667,111.44832,-19.304132,STD
4145423847000,0.789993,-3.21948504858287,-8.99318036120897,-1.72354552523619,-0.034208454,0.03023783,0.027488936,336.08084,111.44916,-19.30669,STD
4145428798000,0.794944,-3.21806146761409,-8.99270582430945,-1.72378278873098,-0.03634648,0.039095376,0.029321533,336.07828,111.45498,-19.310904,STD
4145433832000,0.799978,-3.22019510264949,-8.99381505236376,-1.72322817589614,-0.032375857,0.03634648,0.026572637,336.0723,111.45682,-19.313965,STD
4145438849000,0.804995,-3.22308281318034,-8.99525890888556,-1.722506250148,-0.033292156,0.03390302,0.018936822,336.06903,111.45866,-19.315626,STD
4145443863000,0.810009,-3.22596879695584,-8.99670190202894,-1.72178475608757,-0.034208454,0.034208454,0.022907447,336.05875,111.46555,-19.320572,STD
4145448868000,0.815014,-3.22884960046529,-8.99814230503704,-1.72106455709027,-0.03848451,0.027183503,0.029626964,336.04553,111.47153,-19.324434,STD
4145453765000,0.819911,-3.23166824078213,-8.99955162642178,-1.72035989885055,-0.03145956,0.04062254,0.029932396,336.03867,111.47539,-19.326431,STD
4145458779000,0.824925,-3.23455422455763,-9.00099461956516,-1.71963840479012,-0.028710667,0.036651913,0.023823744,336.0248,111.48011,-19.329428,STD
4145463769000,0.829915,-3.23742639429032,-9.00243070568113,-1.71892036423137,-0.02687807,0.028405234,0.020158553,336.014,111.48457,-19.33257,STD
4145468763000,0.834909,-3.24030086636349,-9.00386794296833,-1.71820174808901,-0.045814894,0.0421497,0.023518313,336.00888,111.49132,-19.334957,STD
4145474190000,0.840336,-3.24342456679221,-9.00542979454175,-1.71742082502041,-0.03940081,0.026572637,0.025045475,335.9925,111.4932,-19.337444,STD
4145478771000,0.844917,-3.24606132221215,-9.00674817339891,-1.71676163788622,-0.03970624,0.032986723,0.026267206,335.9871,111.49879,-19.338942,STD
4145483765000,0.849911,-3.24893579428531,-9.00818541068611,-1.71604302174386,-0.04337143,0.03359759,0.021685716,335.97534,111.50268,-19.340063,STD
4145488755000,0.854901,-3.25180796401801,-9.00962149680208,-1.71532498118511,-0.03970624,0.030543262,0.022296581,335.96494,111.50716,-19.342682,STD
4145493799000,0.859945,-3.25471121534701,-9.01107312372972,-1.71459917024757,-0.045814894,0.039095376,0.0290161,335.95844,111.513504,-19.345018,STD
4145498773000,0.864919,-3.25757417571784,-9.01250460516075,-1.71388343202328,-0.030543262,0.030543262,0.024740042,335.9456,111.51391,-19.345243,STD
4145503844000,0.86999,-3.260492967845,-9.01396400249423,-1.71315373589634,-0.0290161,0.03023783,0.024129177,335.93842,111.51921,-19.347431,STD
4145508842000,0.874988,-3.26336974225863,-9.01540239095266,-1.71243454417037,-0.03573562,0.02565634,0.02565634,335.92752,111.52299,-19.349508,STD
4145513857000,0.880003,-3.26625630161925,-9.01684567188885,-1.71171290621403,-0.03940081,0.027183503,0.019242255,335.91815,111.52388,-19.34877,STD
4145518847000,0.884993,-3.26912847135194,-9.01828175800482,-1.71099486565529,-0.03970624,0.03940081,0.02321288,335.91147,111.528114,-19.35096,STD
4145523854000,0.89,-3.27201042603162,-9.01972273659853,-1.71027437886618,-0.043982297,0.04184427,0.028099801,335.90225,111.53175,-19.35189,STD
4145528860000,0.895006,-3.27489180512619,-9.02116342739944,-1.70955403597297,-0.034513887,0.03848451,0.023823744,335.89478,111.532265,-19.350965,STD
4145533850000,0.899996,-3.27776397485889,-9.02259951351541,-1.70883599541423,-0.03481932,0.040011674,0.023823744,335.89005,111.5367,-19.352165,STD
4145538833000,0.904979,-3.28063211549577,-9.02403358508171,-1.7081189621268,-0.03634648,0.03359759,0.029626964,335.88214,111.54041,-19.354263,STD
4145543877000,0.910023,-3.28353536682477,-9.02548521200936,-1.70739315118927,-0.03176499,0.040927973,0.021991149,335.87823,111.53985,-19.351765,STD
4145548872000,0.915018,-3.28641041448305,-9.02692273708937,-1.706674391151,-0.032070424,0.043676864,0.023518313,335.87195,111.54381,-19.353905,STD
4145553847000,0.919993,-3.28927395043899,-9.0283545063132,-1.70595850903081,-0.025961773,0.031154128,0.025045475,335.863,111.54438,-19.354223,STD
4145558854000,0.925,-3.29215590511868,-9.02979548490692,-1.7052380222417,-0.030543262,0.023518313,0.015271631,335.85593,111.54373,-19.351385,STD
4145563860000,0.930006,-3.29503728421324,-9.03123617570783,-1.7045176793485,-0.027183503,0.022907447,0.018325957,335.84814,111.545006,-19.352793,STD
4145568856000,0.935002,-3.29791290745664,-9.03267398858064,-1.70379877541433,-0.027183503,0.023518313,0.015271631,335.83783,111.54315,-19.34999,STD
4145573843000,0.939989,-3.30078335043399,-9.03410921131819,-1.70308116654329,-0.03023783,0.02321288,0.015882496,335.82764,111.54298,-19.349104,STD
4145578830000,0.944976,-3.30365379341133,-9.03554443405572,-1.70236355767225,-0.034208454,0.025350908,0.01863139,335.8185,111.5427,-19.347795,STD
4145583851000,0.949997,-3.30654380628265,-9.03698944174876,-1.7016410563405,-0.03604105,0.03145956,0.021380283,335.81076,111.54269,-19.346449,STD
4145588826000,0.954972,-3.30940734223859,-9.0384212109726,-1.7009251742203,-0.027794369,0.04337143,0.01985312,335.80545,111.54147,-19.34424,STD
4145593868000,0.960014,-3.31230944239736,-9.03987226231462,-1.70019965107457,-0.046120327,0.047036625,0.014966198,335.79962,111.54355,-19.341913,STD
4145598858000,0.965004,-3.31518161213006,-9.04130834843059,-1.69948161051582,-0.044898596,0.03756821,0.022602014,335.79404,111.54504,-19.342768,STD
4145603846000,0.969992,-3.31805263069252,-9.04274385896094,-1.69876385774888,-0.038179077,0.032986723,0.01863139,335.79013,111.54379,-19.338583,STD
4145608850000,0.974996,-3.32093285861686,-9.04418397417623,-1.69804380264749,-0.03940081,0.03604105,0.014966198,335.78616,111.54532,-19.336674,STD
4145613991000,0.980137,-3.32389194170219,-9.04566351700633,-1.6973040338073,-0.03848451,0.0290161,0.015271631,335.7779,111.5457,-19.335451,STD
4145618848000,0.984994,-3.32668755861435,-9.04706132667872,-1.69660513140373,-0.027183503,0.02321288,0.012217305,335.77063,111.54312,-19.332052,STD
4145623845000,0.989991,-3.32956375744287,-9.04849942734435,-1.69588608357366,-0.03726278,0.021685716,0.004276057,335.76245,111.541855,-19.327477,STD
4145628813000,0.994959,-3.33242326430299,-9.04992918201852,-1.69517120872479,-0.0290161,0.020158553,0.008857546,335.7532,111.53941,-19.32587,STD
4145633849000,0.999995,-3.3438770870801,-9.03150168819983,-1.71367511180017,-0.027794369,0.018325957,0.002443461,335.7426,111.53427,-19.319057,STD
4145638841000,1.004987,-3.35623041669251,-9.01091280551249,-1.73426399448751,-0.026267206,0.013133603,0.008552114,335.73163,111.53253,-19.317331,STD
4145643921000,1.010067,-3.37252945818155,-8.99943054353755,-1.74436257157884,-0.027488936,0.010995574,0.002443461,335.71143,111.5405,-19.32681,STD
4145648947000,1.015093,-3.39128194049382,-8.99474256369923,-1.74670663492744,-0.028099801,0.016187929,0.01160644,335.69354,111.55333,-19.34173,STD
4145653845000,1.019991,-3.40955684267556,-8.99017397530924,-1.7489910006818,-0.035124753,0.018936822,0.008552114,335.66977,111.568016,-19.356667,STD
4145658850000,1.024996,-3.42823097199766,-8.98550558313042,-1.75132526989383,-0.038789943,0.017715093,0.009162978,335.64764,111.58508,-19.37449,STD
4145663828000,1.029974,-3.42854464836824,-8.97351584936749,-1.74302664836824,-0.036651913,0.0143553335,0.01160644,335.62622,111.6014,-19.391317,STD
4145668849000,1.034995,-3.40809812437546,-8.95306889837355,-1.72258012437547,-0.03268129,0.021685716,0.010995574,335.6081,111.61672,-19.406372,STD
4145674041000,1.040187,-3.39568699366326,-8.95085626924379,-1.71628811381762,-0.037873644,0.013133603,0.0143553335,335.56726,111.650185,-19.441347,STD
4145678901000,1.045047,-3.38938504998985,-8.96030943152122,-1.71943910210548,-0.028099801,0.014660766,0.012217305,335.53238,111.678604,-19.472542,STD
4145683911000,1.050057,-3.38288860188207,-8.97005435806648,-1.72268734311827,-0.03970624,0.01160644,0.008246681,335.4939,111.70766,-19.502207,STD
4145688857000,1.055003,-3.38689373634775,-8.96718699969171,-1.73324650370979,-0.032986723,0.01160644,0.014966198,335.4583,111.734505,-19.532969,STD
4145693920000,1.060066,-3.39685922504367,-8.95722125084781,-1.74819481479807,-0.04153884,0.01160644,0.010995574,335.439089968216,111.746838142134,-19.5460091919944,STD
4145698925000,1.065071,-3.3879124004561,-8.94838717042365,-1.74366507713358,-0.035124753,0.004886922,0.0106901415,335.4201,111.75903,-19.5589,STD
4145704018000,1.070164,-3.37080003660205,-8.93983123418998,-1.73083077073941,-0.033292156,0.003970624,0.010995574,335.3737,111.79344,-19.59339,STD
4145708871000,1.075017,-3.35942635684297,-8.93821037227996,-1.72585814315703,-0.03848451,-0.003970624,0.01282817,335.31815,111.83074,-19.630571,STD
4145713882000,1.080028,-3.35451218503405,-8.94558152736675,-1.73077231496595,-0.043066,-0.0076358155,0.01863139,335.26538,111.86742,-19.66728,STD
4145718846000,1.084992,-3.34964410503814,-8.95288354569659,-1.73564039496186,-0.034208454,-0.018936822,0.01740966,335.19266,111.90795,-19.709375,STD
4145723866000,1.090012,-3.34472110713737,-8.96026793973683,-1.74056339286263,-0.035430185,-0.0106901415,0.01160644,335.12674,111.948814,-19.749165,STD
4145729604000,1.09575,-3.3423057,-8.96855357433102,-1.7429788,-0.026572637,-0.004276057,0.01985312,335.0549,111.99784,-19.797945,STD
4145733922000,1.100068,-3.3423057,-8.97470105401388,-1.7429788,-0.034208454,-0.005497787,0.014966198,334.98428,112.04223,-19.839413,STD
4145738843000,1.104989,-3.3423057,-8.98170701684836,-1.7429788,-0.03756821,0.004276057,0.02443461,334.91495,112.0963,-19.88882,STD
4145743881000,1.110027,-3.3423057,-8.98887955104063,-1.7429788,-0.03970624,0.0021380284,0.01863139,334.84262,112.143814,-19.931135,STD
4145748841000,1.114987,-3.3313138516291,-8.9948194018112,-1.74078044409883,-0.035124753,0.01038471,0.019547688,334.77908,112.193016,-19.975035,STD
4145753761000,1.119907,-3.30812350257899,-8.99945753942317,-1.73614240334679,-0.025961773,0.009468411,0.01985312,334.71362,112.23827,-20.015781,STD
4145758796000,1.124942,-3.29233846557645,-9.00011502207686,-1.72507026230581,-0.036651913,0.008552114,0.016798794,334.65186,112.282135,-20.052883,STD
4145763763000,1.129909,-3.28747665388389,-8.99525310885119,-1.70562301553557,-0.05375614,0.005192355,0.018325957,334.59097,112.325195,-20.089846,STD
4145768745000,1.134891,-3.27428912874447,-8.99895441501634,-1.69087261149779,-0.049480084,0.021685716,0.022296581,334.54184,112.36003,-20.11771,STD
4145773789000,1.139935,-3.25106985398962,-9.01288627081331,-1.68158490159585,-0.043676864,0.016493361,0.018936822,334.48624,112.39369,-20.143772,STD
4145778742000,1.144888,-3.24414129833201,-9.02494223669579,-1.67055565750596,-0.054061573,0.008246681,0.015882496,334.43588,112.42773,-20.169367,STD
4145783758000,1.149904,-3.26321883161239,-9.0344807045274,-1.65624745774424,-0.036651913,0.0125227375,0.019242255,334.38913,112.45708,-20.194221,STD
4145788770000,1.154916,-3.28110516542475,-9.0421728460594,-1.65054633116589,-0.04153884,0.01282817,0.01863139,334.3414,112.48989,-20.21556,STD
4145793822000,1.159968,-3.29709777395287,-9.04674223775794,-1.65968494757048,-0.04795292,0.014660766,0.017104227,334.2966,112.52004,-20.236156,STD
4145799300000,1.165446,-3.31443892785569,-9.05169693445719,-1.66959415989517,-0.045814894,0.0061086523,0.015882496,334.25198,112.5465,-20.256763,STD
4145803766000,1.169912,-3.32857649509373,-9.0557363056618,-1.67767275468197,-0.037873644,0.005497787,0.015577064,334.21124,112.57168,-20.275679,STD
4145808770000,1.174916,-3.34359005218659,-9.05901681049563,-1.68680235218659,-0.04642576,0.007330383,0.017104227,334.16968,112.59768,-20.29409,STD
4145813774000,1.17992,-3.35322558193425,-9.05419894500855,-1.69643788193425,-0.03848451,0.006414085,0.010995574,334.12766,112.61757,-20.30949,STD
4145818753000,1.184899,-3.35885974721753,-9.04943213470727,-1.70207205400357,-0.038789943,0.007941248,0.014966198,334.09103,112.64021,-20.327526,STD
4145823801000,1.189947,-3.3401932572518,-9.04476567667358,-1.68340561276606,-0.043676864,0.007941248,0.018936822,334.05423,112.66001,-20.34315,STD
4145828730000,1.194876,-3.32196680538153,-9.04020922428689,-1.66517920847531,-0.04520403,0.009162978,0.018020526,334.01984,112.67997,-20.358934,STD
4145833746000,1.199892,-3.30341864498769,-9.03557234760365,-1.6466310965008,-0.04520403,0.004276057,0.018020526,333.98465,112.700676,-20.375551,STD
4145839131000,1.205277,-3.28379659467956,-9.03040498639661,-1.62884310672612,-0.033292156,0.004886922,0.005192355,333.95407,112.71249,-20.384548,STD
4145843781000,1.209927,-3.27033464788392,-9.02367387243047,-1.63893960196493,-0.034208454,0.003970624,0.011301007,333.92328,112.73005,-20.398521,STD
4145848785000,1.214931,-3.25584785610641,-9.01643032527207,-1.64980473361548,-0.036651913,-0.004886922,0.0106901415,333.88773,112.735695,-20.40286,STD
4145853740000,1.219886,-3.25096078783533,-9.0108903039575,-1.66298034296946,-0.03634648,-0.0021380284,0.0036651916,333.8561,112.74061,-20.406105,STD
4145858767000,1.224913,-3.26374765997344,-9.00833287612218,-1.68088196396282,-0.028710667,-0.00061086525,0.010079277,333.82297,112.7478,-20.413004,STD
4145863753000,1.229899,-3.27643024292165,-9.00579630656043,-1.69863758009031,-0.033292156,0.0018325958,0.013744468,333.78876,112.74868,-20.411652,STD
4145868789000,1.234935,-3.28924000780877,-9.00323430007968,-1.71657125093227,-0.03176499,0.0018325958,0.01160644,333.77162046046,112.748589261261,-20.4112219991992,STD
4145873743000,1.239889,-3.2944214,-9.00635433440786,-1.72659603173973,-0.03359759,0.00061086525,0.013439035,333.75476,112.7485,-20.410799,STD
4145878753000,1.244899,-3.2944214,-9.01349291355882,-1.731354985122,-0.031154128,-0.0012217305,0.004886922,333.72183,112.74711,-20.408255,STD
4145883747000,1.249893,-3.2944214,-9.02060869485221,-1.73609874024995,-0.03481932,0.0030543262,0.007941248,333.6882,112.74934,-20.409786,STD
4145888739000,1.254885,-3.2944214,-9.02772162641341,-1.74084059559611,-0.035430185,0.003970624,0.0070249503,333.65314,112.74749,-20.407778,STD
4145893773000,1.259919,-3.28398795533372,-9.03875397455471,-1.73776207766686,-0.024129177,-0.0021380284,0.009468411,333.61182,112.74368,-20.407413,STD
4145898751000,1.264897,-3.26532547328244,-9.05275064122137,-1.72843083664122,-0.032070424,-0.0036651916,0.015271631,333.57318,112.742874,-20.40718,STD
4145903771000,1.269917,-3.25733100241919,-9.05479181573468,-1.7250420024192,-0.029932396,0.007941248,0.01282817,333.53693,112.737274,-20.40349,STD
4145908792000,1.274938,-3.25971475776324,-9.04525684414039,-1.72742575776324,-0.04062254,0.008246681,0.011911872,333.4981,112.73602,-20.402222,STD
4145913765000,1.279911,-3.262075724767,-9.03581302543129,-1.729786724767,-0.029932396,0.0036651916,0.007330383,333.4533,112.72879,-20.39808,STD
4145918775000,1.284921,-3.26445425778307,-9.02629894303986,-1.73216525778307,-0.036957346,0.0018325958,0.0076358155,333.4106,112.725975,-20.394636,STD
4145923762000,1.289908,-3.2634029420662,-9.0167757885657,-1.7265378261986,-0.027183503,0.0036651916,0.013439035,333.37552,112.71805,-20.388447,STD
4145928778000,1.294924,-3.25858476465396,-9.00713923249749,-1.71208329396189,-0.031154128,0.0076358155,0.0143553335,333.34103,112.711525,-20.38084,STD
4145933757000,1.299903,-3.2606833491774,-8.99762899395441,-1.7092407491774,-0.030848695,0.016187929,0.015271631,333.31036,112.70646,-20.375992,STD
4145938757000,1.304903,-3.27017472677899,-8.98813791367691,-1.71873212677899,-0.042455133,0.0067195175,0.0143553335,333.27606,112.70309,-20.37145,STD
4145943769000,1.309915,-3.27629617231776,-8.983045,-1.7238252,-0.03573562,-0.003970624,0.01160644,333.2411,112.6986,-20.368484,STD
4145948775000,1.314921,-3.27850657670709,-8.983045,-1.7238252,-0.028099801,0.004886922,0.016798794,333.21027,112.697105,-20.36675,STD
4145953774000,1.31992,-3.28071389023929,-8.983045,-1.7238252,-0.036957346,-0.002443461,0.01160644,333.1723,112.69519,-20.364054,STD
4145958848000,1.324994,-3.28295432009775,-8.983045,-1.7238252,-0.027183503,0.007330383,0.016493361,333.1437,112.69384,-20.36409,STD
4145963862000,1.330008,-3.28506194455384,-8.98478374735278,-1.7238252,-0.032375857,0.007941248,0.016187929,333.10513,112.69836,-20.366692,STD
4145968851000,1.334997,-3.28654125148306,-8.99661814099944,-1.7238252,-0.040011674,-0.0033597588,0.016798794,333.06702,112.70315,-20.370632,STD
4145974192000,1.340338,-3.28812493124032,-9.00928751291102,-1.7238252,-0.03573562,0.013439035,0.01282817,333.03833,112.70612,-20.372093,STD
4145978860000,1.345006,-3.2895090572667,-9.02036046331042,-1.7238252,-0.042455133,0.013744468,0.014049901,333.0024,112.71251,-20.376154,STD
4145983936000,1.350082,-3.29101416088922,-9.03240122942597,-1.7238252,-0.03940081,0.01282817,0.011911872,332.97455,112.72372,-20.381956,STD
4145988833000,1.354979,-3.29246618855657,-9.04401739011704,-1.7238252,-0.035430185,0.009162978,0.014049901,332.94675,112.73642,-20.38892,STD
4145993912000,1.360058,-3.29397218172023,-9.05606527252461,-1.7238252,-0.0421497,0.019242255,0.01863139,332.922,112.75581,-20.399174,STD
4145998909000,1.365055,-3.29124706229415,-9.0628334039981,-1.71430218688244,-0.03573562,0.021685716,0.008857546,332.8938,112.76915,-20.405922,STD
4146003804000,1.36995,-3.28678457433603,-9.06729598514993,-1.70091472300809,-0.041233405,0.02076942,0.015882496,332.86923,112.78949,-20.417713,STD
4146008848000,1.374994,-3.27334889194196,-9.06348802593393,-1.69222087298549,-0.040927973,0.013439035,0.014660766,332.84503,112.8036,-20.423508,STD
4146013862000,1.380008,-3.25358226635793,-9.05360450674076,-1.68727921658948,-0.0421497,0.014966198,0.011301007,332.82385,112.81908,-20.429728,STD
4146018846000,1.384992,-3.24805934808371,-9.05160397986777,-1.69008384425113,-0.029626964,0.011911872,0.011911872,332.80054,112.83498,-20.438244,STD
4146023844000,1.38999,-3.25043867136253,-9.05398335283591,-1.69722181408759,-0.031154128,0.008246681,0.008246681,332.77747,112.85005,-20.444036,STD
4146028857000,1.395003,-3.25282513546752,-9.05636986677934,-1.70438120640255,-0.030543262,0.00061086525,0.01038471,332.74976,112.863976,-20.450796,STD
4146033856000,1.400002,-3.25520493480141,-9.0587497158125,-1.71152060440424,-0.03023783,-0.0033597588,0.008857546,332.72214,112.8756,-20.455023,STD
4146038827000,1.404973,-3.25904156017575,-9.05478006637374,-1.71522418672525,-0.03573562,-0.0033597588,0.013744468,332.709460591216,112.88143341713,-20.457401809221,STD
4146043920000,1.410066,-3.26391220551228,-9.04666232414619,-1.71684773517076,-0.027488936,0.004276057,0.009773844,332.69647,112.88741,-20.459839,STD
4146048905000,1.415051,-3.26867956600759,-9.03871672332068,-1.71843685533586,-0.030848695,0.003970624,0.010995574,332.6677,112.899025,-20.464462,STD
4146054665000,1.420811,-3.27418809087278,-9.02953584854537,-1.72027303029093,-0.03359759,-0.00030543262,0.010995574,332.63126,112.91036,-20.470564,STD
4146058832000,1.424978,-3.27817316432994,-9.0228940594501,-1.72160138810998,-0.035124753,-0.0030543262,0.009468411,332.5959,112.92129,-20.475983,STD
4146063860000,1.430006,-3.28298164749351,-9.01487992084415,-1.72320421583117,-0.036957346,0.007330383,0.01282817,332.56412,112.93325,-20.481775,STD
4146068879000,1.435025,-3.28763575049824,-9.00619258242384,-1.72103404950176,-0.03268129,0.009162978,0.017715093,332.53625,112.943245,-20.485569,STD
4146073848000,1.439994,-3.29215194288697,-8.99716000901585,-1.71651785711303,-0.035124753,0.0033597588,0.012217305,332.50925,112.95198,-20.486853,STD
4146078845000,1.444991,-3.28357220659779,-8.99045134257749,-1.71641823868044,-0.03848451,0.01038471,0.014966198,332.4893,112.966225,-20.493969,STD
4146083852000,1.449998,-3.26184344205184,-8.98610595269168,-1.72076399158963,-0.040011674,0.014660766,0.013439035,332.4666,112.977455,-20.498333,STD
4146088855000,1.455001,-3.24533745460102,-8.98064505908319,-1.72142530920204,-0.03359759,0.017715093,0.017715093,332.44498,112.989494,-20.505548,STD
4146093912000,1.460058,-3.24122625955857,-8.97242249728353,-1.71320291911715,-0.028710667,0.013744468,0.01282817,332.42227,112.998634,-20.509468,STD
4146099361000,1.465507,-3.23745113679317,-8.9645450456428,-1.70483511226439,-0.032986723,0.0033597588,0.01038471,332.39792,113.006676,-20.511278,STD
4146103853000,1.469999,-3.2483595094413,-8.97908946657087,-1.70847123648043,-0.03573562,0.0076358155,0.013133603,332.3772,113.0136,-20.512318,STD
4146108840000,1.474986,-3.26046994007269,-8.99523662310878,-1.7125080466909,-0.03634648,0.014966198,0.01282817,332.34738,113.02069,-20.514988,STD
4146113852000,1.479998,-3.2714509667122,-8.9993179564989,-1.7171283833561,-0.034513887,0.014049901,0.015577064,332.31732,113.02884,-20.519072,STD
4146118850000,1.484996,-3.2815097765052,-8.9942884465693,-1.7221577882526,-0.03023783,0.01282817,0.015577064,332.2897,113.035515,-20.521538,STD
4146124666000,1.490812,-3.27746800750069,-8.98893301185295,-1.72013690375035,-0.03176499,0.004581489,0.0106901415,332.26053,113.04259,-20.52449,STD
4146128859000,1.495005,-3.27003111104732,-8.98521487424762,-1.71641845552366,-0.030543262,0.00580322,0.007941248,332.2345,113.04888,-20.527206,STD
4146133850000,1.499996,-3.26422874394862,-8.98596949683402,-1.71132388789725,-0.03268129,0.009162978,0.0067195175,332.20773,113.05606,-20.53048,STD
4146138830000,1.504976,-3.26136630875371,-8.99169433733457,-1.70559901750743,-0.03481932,0.010995574,0.011301007,332.18158,113.063484,-20.534262,STD
4146143881000,1.510027,-3.25846306373976,-8.99750079704708,-1.69979252747952,-0.028099801,0.011301007,0.017104227,332.156,113.068634,-20.536549,STD
4146148862000,1.515008,-3.25560005375867,-9.00322678711401,-1.69406650751733,-0.03359759,0.0061086523,0.010995574,332.12936,113.07336,-20.536634,STD
4146153801000,1.519947,-3.25276118479729,-9.00890449539357,-1.68838876959457,-0.03268129,0.0143553335,0.01863139,332.1085,113.081024,-20.541138,STD
4146158845000,1.524991,-3.24986196328662,-9.01470290814152,-1.68259032657324,-0.03573562,0.015882496,0.020463986,332.08383,113.086525,-20.542614,STD
4146163789000,1.529935,-3.24702022039432,-9.02038636425292,-1.67690684078864,-0.023518313,0.017104227,0.014049901,332.06195,113.0894,-20.543158,STD
4146168847000,1.534993,-3.2387203256894,-9.02526063918723,-1.68375831512337,-0.034208454,0.018936822,0.014966198,332.0415,113.08776,-20.539473,STD
4146173810000,1.539956,-3.22952256850508,-9.02985963783261,-1.69295612032898,-0.03176499,0.03390302,0.016798794,332.0255,113.08154,-20.533451,STD
4146178859000,1.545005,-3.21643751361635,-9.02363125667612,-1.69144600453878,-0.04062254,0.026267206,0.020463986,331.99802,113.07478,-20.527746,STD
4146183799000,1.549945,-3.20255429186149,-9.01437558221657,-1.68681826395383,-0.035430185,0.034208454,0.01985312,331.98004,113.065445,-20.51976,STD
4146188822000,1.554968,-3.2049213225153,-9.03057863116673,-1.6729822567969,-0.03848451,0.02321288,0.016798794,331.9539,113.05744,-20.511318,STD
4146194682000,1.560828,-3.21502570764314,-9.06089205032409,-1.65277332827692,-0.04428773,0.0143553335,0.008552114,331.93082,113.04777,-20.500765,STD
4146198846000,1.564992,-3.2299060574485,-9.06681613797544,-1.64963053675713,-0.025350908,0.021685716,0.01740966,331.9058,113.03695,-20.492887,STD
4146203847000,1.569993,-3.25362514263075,-9.06207222187005,-1.65437440332805,-0.03634648,0.026572637,0.022907447,331.87732,113.02793,-20.482405,STD
4146208831000,1.574977,-3.26686059767756,-9.05615025581861,-1.65561799010962,-0.03848451,0.025045475,0.014660766,331.84937,113.01369,-20.47145,STD
4146213858000,1.580004,-3.26927025649932,-9.048921379999,-1.65320830612643,-0.043066,0.014660766,0.015271631,331.8216,113.005005,-20.464762,STD
4146218849000,1.584995,-3.27166265896191,-9.04174427253616,-1.65081587868262,-0.033292156,0.01038471,0.013439035,331.8035,112.99802,-20.45873,STD
4146223842000,1.589988,-3.27405602011112,-9.03456428905351,-1.64842249254217,-0.028099801,0.017104227,0.015271631,331.7862,112.9933,-20.45382,STD
4146228853000,1.594999,-3.27041886150082,-9.02123092047308,-1.66660647931281,-0.034513887,0.018020526,0.018936822,331.76886,112.9889,-20.448832,STD
4146233851000,1.599997,-3.26065849314845,-9.00170977610114,-1.70564800368067,-0.03573562,0.015577064,0.013744468,331.75247,112.98146,-20.441713,STD
4146238827000,1.604973,-3.263605767044,-8.99761548233094,-1.71883082197067,-0.034513887,0.021685716,0.01038471,331.73672,112.97908,-20.43938,STD
4146243873000,1.610019,-3.27787622657742,-9.00712932070086,-1.70931718228172,-0.034208454,0.01038471,0.009162978,331.71524,112.97615,-20.437147,STD
4146248836000,1.614982,-3.28046337836156,-9.00958434343249,-1.69371854590389,-0.027794369,0.015577064,0.010079277,331.70065,112.9725,-20.431067,STD
4146253827000,1.619973,-3.27171320741419,-9.00520916659039,-1.67184311853547,-0.034513887,0.015271631,0.013133603,331.68143,112.970695,-20.426092,STD
4146258856000,1.625002,-3.26492458674566,-9.00296442925996,-1.65985325301737,-0.032375857,0.013133603,0.009773844,331.66376,112.96483,-20.420435,STD
4146264146000,1.630292,-3.2623810948288,-9.00550797429461,-1.67002722068481,-0.032070424,0.014966198,0.009162978,331.6479,112.96154,-20.416166,STD
4146268804000,1.63495,-3.26014147567025,-9.00774764022492,-1.67898569731901,-0.029321533,0.015882496,0.00580322,331.6306,112.95472,-20.410126,STD
4146273852000,1.639998,-3.25771434009439,-9.0101748264886,-1.68869423962245,-0.020158553,0.016493361,0.00580322,331.61432,112.94781,-20.404781,STD
4146278872000,1.645018,-3.25753828451026,-9.00821478872435,-1.69723092676539,-0.02565634,0.019242255,0.0106901415,331.60635,112.940956,-20.3968,STD
4146283829000,1.649975,-3.26171038079712,-8.99778454800721,-1.70348907119568,-0.029321533,0.01863139,0.008857546,331.59732,112.93122,-20.387253,STD
4146288877000,1.655023,-3.26595906791756,-8.98716283020609,-1.70986210187635,-0.027794369,0.013439035,0.006414085,331.58768,112.92234,-20.37729,STD
4146293910000,1.660056,-3.27019513017533,-8.97657267456167,-1.716216195263,-0.030543262,0.0125227375,0.008246681,331.57935,112.915276,-20.367996,STD
4146298810000,1.664956,-3.27431925198401,-8.96626237003999,-1.72240237797601,-0.023823744,0.01038471,0.004581489,331.56882,112.90494,-20.356981,STD
4146303830000,1.669976,-3.28029836493506,-8.96892149927475,-1.72256756861528,-0.032070424,0.0067195175,0.008246681,331.55817,112.899376,-20.34883,STD
4146308772000,1.674918,-3.28668445584416,-8.97530750683083,-1.72097105839096,-0.030543262,0.0106901415,0.010079277,331.54904,112.89049,-20.339008,STD
4146313761000,1.679907,-3.29313128051948,-8.98175424736043,-1.71935936484399,-0.028099801,0.010079277,0.009162978,331.53534,112.88714,-20.333948,STD
4146318739000,1.684885,-3.29956389090909,-8.98818677378985,-1.71775122484061,-0.02565634,0.0070249503,0.006414085,331.5223,112.88357,-20.328787,STD
4146323781000,1.689927,-3.3060792025974,-8.99470200043852,-1.71612240967448,-0.023518313,0.006414085,0.014049901,331.51624,112.88328,-20.3256,STD
4146328736000,1.694882,-3.31248209220779,-9.00110480647664,-1.71452169980772,-0.034513887,-0.00030543262,0.01038471,331.50668,112.88078,-20.319008,STD
4146333751000,1.699897,-3.30616988322359,-8.99849527228044,-1.70684309921172,-0.022296581,0.00580322,0.015577064,331.49756,112.875244,-20.314829,STD
4146338783000,1.704929,-3.29723151497728,-8.99402606482426,-1.69790487096355,-0.031154128,0.011911872,0.016798794,331.4862,112.87195,-20.308872,STD
4146343821000,1.709967,-3.28734022310655,-9.00324298716303,-1.70217597689345,-0.04337143,0.005192355,0.0143553335,331.47388,112.86926,-20.30601,STD
4146348762000,1.714908,-3.27721635301669,-9.01842910943517,-1.71229984698331,-0.035430185,0.008857546,0.016187929,331.467,112.86657,-20.3038,STD
4146353750000,1.719896,-3.27906708671384,-9.0264176891706,-1.7142484,-0.03634648,0.009162978,0.016493361,331.46185,112.86023,-20.296158,STD
4146358755000,1.724901,-3.2837773740566,-9.03269803950472,-1.7142484,-0.034208454,0.01160644,0.014660766,331.45844,112.852585,-20.288284,STD
4146363736000,1.729882,-3.28846507460692,-9.0389482742728,-1.7142484,-0.027488936,0.008552114,0.015882496,331.45276,112.843796,-20.279114,STD
4146368750000,1.734896,-3.29318383199686,-9.04523991794418,-1.7142484,-0.039095376,0.013133603,0.020463986,331.4502,112.837715,-20.270071,STD
4146373783000,1.739929,-3.29792047059748,-9.05155540310535,-1.7142484,-0.03634648,0.004581489,0.015271631,331.44574,112.8251,-20.257671,STD
4146378760000,1.744906,-3.30260440668239,-9.05780061861242,-1.7142484,-0.03268129,0.009468411,0.016798794,331.44727,112.816986,-20.247753,STD
4146383765000,1.749911,-3.29885802994365,-9.05109204990608,-1.70910822994365,-0.023823744,0.016493361,0.01160644,331.44617,112.80506,-20.23509,STD
4146388804000,1.75495,-3.29150805352084,-9.0388420892014,-1.70175825352084,-0.028710667,0.013744468,0.009162978,331.44382,112.7958,-20.224167,STD
4146393755000,1.759901,-3.28428643548764,-9.02680605914606,-1.69453663548764,-0.01863139,0.011301007,0.012217305,331.44925,112.78022,-20.210405,STD
4146398759000,1.764905,-3.27698751069706,-9.0146411844951,-1.68723771069706,-0.024740042,0.015882496,0.020463986,331.4559,112.76857,-20.197678,STD
4146403754000,1.7699,-3.27883386838408,-9.02247305620609,-1.68908406838408,-0.025961773,0.013439035,0.021380283,331.4646,112.75024,-20.180735,STD
4146408777000,1.774923,-3.28352788345043,-9.03655490534738,-1.69377808345043,-0.02565634,0.013439035,0.01282817,331.475,112.73276,-20.16363,STD
4146413819000,1.779965,-3.28314350410209,-9.03880404620349,-1.69169260820418,-0.029932396,0.0143553335,0.01740966,331.48972,112.71283,-20.145344,STD
4146418734000,1.78488,-3.2808421315895,-9.03650286593654,-1.687089863179,-0.025350908,0.0015271631,0.0061086523,331.49857,112.68632,-20.1217,STD
4146423772000,1.789918,-3.27848316623478,-9.03414409763849,-1.68237193246956,-0.027488936,0.010079277,0.0061086523,331.5146,112.66599,-20.101858,STD
4146428737000,1.794883,-3.27615838199775,-9.0318195076028,-1.6777223639955,-0.018020526,0.0076358155,0.0070249503,331.52258,112.641754,-20.081104,STD
4146433739000,1.799885,-3.27215094120735,-9.01846130446194,-1.67905805879265,-0.026267206,0.0076358155,0.0076358155,331.5331,112.621735,-20.061146,STD
4146438767000,1.804913,-3.26709559733333,-8.99823950666667,-1.68411340266667,-0.03023783,0.011301007,0.0061086523,331.54367,112.60041,-20.041471,STD
4146443808000,1.809954,-3.27606388988408,-8.99953640433964,-1.69589088988408,-0.03970624,0.0036651916,0.0076358155,331.554,112.58011,-20.021976,STD
4146448766000,1.814912,-3.29017716871099,-9.00894545338353,-1.71000416871099,-0.03145956,0.0018325958,0.004276057,331.56638,112.55714,-20.000908,STD
4146453755000,1.819901,-3.29331393706238,-9.01509734255678,-1.70538868493504,-0.021380283,0.0076358155,0.009468411,331.57913,112.53885,-19.983328,STD
4146458777000,1.824923,-3.29172397740752,-9.01986715511256,-1.69266899109392,-0.030543262,0.0070249503,0.008552114,331.5886,112.520256,-19.964174,STD
4146463768000,1.829914,-3.29014383231842,-9.02460752438097,-1.68002781388145,-0.029932396,0.009773844,0.007941248,331.6014,112.50276,-19.947866,STD
4146468767000,1.834913,-3.28856115443816,-9.02935549191709,-1.6673663743132,-0.035124753,0.01160644,0.013133603,331.61374,112.48903,-19.933592,STD
4146473768000,1.839914,-3.28697784336011,-9.03410535902013,-1.65469986915601,-0.03359759,0.015882496,0.0143553335,331.6337,112.4685,-19.913307,STD
4146478773000,1.844919,-3.28539326588648,-9.03885902525703,-1.64202323282092,-0.029321533,0.016493361,0.015882496,331.65292,112.45036,-19.895374,STD
4146484006000,1.850152,-3.28152886154911,-9.03387373083391,-1.63431816154911,-0.03268129,0.0067195175,0.0125227375,331.6696,112.43276,-19.877436,STD
4146488778000,1.854924,-3.27700808900979,-9.02483246898803,-1.62979738900979,-0.02076942,0.0030543262,0.016493361,331.68823,112.41553,-19.86231,STD
4146493792000,1.859938,-3.26045214453642,-9.01838880083755,-1.63990968006428,-0.026572637,0.0061086523,0.01282817,331.70505,112.39915,-19.846502,STD
4146498769000,1.864915,-3.23724235,-9.01374673529412,-1.65847760294118,-0.022602014,0.006414085,0.014966198,331.72012,112.38309,-19.834354,STD
4146503783000,1.869929,-3.23433227678259,-9.01038529271954,-1.66775407825869,-0.02321288,0.003970624,0.01038471,331.73428,112.36612,-19.819763,STD
4146508797000,1.874943,-3.24634578064048,-9.00798253675256,-1.67015678404804,-0.021991149,0.004581489,0.012217305,331.74957,112.3512,-19.80795,STD
4146513775000,1.879921,-3.25827302878659,-9.00559703232424,-1.67254223865899,-0.01863139,0.0015271631,0.018020526,331.75494,112.34494,-19.800919,STD
4146518787000,1.884933,-3.2702817406605,-9.00319523477608,-1.67494398604954,-0.0290161,0.018936822,0.018020526,331.76624,112.33952,-19.791931,STD
4146523776000,1.889922,-3.27436068510472,-9.00401226767858,-1.67775542979056,-0.02321288,0.006414085,0.012217305,331.7701,112.32577,-19.78035,STD
4146528781000,1.894927,-3.27279943680662,-9.00713482948438,-1.68087792638676,-0.029321533,0.007330383,0.015271631,331.78336,112.317535,-19.770058,STD
4146533772000,1.899918,-3.27124255563662,-9.01024865685157,-1.68399168872675,-0.031154128,0.008246681,0.015577064,331.79376,112.3095,-19.762253,STD
4146538812000,1.904958,-3.26967038951826,-9.01339305475392,-1.68713602096349,-0.026267206,0.024129177,0.022296581,331.80917,112.304054,-19.756565,STD
4146543766000,1.909912,-3.26812505004397,-9.01648379824761,-1.69022669991206,-0.035430185,0.023518313,0.009162978,331.81857,112.29593,-19.74647,STD
4146548769000,1.914915,-3.26656442562131,-9.01960511227647,-1.69334794875737,-0.03145956,0.019242255,0.010995574,331.83246,112.291214,-19.742111,STD
4146554142000,1.920288,-3.2557930116188,-9.01887744476803,-1.69014579289014,-0.03023783,0.016798794,0.0143553335,331.84567,112.28535,-19.734762,STD
4146558824000,1.92497,-3.2377819810705,-9.01437458134163,-1.68114025410725,-0.039095376,0.019547688,0.013744468,331.85873,112.27999,-19.727076,STD
4146563815000,1.929961,-3.21638514565807,-9.01397479680755,-1.66714217355687,-0.03634648,0.023823744,0.013439035,331.8649,112.28754,-19.729803,STD
4146568824000,1.93497,-3.19230614194358,-9.01879069812268,-1.64787892029917,-0.03145956,0.01740966,0.017104227,331.86865,112.296486,-19.733772,STD
4146573824000,1.93997,-3.18614684606319,-9.02799885352085,-1.6464965178865,-0.03940081,0.0009162979,0.014966198,331.869,112.30258,-19.733845,STD
4146578825000,1.944971,-3.20037688769932,-9.04222869703872,-1.66546995626424,-0.022907447,0.0030543262,0.013133603,331.87305,112.30562,-19.734304,STD
4146583799000,1.949945,-3.2124385038702,-9.04797785412325,-1.6717329961298,-0.025045475,0.004581489,0.013133603,331.8558,112.315834,-19.740686,STD
4146588834000,1.95498,-3.22200865133472,-9.04319268046045,-1.66216284866528,-0.02565634,0.004581489,0.0106901415,331.83887,112.32224,-19.745487,STD
4146593816000,1.959962,-3.2273839,-9.03986248359966,-1.65485988305766,-0.029932396,-0.00580322,0.01038471,331.82028,112.331055,-19.751738,STD
4146598825000,1.964971,-3.2273839,-9.0383683495935,-1.65037709096658,-0.03145956,-0.010995574,0.014660766,331.8037,112.33976,-19.75799,STD
4146603776000,1.969922,-3.2273839,-9.03689151640034,-1.64594620583123,-0.027488936,-0.008552114,0.010995574,331.77682,112.35262,-19.769976,STD
4146608846000,1.974992,-3.2273839,-9.03537918671152,-1.64140882194187,-0.02321288,0.0009162979,0.018020526,331.75198,112.36881,-19.785402,STD
4146613791000,1.979937,-3.2273839,-9.03390414325764,-1.63698330649161,-0.027183503,-0.005497787,0.010995574,331.72278,112.38046,-19.795942,STD
4146618851000,1.984997,-3.2273839,-9.03239479646762,-1.63245487207738,-0.028710667,0.005497787,0.018325957,331.7034,112.396095,-19.810474,STD
4146624129000,1.990275,-3.22704257114462,-9.03127029677862,-1.62737444941741,-0.027488936,0.009468411,0.01038471,331.677,112.40893,-19.821564,STD
4146628847000,1.994993,-3.22261842405757,-9.03569402810144,-1.61852624763537,-0.02443461,0.006414085,0.018020526,331.65363,112.426865,-19.838228,STD
4146634176000,2.000322,-3.21830325919916,-9.04017417089767,-1.60873808026695,-0.027794369,0.014966198,0.008552114,331.63416,112.438416,-19.847319,STD
4146638854000,2.005,-3.23002800936928,-9.03235791564163,-1.60482983021024,-0.02321288,0.01282817,0.016493361,331.6125,112.454315,-19.863577,STD
4146643891000,2.010037,-3.24265254263282,-9.02394182378086,-1.60062165245573,-0.032375857,0.008857546,0.015271631,331.58612,112.463234,-19.872627,STD
4146648929000,2.015075,-3.24042957334065,-9.02745966721521,-1.60848848782227,-0.038179077,0.004581489,0.013133603,331.56006,112.47249,-19.88326,STD
4146653843000,2.019989,-3.2318246822271,-9.03606433369903,-1.62139589188151,-0.029626964,0.013744468,0.01160644,331.5374,112.480446,-19.892693,STD
4146658838000,2.024984,-3.22897345303746,-9.03812069119136,-1.6280571,-0.032986723,0.008552114,0.0076358155,331.5068,112.49254,-19.906063,STD
4146663858000,2.030004,-3.23221849421195,-9.03325317178535,-1.6280571,-0.03268129,-0.005192355,0.010995574,331.47733,112.504036,-19.92046,STD
4146668842000,2.034988,-3.23544026417482,-9.02842055889301,-1.6280571,-0.02687807,0.0033597588,0.015882496,331.45013,112.51254,-19.93049,STD
4146673838000,2.039984,-3.23866979120823,-9.02357631049612,-1.6280571,-0.03848451,-0.0070249503,0.014966198,331.41382,112.52222,-19.94099,STD
4146678858000,2.045004,-3.24191483238272,-9.01870879109011,-1.6280571,-0.022602014,0.0012217305,0.0143553335,331.3926,112.5203,-19.944193,STD
4146683851000,2.049997,-3.2451424201485,-9.01386745156936,-1.6280571,-0.03268129,-0.0021380284,0.0143553335,331.36548,112.52304,-19.948154,STD
4146688855000,2.055001,-3.24383668925882,-9.00637346571542,-1.62535638925882,-0.029932396,0.0030543262,0.0106901415,331.3437,112.52087,-19.949774,STD
4146693984000,2.06013,-3.23896952643678,-8.99663893678161,-1.62048922643678,-0.03756821,-0.0036651916,0.011911872,331.31824,112.522484,-19.953308,STD
4146698933000,2.065079,-3.23950196971514,-8.99770384557721,-1.62102166971514,-0.018325957,0.0015271631,0.008552114,331.29886,112.519936,-19.955635,STD
4146703846000,2.069992,-3.24391077953523,-9.00652164936282,-1.62543047953523,-0.029626964,0.006414085,0.015577064,331.2786,112.52515,-19.961308,STD
4146708829000,2.074975,-3.24753018479302,-9.01475331291282,-1.63103546474563,-0.03390302,0.004581489,0.016493361,331.25626,112.52387,-19.964226,STD
4146713858000,2.080004,-3.24995854798568,-9.02203830106388,-1.63832057968033,-0.033292156,-0.0012217305,0.015882496,331.23502,112.52471,-19.96838,STD
4146718842000,2.084988,-3.25236518193919,-9.02925810240508,-1.6455405066707,-0.030543262,0.004886922,0.018936822,331.2176,112.527054,-19.973085,STD
4146723838000,2.089984,-3.25477761035648,-9.03649528689558,-1.65277781711289,-0.032070424,0.012217305,0.021685716,331.1993,112.529495,-19.977493,STD
4146728851000,2.094997,-3.25818688061313,-9.03221432083293,-1.64642417529162,-0.027794369,0.008246681,0.019242255,331.17645,112.52576,-19.979218,STD
4146733851000,2.099997,-3.26280309578714,-9.01374955654102,-1.62334305121951,-0.028710667,0.016187929,0.018020526,331.16006,112.52389,-19.980858,STD
4146738852000,2.104998,-3.26201418409347,-9.00403644634621,-1.62177237486932,-0.034208454,0.017104227,0.015271631,331.1401,112.520424,-19.980772,STD
4146743864000,2.11001,-3.25217531526084,-9.00895598349903,-1.65620846715179,-0.036957346,0.004581489,0.020463986,331.1193,112.518486,-19.98276,STD
4146748845000,2.114991,-3.23884753954883,-9.00792997944032,-1.68363108052541,-0.03268129,0.004276057,0.016798794,331.10297,112.5145,-19.983501,STD
4146753850000,2.119996,-3.22059825004759,-8.9988051203122,-1.7018804176661,-0.018325957,0.0015271631,0.014660766,331.08307,112.51126,-19.986702,STD
4146758836000,2.124982,-3.21138138250593,-8.98947001620394,-1.7047951524822,-0.028405234,-0.0012217305,0.016187929,331.063,112.5054,-19.983473,STD
4146763832000,2.129978,-3.22125767372278,-8.97959403436887,-1.67516627883166,-0.022907447,0.003970624,0.008552114,331.0443,112.493065,-19.976824,STD
4146768809000,2.134955,-3.2290961208492,-8.97746316012947,-1.65621685177075,-0.020158553,0.01038471,0.012217305,331.02542,112.48436,-19.97045,STD
4146773898000,2.140044,-3.23373589289477,-8.98828923568799,-1.65467023955636,-0.025350908,0.008857546,0.017715093,331.0058,112.47479,-19.962727,STD
4146778819000,2.144965,-3.23822249502412,-8.99875791673013,-1.65317468469155,-0.033292156,0.009468411,0.013744468,330.9897,112.465096,-19.956335,STD
4146783839000,2.149985,-3.24279935799695,-9.00943720525514,-1.65164904246002,-0.030848695,0.009162978,0.013133603,330.97372,112.45719,-19.952589,STD
4146788899000,2.155045,-3.24741268999746,-9.02020158771262,-1.65011124371668,-0.024740042,0.014966198,0.017715093,330.9633,112.45144,-19.94888,STD
4146793863000,2.160009,-3.25193849633156,-9.03076174473217,-1.64860262060168,-0.040317107,0.013744468,0.01985312,330.95074,112.447525,-19.944744,STD
4146798850000,2.164996,-3.25570610057586,-9.04009691335986,-1.64659855086378,-0.042455133,0.02107485,0.018020526,330.94278,112.441414,-19.94008,STD
4146803760000,2.169906,-3.25078283725264,-9.03517380426133,-1.63921365587897,-0.036651913,0.01160644,0.018936822,330.92993,112.437584,-19.937737,STD
4146808942000,2.175088,-3.24558683917914,-9.02997796895613,-1.63141965876872,-0.036651913,0.019242255,0.017715093,330.9282,112.43726,-19.935219,STD
4146813768000,2.179914,-3.24074780276411,-9.02513908412732,-1.62416110414616,-0.040317107,0.020463986,0.018020526,330.922,112.43726,-19.93418,STD
4146818765000,2.184911,-3.23754000471113,-9.02251077312175,-1.62195673431689,-0.034208454,0.015577064,0.019242255,330.92267,112.43308,-19.9296,STD
4146823767000,2.189913,-3.23991556402678,-9.0272617429209,-1.63621011501612,-0.034208454,0.0076358155,0.014660766,330.92236,112.428825,-19.9237,STD
4146828766000,2.194912,-3.24228969857674,-9.03200986327796,-1.65045494710637,-0.020158553,0.024129177,0.019547688,330.9353,112.42538,-19.918869,STD
4146833767000,2.199913,-3.24466478297049,-9.03675988326308,-1.66470547826928,-0.028405234,0.017104227,0.023518313,330.9383,112.4235,-19.914312,STD
4146838767000,2.204913,-3.24553256799682,-9.04351955896367,-1.66890736548541,-0.027488936,0.0036651916,0.017104227,330.93726,112.41843,-19.910112,STD
4146843901000,2.210047,-3.24065195540997,-9.05816170250149,-1.63474302641453,-0.02565634,0.013439035,0.016187929,330.94153,112.41674,-19.907774,STD
4146848766000,2.214912,-3.23559235777886,-9.06741168021338,-1.61163999872939,-0.02443461,0.015271631,0.014049901,330.93903,112.4138,-19.903425,STD
4146853858000,2.220004,-3.22849756206596,-9.05795196905917,-1.6258296642386,-0.03268129,0.01282817,0.0106901415,330.93802,112.411354,-19.898281,STD
4146858822000,2.224968,-3.22158111157129,-9.04873005111542,-1.63966263744908,-0.022907447,0.014966198,0.015577064,330.94412,112.411766,-19.897127,STD
4146863853000,2.229999,-3.21457130850145,-9.03938366328807,-1.65368231678468,-0.028710667,0.011911872,0.01160644,330.94708,112.41204,-19.892986,STD
4146868859000,2.235005,-3.20862962171004,-9.03013033156158,-1.66596507412023,-0.032375857,0.00030543262,0.0125227375,330.94852,112.41323,-19.891972,STD
4146873837000,2.239983,-3.21299846450697,-9.02139237225073,-1.66159618570381,-0.029321533,0.0061086523,0.0106901415,330.9537,112.41254,-19.888365,STD
4146879688000,2.245834,-3.21973863000181,-9.01145305494307,-1.6577534150009,-0.030543262,0.006414085,0.013439035,330.95416,112.41628,-19.88598,STD
4146883851000,2.249997,-3.24135523133924,-9.00785021281403,-1.66856171566962,-0.027183503,0.006414085,0.009773844,330.95566,112.41678,-19.881004,STD
4146888838000,2.254984,-3.26725049698175,-9.00353424507501,-1.68150934849087,-0.029626964,0.008552114,0.010079277,330.9586,112.4207,-19.879246,STD
4146893876000,2.260022,-3.2752678,-9.0005806169462,-1.68875269855479,-0.029626964,0.013439035,0.01282817,330.96216,112.4234,-19.877003,STD
4146898793000,2.264939,-3.2752678,-8.99830452293489,-1.6933047915124,-0.029321533,0.011301007,0.016187929,330.96414,112.42648,-19.875284,STD
4146903849000,2.269995,-3.2752678,-8.9959640854077,-1.69798556881435,-0.032375857,0.006414085,0.012217305,330.96814,112.43268,-19.876276,STD
4146908847000,2.274993,-3.2752678,-8.99365049625405,-1.7026126504906,-0.02443461,0.003970624,0.015271631,330.97263,112.43978,-19.880068,STD
4146913855000,2.280001,-3.27244495074643,-8.9982668164108,-1.6820887764955,-0.028710667,0.014660766,0.018325957,330.9872,112.44724,-19.880053,STD
4146918844000,2.28499,-3.2673863318793,-9.00838426543145,-1.6416197727369,-0.026267206,0.015271631,0.0125227375,330.9974,112.4511,-19.879047,STD
4146923851000,2.289997,-3.265691,-9.01335584018016,-1.62331467849931,-0.026572637,0.01985312,0.014049901,331.01605,112.4622,-19.881372,STD
4146928860000,2.295006,-3.265691,-9.01573018154821,-1.61619180314789,-0.03023783,0.016493361,0.013133603,331.0315,112.471,-19.88175,STD
4146933847000,2.299993,-3.265691,-9.01809409458523,-1.60910021213621,-0.028099801,0.01985312,0.016798794,331.04974,112.4785,-19.883738,STD
4146938856000,2.305002,-3.265691,-9.02046843595328,-1.60197733678479,-0.032986723,0.024129177,0.015577064,331.06647,112.48567,-19.884214,STD
4146943937000,2.310083,-3.25966489043032,-9.021352,-1.59782016867482,-0.029626964,0.004886922,0.01740966,331.0768,112.489105,-19.885162,STD
4146949132000,2.315278,-3.24993357578484,-9.021352,-1.59538733366259,-0.026267206,0.009162978,0.021991149,331.0951,112.49345,-19.885153,STD
4146953840000,2.319986,-3.24111451334963,-9.021352,-1.59318256229829,-0.039095376,0.015577064,0.020158553,331.10757,112.49765,-19.885187,STD
4146958843000,2.324989,-3.23174285460636,-9.021352,-1.59083964149633,-0.0421497,0.016798794,0.023823744,331.1201,112.502594,-19.888117,STD
4146963851000,2.329997,-3.22218907940314,-9.02394932893273,-1.59494472059686,-0.042760566,0.0067195175,0.019547688,331.1302,112.50625,-19.888561,STD
4146968847000,2.334993,-3.21250861550835,-9.02878940925645,-1.60462518449165,-0.03970624,0.008246681,0.015271631,331.14395,112.51057,-19.889338,STD
4146973838000,2.339984,-3.20283783982802,-9.03362464562468,-1.61429596017198,-0.039095376,-0.005192355,0.01740966,331.13977,112.51219,-19.89073,STD
4146978893000,2.345039,-3.19304305500253,-9.03852188462317,-1.62409074499747,-0.029321533,0.002443461,0.019547688,331.1421,112.51109,-19.88971,STD
4146983850000,2.349996,-3.19458158651852,-9.040505,-1.63218577925926,-0.035124753,-0.0076358155,0.013439035,331.12653,112.51371,-19.892788,STD
4146988822000,2.354968,-3.20398718643951,-9.040505,-1.63924000375309,-0.032986723,-0.011301007,0.011301007,331.11575,112.5154,-19.896626,STD
4146993953000,2.360099,-3.21369356881975,-9.040505,-1.64651981587654,-0.034208454,-0.003970624,0.011911872,331.10394,112.51491,-19.894913,STD
4146998871000,2.365017,-3.22299701620741,-9.040505,-1.6534974257037,-0.03390302,-0.0036651916,0.013133603,331.08917,112.5135,-19.893248,STD
4147003842000,2.369988,-3.23229685889351,-9.03804871293162,-1.65187458980559,-0.03848451,0.0018325958,0.012217305,331.08878,112.51842,-19.891827,STD
4147008851000,2.374997,-3.24157627484283,-9.03340936831415,-1.64259507696102,-0.03268129,0.007330383,0.018936822,331.08893,112.52392,-19.892776,STD
4147013847000,2.379993,-3.24988163356433,-9.02869946439691,-1.63094543287135,-0.03573562,0.005192355,0.013744468,331.08875,112.53028,-19.892515,STD
4147018851000,2.384997,-3.25710102301898,-9.0238864375816,-1.61650665396204,-0.03481932,0.0106901415,0.0076358155,331.09268,112.53649,-19.893024,STD
4147023825000,2.389971,-3.26427713076228,-9.01910226584313,-1.60215443847544,-0.03604105,0.004581489,0.013744468,331.09067,112.54247,-19.89662,STD
4147028894000,2.39504,-3.27159029725821,-9.01422671969469,-1.58752810548358,-0.03481932,0.014966198,0.016187929,331.0946,112.54538,-19.896238,STD
4147033844000,2.39999,-3.26674996454899,-9.01390450333395,-1.57804364113725,-0.03970624,0.011301007,0.013133603,331.09253,112.54923,-19.897009,STD
4147038833000,2.404979,-3.24905088872013,-9.01832936469717,-1.57361887218003,-0.044898596,0.015882496,0.02321288,331.0968,112.55672,-19.90107,STD
4147043911000,2.410057,-3.23533320178072,-9.02379306334266,-1.57222369821928,-0.043066,0.025045475,0.013133603,331.09705,112.5587,-19.903015,STD
4147048875000,2.415021,-3.23049583366065,-9.03104901450013,-1.57706106633935,-0.03573562,0.013439035,0.011911872,331.09354,112.56518,-19.91091,STD
4147053806000,2.419952,-3.22569062370898,-9.03825672907657,-1.58186627629102,-0.027794369,0.013133603,0.014660766,331.0945,112.56695,-19.912815,STD
4147058849000,2.424995,-3.22077627088273,-9.04562815568558,-1.58678062911727,-0.030543262,0.008552114,0.014660766,331.09055,112.56808,-19.914383,STD
4147063781000,2.429927,-3.21959736675593,-9.0491867979272,-1.59691137637112,-0.027183503,0.010079277,0.018020526,331.0855,112.57255,-19.920483,STD
4147068848000,2.434994,-3.22440998657146,-9.04678043776654,-1.61616188075969,-0.034513887,0.017104227,0.01282817,331.08044,112.57642,-19.923908,STD
4147073803000,2.439949,-3.22911622915799,-9.04442726733115,-1.63498687567688,-0.03390302,0.008552114,0.013133603,331.0697,112.57604,-19.925917,STD
4147078868000,2.445014,-3.23392694938015,-9.04202185698701,-1.65422978168204,-0.029626964,0.015577064,0.014660766,331.06558,112.575096,-19.925537,STD
4147083780000,2.449926,-3.23536089728731,-9.03810547933884,-1.6663644,-0.03756821,0.011301007,0.012217305,331.05554,112.57471,-19.925114,STD
4147088845000,2.454991,-3.23064466082645,-9.0310312231405,-1.6663644,-0.029321533,0.013439035,0.01985312,331.05032,112.57454,-19.927164,STD
4147093886000,2.460032,-3.22595077178415,-9.02399048760331,-1.6663644,-0.04153884,0.004581489,0.016493361,331.0492,112.57884,-19.925413,STD
4147098965000,2.465111,-3.22122149932912,-9.01689667768595,-1.6663644,-0.038789943,0.0067195175,0.0143553335,331.0524,112.58214,-19.925377,STD
4147103804000,2.46995,-3.21670021640864,-9.0128818182625,-1.66747119514841,-0.038179077,0.0027488936,0.01985312,331.05127,112.58817,-19.927256,STD
4147108846000,2.474992,-3.21193878051474,-9.01764340331328,-1.67223268076127,-0.02565634,0.013133603,0.020158553,331.05457,112.59021,-19.92612,STD
4147113822000,2.479968,-3.20972851459038,-9.02235078191489,-1.67644060660171,-0.0290161,0.011301007,0.023823744,331.0504,112.59226,-19.925768,STD
4147118849000,2.484995,-3.21690823312786,-9.02713712765957,-1.67883385444422,-0.038789943,0.0125227375,0.018936822,331.0498,112.59139,-19.922396,STD
4147123972000,2.490118,-3.22422506186618,-9.03201487765957,-1.68127280584609,-0.032070424,0.010995574,0.017715093,331.0506,112.59347,-19.921782,STD
4147128929000,2.495075,-3.23130480421555,-9.03673457446808,-1.68363272817658,-0.03726278,0.0009162979,0.01282817,331.04858,112.59606,-19.919132,STD
4147135737000,2.501883,-3.24207181600375,-9.04178283068634,-1.68168458799719,-0.025961773,0.009468411,0.012217305,331.05176,112.59622,-19.916405,STD
4147138854000,2.505,-3.24766579784493,-9.04318135535254,-1.6774891016163,-0.034208454,0.008857546,0.020158553,331.04935,112.60046,-19.915728,STD
4147143845000,2.509991,-3.25662298853127,-9.04542069978918,-1.67077120860155,-0.032986723,0.0033597588,0.013744468,331.04776,112.59945,-19.912247,STD
4147148859000,2.515005,-3.26562145659405,-9.04767036378543,-1.66402235755446,-0.026572637,0.0027488936,0.0143553335,331.04822,112.60246,-19.912682,STD
4147153777000,2.519923,-3.27444763647693,-9.0498769548372,-1.6574027226423,-0.031154128,0.01160644,0.015577064,331.0495,112.60517,-19.91122,STD
4147158841000,2.524987,-3.27956614064981,-9.04793278479224,-1.6567876,-0.03481932,0.014660766,0.0106901415,331.0411,112.60056,-19.907148,STD
4147163791000,2.529937,-3.28418450101807,-9.04562355638365,-1.6567876,-0.03970624,0.007330383,0.013439035,331.0329,112.599014,-19.905668,STD
4147168972000,2.535118,-3.28901838487018,-9.04320656398266,-1.6567876,-0.03268129,-0.00030543262,0.00580322,331.02582,112.594315,-19.903215,STD
4147173845000,2.539991,-3.29356490407716,-9.04093325690487,-1.6567876,-0.04428773,0.004276057,0.011911872,331.02127,112.5969,-19.905071,STD
4147178824000,2.54497,-3.2906015910524,-9.03859525507047,-1.6682470268428,-0.03176499,0.00030543262,0.00580322,331.01096,112.59038,-19.902206,STD
4147183828000,2.549974,-3.2858947887934,-9.03624205053283,-1.6823674336198,-0.022602014,0.00030543262,0.009162978,331.00424,112.58975,-19.90319,STD
4147188824000,2.55497,-3.28119551139812,-9.03389260811275,-1.69646526580563,-0.025350908,-0.004581489,0.013439035,330.99548,112.58918,-19.904924,STD
4147193862000,2.560008,-3.2764567284683,-9.03152341457546,-1.7106816145951,-0.029932396,-0.010079277,0.008246681,330.98642,112.58615,-19.904915,STD
4147198943000,2.565089,-3.28579318024762,-9.02391193329494,-1.69670609958729,-0.021991149,-0.007330383,0.015577064,330.98013,112.58029,-19.905388,STD
4147204445000,2.570591,-3.30096494920818,-9.01379720942509,-1.67141981798637,-0.021380283,-0.004581489,0.010079277,330.9714,112.57166,-19.901142,STD
4147208850000,2.574996,-3.30732442062842,-9.01510118589744,-1.65638601596259,-0.027183503,0.0033597588,0.016798794,330.96594,112.56772,-19.899431,STD
4147213845000,2.579991,-3.31235149234973,-9.02012820512821,-1.64130522072299,-0.041233405,0.0036651916,0.01740966,330.9585,112.56207,-19.894838,STD
4147218848000,2.584994,-3.31184096193095,-9.021352,-1.64803962055757,-0.032986723,0.0036651916,0.016493361,330.956676172258,112.561042844266,-19.8962700054081,STD
4147223830000,2.589976,-3.30955934791985,-9.021352,-1.66172889962223,-0.02565634,0.010995574,0.016493361,330.95486,112.56002,-19.897696,STD
4147228874000,2.59502,-3.30724933967578,-9.021352,-1.67558853904457,-0.03970624,0.0076358155,0.01282817,330.94818,112.56311,-19.900372,STD
4147233850000,2.599996,-3.30497047349369,-9.021352,-1.68926133162299,-0.037873644,0.01160644,0.018020526,330.94666,112.56412,-19.905586,STD
4147238878000,2.605024,-3.28692685371242,-9.02704227050521,-1.66379730209654,-0.03604105,0.006414085,0.013744468,330.93878,112.56413,-19.908497,STD
4147243869000,2.610015,-3.25759704671712,-9.03681856657803,-1.61002593822868,-0.023823744,0.0076358155,0.020158553,330.93512,112.56649,-19.915165,STD
4147248871000,2.615017,-3.23900119297821,-9.04502682808717,-1.59577887820823,-0.033292156,0.009162978,0.016187929,330.929,112.56774,-19.915794,STD
4147253881000,2.620027,-3.22689978362591,-9.05228784049637,-1.60546002590799,-0.035430185,0.0070249503,0.015577064,330.92285,112.56886,-19.919188,STD
4147258891000,2.625037,-3.21479837427361,-9.05954885290557,-1.61514117360775,-0.030848695,0.0106901415,0.019547688,330.90637,112.5621,-19.920076,STD
4147263892000,2.630038,-3.20271870398002,-9.0667968215799,-1.62480493002421,-0.04062254,0.0030543262,0.019547688,330.88614,112.55654,-19.92033,STD
4147268874000,2.63502,-3.20568215763547,-9.06823188358494,-1.62906119544573,-0.040317107,0.0009162979,0.019242255,330.86597,112.55207,-19.923122,STD
4147274196000,2.640342,-3.21702090147783,-9.06661202679167,-1.63068101841093,-0.03634648,0.00580322,0.018325957,330.84613,112.548294,-19.925577,STD
4147278917000,2.645063,-3.22707918965517,-9.06517509632925,-1.63211791886541,-0.032375857,-0.0070249503,0.009773844,330.81866,112.53931,-19.921331,STD
4147283851000,2.649997,-3.23759128325123,-9.06367333507071,-1.63361964876212,-0.044593163,0.0015271631,0.014049901,330.80026,112.535095,-19.918985,STD
4147288883000,2.655029,-3.24831216995074,-9.06214174555856,-1.63515120628953,-0.04153884,-0.0015271631,0.0143553335,330.7733,112.524,-19.913765,STD
4147293946000,2.660092,-3.25909910344828,-9.06060072057842,-1.63669219908788,-0.045814894,-0.0033597588,0.012217305,330.74988,112.5161,-19.908518,STD
4147298931000,2.665077,-3.26375164159349,-9.05384100578282,-1.63569454159349,-0.03970624,-0.0021380284,0.018020526,330.72836,112.51282,-19.908081,STD
4147303848000,2.669994,-3.25870889950739,-9.03871299014778,-1.63065179950739,-0.0421497,0.00030543262,0.016798794,330.70667,112.50889,-19.904984,STD
4147308868000,2.675014,-3.26077257702676,-9.03325811554991,-1.63271548918734,-0.03359759,-0.00030543262,0.011911872,330.68716,112.50764,-19.90773,STD
4147313892000,2.680038,-3.27017164778277,-9.03795750371166,-1.64211458447939,-0.029932396,0.0036651916,0.015271631,330.6706,112.509026,-19.911844,STD
4147318864000,2.68501,-3.27947343516312,-9.04260825170932,-1.65141639614182,-0.03268129,0.003970624,0.011301007,330.65454,112.512825,-19.916138,STD
4147323829000,2.689975,-3.28876212670443,-9.04725245199258,-1.66070511193104,-0.03359759,0.009468411,0.015271631,330.64224,112.51857,-19.922832,STD
4147328949000,2.695095,-3.298442989547,-9.04203898887553,-1.66234285244538,-0.039095376,0.007330383,0.016798794,330.62875,112.522995,-19.92733,STD
4147333849000,2.699995,-3.30784909397675,-9.02322717288034,-1.65293684623171,-0.029932396,0.008552114,0.014966198,330.6182,112.52557,-19.931286,STD
4147338848000,2.704994,-3.30790651714705,-9.0127198119403,-1.64815550207487,-0.038179077,0.01740966,0.016798794,330.61075,112.534454,-19.937813,STD
4147343865000,2.710011,-3.29379923362858,-9.01507106268657,-1.65050672827012,-0.0421497,0.010079277,0.014660766,330.59872,112.539856,-19.943237,STD
4147348857000,2.715003,-3.27976224751652,-9.01741059701493,-1.65284623816981,-0.035124753,0.005192355,0.020463986,330.59186,112.549,-19.953444,STD
4147353842000,2.719988,-3.26574494467825,-9.01974685074627,-1.65518246750673,-0.03634648,0.017104227,0.017104227,330.58734,112.55654,-19.95965,STD
4147358805000,2.724951,-3.26177000047998,-9.01993802035135,-1.65254573487568,-0.04062254,0.015882496,0.014049901,330.5794,112.563736,-19.96717,STD
4147363868000,2.730014,-3.28038854263224,-9.0152832876068,-1.63858177965825,-0.0421497,-0.00030543262,0.015882496,330.57074,112.570885,-19.97505,STD
4147368782000,2.734928,-3.29468456606352,-9.011775,-1.62700443574593,-0.032986723,0.0036651916,0.020158553,330.56598,112.573204,-19.976578,STD
4147373836000,2.739982,-3.29589589692419,-9.011775,-1.62215911230323,-0.03359759,0.010079277,0.020158553,330.55716,112.57619,-19.977974,STD
4147378818000,2.744964,-3.29708997099382,-9.011775,-1.61738281602473,-0.032375857,-0.0012217305,0.017715093,330.54688,112.579865,-19.983809,STD
4147383815000,2.749961,-3.29828764022825,-9.011775,-1.61259213908702,-0.032070424,0.0018325958,0.016798794,330.54306,112.58398,-19.988775,STD
4147388890000,2.755036,-3.29950400431964,-9.011775,-1.60772668272143,-0.03726278,-0.0015271631,0.014660766,330.53394,112.58754,-19.993444,STD
4147393828000,2.759974,-3.30068753257252,-9.011775,-1.60299256970994,-0.038179077,0.0018325958,0.018325957,330.5282,112.59163,-19.998787,STD
4147398822000,2.764968,-3.30188448277398,-9.011775,-1.59820476890407,-0.041233405,-0.007330383,0.015577064,330.5231,112.60185,-20.006035,STD
4147403813000,2.769959,-3.30308071394249,-9.011775,-1.59341984423005,-0.044593163,-0.0076358155,0.0125227375,330.52185,112.61267,-20.013268,STD
4147408821000,2.774967,-3.30176509576129,-9.00730881484043,-1.59533266059678,-0.03756821,0.0012217305,0.015882496,330.52087,112.62303,-20.021212,STD
4147413817000,2.779963,-3.29231035950993,-8.98839944106314,-1.61896950122518,-0.043066,-0.004276057,0.018936822,330.51535,112.63422,-20.028702,STD
4147418823000,2.784969,-3.28191804907834,-8.97541897283026,-1.63568286605223,-0.038789943,0.005192355,0.023823744,330.5176,112.64434,-20.037735,STD
4147423943000,2.790089,-3.26779557903226,-8.98483365793011,-1.62626788602151,-0.04520403,-0.004581489,0.018936822,330.51215,112.654465,-20.04587,STD
4147428896000,2.795042,-3.25543379802098,-8.9919406548585,-1.62256271897882,-0.047647487,0.004276057,0.013744468,330.5196,112.66439,-20.050661,STD
4147433935000,2.800081,-3.25065866491193,-8.9871659206412,-1.65121356749456,-0.03940081,0.0009162979,0.013439035,330.52036,112.67334,-20.05639,STD
4147438820000,2.804966,-3.24785935848571,-8.98568888016139,-1.67417858408447,-0.03176499,0.009468411,0.011911872,330.52576,112.678314,-20.05674,STD
4147443854000,2.81,-3.26027491635333,-9.01051965018457,-1.65762446371362,-0.038179077,0.013133603,0.015577064,330.52884,112.68506,-20.058804,STD
4147448798000,2.814944,-3.27246850357971,-9.03490648510602,-1.64136630497038,-0.03268129,0.019242255,0.016187929,330.53458,112.68817,-20.057127,STD
4147453766000,2.819912,-3.27152991757039,-9.0423739802454,-1.63576495878519,-0.038179077,0.016493361,0.013439035,330.53854,112.693405,-20.055769,STD
4147459078000,2.825224,-3.26634973717224,-9.04496412453541,-1.63317486858612,-0.040317107,0.017104227,0.020158553,330.54565,112.69985,-20.056725,STD
4147463768000,2.829914,-3.26177612157222,-9.04725098009266,-1.63088806078611,-0.042455133,0.01160644,0.020463986,330.54962,112.704384,-20.057243,STD
4147468728000,2.834874,-3.25693920614022,-9.04966948831526,-1.62846960307011,-0.034208454,0.022296581,0.021991149,330.55887,112.7096,-20.058998,STD
4147473761000,2.839907,-3.27196793592962,-9.04215538034991,-1.62409366601759,-0.032070424,0.022907447,0.016493361,330.56223,112.71129,-20.057991,STD
4147478728000,2.844874,-3.29077507860038,-9.03275210358802,-1.61939188034991,-0.042760566,0.011301007,0.011911872,330.56506,112.71407,-20.057741,STD
4147483768000,2.849914,-3.27858661804725,-9.03488736479773,-1.60660421353544,-0.03970624,0.0143553335,0.022602014,330.57217,112.71573,-20.05794,STD
4147488772000,2.854918,-3.25915143313394,-9.03974575514549,-1.59202782485045,-0.03634648,0.009773844,0.022907447,330.57254,112.7149,-20.05501,STD
4147493886000,2.860032,-3.25807593149234,-9.04246677246075,-1.61525242988462,-0.038179077,0.0018325958,0.011911872,330.58267,112.7106,-20.049469,STD
4147498759000,2.864905,-3.26028265299792,-9.04467354005107,-1.64393983249953,-0.034208454,0.004581489,0.015271631,330.59518,112.70893,-20.047874,STD
4147503844000,2.86999,-3.26258537798373,-9.04697631312654,-1.67387528135994,-0.023823744,0.0030543262,0.014660766,330.60175,112.70015,-20.040333,STD
4147508882000,2.875028,-3.26486681917912,-9.04925780196709,-1.70353404072253,-0.03726278,0.009468411,0.019242255,330.61176,112.69639,-20.034866,STD
4147513853000,2.879999,-3.265691,-9.0531497164786,-1.70657926896412,-0.035124753,0.013133603,0.015271631,330.61572,112.69276,-20.031994,STD
4147518849000,2.884995,-3.265691,-9.05801366808987,-1.69441964387517,-0.03970624,0.010995574,0.017104227,330.62033,112.69439,-20.032036,STD
4147523864000,2.89001,-3.265691,-9.0628961175155,-1.68221377521602,-0.03604105,0.011911872,0.022296581,330.62732,112.69704,-20.029745,STD
4147528905000,2.895051,-3.265691,-9.06780387973976,-1.66994462588187,-0.035124753,0.014049901,0.020158553,330.63345,112.6991,-20.02599,STD
4147533871000,2.900017,-3.26405075124963,-9.069236,-1.65652289037048,-0.036651913,0.011911872,0.016493361,330.63858,112.70177,-20.023455,STD
4147538910000,2.905056,-3.26168588330883,-9.069236,-1.64233365803195,-0.034513887,0.009162978,0.016493361,330.644,112.70409,-20.021303,STD
4147543861000,2.910007,-3.25936231490738,-9.069236,-1.62839222336078,-0.041233405,0.013133603,0.016187929,330.65256,112.70421,-20.016897,STD
4147548857000,2.915003,-3.25701762742331,-9.069236,-1.61432407397334,-0.03634648,0.007330383,0.013439035,330.65698,112.70189,-20.012594,STD
4147553846000,2.919992,-3.26204933656958,-9.05736578883495,-1.61780620485437,-0.034513887,0.009162978,0.013439035,330.66425,112.700584,-20.008009,STD
4147558848000,2.924994,-3.27173848576052,-9.03798759162621,-1.63233992864078,-0.03176499,0.014049901,0.017715093,330.67056,112.69894,-20.004137,STD
4147563857000,2.930003,-3.27225047367034,-9.02791161065709,-1.63361079822711,-0.03848451,0.008552114,0.013744468,330.67343,112.69507,-19.999088,STD
4147568841000,2.934987,-3.26753181837474,-9.02319285681803,-1.62731925783299,-0.027183503,0.0067195175,0.014660766,330.67923,112.69086,-19.99628,STD
4147573840000,2.939986,-3.26279896166875,-9.018459901272,-1.62100878222501,-0.039095376,0.009162978,0.021991149,330.68564,112.69371,-19.996153,STD
4147578853000,2.944999,-3.25805285031306,-9.01371369079945,-1.61468063375074,-0.03573562,0.005497787,0.021685716,330.68915,112.69139,-19.99464,STD
4147583848000,2.949994,-3.25332378064984,-9.00898452237527,-1.60837520753312,-0.037873644,0.009162978,0.019242255,330.6957,112.692635,-19.994062,STD
4147588883000,2.955029,-3.24855684055889,-9.00421748273249,-1.60201928741185,-0.028710667,0.011301007,0.021991149,330.7009,112.69309,-19.99512,STD
4147593847000,2.959993,-3.24264648140069,-9.00738586438002,-1.60840552360792,-0.038179077,0.010995574,0.016187929,330.70294,112.69134,-19.99225,STD
4147599223000,2.965369,-3.23525772181401,-9.0172374923938,-1.62564598836108,-0.038179077,0.010995574,0.018020526,330.70627,112.68979,-19.99223,STD
4147603842000,2.969988,-3.22890938094145,-9.02570190269805,-1.64045880582664,-0.038789943,0.0076358155,0.018936822,330.7041,112.68838,-19.991955,STD
4147608839000,2.974985,-3.22204151791045,-9.03485900559701,-1.65648384347015,-0.023823744,0.005192355,0.022296581,330.70245,112.685974,-19.992811,STD
4147613847000,2.979993,-3.21970210100637,-9.03955752865065,-1.6644692890994,-0.025350908,0.011301007,0.016798794,330.70563,112.68553,-19.991344,STD
4147618845000,2.984991,-3.22461736557815,-9.03710010166359,-1.65955399886527,-0.029626964,0.010079277,0.016493361,330.70636,112.685616,-19.992805,STD
4147623844000,2.98999,-3.22953361359622,-9.03464218299446,-1.65463772517971,-0.024740042,0.007330383,0.02076942,330.707,112.682556,-19.989035,STD
4147628919000,2.995065,-3.23452460353255,-9.03214689648799,-1.64964670918566,-0.03176499,0.0027488936,0.017104227,330.70618,112.67959,-19.983212,STD
4147633835000,2.999981,-3.24153070667188,-9.03778406456662,-1.64949577719624,-0.03268129,0.002443461,0.019242255,330.70633,112.67776,-19.980215,STD
4147638854000,3.005,-3.25093512052436,-9.05189048894541,-1.65419803322246,-0.032375857,0.009162978,0.013439035,330.7065,112.67377,-19.973885,STD
4147643855000,3.010001,-3.25185911253786,-9.05753141183773,-1.65466004516113,-0.03634648,0.0061086523,0.013133603,330.69342,112.66521,-19.969679,STD
4147648858000,3.015004,-3.24234270548687,-9.05277310894285,-1.64990181679329,-0.029932396,0.01282817,0.02076942,330.68564,112.65608,-19.965313,STD
4147653818000,3.019964,-3.23290809046129,-9.04805570291474,-1.64518448465167,-0.036651913,0.013744468,0.014660766,330.67056,112.6552,-19.964993,STD
4147658851000,3.024997,-3.22333461920651,-9.04326886732211,-1.64039772403297,-0.023823744,0.013133603,0.01863139,330.65836,112.65528,-19.969198,STD
4147663803000,3.029949,-3.22367702180947,-9.03854848951468,-1.63372055212702,-0.03756821,0.009773844,0.014966198,330.6451,112.65622,-19.9695,STD
4147668891000,3.035037,-3.23827461270222,-9.0336830323547,-1.62398882486519,-0.03604105,0.008552114,0.02076942,330.6334,112.656815,-19.973362,STD
4147673794000,3.03994,-3.25036925648734,-9.0328447681962,-1.62231215648734,-0.03573562,-0.0012217305,0.014660766,330.62378,112.64857,-19.96638,STD
4147678929000,3.045075,-3.26009569398734,-9.0377075806962,-1.63203859398734,-0.029321533,0.020158553,0.019547688,330.62424,112.64369,-19.96256,STD
4147683782000,3.049928,-3.26735763702346,-9.04550501548754,-1.63930053702346,-0.03481932,0.018936822,0.01985312,330.61557,112.63954,-19.960495,STD
4147688854000,3.055,-3.27180902353372,-9.05885945390396,-1.64375192353372,-0.035430185,0.019547688,0.01985312,330.6142,112.63521,-19.958529,STD
4147693928000,3.060074,-3.27425344883612,-9.065178616528,-1.65025376408339,-0.03848451,0.0143553335,0.018936822,330.61118,112.63299,-19.957645,STD
4147698867000,3.065013,-3.26983166560718,-9.04749157595588,-1.66351915994204,-0.028405234,0.025045475,0.025350908,330.61356,112.631035,-19.957958,STD
4147703897000,3.070043,-3.26536222115792,-9.03060021429177,-1.67561242115792,-0.038789943,0.021380283,0.020463986,330.60727,112.62144,-19.951157,STD
4147708835000,3.074981,-3.26135355468339,-9.02659146410104,-1.67160375468339,-0.029626964,0.011911872,0.022602014,330.60327,112.61167,-19.948055,STD
4147713866000,3.080012,-3.25726939084513,-9.02250721496991,-1.66751959084513,-0.04062254,0.01985312,0.022296581,330.6032,112.60506,-19.941883,STD
4147718850000,3.084996,-3.24538327926369,-9.01777493926998,-1.65563340456262,-0.043676864,0.018936822,0.021685716,330.5979,112.59694,-19.93736,STD
4147723825000,3.089971,-3.2303913301867,-9.01277750115377,-1.6406413511223,-0.037873644,0.013439035,0.02321288,330.59378,112.58979,-19.93332,STD
4147728950000,3.095096,-3.22931666154824,-9.01564064418798,-1.62990277307937,-0.032375857,0.01740966,0.021991149,330.59518,112.57826,-19.924465,STD
4147733822000,3.099968,-3.23159832238251,-9.02020410880728,-1.62077603444178,-0.03604105,0.022907447,0.022602014,330.59564,112.56839,-19.91702,STD
4147738865000,3.105011,-3.23396006614015,-9.02492774429068,-1.61132896076581,-0.04337143,0.019242255,0.022602014,330.59915,112.55396,-19.90536,STD
4147743956000,3.110102,-3.23634428931488,-9.02969634001663,-1.60179196848257,-0.035430185,0.024129177,0.020158553,330.6066,112.538055,-19.892859,STD
4147749014000,3.11516,-3.2316848721268,-9.02741176239081,-1.59229237168515,-0.03390302,0.022907447,0.020463986,330.61115,112.5251,-19.882044,STD
4147753840000,3.119986,-3.22488084681519,-9.02287563499853,-1.5832203063598,-0.03268129,0.018020526,0.02107485,330.6158,112.51111,-19.870995,STD
4147758847000,3.124993,-3.21782163530768,-9.01816937933065,-1.57380799158897,-0.039095376,0.013439035,0.027794369,330.61514,112.502174,-19.86624,STD
4147763857000,3.130003,-3.21075819419472,-9.0134603038571,-1.56439003732457,-0.027794369,0.015882496,0.027183503,330.61478,112.48943,-19.859718,STD
4147768837000,3.134983,-3.20971731305238,-9.01474911926918,-1.57142870005847,-0.032070424,0.01863139,0.019547688,330.61325,112.47981,-19.853502,STD
4147773847000,3.139993,-3.21205491436784,-9.01942446835566,-1.58779208013155,-0.03848451,0.018936822,0.015577064,330.61197,112.47011,-19.84833,STD
4147778880000,3.145026,-3.21440324718636,-9.02412128112059,-1.60423058151035,-0.043676864,0.014966198,0.021991149,330.60986,112.460205,-19.843327,STD
4147784482000,3.150628,-3.21701706805847,-9.02934908662607,-1.62252751866991,-0.036651913,0.015271631,0.018936822,330.6084,112.44654,-19.834574,STD
4147788845000,3.154991,-3.23034502883201,-9.02591368373051,-1.63557994348338,-0.03023783,0.01985312,0.021991149,330.60782,112.43712,-19.82952,STD
4147793947000,3.160093,-3.25430346445033,-9.01633010934589,-1.64995505488869,-0.03634648,0.01740966,0.02687807,330.60526,112.42849,-19.824703,STD
4147798900000,3.165046,-3.27272678913107,-9.01881069117505,-1.64975178637993,-0.029626964,0.019547688,0.021991149,330.6051,112.416824,-19.816504,STD
4147803845000,3.169991,-3.28648943836094,-9.03257314879395,-1.63598908924731,-0.038789943,0.013439035,0.01863139,330.60214,112.40991,-19.810846,STD
4147808838000,3.174984,-3.28784419166756,-9.04269744856319,-1.62586469722252,-0.03634648,0.006414085,0.018936822,330.60547,112.40652,-19.809055,STD
4147813859000,3.180005,-3.27243394293345,-9.04783430541609,-1.62072794764448,-0.022296581,0.017715093,0.013744468,330.61182,112.40064,-19.804234,STD
4147818863000,3.185009,-3.26833401225052,-9.04743893255334,-1.62112331225052,-0.025350908,0.0143553335,0.016798794,330.61276,112.3997,-19.805237,STD
4147823831000,3.189977,-3.27301177671812,-9.04276107039622,-1.62580107671812,-0.032375857,0.01160644,0.009468411,330.6163,112.39368,-19.801369,STD
4147828862000,3.195008,-3.2777991339352,-9.03291110392216,-1.6331197678704,-0.036651913,0.005192355,0.012217305,330.61194,112.3834,-19.796896,STD
4147833851000,3.199997,-3.28259185689638,-9.01853313521918,-1.64270521379276,-0.026572637,0.01038471,0.016798794,330.61005,112.3712,-19.790663,STD
4147838851000,3.204997,-3.28149372967844,-9.011775,-1.64553526483922,-0.02321288,0.01282817,0.016493361,330.6056,112.36393,-19.787176,STD
4147843946000,3.210092,-3.27506334011597,-9.011775,-1.64232007005799,-0.029626964,0.021685716,0.014660766,330.60492,112.35765,-19.784046,STD
4147848861000,3.215007,-3.26886012820242,-9.011775,-1.63921846410121,-0.03756821,0.02076942,0.018020526,330.60428,112.357315,-19.78563,STD
4147854489000,3.220635,-3.26175704037955,-9.011775,-1.63566692018977,-0.035430185,0.021380283,0.018020526,330.60648,112.355255,-19.785257,STD
4147858820000,3.224966,-3.25629089372694,-9.011775,-1.63293384686347,-0.03756821,0.026267206,0.022907447,330.6101,112.3569,-19.787027,STD
4147863858000,3.230004,-3.24993244375329,-9.011775,-1.62975462187665,-0.04734206,0.02565634,0.017104227,330.61163,112.35656,-19.786053,STD
4147868867000,3.235013,-3.24854541077758,-9.01579110542496,-1.63408115330018,-0.03848451,0.011911872,0.013744468,330.61102,112.35592,-19.78757,STD
4147873843000,3.239989,-3.25285410488246,-9.02440867359855,-1.64700728060579,-0.03359759,0.013439035,0.01740966,330.6148,112.35733,-19.788652,STD
4147878783000,3.244929,-3.25841961692276,-9.03208161216964,-1.65794030846138,-0.035430185,0.013133603,0.018325957,330.61957,112.36056,-19.788668,STD
4147883860000,3.250006,-3.26838098008605,-9.037061877689,-1.66292099004302,-0.03726278,0.00580322,0.019547688,330.6227,112.36404,-19.790068,STD
4147888827000,3.254973,-3.27798394324298,-9.04118404467371,-1.6663644,-0.03634648,0.008246681,0.016493361,330.62326,112.37285,-19.79481,STD
4147893919000,3.260065,-3.28747646307363,-9.04355720560611,-1.6663644,-0.034513887,0.004886922,0.021380283,330.62042,112.383705,-19.802544,STD
4147898879000,3.265025,-3.29672290815611,-9.04586884704852,-1.6663644,-0.032375857,0.006414085,0.017104227,330.6195,112.391975,-19.807278,STD
4147903844000,3.26999,-3.30597867425179,-9.04818281877464,-1.6663644,-0.03848451,0.0061086523,0.020158553,330.61777,112.4038,-19.81543,STD
4147908838000,3.274984,-3.31105515937768,-9.04588180948745,-1.66552436189749,-0.032986723,0.006414085,0.019242255,330.61398,112.4083,-19.8194,STD
4147913861000,3.280007,-3.29728076727117,-9.02292472902548,-1.6609329458051,-0.032070424,0.007941248,0.016493361,330.6106,112.41425,-19.82345,STD
4147918823000,3.284969,-3.2840570615118,-9.002985554935,-1.6563938266442,-0.03145956,0.008552114,0.019547688,330.60846,112.42261,-19.831488,STD
4147924352000,3.290498,-3.27385963691863,-9.01318319248917,-1.65129506110737,-0.03481932,0.016798794,0.021380283,330.6089,112.43011,-19.837702,STD
4147928833000,3.294979,-3.265691,-9.02137725247198,-1.64738746387607,-0.038179077,0.020158553,0.026572637,330.61023,112.439514,-19.845217,STD
4147933845000,3.299991,-3.265691,-9.02381120227169,-1.66442478208509,-0.03268129,0.02565634,0.021380283,330.61414,112.445724,-19.849566,STD
4147938836000,3.304982,-3.265691,-9.02623495395771,-1.68139071488261,-0.03023783,0.022602014,0.016798794,330.61594,112.452194,-19.853838,STD
4147943939000,3.310085,-3.265691,-9.02871309558339,-1.69873736987475,-0.029321533,0.023518313,0.018325957,330.62048,112.45817,-19.857748,STD
4147948937000,3.315083,-3.26449698796217,-9.02973496302666,-1.71385039598739,-0.030543262,0.019242255,0.01740966,330.6221,112.46214,-19.860035,STD
4147953845000,3.319991,-3.2510252383491,-9.01626293207223,-1.70935981278303,-0.03848451,0.021685716,0.02076942,330.62622,112.468216,-19.863462,STD
4147959170000,3.325316,-3.23733689494673,-9.00313873736683,-1.7041071575799,-0.03481932,0.02107485,0.016493361,330.63174,112.47539,-19.864874,STD
4147963858000,3.330004,-3.24611336614212,-9.02507991535529,-1.69094245078682,-0.03726278,0.0143553335,0.022296581,330.6367,112.487434,-19.870094,STD
4147968824000,3.33497,-3.25541028507477,-9.04832221268693,-1.67699707238784,-0.03726278,0.0106901415,0.01038471,330.64005,112.494354,-19.869432,STD
4147973862000,3.340008,-3.25203647220751,-9.0419267998904,-1.68409665558498,-0.03268129,0.013439035,0.019547688,330.64465,112.50738,-19.876123,STD
4147978855000,3.345001,-3.2476692274911,-9.03319258407161,-1.69283114501781,-0.033292156,0.017715093,0.020463986,330.64734,112.5156,-19.877111,STD
4147983844000,3.34999,-3.25710888257319,-9.02740509888469,-1.6898090587134,-0.042455133,0.009773844,0.010995574,330.64716,112.51879,-19.87602,STD
4147988846000,3.354992,-3.27141972312288,-9.02263471907986,-1.68265363843856,-0.03359759,0.009468411,0.016187929,330.65134,112.52347,-19.878603,STD
4147994060000,3.360206,-3.28633710069707,-9.01766215604461,-1.67519494965146,-0.044593163,0.010079277,0.018020526,330.6524,112.528625,-19.877205,STD
4147998827000,3.364973,-3.29997560067716,-9.01311589444334,-1.66837569966142,-0.029626964,0.016187929,0.01740966,330.65515,112.52972,-19.876251,STD
4148003842000,3.369988,-3.29723579123459,-9.01515627499511,-1.65960195592839,-0.040317107,0.011301007,0.016187929,330.65967,112.53425,-19.873966,STD
4148008863000,3.375009,-3.28782762985717,-9.01986045392291,-1.65019374543142,-0.03176499,0.0076358155,0.010995574,330.66583,112.53303,-19.870066,STD
4148013878000,3.380024,-3.28822307948057,-9.02810874729465,-1.65058921475832,-0.03176499,0.005497787,0.01160644,330.67303,112.53902,-19.873325,STD
4148018870000,3.385016,-3.29315015209729,-9.03796258384005,-1.65551633882304,-0.023823744,0.014966198,0.022907447,330.68277,112.544106,-19.877666,STD
4148023826000,3.389972,-3.28115439881031,-9.04713863912756,-1.66010435029742,-0.032070424,0.016798794,0.013439035,330.68774,112.53997,-19.87249,STD
4148028925000,3.395071,-3.2627115310169,-9.05636026560287,-1.66471506724577,-0.03481932,0.01160644,0.013744468,330.6945,112.539474,-19.87318,STD
4148033850000,3.399996,-3.25899467107662,-9.05389793753637,-1.65772295669253,-0.03268129,0.011301007,0.01740966,330.70276,112.53817,-19.871973,STD
4148038856000,3.405002,-3.26364466727449,-9.04459775092143,-1.64377291954413,-0.03145956,0.017715093,0.020463986,330.7113,112.537346,-19.870699,STD
4148043850000,3.409996,-3.27649817630648,-9.04590870100071,-1.64303751636511,-0.03268129,0.008246681,0.0143553335,330.71216,112.53261,-19.865402,STD
4148048856000,3.415002,-3.29588216935207,-9.05560089992924,-1.65272956348934,-0.03145956,0.010995574,0.009773844,330.7187,112.52865,-19.86052,STD
4148053846000,3.419992,-3.29708700873772,-9.05551234297541,-1.65264087080944,-0.03023783,0.004276057,0.022907447,330.72067,112.52864,-19.861944,STD
4148058846000,3.424992,-3.28514645714428,-9.048348111765,-1.64547651491696,-0.034208454,0.0106901415,0.022907447,330.7263,112.5248,-19.85767,STD
4148063829000,3.429975,-3.27324650342626,-9.0412082389407,-1.63833651783452,-0.02687807,0.013133603,0.014660766,330.72986,112.522644,-19.857477,STD
4148068847000,3.434993,-3.26126296584709,-9.03401821649793,-1.63114637026083,-0.027488936,0.01160644,0.015882496,330.7346,112.52444,-19.859802,STD
4148073826000,3.439972,-3.25220888235266,-9.02962719573382,-1.63586777607377,-0.040011674,0.012217305,0.021380283,330.7398,112.53173,-19.864819,STD
4148078871000,3.445017,-3.24522966608243,-9.02730073362866,-1.64982628149076,-0.028710667,0.0106901415,0.016798794,330.7433,112.533554,-19.867441,STD
4148083809000,3.449955,-3.2383984728332,-9.02502361373267,-1.66348873932011,-0.030543262,0.0106901415,0.020158553,330.74695,112.53944,-19.871166,STD
4148088866000,3.455012,-3.23140265585035,-9.0226916179218,-1.67748044633571,-0.03390302,0.017104227,0.02565634,330.75183,112.54331,-19.873878,STD
4148093865000,3.460011,-3.22345908950974,-9.01938955377238,-1.69140521573539,-0.029626964,0.00580322,0.017715093,330.75555,112.53408,-19.867126,STD
4148098900000,3.465046,-3.21402192579509,-9.01467087337313,-1.70556096130737,-0.02687807,0.014660766,0.019547688,330.76788,112.5296,-19.863441,STD
4148103778000,3.469924,-3.21068606902189,-9.01668657223444,-1.71261121495363,-0.03390302,0.008552114,0.02076942,330.77078,112.52299,-19.855621,STD
4148109569000,3.475715,-3.21863984889091,-9.03259424270963,-1.70730867658476,-0.038789943,0.0106901415,0.017104227,330.77847,112.51523,-19.846312,STD
4148113786000,3.479932,-3.22443178287599,-9.04417819131848,-1.70344737382159,-0.034513887,0.026572637,0.026267206,330.7885,112.51031,-19.838839,STD
4148118849000,3.484995,-3.23138567468687,-9.05808607175638,-1.69881142981165,-0.043982297,0.013133603,0.017104227,330.7889,112.50249,-19.826935,STD
4148123836000,3.489982,-3.23770040441189,-9.06997581986182,-1.69361519117623,-0.04184427,0.020158553,0.018325957,330.79846,112.49733,-19.819214,STD
4148128884000,3.49503,-3.24172468530758,-9.0740001847998,-1.68556662938483,-0.04337143,0.01985312,0.022907447,330.8013,112.49261,-19.811228,STD
4148133835000,3.499981,-3.24567163750936,-9.07794721942895,-1.67767272498127,-0.043982297,0.029321533,0.020463986,330.8089,112.48629,-19.80223,STD
4148138837000,3.504983,-3.24274234345274,-9.07501786419753,-1.67214614345274,-0.038789943,0.01985312,0.017715093,330.8108,112.48062,-19.795668,STD
4148143912000,3.510058,-3.23782408196721,-9.0700995,-1.66722788196721,-0.038789943,0.01985312,0.013439035,330.8179,112.47486,-19.787199,STD
4148148855000,3.515001,-3.24440488441801,-9.07109710997075,-1.65705902504436,-0.04337143,0.021380283,0.0125227375,330.8303,112.47015,-19.779125,STD
4148153779000,3.519925,-3.25345119647979,-9.07335873521654,-1.64575111135197,-0.043066,0.02321288,0.01740966,330.84253,112.46538,-19.771769,STD
4148158848000,3.524994,-3.26276390075296,-9.075686959906,-1.63411020669992,-0.03970624,0.02687807,0.020158553,330.85507,112.45977,-19.76337,STD
4148163856000,3.530002,-3.27196453657858,-9.07798716689847,-1.62260938789986,-0.040011674,0.008246681,0.014660766,330.86093,112.4539,-19.755398,STD
4148168848000,3.534994,-3.29622493542136,-9.07581907438583,-1.62147416309093,-0.030848695,0.0125227375,0.020463986,330.87152,112.44867,-19.750177,STD
4148173829000,3.539975,-3.32890730597044,-9.07115008769698,-1.62614305227562,-0.03970624,0.013744468,0.017104227,330.87466,112.44236,-19.742216,STD
4148179604000,3.54575,-3.32840987865125,-9.05186635934312,-1.63153102813138,-0.03604105,0.0033597588,0.01282817,330.87692,112.43616,-19.740086,STD
4148183845000,3.549991,-3.31262306420173,-9.03213299582159,-1.63547770083568,-0.026267206,0.004886922,0.01282817,330.88306,112.43072,-19.737633,STD
4148188868000,3.555014,-3.3002748062069,-9.01514634367816,-1.64135730675287,-0.01985312,-0.01160644,0.014660766,330.88266,112.429184,-19.741457,STD
4148193885000,3.560031,-3.29337152954023,-9.00364088256705,-1.64826060744732,-0.03268129,-0.009468411,0.01038471,330.8879,112.42752,-19.742512,STD
4148198846000,3.564992,-3.28654530758621,-8.99226384597701,-1.65508685316092,-0.026267206,-0.002443461,0.01160644,330.8866,112.42402,-19.745302,STD
4148203852000,3.569998,-3.27965716666667,-8.98078361111111,-1.66197501805556,-0.027794369,0.013439035,0.015882496,330.88864,112.42308,-19.747139,STD
4148208824000,3.57497,-3.276940185477,-8.97681275349111,-1.6672005927385,-0.03023783,0.011301007,0.009162978,330.88693,112.419044,-19.74683,STD
4148213928000,3.580074,-3.28173022783086,-8.98639278818169,-1.66959561391543,-0.02687807,0.011301007,0.007941248,330.89114,112.41702,-19.748323,STD
4148218842000,3.584988,-3.28634195747954,-8.99561619932383,-1.67190147873977,-0.03726278,0.0106901415,0.01160644,330.8947,112.41286,-19.74519,STD
4148223829000,3.589975,-3.29102219674653,-9.00497662898721,-1.67424159837327,-0.03726278,0.007941248,0.01282817,330.89737,112.406204,-19.741331,STD
4148228851000,3.594997,-3.29302812139665,-9.01247165385015,-1.67454792139665,-0.027488936,0.018325957,0.013439035,330.9039,112.40058,-19.737806,STD
4148233848000,3.599994,-3.28805511198171,-9.0149582104853,-1.66957491198171,-0.04184427,0.016187929,0.007941248,330.90552,112.39708,-19.733845,STD
4148238863000,3.605009,-3.28306418898472,-9.01745372409851,-1.66458398898472,-0.03940081,0.023823744,0.015271631,330.9175,112.393906,-19.732187,STD
4148243921000,3.610067,-3.27803047243063,-9.01997063493713,-1.65955027243063,-0.036957346,0.010079277,0.008857546,330.92117,112.38792,-19.726578,STD
4148249404000,3.61555,-3.27143074869999,-9.02007295618925,-1.65167151824461,-0.032375857,0.0106901415,0.013744468,330.93277,112.38702,-19.725618,STD
4148253852000,3.619998,-3.26512590784943,-9.01797129868272,-1.64326504183235,-0.032986723,0.007941248,0.017715093,330.9387,112.38476,-19.72367,STD
4148258822000,3.624968,-3.25808115537027,-9.01562299881592,-1.63387201400661,-0.03359759,0.009468411,0.01160644,330.94495,112.38545,-19.722975,STD
4148263857000,3.630003,-3.25094426830135,-9.01324398677784,-1.62435613974049,-0.03176499,0.010995574,0.0125227375,330.95087,112.388596,-19.725483,STD
4148268787000,3.634933,-3.24827047467868,-9.011775,-1.62252414694912,-0.03390302,0.01160644,0.014966198,330.95654,112.39113,-19.726673,STD
4148273828000,3.639974,-3.25306807459918,-9.011775,-1.6337185634623,-0.028099801,0.008246681,0.01160644,330.9611,112.391075,-19.726625,STD
4148278862000,3.645008,-3.25785901250828,-9.011775,-1.64489743525904,-0.03604105,-0.005192355,0.01282817,330.96234,112.39292,-19.72788,STD
4148283848000,3.649994,-3.26260426805353,-9.011775,-1.65596971471446,-0.033292156,0.0009162979,0.015271631,330.9682,112.392075,-19.727713,STD
4148288808000,3.654954,-3.26732477898503,-9.011775,-1.66698425665165,-0.036957346,0.009468411,0.0125227375,330.97055,112.39209,-19.72699,STD
4148293924000,3.66007,-3.27219375759905,-9.011775,-1.67834522369816,-0.030848695,0.005192355,0.012217305,330.97113,112.39167,-19.727991,STD
4148298832000,3.664978,-3.27675231458661,-9.0162284817552,-1.68997154375982,-0.026267206,0.00580322,0.010079277,330.96643,112.393265,-19.730783,STD
4148303836000,3.669982,-3.2811793175612,-9.02950930577367,-1.7032525526836,-0.034208454,0.008246681,0.010079277,330.96127,112.3961,-19.734085,STD
4148308826000,3.674972,-3.28607993696634,-9.03926969313163,-1.71260130124372,-0.03634648,0.010995574,0.013133603,330.95743,112.40021,-19.738245,STD
4148313858000,3.680004,-3.29341903450429,-9.03193077440479,-1.70281594003757,-0.034208454,0.015882496,0.010995574,330.9547,112.40332,-19.740551,STD
4148319007000,3.685153,-3.3009287748109,-9.02442121706686,-1.69280305751561,-0.034513887,0.014660766,0.016187929,330.95114,112.41062,-19.745922,STD
4148323844000,3.68999,-3.3079834677344,-9.01736669602518,-1.68339689850246,-0.0290161,0.017715093,0.014660766,330.94986,112.41441,-19.748163,STD
4148328921000,3.695067,-3.31125617753263,-9.0123547881843,-1.67304231356419,-0.035430185,0.014966198,0.0125227375,330.94293,112.41724,-19.7505,STD
4148333850000,3.699996,-3.30205991474771,-9.01465388388857,-1.66154705110072,-0.040011674,0.013439035,0.017715093,330.93774,112.4205,-19.754139,STD
4148338863000,3.705009,-3.29270692928599,-9.01699216077343,-1.64985588641633,-0.039095376,0.01740966,0.014660766,330.9342,112.42318,-19.758444,STD
4148343916000,3.710062,-3.28327931397818,-9.01934909536334,-1.63807143496006,-0.041233405,0.01160644,0.012217305,330.92773,112.42817,-19.76477,STD
4148348935000,3.715081,-3.27457885576503,-9.02341880392935,-1.62874604423497,-0.040317107,0.0070249503,0.015882496,330.92044,112.43145,-19.770954,STD
4148353849000,3.719995,-3.26990923925382,-9.03742745842429,-1.63341566074618,-0.03390302,0.0033597588,0.015271631,330.91156,112.4325,-19.775345,STD
4148358860000,3.725006,-3.26649378387963,-9.04901162708221,-1.63790149462654,-0.028710667,0.0070249503,0.015271631,330.90207,112.428856,-19.776834,STD
4148363869000,3.730015,-3.27352375669972,-9.03963837892629,-1.64024481889991,-0.034208454,0.0033597588,0.015271631,330.88965,112.42575,-19.778677,STD
4148368875000,3.735021,-3.28054951911485,-9.03027074461433,-1.64258673970495,-0.03726278,0.0033597588,0.013744468,330.879,112.42022,-19.777966,STD
4148373836000,3.739982,-3.28751212545552,-9.02098731796199,-1.64490760848517,-0.025961773,0.0033597588,0.017104227,330.86786,112.41491,-19.778795,STD
4148379121000,3.745267,-3.2944214,-9.01185764891411,-1.64729334805111,-0.03848451,0.01038471,0.012217305,330.85776,112.41268,-19.777916,STD
4148383818000,3.749964,-3.2944214,-9.01293002999023,-1.64836571792977,-0.038179077,0.01038471,0.011911872,330.84634,112.40939,-19.77957,STD
4148388841000,3.754987,-3.2944214,-9.01407684075143,-1.64951251671633,-0.029932396,0.015577064,0.014966198,330.83438,112.40797,-19.783653,STD
4148393820000,3.759966,-3.2944214,-9.01521360578826,-1.65064926988342,-0.038179077,0.0021380284,0.014049901,330.817,112.40762,-19.787374,STD
4148398789000,3.764935,-3.2944214,-9.01634808770591,-1.65178373995518,-0.036957346,0.004886922,0.016187929,330.8067,112.406555,-19.791548,STD
4148403873000,3.770019,-3.2944214,-9.01750882549408,-1.65294446562329,-0.038789943,0.01160644,0.01160644,330.79358,112.40502,-19.793888,STD
4148408850000,3.774996,-3.2944214,-9.01864513390707,-1.65408076217131,-0.033292156,0.01740966,0.016493361,330.78207,112.40532,-19.799223,STD
4148413852000,3.779998,-3.2944214,-9.01978715011801,-1.65522276645767,-0.042455133,-0.00061086525,0.01863139,330.76483,112.40509,-19.802853,STD
4148418884000,3.78503,-3.2944214,-9.02093601568646,-1.65637162003004,-0.029321533,-0.0009162979,0.014660766,330.75488,112.40095,-19.804777,STD
4148423956000,3.790102,-3.29136802284789,-9.01677183862265,-1.65526089548242,-0.0290161,0.0015271631,0.014049901,330.73584,112.39894,-19.808693,STD
4148428971000,3.795117,-3.28665642702703,-9.0097042972973,-1.65290507297297,-0.023823744,0.0036651916,0.0070249503,330.71664,112.392075,-19.809572,STD
4148434630000,3.800776,-3.28133979277971,-9.00172917937902,-1.65024672809143,-0.032375857,0.002443461,0.0143553335,330.69836,112.39047,-19.813786,STD
4148438950000,3.805096,-3.27728114991907,-8.9956410879482,-1.64821738547113,-0.035430185,0.0030543262,0.0125227375,330.68088,112.38357,-19.813183,STD
4148443914000,3.81006,-3.26965288722852,-8.98981377813572,-1.66124801124389,-0.033292156,0.0036651916,0.01038471,330.6639,112.37901,-19.8145,STD
4148448849000,3.814995,-3.25983027307492,-8.98490288132599,-1.68580459791125,-0.027183503,0.009773844,0.010995574,330.64932,112.374664,-19.815643,STD
4148453844000,3.81999,-3.2561142,-8.9918793514377,-1.693622387594,-0.025045475,0.010079277,0.010079277,330.63812,112.36772,-19.813248,STD
4148458841000,3.824987,-3.2561142,-9.00599228434505,-1.69127019936102,-0.030543262,0.006414085,0.017104227,330.62836,112.363396,-19.813202,STD
4148463851000,3.829997,-3.2561142,-9.02014193290735,-1.68891189176702,-0.03634648,0.017104227,0.015271631,330.62228,112.351616,-19.804323,STD
4148468848000,3.834994,-3.2561142,-9.0342548658147,-1.68655970353404,-0.034513887,0.008857546,0.016187929,330.61026,112.342354,-19.79952,STD
4148473819000,3.839965,-3.25439405578639,-9.04308527020514,-1.68121763048518,-0.03176499,0.015882496,0.014966198,330.60593,112.333,-19.79241,STD
4148478883000,3.845029,-3.2512356764181,-9.04782293819603,-1.67332166557473,-0.03023783,0.013133603,0.013744468,330.59647,112.32407,-19.78664,STD
4148483842000,3.849988,-3.24814278477369,-9.05246237254966,-1.66558942031586,-0.03634648,0.0036651916,0.008552114,330.581,112.31567,-19.781206,STD
4148488849000,3.854995,-3.24501995588408,-9.05714671370889,-1.65778233178769,-0.032375857,0.013133603,0.018325957,330.57147,112.30951,-19.778872,STD
4148493901000,3.860047,-3.24186906082709,-9.06187315499837,-1.64990507769456,-0.032070424,0.010995574,0.016493361,330.5638,112.30888,-19.776459,STD
4148498854000,3.865,-3.23877991133833,-9.0665069760013,-1.64218218784435,-0.032070424,0.004886922,0.017715093,330.55856,112.31095,-19.77731,STD
4148504328000,3.870474,-3.23819176528909,-9.06431136455505,-1.64502090459025,-0.031154128,0.0012217305,0.017715093,330.5533,112.312,-19.777224,STD
4148508839000,3.874985,-3.2403637584917,-9.05562343710407,-1.65805288648567,-0.033292156,0.0012217305,0.017104227,330.550857769117,112.312397218875,-19.7766381496735,STD
4148513822000,3.879968,-3.24276301411765,-9.04602646470588,-1.67244844529412,-0.036651913,0.004276057,0.01282817,330.54816,112.312836,-19.775991,STD
4148518852000,3.884998,-3.24518489968829,-9.03633897300151,-1.68697978400704,-0.034208454,0.004581489,0.015271631,330.54565,112.31502,-19.776846,STD
4148523799000,3.889945,-3.24250409132276,-9.02487887905053,-1.69711146486753,-0.028710667,0.010079277,0.017104227,330.5482,112.315384,-19.774595,STD
4148528912000,3.895058,-3.23285848455629,-9.01041009120457,-1.70193429343051,-0.03359759,0.010079277,0.013744468,330.54892,112.315994,-19.771843,STD
4148533779000,3.899925,-3.21996996835418,-9.00590504323845,-1.69540418544273,-0.043066,0.004886922,0.013439035,330.55054,112.31978,-19.770874,STD
4148538986000,3.905132,-3.20032399274106,-9.01572823618635,-1.67084671592633,-0.038789943,0.0061086523,0.0143553335,330.5538,112.32174,-19.768972,STD
4148543875000,3.910021,-3.19810461316206,-9.0249630596838,-1.65137082193676,-0.023518313,0.007941248,0.016187929,330.5553,112.323105,-19.766449,STD
4148548851000,3.914997,-3.22164910786561,-9.03438058221344,-1.63724404644269,-0.037873644,0.012217305,0.011301007,330.55743,112.32616,-19.762096,STD
4148553781000,3.919927,-3.2400580891074,-9.04515124983294,-1.63270334174702,-0.03604105,0.014049901,0.01160644,330.5584,112.32356,-19.757385,STD
4148558844000,3.92499,-3.24931581481623,-9.05903788673031,-1.64658995447733,-0.03573562,0.01863139,0.01740966,330.56134,112.32317,-19.75258,STD
4148563793000,3.929939,-3.25836509084487,-9.07261184801909,-1.6601638921432,-0.031154128,0.0067195175,0.018325957,330.55362,112.3277,-19.75614,STD
4148568848000,3.934994,-3.26760818850597,-9.0864765427685,-1.67402856276372,-0.029321533,0.004886922,0.013439035,330.5503,112.33227,-19.758734,STD
4148574520000,3.940666,-3.27796890201598,-9.09661542078737,-1.68281689798402,-0.03390302,0.00580322,0.01282817,330.54465,112.33817,-19.763063,STD
4148578924000,3.94507,-3.28599024610118,-9.09260466498669,-1.67479555389882,-0.041233405,0.008857546,0.007941248,330.53876,112.34167,-19.764627,STD
4148583926000,3.950072,-3.29430221721607,-9.08779308608034,-1.6663644,-0.030848695,0.007330383,0.01038471,330.53592,112.34278,-19.765186,STD
4148588868000,3.955014,-3.2927231252102,-9.07989762605098,-1.6663644,-0.025045475,0.010995574,0.014049901,330.53534,112.344406,-19.764254,STD
4148594152000,3.960298,-3.29103475569198,-9.0714557784599,-1.6663644,-0.035124753,0.014049901,0.014966198,330.5343,112.34696,-19.765072,STD
4148598945000,3.965091,-3.2895032728947,-9.06379836447351,-1.6663644,-0.035430185,0.018020526,0.01863139,330.53503,112.34905,-19.7674,STD
4148603842000,3.969988,-3.28793855950888,-9.05597479754437,-1.6663644,-0.029932396,0.012217305,0.01282817,330.52448,112.35373,-19.772509,STD
4148608836000,3.974982,-3.28634285220873,-9.04799626104364,-1.6663644,-0.03604105,0.013133603,0.0143553335,330.5179,112.36246,-19.779858,STD
4148613888000,3.980034,-3.2848446,-9.03999502493888,-1.66619440594621,-0.028405234,0.016493361,0.015577064,330.51053,112.36417,-19.783548,STD
4148618851000,3.984997,-3.2848446,-9.03302255599022,-1.66387021727139,-0.03023783,0.008246681,0.012217305,330.49994,112.36697,-19.78676,STD
4148624198000,3.990344,-3.2848446,-9.02551060929095,-1.66136620017604,-0.028405234,0.006414085,0.014966198,330.49313,112.37062,-19.791794,STD
4148628875000,3.995021,-3.2848446,-9.01893993887531,-1.65917594621027,-0.025045475,-0.0036651916,0.015577064,330.4813,112.372795,-19.795979,STD
4148634185000,4.000331,-3.2849438463482,-9.01187424842085,-1.65698609269641,-0.028099801,0.0076358155,0.013439035,330.48093,112.37933,-19.800272,STD
4148638845000,4.004991,-3.28714617007501,-9.01407661814054,-1.66139074015002,-0.030848695,0.0021380284,0.016493361,330.47296,112.38663,-19.807377,STD
4148644147000,4.010293,-3.28965190406632,-9.01658240446111,-1.66640220813265,-0.03756821,0.0076358155,0.013133603,330.47162,112.39302,-19.811628,STD
4148648854000,4.015,-3.29187644007106,-9.01880698692262,-1.67085128014212,-0.035430185,0.008246681,0.01985312,330.46802,112.401695,-19.819887,STD
4148653835000,4.019981,-3.29423046893012,-9.02116106494276,-1.67555933786024,-0.028099801,0.01282817,0.01740966,330.46658,112.40708,-19.823902,STD
4148658841000,4.024987,-3.28247657202999,-9.00144395338332,-1.67195959067666,-0.023518313,0.008552114,0.017104227,330.46323,112.41451,-19.830608,STD
4148663825000,4.029971,-3.26954023508899,-8.97988339181498,-1.667647478363,-0.030543262,0.0106901415,0.014049901,330.4629,112.420944,-19.835077,STD
4148668832000,4.034978,-3.26068700011862,-8.9818079998023,-1.66302838266199,-0.031154128,0.002443461,0.008552114,330.45822,112.425575,-19.839437,STD
4148673850000,4.039996,-3.25356155420353,-8.99368374299412,-1.65827806058419,-0.029932396,0.008246681,0.016187929,330.459,112.43323,-19.845604,STD
4148678914000,4.04506,-3.24637078933426,-9.00566835110957,-1.65348419230959,-0.036651913,0.009773844,0.015271631,330.44626,112.429245,-19.844017,STD
4148683813000,4.049959,-3.23941432071369,-9.01726246547719,-1.64884652234963,-0.03176499,-0.00061086525,0.0125227375,330.43228,112.42514,-19.844326,STD
4148688866000,4.055012,-3.23385006688483,-9.01513073888835,-1.65654242926639,-0.03481932,0.0021380284,0.011301007,330.4225,112.428604,-19.847715,STD
