timestamp,rel_time,acc_x,acc_y,acc_z,gyro_x,gyro_y,gyro_z,azimuth,pitch,roll,label
11965237044000,0,-4.95442733744257,-8.31587072186064,1.07277380728369,-0.10629055,0.058643065,-0.0033597588,329.08963,43.105953,-33.408867,STD
11965241946000,0.004902,-4.94319421301685,-8.31137737825421,0.998635115696784,-0.099265605,0.051923547,-0.0027488936,330.6663,43.861378,-33.263725,STD
11965247012000,0.009968,-4.93158527618683,-8.30673370654671,0.92201605988706,-0.08827003,0.057726767,-0.0033597588,332.20624,44.595608,-33.105675,STD
11965251951000,0.014907,-4.91868337679672,-8.30214214938398,0.878042733521561,-0.095294975,0.05467244,-0.005497787,333.7042,45.312996,-32.93217,STD
11965256973000,0.019929,-4.89893196422998,-8.29720419312115,0.96198628849076,-0.084910266,0.059864793,-0.005497787,335.1684,46.005966,-32.75004,STD
11965261941000,0.024897,-4.87628358962812,-8.29576773910517,0.971756501772226,-0.093767814,0.07086037,0.0021380284,336.75458,46.751934,-32.540768,STD
11965267008000,0.029964,-4.84338808192911,-8.30516666589192,0.75088618768158,-0.09040806,0.07544186,0.0018325958,338.2921,47.47176,-32.320087,STD
11965271954000,0.03491,-4.82439507051462,-8.30782725824227,0.60445955799944,-0.09101892,0.070554934,0.006414085,339.7796,48.1685,-32.092995,STD
11965277024000,0.03998,-4.86520840478192,-8.28061821089007,0.772248217708041,-0.087659165,0.076358154,0.004276057,341.22607,48.843044,-31.859663,STD
11965282075000,0.045031,-4.90317221375271,-8.25642929635987,0.929561402168425,-0.09193522,0.071776666,0.002443461,342.6373,49.506516,-31.627398,STD
11965287020000,0.049976,-4.900781302383,-8.2755566871813,0.939125159993941,-0.094989546,0.07544186,0.0036651916,344.00745,50.14642,-31.393488,STD
11965292015000,0.054971,-4.89836621597415,-8.29487747932549,0.94878561911193,-0.08460484,0.07880162,0.0076358155,345.2825,50.73425,-31.165579,STD
11965297015000,0.059971,-4.89594871206139,-8.31421761160196,0.958455748359166,-0.08002335,0.062002823,0.009468411,346.5155,51.30471,-30.933699,STD
11965301988000,0.064944,-4.89453426063788,-8.33123153772851,0.971580287611824,-0.08246681,0.069027774,0.0070249503,347.7208,51.85607,-30.704182,STD
11965307011000,0.069967,-4.90388942718787,-8.32421526050175,1.02303375247958,-0.07941248,0.059253927,0.004276057,348.88055,52.3872,-30.471336,STD
11965312246000,0.075202,-4.91363943652275,-8.31690285530922,1.07665885472579,-0.06780604,0.0693332,0.0012217305,350.03708,52.91405,-30.228107,STD
11965317034000,0.07999,-4.92255692357059,-8.31021483313886,1.12570508004667,-0.06627888,0.06352998,0.013744468,351.1477,53.41973,-29.98816,STD
11965322332000,0.085288,-4.93187877992544,-8.30326772376515,1.17777057992544,-0.06383542,0.06291912,0.011911872,352.23007,53.908943,-29.748632,STD
11965327010000,0.089966,-4.92770354503262,-8.30744304585275,1.17359534503262,-0.062308256,0.058643065,0.011911872,353.27405,54.37654,-29.5158,STD
11965332009000,0.094965,-4.92324180941286,-8.31190487465051,1.16913360941286,-0.06536258,0.065973446,0.014660766,354.20496,54.786522,-29.310781,STD
11965337020000,0.099976,-4.95202942211601,-8.30158623331786,1.17945203525754,-0.065973446,0.06566802,0.010079277,355.10913,55.184116,-29.105896,STD
11965342772000,0.105728,-4.99292830412065,-8.28624881225058,1.19478913602784,-0.059253927,0.063224554,0.017104227,355.98996,55.56425,-28.909008,STD
11965347013000,0.109969,-4.99586545680895,-8.27963361656789,1.18634237401612,-0.058643065,0.07574729,0.016493361,356.86023,55.93912,-28.711178,STD
11965352036000,0.114992,-4.99106049253846,-8.27322700869015,1.17032575397549,-0.06047566,0.076358154,0.02107485,357.7022,56.29736,-28.51959,STD
11965356989000,0.119945,-4.98632248974496,-8.26690968262636,1.15453233986815,-0.058337633,0.08368854,0.0290161,358.5221,56.632744,-28.349754,STD
11965361954000,0.12491,-4.98157300784111,-8.26057705110874,1.13870066188653,-0.05131268,0.077579886,0.027183503,359.318,56.957195,-28.181084,STD
11965367010000,0.129966,-4.97673647601718,-8.254128353233,1.12257881619165,-0.056199603,0.09407325,0.030543262,0.08363151,57.259922,-28.028915,STD
11965372001000,0.134957,-4.9719621227076,-8.24776255989878,1.1066642331491,-0.048258353,0.089186326,0.03970624,0.8226354,57.54842,-27.879068,STD
11965377008000,0.139964,-4.9928841125617,-8.23276066938652,1.06272457299285,-0.05497787,0.076358154,0.03970624,1.5664115,57.839706,-27.726063,STD
11965382012000,0.144968,-5.02667636097512,-8.21345088516168,1.00479486746248,-0.04550946,0.07941248,0.046120327,2.293347,58.11291,-27.5826,STD
11965387005000,0.149961,-5.04386005429873,-8.20409303912441,0.95411215227813,-0.060170226,0.06780604,0.049785517,3.0210588,58.392838,-27.433502,STD
11965392039000,0.154995,-5.053410393958,-8.19931781943344,0.906360932650555,-0.05009095,0.06719518,0.05375614,3.73295,58.655205,-27.292461,STD
11965397006000,0.159962,-5.06775679668804,-8.19134441621649,0.850632925724239,-0.049480084,0.06047566,0.06291912,4.44044,58.908676,-27.158697,STD
11965402064000,0.16502,-5.08487575307719,-8.18156217731105,0.789493572501641,-0.03726278,0.056199603,0.06414085,5.1297927,59.149208,-27.029554,STD
11965407007000,0.169963,-5.10160548843338,-8.17200234992679,0.729744299472914,-0.053145275,0.046731193,0.061086524,5.8205624,59.38978,-26.903341,STD
11965412323000,0.175279,-5.11959765374867,-8.16172113560862,0.665486331554501,-0.04520403,0.024740042,0.062308256,6.486362,59.61314,-26.783377,STD
11965416987000,0.179943,-5.12690469437934,-8.17269238510427,0.624715956802383,-0.05222898,0.013744468,0.062002823,7.1294303,59.82913,-26.671337,STD
11965422330000,0.185286,-5.13198590329692,-8.19301753912612,0.58406538346574,-0.05375614,0.005192355,0.058948494,7.7491207,60.033703,-26.563,STD
11965427007000,0.189963,-5.13955524666926,-8.1945525934162,0.552253833633715,-0.040927973,-0.0027488936,0.054367006,8.364204,60.225796,-26.471148,STD
11965432009000,0.194965,-5.14885897638376,-8.18990104428044,0.519691940516605,-0.04886922,-0.018936822,0.05375614,8.957157,60.410637,-26.383741,STD
11965437025000,0.199981,-5.13519415141291,-8.19387880337397,0.493297404063888,-0.05375614,-0.029626964,0.05497787,9.537076,60.58626,-26.302065,STD
11965442029000,0.204985,-5.10801937160004,-8.20293693719875,0.470651946541915,-0.051923547,-0.030543262,0.043066,10.10048,60.756424,-26.221283,STD
11965447003000,0.209959,-5.09240563045226,-8.19995714773869,0.464597371670352,-0.053145275,-0.032375857,0.044593163,10.651143,60.916233,-26.152159,STD
11965451951000,0.214907,-5.08764311829146,-8.18567010854271,0.474122207023116,-0.061086524,-0.038179077,0.03848451,11.187083,61.073048,-26.082096,STD
11965456981000,0.219937,-5.08405413985659,-8.18720212374265,0.494828877323474,-0.057421334,-0.035430185,0.03145956,11.711287,61.224922,-26.013206,STD
11965462014000,0.22497,-5.08165402892142,-8.20400310078677,0.526030993655014,-0.06505715,-0.0421497,0.03604105,12.2167635,61.369476,-25.949587,STD
11965466943000,0.229899,-5.07930351296684,-8.22045690882382,0.556588361308137,-0.0580322,-0.045814894,0.038789943,12.71048,61.505795,-25.88826,STD
11965471984000,0.23494,-5.07689958703316,-8.23728459117618,0.587840073691863,-0.07238753,-0.046120327,0.03481932,13.190692,61.63852,-25.830566,STD
11965476961000,0.239917,-5.06865785063893,-8.25502935007429,0.622137653018326,-0.06872234,-0.047647487,0.038789943,13.661896,61.760696,-25.77747,STD
11965482437000,0.245393,-5.05307313836553,-8.27580885794948,0.663696918294205,-0.069027774,-0.038789943,0.03359759,14.12521,61.881336,-25.725588,STD
11965486974000,0.24993,-5.02884186968769,-8.29300476635699,0.718490525884562,-0.07513642,-0.0421497,0.03359759,14.568634,61.997196,-25.672543,STD
11965491980000,0.254936,-4.99093603989919,-8.31195810179877,0.799040568798182,-0.07788532,-0.036957346,0.029321533,15.006788,62.108635,-25.62204,STD
11965496956000,0.259912,-4.96838647223897,-8.3261975793368,0.872402746588106,-0.0852157,-0.027183503,0.027183503,15.429539,62.217117,-25.570726,STD
11965502016000,0.264972,-4.96395986202613,-8.33505107709875,0.938802639344113,-0.08674286,-0.03359759,0.03023783,15.8382845,62.31888,-25.523104,STD
11965506928000,0.269884,-4.95958054288795,-8.34260445711205,0.999670863905499,-0.08277224,-0.044898596,0.028710667,16.228384,62.42224,-25.466402,STD
11965511974000,0.27493,-4.95484320909715,-8.34734179090285,1.05178049682384,-0.069027774,-0.033292156,0.025961773,16.613773,62.518623,-25.415075,STD
11965516915000,0.279871,-4.95008701719041,-8.35434193671302,1.10185396244388,-0.06291912,-0.024740042,0.021380283,16.96207,62.604336,-25.368277,STD
11965522006000,0.284962,-4.9447486858973,-8.37035687484945,1.149899501511,-0.06536258,-0.0290161,0.014660766,17.30247,62.686455,-25.323195,STD
11965526906000,0.289862,-4.93621763544477,-8.37429139198436,1.18516687786901,-0.065973446,-0.03573562,0.011301007,17.62095,62.759193,-25.282482,STD
11965531965000,0.294921,-4.92200975785924,-8.3600836627566,1.20411078058651,-0.06627888,-0.03726278,0.009468411,17.933388,62.829895,-25.243074,STD
11965536948000,0.299904,-4.90963300166748,-8.34607242569887,1.20317855787151,-0.04886922,-0.030848695,0.002443461,18.228712,62.895523,-25.20334,STD
11965541977000,0.304933,-4.90018484499264,-8.33189996871015,1.16538607915645,-0.051618114,-0.029932396,0.009468411,18.515347,62.956802,-25.169125,STD
11965546908000,0.309864,-4.89329136552959,-8.3208741679612,1.12181954134039,-0.043982297,-0.027183503,0.005497787,18.795502,63.018467,-25.131426,STD
11965552021000,0.314977,-4.89173900277399,-8.31621698243668,1.061277345243,-0.03634648,-0.020463986,-0.004581489,19.071901,63.077362,-25.096367,STD
11965556931000,0.319887,-4.89024827303998,-8.31174469983832,1.0031388389183,-0.034208454,-0.019547688,0.00061086525,19.350433,63.13321,-25.065084,STD
11965561971000,0.324927,-4.88871807388327,-8.30715400649907,0.943461023872175,-0.028405234,-0.029321533,-0.00061086525,19.6227,63.1892,-25.031483,STD
11965566942000,0.329898,-4.88720882388169,-8.30262616193767,0.884600226532036,-0.03634648,-0.020158553,0.0021380284,19.89485,63.240856,-25.003872,STD
11965571998000,0.334954,-4.88567376694988,-8.29802089496877,0.824732958104809,-0.04520403,-0.0125227375,0.005497787,20.157911,63.28928,-24.9779,STD
11965577312000,0.340268,-4.88488053014059,-8.29422304864974,0.759408676275918,-0.039095376,-0.017104227,-0.003970624,20.416126,63.33727,-24.950718,STD
11965581961000,0.344917,-4.89388676271872,-8.30322951633458,0.67384899186811,-0.043676864,-0.012217305,-0.0027488936,20.673254,63.380516,-24.930626,STD
11965587137000,0.350093,-4.90394077038917,-8.31236010998308,0.581414284822335,-0.04886922,-0.0143553335,-0.0076358155,20.946487,63.429626,-24.913212,STD
11965591949000,0.354905,-4.91368776747039,-8.30748653510998,0.537552981154822,-0.056505036,-0.013133603,-0.013744468,21.215727,63.475903,-24.898748,STD
11965596957000,0.359913,-4.92372125655045,-8.30433358249976,0.491781162706614,-0.05222898,-0.0070249503,-0.011911872,21.488245,63.51722,-24.892727,STD
11965601981000,0.364937,-4.93306647228319,-8.31367899339613,0.445055049889288,-0.05222898,-0.0036651916,-0.006414085,21.754118,63.556816,-24.888306,STD
11965606991000,0.369947,-4.95204933670546,-8.35233863921218,0.422288305335721,-0.050701816,0.0021380284,-0.013133603,22.021793,63.593933,-24.887388,STD
11965611979000,0.374935,-5.08034607519149,-8.72297338585497,0.66937812650751,-0.048563786,-0.014660766,-0.015882496,22.277018,63.625195,-24.89035,STD
11965617022000,0.379978,-5.1965504384531,-9.05424700697698,0.889983470954849,-0.052839845,-0.087659165,-0.070554934,22.523294,63.671993,-24.87722,STD
11965622076000,0.385032,-5.14830833856274,-8.85645491627629,0.754905898541812,-0.08857546,-0.016493361,-0.027794369,22.798857,63.692486,-24.898531,STD
11965627029000,0.389985,-5.10117453549115,-8.67065343943075,0.629102448786012,-0.09590584,0.007330383,-0.0125227375,23.014229,63.73606,-24.877033,STD
11965631956000,0.394912,-5.05613506872614,-8.58876365532801,0.588157543908365,-0.064751714,-0.01985312,-0.022907447,23.229622,63.7719,-24.863293,STD
11965636987000,0.399943,-5.01014490081569,-8.5051453269698,0.546348366632246,-0.06566802,-0.028099801,-0.01740966,23.461512,63.79242,-24.875298,STD
11965642016000,0.404972,-4.9724093178337,-8.45503188803793,0.506281994000729,-0.089491755,-0.031154128,-0.016187929,23.682175,63.813698,-24.883785,STD
11965646914000,0.40987,-4.93819552850109,-8.41654141411379,0.467791399502188,-0.073303826,-0.030543262,-0.007941248,23.89602,63.82586,-24.89708,STD
11965652013000,0.414969,-4.92534469823529,-8.390262125,0.475903935066176,-0.06872234,-0.03634648,-0.00580322,24.105204,63.841145,-24.910372,STD
11965656983000,0.419939,-4.93034435117647,-8.375263375,0.520900848080882,-0.074830994,-0.046120327,-0.015882496,24.309048,63.854885,-24.9237,STD
11965661974000,0.42493,-4.91392332735469,-8.35199744868598,0.548389315096873,-0.08979719,-0.050396383,-0.01740966,24.513403,63.868862,-24.938381,STD
11965667344000,0.4303,-4.8843276534625,-8.32240115672358,0.568119764358335,-0.092240654,-0.039095376,-0.015271631,24.715631,63.881874,-24.95278,STD
11965671945000,0.434901,-4.87169530396198,-8.31846667097394,0.603602693410936,-0.077579886,-0.04062254,-0.018020526,24.905212,63.892765,-24.965757,STD
11965676977000,0.439933,-4.86654900383383,-8.32875905627937,0.655066285807347,-0.06963864,-0.03970624,-0.011911872,25.094622,63.89942,-24.983574,STD
11965681953000,0.444909,-4.8714233663847,-8.3350241012208,0.715214318854177,-0.059864793,-0.040011674,-0.0143553335,25.276585,63.90813,-24.995852,STD
11965686998000,0.449954,-4.88071197616072,-8.33966901230414,0.780234955853119,-0.057726767,-0.038789943,-0.013439035,25.455177,63.912544,-25.012001,STD
11965691987000,0.454943,-4.89231809509482,-8.33053668417214,0.839753574724654,-0.061391957,-0.036651913,-0.014049901,25.626959,63.91717,-25.024342,STD
11965696972000,0.459928,-4.90537622260211,-8.31312554449307,0.89633863787655,-0.055588737,-0.040317107,-0.011301007,25.793528,63.918236,-25.038815,STD
11965701979000,0.464935,-4.9139565785541,-8.30098177682027,0.951096647404407,-0.065973446,-0.04550946,-0.018325957,25.951342,63.921406,-25.049639,STD
11965706987000,0.469943,-4.91643142831932,-8.29603192223541,1.00306907392796,-0.07422013,-0.052839845,-0.0061086523,26.103119,63.916695,-25.06743,STD
11965711971000,0.474927,-4.91889441778214,-8.2911057889984,1.05479243131483,-0.0729984,-0.047036625,-0.0070249503,26.25577,63.91571,-25.07911,STD
11965716953000,0.479909,-4.92135641888642,-8.28618163254038,1.1064950329403,-0.07971791,-0.044593163,-0.005497787,26.40135,63.910908,-25.095367,STD
11965721949000,0.484905,-4.92848170548782,-8.29079772097532,1.10862388214978,-0.074830994,-0.044593163,-0.0021380284,26.54489,63.903893,-25.112799,STD
11965726985000,0.489941,-4.93957570021688,-8.30347683687687,1.06900244923466,-0.07452556,-0.04428773,-0.003970624,26.686447,63.897797,-25.130024,STD
11965731956000,0.494912,-4.95052650398935,-8.31599230255332,1.02989241289212,-0.07696902,-0.04062254,0.0012217305,26.814753,63.884254,-25.149612,STD
11965737952000,0.500908,-4.96373531900036,-8.33108840639479,0.982718045982058,-0.07422013,-0.05009095,0.007941248,26.93641,63.869793,-25.169233,STD
11965741966000,0.504922,-4.97257791130426,-8.34119443721863,0.951137340715718,-0.0711658,-0.047036625,-0.0012217305,27.061005,63.857914,-25.186914,STD
11965746968000,0.509924,-4.98359700614834,-8.35378795146397,0.911783407546252,-0.07666359,-0.043982297,0.004886922,27.17932,63.839943,-25.21093,STD
11965751946000,0.514902,-5.00741953962668,-8.35383890248878,0.866026052351081,-0.08124508,-0.039095376,-0.0036651916,27.298552,63.83076,-25.227201,STD
11965756983000,0.519939,-5.04678166009792,-8.33907726601387,0.811903019820481,-0.09101892,-0.035124753,-0.007330383,27.415714,63.81885,-25.247055,STD
11965761984000,0.52494,-5.06383115962343,-8.32952170368962,0.782998688804679,-0.08979719,-0.018325957,-0.007330383,27.550028,63.80487,-25.274136,STD
11965766972000,0.529928,-5.05928874037657,-8.32497956903766,0.778456188922594,-0.098043874,-0.016798794,-0.009162978,27.678448,63.79311,-25.299635,STD
11965771939000,0.534895,-5.06413663938722,-8.31466216266882,0.754869013021568,-0.10293079,-0.018325957,-0.0076358155,27.807142,63.761436,-25.343998,STD
11965776973000,0.539929,-5.08357197883491,-8.29522631586374,0.701421499758113,-0.106595986,-0.020463986,-0.016493361,27.934385,63.73342,-25.384893,STD
11965781958000,0.544914,-5.09190299448496,-8.27703504890598,0.659530469482466,-0.106901415,-0.023823744,-0.021991149,28.058662,63.704277,-25.426825,STD
11965786982000,0.549938,-5.08469240753322,-8.26021049660306,0.633091625561994,-0.11484267,-0.018020526,-0.026267206,28.183292,63.677746,-25.466839,STD
11965791913000,0.554869,-5.07761529681287,-8.24369738605255,0.607142194954541,-0.12370021,-0.0106901415,-0.029932396,28.312298,63.64803,-25.512035,STD
11965796971000,0.559927,-5.07035591209911,-8.22675897332401,0.580524425736837,-0.1301143,-0.022907447,-0.032986723,28.434942,63.61935,-25.555681,STD
11965801944000,0.5649,-5.06424278039444,-8.2102925919557,0.556536406846886,-0.1328632,-0.010995574,-0.038789943,28.56202,63.59412,-25.598436,STD
11965807053000,0.570009,-5.05948927109686,-8.19365521014281,0.535145602598854,-0.1414153,-0.018020526,-0.034208454,28.676973,63.56723,-25.64215,STD
11965811901000,0.574857,-5.05497860108812,-8.17786777091227,0.514847575784514,-0.14569137,-0.018020526,-0.044593163,28.798689,63.543137,-25.684565,STD
11965816960000,0.579916,-5.0502716127271,-8.16139321334888,0.493666115872438,-0.14569137,-0.023518313,-0.04153884,28.913864,63.513847,-25.731558,STD
11965821921000,0.584877,-5.05073814759841,-8.14735464681479,0.490123799340832,-0.15363261,-0.0290161,-0.043676864,29.022667,63.484627,-25.7776,STD
11965826974000,0.58993,-5.06412200591869,-8.13843235410713,0.530275397593805,-0.15424347,-0.027794369,-0.043676864,29.129967,63.453205,-25.824926,STD
11965831968000,0.594924,-5.07511782438685,-8.13129855714427,0.569158631138914,-0.16707164,-0.021991149,-0.04917465,29.240046,63.423576,-25.8726,STD
11965837083000,0.600039,-5.07025382557839,-8.13616240358455,0.603206638034952,-0.15790866,-0.028710667,-0.044593163,29.344563,63.389484,-25.922531,STD
11965842006000,0.604962,-5.06567845939033,-8.13757261385024,0.637947183984557,-0.16310102,-0.026572637,-0.05131268,29.44946,63.359207,-25.968899,STD
11965846977000,0.609933,-5.0618495139548,-8.11459858139628,0.687724542174053,-0.16432275,-0.030848695,-0.05131268,29.548292,63.324837,-26.017735,STD
11965851965000,0.614921,-5.05800747415748,-8.09154598154106,0.737672130717446,-0.17073683,-0.02565634,-0.046120327,29.642387,63.289764,-26.065975,STD
11965856990000,0.619946,-5.06575513481885,-8.07362381180473,0.782126488487838,-0.17837265,-0.029626964,-0.05589417,29.731396,63.259037,-26.109177,STD
11965862005000,0.624961,-5.08045994397006,-8.05891891734989,0.822973309477802,-0.18692477,-0.04062254,-0.057421334,29.818043,63.225002,-26.15576,STD
11965867001000,0.629957,-5.09510904197993,-8.04426973435958,0.863665376808981,-0.19028452,-0.043066,-0.057421334,29.903759,63.191635,-26.198198,STD
11965872033000,0.634989,-5.10986369794183,-8.0295149928049,0.904650661598911,-0.1908954,-0.04734206,-0.055588737,29.984179,63.158646,-26.240019,STD
11965877057000,0.640013,-5.12459489658105,-8.01478370870896,0.945570786953564,-0.20097467,-0.03481932,-0.07238753,30.064009,63.13034,-26.2783,STD
11965882030000,0.644986,-5.13917655478823,-8.00020196591257,0.986075520908318,-0.19333886,0.02107485,-0.10903945,30.155832,63.10632,-26.312136,STD
11965887088000,0.650044,-5.05159501288532,-8.01121761215185,1.07984596428784,-0.18417588,0.029932396,-0.11026118,30.234932,63.077595,-26.349987,STD
11965892124000,0.65508,-4.93208672465061,-8.03033908801665,1.18979368929527,-0.18448131,0.013133603,-0.09590584,30.322708,63.054535,-26.382784,STD
11965896999000,0.659955,-4.85808769488146,-8.04190037297887,1.22321409099296,-0.1777618,-0.004276057,-0.08979719,30.40129,63.02881,-26.415895,STD
11965901979000,0.664935,-4.79658570757861,-8.05136192838012,1.23267594279337,-0.17592919,-0.023823744,-0.07666359,30.471928,62.99744,-26.454302,STD
11965906981000,0.669937,-4.78560020966462,-8.06086765112125,1.21847432583846,-0.17715092,-0.038179077,-0.07238753,30.516588,62.986195,-26.467278,STD
11965911972000,0.674928,-4.79508578394523,-8.07035342349672,1.19476039013693,-0.19120082,-0.049480084,-0.065973446,30.554825,62.97132,-26.484087,STD
11965916953000,0.679909,-4.81064801517644,-8.10491728794109,1.16852249416659,-0.19333886,-0.06719518,-0.05955936,30.577246,62.962116,-26.492783,STD
11965921984000,0.68494,-4.82907811206847,-8.15099253017118,1.14087730071722,-0.19181168,-0.07147124,-0.05681047,30.599886,62.95275,-26.502295,STD
11965926971000,0.689927,-4.83063752018662,-8.1958535221066,1.10181327880942,-0.20677789,-0.074830994,-0.057421334,30.622915,62.947113,-26.51059,STD
11965931951000,0.694907,-4.82131757998437,-8.24012343270311,1.05521354130392,-0.21563543,-0.09682214,-0.048258353,30.637909,62.937546,-26.521763,STD
11965937051000,0.700007,-4.81177306290977,-8.28546008813327,1.00749091855733,-0.21563543,-0.118507855,-0.036651913,30.655178,62.932198,-26.531359,STD
11965942013000,0.704969,-4.80248680923836,-8.32956998700474,0.961059613837999,-0.21868975,-0.119729586,-0.026572637,30.671457,62.925255,-26.543024,STD
11965946915000,0.709871,-4.82882749084871,-8.36199285387454,0.894459599990775,-0.22571471,-0.124005646,-0.027488936,30.679749,62.9184,-26.554,STD
11965951963000,0.714919,-4.89126398619926,-8.38429160221402,0.805264536780443,-0.22113322,-0.12186762,-0.033292156,30.689476,62.909737,-26.566345,STD
11965956976000,0.719932,-4.92566910474385,-8.42121235005347,0.727831702561485,-0.22174409,-0.09987647,-0.034513887,30.711832,62.909527,-26.57375,STD
11965961973000,0.724929,-4.90706104812871,-8.48634045105473,0.672007498712939,-0.21746802,-0.08857546,-0.04795292,30.731686,62.91356,-26.575861,STD
11965966972000,0.729928,-4.87890410363557,-8.55668574518341,0.620193868258409,-0.21044308,-0.08674286,-0.04153884,30.768463,62.902718,-26.59632,STD
11965972017000,0.734973,-4.82631353435289,-8.64083076586481,0.578121396357897,-0.20005837,-0.09743301,-0.040011674,30.804712,62.896267,-26.611528,STD
11965976936000,0.739892,-4.76880871683472,-8.69449868831554,0.536701635974694,-0.18967366,-0.09682214,-0.027794369,30.852362,62.895042,-26.623108,STD
11965981943000,0.744899,-4.70244700992487,-8.7134590628707,0.494040530897588,-0.17440203,-0.09743301,-0.017715093,30.895388,62.892616,-26.634405,STD
11965986920000,0.749876,-4.65598910415481,-8.71952358446941,0.44452642581573,-0.16768251,-0.08857546,-0.021685716,30.941435,62.904495,-26.632364,STD
11965992670000,0.755626,-4.63398987693883,-8.70577412129838,0.375779064017978,-0.15027285,-0.07727446,-0.02687807,30.986935,62.911858,-26.633255,STD
11965996908000,0.759864,-4.61777548999251,-8.69564016913858,0.325109269357303,-0.13072516,-0.057421334,-0.03268129,31.033321,62.92981,-26.624393,STD
11966001935000,0.764891,-4.5985424264769,-8.68361955151061,0.265006141051685,-0.12064589,-0.05375614,-0.03176499,31.077103,62.945953,-26.616484,STD
11966006860000,0.769816,-4.58197800594595,-8.66419162255359,0.2263018164548,-0.106595986,-0.049785517,-0.02443461,31.12618,62.959778,-26.609943,STD
11966011870000,0.774826,-4.56856339243243,-8.63289079543337,0.217358704982293,-0.094989546,-0.046120327,-0.018020526,31.175232,62.97232,-26.604136,STD
11966016853000,0.779809,-4.55980917833682,-8.61204786971757,0.215686518131799,-0.09162979,-0.04062254,-0.018325957,31.23707,62.99205,-26.595694,STD
11966022419000,0.785375,-4.56538490137029,-8.62319937400628,0.237989654797071,-0.08582657,-0.03268129,-0.013744468,31.29919,63.006775,-26.591326,STD
11966026848000,0.789804,-4.57753104930016,-8.61774302391135,0.278745764037714,-0.07422013,-0.028099801,0.00030543262,31.361082,63.02085,-26.588377,STD
11966031895000,0.794851,-4.60571968242613,-8.58485657960731,0.368009832710925,-0.0693332,-0.021380283,0.0033597588,31.424955,63.035625,-26.584524,STD
11966036883000,0.799839,-4.64256975485738,-8.64369822054568,0.413984092401819,-0.063224554,-0.011911872,-0.0009162979,31.486488,63.049976,-26.580853,STD
11966041893000,0.804849,-4.70207360148822,-8.93129893778421,0.354480411459281,-0.0580322,-0.01160644,0.002443461,31.545639,63.060104,-26.580751,STD
11966046861000,0.809817,-4.73887816922772,-9.05639069287129,0.337371933750495,-0.04734206,-0.008857546,0.0021380284,31.603317,63.068493,-26.580147,STD
11966051907000,0.814863,-4.7340935620198,-8.87936002633663,0.399571867421782,-0.03970624,-0.0125227375,-0.008552114,31.657978,63.078007,-26.577871,STD
11966056887000,0.819843,-4.72655097741697,-8.7334998494465,0.459563913145756,-0.03390302,-0.01740966,-0.0018325958,31.714231,63.092182,-26.571602,STD
11966062299000,0.825255,-4.71220698066421,-8.63787320442805,0.521721282333948,-0.03634648,0.013744468,0.015577064,31.779417,63.10531,-26.566788,STD
11966066884000,0.82984,-4.70624474113387,-8.56237069687565,0.570677020113801,-0.03970624,0.0036651916,0.017715093,31.81886,63.10338,-26.573776,STD
11966071913000,0.834869,-4.73115769747569,-8.50756260914546,0.605555174600662,-0.03756821,-0.018020526,0.030848695,31.86285,63.09297,-26.589413,STD
11966076912000,0.839868,-4.75733297479346,-8.45659363135671,0.636204474127042,-0.03756821,-0.027794369,0.03390302,31.901623,63.081165,-26.605173,STD
11966081894000,0.84485,-4.78799038450523,-8.4171766546723,0.653722999842115,-0.038179077,-0.029626964,0.029321533,31.935312,63.06781,-26.62204,STD
11966086998000,0.849954,-4.81863864040986,-8.37782515038958,0.671881148265557,-0.043066,-0.039095376,0.03145956,31.963194,63.046986,-26.645962,STD
11966091909000,0.854865,-4.83871823022734,-8.35272500789839,0.691960842918134,-0.048563786,-0.04917465,0.03023783,31.990015,63.02867,-26.667278,STD
11966096907000,0.859863,-4.8562870708309,-8.32928287585133,0.706145540513719,-0.06414085,-0.049785517,0.027794369,32.014,62.999367,-26.699362,STD
11966102047000,0.865003,-4.86107650262697,-8.31491508056042,0.691777545183888,-0.059864793,-0.056505036,0.03023783,32.032566,62.968967,-26.731571,STD
11966107051000,0.870007,-4.86318659139201,-8.30345728937095,0.682883553772792,-0.061391957,-0.057421334,0.027488936,32.05293,62.93991,-26.763618,STD
11966111983000,0.874939,-4.85151668537827,-8.3057913193161,0.701555403394772,-0.07452556,-0.062308256,0.028405234,32.069622,62.909966,-26.796574,STD
11966117132000,0.880088,-4.83933332242921,-8.3082280427929,0.721048784113258,-0.083383106,-0.0711658,0.021991149,32.08711,62.881268,-26.828352,STD
11966121977000,0.884933,-4.8278692724218,-8.31052090067698,0.739391264125117,-0.0870483,-0.0720821,0.025350908,32.10523,62.850376,-26.862635,STD
11966126953000,0.889909,-4.81484099218253,-8.31343230933552,0.753892533524225,-0.09132435,-0.06811147,0.018936822,32.11801,62.820618,-26.895296,STD
11966132069000,0.895025,-4.78811883274248,-8.32233938578311,0.722716789355513,-0.08368854,-0.059864793,0.025961773,32.131577,62.786415,-26.932098,STD
11966137085000,0.900041,-4.76191899854559,-8.33107235987637,0.692150422516135,-0.086132,-0.07086037,0.018936822,32.134872,62.763718,-26.956518,STD
11966142002000,0.904958,-4.74106081710883,-8.35974000314023,0.703489310048728,-0.096516706,-0.06047566,0.016493361,32.147446,62.73828,-26.98427,STD
11966147139000,0.910095,-4.71921072770225,-8.38964221830103,0.715386809854402,-0.093767814,-0.05100725,0.016798794,32.15638,62.714138,-27.010014,STD
11966151990000,0.914946,-4.69233354025648,-8.39412182749976,0.679550637884486,-0.099571034,-0.04917465,0.013439035,32.161163,62.694954,-27.032303,STD
11966157320000,0.920276,-4.66371618313766,-8.39895440843117,0.640890748323178,-0.09040806,-0.051618114,0.015882496,32.1639,62.678864,-27.050333,STD
11966161972000,0.924928,-4.65930223316986,-8.40116138341507,0.623235317164512,-0.09407325,-0.047647487,0.019547688,32.169376,62.664314,-27.067616,STD
11966166969000,0.929925,-4.65456093738545,-8.40353203130728,0.604270530083717,-0.09682214,-0.040011674,0.017104227,32.168037,62.64862,-27.085833,STD
11966171985000,0.934941,-4.64980161386041,-8.4059116930698,0.585233633546342,-0.089186326,-0.046731193,0.015271631,32.16352,62.63183,-27.104612,STD
11966176933000,0.939889,-4.64510681067023,-8.40825909466488,0.566454812958835,-0.09101892,-0.04520403,0.016798794,32.16425,62.615555,-27.123556,STD
11966181962000,0.944918,-4.64068736380379,-8.4125007634938,0.556904242742524,-0.08735373,-0.045814894,0.018325957,32.162384,62.599632,-27.141401,STD
11966187039000,0.949995,-4.6362543855124,-8.41693388065281,0.548038193581327,-0.084910266,-0.03390302,0.02076942,32.16516,62.583454,-27.159826,STD
11966192031000,0.954987,-4.65067321320978,-8.44126174270014,0.526504591127034,-0.08979719,-0.028405234,0.021991149,32.169243,62.568565,-27.17761,STD
11966196903000,0.959859,-4.67078258875121,-8.47142499234996,0.501368173542722,-0.086437434,-0.025350908,0.02443461,32.17634,62.5525,-27.196268,STD
11966202126000,0.965082,-4.68196434384996,-8.48395656528061,0.481029164870602,-0.082161374,-0.035124753,0.024740042,32.18117,62.53204,-27.217865,STD
11966206949000,0.969905,-4.69091823844141,-8.49291069361249,0.463121272841911,-0.08002335,-0.030543262,0.025045475,32.191605,62.51127,-27.240038,STD
11966211974000,0.97493,-4.69849945111509,-8.49658268438869,0.4577320864317,-0.07544186,-0.024129177,0.022296581,32.202763,62.490326,-27.26251,STD
11966216961000,0.979917,-4.70563201799582,-8.49896024805854,0.455354572413381,-0.07696902,-0.02321288,0.01985312,32.213654,62.469814,-27.284657,STD
11966221918000,0.984874,-4.71272167791716,-8.5013235091597,0.452991360665074,-0.07880162,-0.015882496,0.017104227,32.229603,62.452114,-27.305412,STD
11966226964000,0.98992,-4.71993862848467,-8.50372920121466,0.450585718849064,-0.08032878,-0.02076942,0.01863139,32.241806,62.434223,-27.326097,STD
11966231946000,0.994902,-4.7324755326798,-8.51531441667476,0.453813120449384,-0.07269296,-0.014966198,0.016493361,32.264927,62.422077,-27.34143,STD
11966236996000,0.999952,-4.7465576461419,-8.5293963830923,0.458507174608366,-0.08032878,-0.014966198,0.019547688,32.28422,62.408733,-27.358261,STD
11966241977000,1.004933,-4.75670765711363,-8.54946330649061,0.449769735750418,-0.073303826,-0.011911872,0.011911872,32.307716,62.3965,-27.37341,STD
11966246978000,1.009934,-4.76561482223359,-8.57173110303143,0.436409043874837,-0.0720821,-0.01282817,0.009162978,32.329487,62.382633,-27.390505,STD
11966251946000,1.014902,-4.76486963884259,-8.580819,0.432416415303677,-0.07727446,-0.016493361,0.008552114,32.351196,62.369495,-27.406712,STD
11966257007000,1.019963,-4.75729566965309,-8.580819,0.434941062912803,-0.08246681,-0.011301007,0.008246681,32.375195,62.35711,-27.422174,STD
11966262009000,1.024965,-4.74980999609334,-8.580819,0.437436278747786,-0.07147124,-0.01282817,0.003970624,32.397186,62.345825,-27.436153,STD
11966266954000,1.02991,-4.74240962509116,-8.580819,0.439903060495885,-0.07727446,-0.009162978,0.0076358155,32.422028,62.33319,-27.452333,STD
11966271957000,1.034913,-4.74395700131964,-8.57738158841595,0.452564424612505,-0.08155051,-0.011911872,-0.00061086525,32.444286,62.324795,-27.463587,STD
11966276974000,1.03993,-4.74856821632516,-8.57277049378569,0.468703771024521,-0.087964594,-0.011911872,0.0036651916,32.467934,62.312134,-27.479416,STD
11966281960000,1.044916,-4.75315093867268,-8.56818789106963,0.484743392553386,-0.087964594,-0.013744468,-0.0012217305,32.480984,62.30324,-27.491068,STD
11966287075000,1.050031,-4.75785222724219,-8.56348672522674,0.50119799827343,-0.07727446,-0.010079277,-0.002443461,32.49551,62.292072,-27.504862,STD
11966292048000,1.055004,-4.75680016703429,-8.55017451814718,0.514752868911169,-0.08155051,-0.01282817,-0.003970624,32.507336,62.28298,-27.516827,STD
11966297014000,1.05997,-4.75203195563465,-8.53110142360136,0.526673474583918,-0.081855945,-0.018020526,-0.004581489,32.519386,62.273582,-27.528555,STD
11966302004000,1.06496,-4.74724070012031,-8.51193615139362,0.538651690916383,-0.08002335,-0.018020526,-0.0015271631,32.529266,62.26241,-27.541553,STD
11966307017000,1.069973,-4.74242736066272,-8.49268254225988,0.550685117464407,-0.08124508,-0.017104227,-0.006414085,32.53788,62.253944,-27.551815,STD
11966312007000,1.074963,-4.72625547341534,-8.47363983830969,0.541190755542109,-0.067500606,-0.015271631,-0.009468411,32.552685,62.247658,-27.559608,STD
11966317671000,1.080627,-4.6993518948021,-8.45211708778891,0.514287143217935,-0.079107046,-0.015882496,-0.016798794,32.566917,62.244816,-27.564714,STD
11966321990000,1.084946,-4.70368036737631,-8.43846033144757,0.510331961889733,-0.07452556,-0.019547688,-0.0027488936,32.586403,62.237865,-27.572323,STD
11966327012000,1.089968,-4.72277411056523,-8.42413999290358,0.515105406409607,-0.06994407,-0.011301007,-0.00580322,32.60955,62.238052,-27.573294,STD
11966331960000,1.094916,-4.74158650429259,-8.41003066691479,0.519808513435561,-0.073303826,-0.012217305,-0.0027488936,32.62833,62.23007,-27.581846,STD
11966337078000,1.100034,-4.7610452413776,-8.39543658235323,0.524673206596199,-0.074830994,-0.008246681,-0.0067195175,32.65117,62.224743,-27.587738,STD
11966341999000,1.104955,-4.78859355845801,-8.38412474467567,0.530593111691603,-0.07544186,-0.009162978,-0.002443461,32.671562,62.2163,-27.596739,STD
11966346969000,1.109925,-4.82338816053414,-8.37484623256494,0.537552032106828,-0.0842994,-0.013439035,-0.004886922,32.69196,62.211185,-27.602718,STD
11966351967000,1.114923,-4.85837878853745,-8.36551544714655,0.544550157707491,-0.081855945,-0.008246681,-0.0015271631,32.716984,62.195396,-27.61927,STD
11966356983000,1.119939,-4.89349543320825,-8.35615105745894,0.551573486641649,-0.08674286,-0.013744468,0.0033597588,32.73688,62.180546,-27.635132,STD
11966361973000,1.124929,-4.91705635781342,-8.34889876686876,0.567917947185605,-0.084910266,-0.01282817,0.0018325958,32.75524,62.166473,-27.650633,STD
11966366967000,1.129923,-4.92641021846274,-8.34422171445335,0.595979695177,-0.086132,-0.022296581,0.0036651916,32.76814,62.15053,-27.667963,STD
11966371937000,1.134893,-4.93575421122519,-8.34509780777964,0.618463728079771,-0.089186326,-0.021991149,-0.002443461,32.78838,62.12599,-27.69418,STD
11966376971000,1.139927,-4.94527328704709,-8.35461713209596,0.63274239648139,-0.09468412,-0.027488936,-0.0021380284,32.803436,62.09974,-27.721952,STD
11966381989000,1.144945,-4.94457072157152,-8.36387205256848,0.649943908687633,-0.10476339,-0.035124753,-0.004581489,32.806545,62.072315,-27.750795,STD
11966388027000,1.150983,-4.92323920206585,-8.37453753389283,0.676608502969658,-0.10629055,-0.039095376,-0.009468411,32.809284,62.04604,-27.778326,STD
11966392003000,1.154959,-4.90623378050398,-8.37081500198939,0.688418733952255,-0.11911872,-0.041233405,-0.00580322,32.80901,62.01898,-27.80696,STD
11966396969000,1.159925,-4.87469627763042,-8.32876481520778,0.683162501768347,-0.121256754,-0.043982297,-0.0076358155,32.807682,61.995174,-27.83193,STD
11966401958000,1.164914,-4.85370935425483,-8.30482269999076,0.67648997234593,-0.13316862,-0.046731193,-0.0106901415,32.80102,61.975742,-27.852613,STD
11966406983000,1.169939,-4.84926299765315,-8.30926919587915,0.667597166284764,-0.13225232,-0.051618114,-0.015271631,32.79314,61.95744,-27.871725,STD
11966411913000,1.174869,-4.8469565733871,-8.31048338479263,0.662984269585253,-0.13500121,-0.060170226,-0.016798794,32.784367,61.94417,-27.886684,STD
11966416958000,1.179914,-4.85201673797654,-8.300362738584,0.673104704440721,-0.14019357,-0.0571159,-0.021991149,32.778156,61.93357,-27.899055,STD
11966422346000,1.185302,-4.85626060452614,-8.299251231683,0.678314125179918,-0.13805555,-0.06169739,-0.01740966,32.76745,61.92157,-27.912502,STD
11966426978000,1.189934,-4.85818381028353,-8.31271367198474,0.674467793991156,-0.13622294,-0.056505036,-0.019547688,32.76135,61.913307,-27.922493,STD
11966431949000,1.194905,-4.8602477687939,-8.32716138155727,0.670339963175236,-0.14080444,-0.06658431,-0.024129177,32.754982,61.908436,-27.929152,STD
11966436968000,1.199924,-4.8623316568976,-8.34174859828319,0.666172274005029,-0.14477506,-0.07422013,-0.022907447,32.751072,61.90249,-27.93686,STD
11966441987000,1.204943,-4.8644155450013,-8.3563358150091,0.662004584834822,-0.15118915,-0.084910266,-0.018020526,32.743023,61.897045,-27.943993,STD
11966446969000,1.209925,-4.86158695424107,-8.36741473325893,0.671092622321429,-0.1459968,-0.08032878,-0.01985312,32.737694,61.89299,-27.949549,STD
11966451962000,1.214918,-4.85673529423701,-8.37711754667208,0.685647298376623,-0.16157386,-0.092240654,-0.027488936,32.723804,61.890087,-27.954248,STD
11966457198000,1.220154,-4.86248670289268,-8.39732016526901,0.682484433892396,-0.16187929,-0.10873401,-0.026572637,32.704296,61.885715,-27.960354,STD
11966461993000,1.224949,-4.87114042865354,-8.41895436672006,0.673830753311976,-0.16646078,-0.1142318,-0.02565634,32.684975,61.8841,-27.964142,STD
11966466950000,1.229906,-4.86899040104808,-8.44720506096154,0.645157268828846,-0.15974127,-0.121256754,-0.030543262,32.64911,61.879707,-27.969414,STD
11966471991000,1.234947,-4.85970638165385,-8.47969915307692,0.603379370592308,-0.16065755,-0.12980886,-0.033292156,32.61167,61.875072,-27.975092,STD
11966476968000,1.239924,-4.85269077350529,-8.50837927606303,0.575934462875027,-0.16676621,-0.13255776,-0.03848451,32.571495,61.87024,-27.980831,STD
11966481979000,1.244935,-4.84751174871573,-8.53427467040794,0.560397204636305,-0.18417588,-0.13316862,-0.040011674,32.53011,61.86585,-27.986322,STD
11966487078000,1.250034,-4.82255410277778,-8.54917219543651,0.548794743650794,-0.18020524,-0.1328632,-0.048258353,32.484768,61.866524,-27.987322,STD
11966491993000,1.254949,-4.78986662222222,-8.55851167063492,0.539455463492064,-0.18051068,-0.12370021,-0.0580322,32.443104,61.868908,-27.987223,STD
11966496971000,1.259927,-4.77034183420561,-8.58146384299065,0.527816316485981,-0.19150625,-0.12156218,-0.056199603,32.402233,61.87892,-27.980795,STD
11966501981000,1.264937,-4.75753014715621,-8.61135751188251,0.515004602680908,-0.19394971,-0.12095132,-0.06780604,32.364872,61.89508,-27.967897,STD
11966506976000,1.269932,-4.71954742911392,-8.63088510126582,0.494478403544304,-0.20341812,-0.1133155,-0.070554934,32.329433,61.913795,-27.95287,STD
11966511972000,1.274928,-4.64645252540375,-8.63610625927543,0.463152104247054,-0.204029,-0.11484267,-0.07544186,32.292007,61.93581,-27.934048,STD
11966516950000,1.279906,-4.59720833875278,-8.63021754342984,0.41517271454343,-0.19150625,-0.09865474,-0.07574729,32.262825,61.961002,-27.91222,STD
11966521987000,1.284943,-4.56451066325167,-8.61620422605791,0.354448506726058,-0.19150625,-0.10048734,-0.07574729,32.22782,61.98722,-27.889242,STD
11966527213000,1.290169,-4.5301016369509,-8.60685224289406,0.314822062325581,-0.1777618,-0.08399397,-0.07819075,32.19792,62.02214,-27.857737,STD
11966531960000,1.294916,-4.49847502072153,-8.60233428965415,0.296749664364937,-0.17287487,-0.06536258,-0.08827003,32.168606,62.05866,-27.824657,STD
11966537051000,1.300007,-4.44983986962751,-8.60985159598854,0.284834538108883,-0.16432275,-0.05589417,-0.08857546,32.146824,62.09396,-27.793016,STD
11966541979000,1.304935,-4.38922050316174,-8.62850359638376,0.280171513664658,-0.14752395,-0.040011674,-0.08735373,32.133247,62.130363,-27.760065,STD
11966546971000,1.309927,-4.33286353188027,-8.62487076344086,0.268787935408312,-0.13530666,-0.047647487,-0.0842994,32.114986,62.169247,-27.72429,STD
11966551964000,1.31492,-4.28191074801899,-8.59707818637993,0.250259605517776,-0.13775012,-0.035124753,-0.07819075,32.108112,62.2058,-27.691086,STD
11966556960000,1.319916,-4.23472504112903,-8.57888815322581,0.245212603387097,-0.13439035,-0.021380283,-0.067500606,32.103245,62.254517,-27.645142,STD
11966562008000,1.324964,-4.19244990494559,-8.57419084502526,0.259304243511465,-0.1282817,-0.021685716,-0.05955936,32.097397,62.3009,-27.60135,STD
11966566953000,1.329909,-4.17020534280376,-8.57295988223412,0.26385597961822,-0.11942416,-0.03390302,-0.040927973,32.087013,62.342453,-27.562107,STD
11966571963000,1.334919,-4.1823202980103,-8.57780593515806,0.251741087662862,-0.11484267,-0.029626964,-0.02321288,32.081413,62.380783,-27.526112,STD
11966576917000,1.339873,-4.19429983655186,-8.58259782062418,0.239761611665488,-0.1142318,-0.018325957,-0.024129177,32.062725,62.423103,-27.485834,STD
11966581971000,1.344927,-4.20652119056661,-8.58748643369357,0.227540321457429,-0.10262536,-0.015271631,-0.011301007,32.042377,62.455246,-27.455252,STD
11966587038000,1.349994,-4.2241614416893,-8.5955791306405,0.221994286072023,-0.100792766,-0.014966198,-0.0067195175,32.024887,62.489365,-27.422892,STD
11966592057000,1.355013,-4.24943058731271,-8.60821348357137,0.226205800081486,-0.0870483,-0.010995574,-0.007330383,32.009457,62.52007,-27.393421,STD
11966596960000,1.359916,-4.2772515701002,-8.6256666509018,0.230933465258517,-0.08979719,-0.008552114,-0.0027488936,31.991652,62.542023,-27.373365,STD
11966601970000,1.364926,-4.33013503172345,-8.68335795551102,0.240548654246493,-0.07941248,-0.01160644,0.005192355,31.973433,62.56211,-27.354498,STD
11966606972000,1.369928,-4.38178409981959,-8.73462394467275,0.246693238216899,-0.06627888,-0.0015271631,0.009468411,31.961334,62.57844,-27.339504,STD
11966611978000,1.374934,-4.42503093231432,-8.73942924305904,0.227472436039892,-0.064751714,-0.00030543262,0.0076358155,31.945566,62.59398,-27.325142,STD
11966616973000,1.379929,-4.46459197060241,-8.74182498554217,0.211289742289157,-0.06627888,-0.01038471,0.013744468,31.93273,62.60744,-27.313246,STD
11966622237000,1.385193,-4.47977633799197,-8.72664024819277,0.216351215702811,-0.051923547,0.00061086525,0.013439035,31.927208,62.622498,-27.299551,STD
11966626942000,1.389898,-4.49264752432483,-8.71433140839907,0.219703940774942,-0.05009095,0.008857546,0.021685716,31.92242,62.62675,-27.297098,STD
11966631966000,1.394922,-4.5015782147007,-8.70986622640371,0.215238618900232,-0.04917465,-0.00580322,0.022907447,31.913897,62.632618,-27.29255,STD
11966637287000,1.400243,-4.51026787560617,-8.70470531447465,0.210281627310801,-0.04886922,0.003970624,0.02107485,31.913563,62.63251,-27.294268,STD
11966642839000,1.405795,-4.49910577395822,-8.68796219114097,0.199119572284035,-0.03726278,0.00030543262,0.029932396,31.904222,62.628796,-27.299007,STD
11966646988000,1.409944,-4.49117030101394,-8.67623500285171,0.191712129676806,-0.035124753,0.010995574,0.0290161,31.907722,62.6287,-27.300669,STD
11966651970000,1.414926,-4.48651868576582,-8.67158341188944,0.194037939729453,-0.03390302,0.01863139,0.03176499,31.90897,62.62486,-27.305748,STD
11966656912000,1.419868,-4.48190441789022,-8.66696916810471,0.196345076076338,-0.04153884,0.022907447,0.036651913,31.910065,62.616077,-27.315481,STD
11966661973000,1.424929,-4.47717904158136,-8.6622438164668,0.198707766697865,-0.040927973,0.03176499,0.03573562,31.915188,62.608162,-27.324257,STD
11966667335000,1.430291,-4.47169675512863,-8.65676155713331,0.202072860614768,-0.041233405,0.03268129,0.039095376,31.919062,62.59799,-27.33539,STD
11966672011000,1.434967,-4.45673478265954,-8.6417996293017,0.223447092970264,-0.035430185,0.034513887,0.053145275,31.92057,62.58185,-27.352295,STD
11966677310000,1.440266,-4.43977937373872,-8.62484427096559,0.247669089816238,-0.035430185,0.029626964,0.044593163,31.919683,62.572468,-27.362394,STD
11966681972000,1.444928,-4.42486219759439,-8.60992713932509,0.268979327464083,-0.038789943,0.041233405,0.049785517,31.924555,62.555492,-27.380219,STD
11966687057000,1.450013,-4.40859153249487,-8.59365652276741,0.292223119493103,-0.034513887,0.032070424,0.049480084,31.91724,62.54229,-27.39407,STD
11966692019000,1.454975,-4.39989486712894,-8.58677182312011,0.287820757552186,-0.02687807,0.040011674,0.043066,31.919382,62.529713,-27.407547,STD
11966696957000,1.459913,-4.39308694825568,-8.58223309995681,0.276474174755507,-0.018325957,0.04550946,0.04428773,31.917933,62.515312,-27.422611,STD
11966702018000,1.464974,-4.38610945181631,-8.57758132232833,0.264844961403138,-0.016798794,0.03970624,0.05009095,31.909107,62.505573,-27.432413,STD
11966706952000,1.469908,-4.37930704766064,-8.573046275733,0.253507569844042,-0.02107485,0.038789943,0.046731193,31.903917,62.498306,-27.43979,STD
11966711971000,1.474927,-4.38229682705333,-8.57978636901518,0.260389233028416,-0.019242255,0.03970624,0.040317107,31.897667,62.49042,-27.447613,STD
11966716959000,1.479915,-4.39159403966524,-8.59373247917478,0.278983672814325,-0.008246681,0.043066,0.042760566,31.892092,62.481148,-27.456753,STD
11966721960000,1.484916,-4.40411877036064,-8.60554913889181,0.281727886426243,-0.016493361,0.043982297,0.044898596,31.88822,62.475033,-27.463245,STD
11966726958000,1.489914,-4.41921650342761,-8.61561397897172,0.27166273104826,-0.0018325958,0.04550946,0.042455133,31.885794,62.469105,-27.468967,STD
11966731964000,1.49492,-4.43522573105261,-8.62372939515693,0.266616162185766,-0.0027488936,0.044593163,0.043982297,31.883202,62.46292,-27.475134,STD
11966737006000,1.499962,-4.45182790106096,-8.63084475946756,0.264244416183506,-0.005497787,0.04337143,0.04153884,31.881165,62.458496,-27.479324,STD
11966741960000,1.504916,-4.46814030689621,-8.63783593653912,0.261914065192789,-0.00030543262,0.045814894,0.04153884,31.881823,62.451283,-27.486338,STD
11966746913000,1.509869,-4.48444941995678,-8.64482570239206,0.259584184599931,-0.0018325958,0.043676864,0.04550946,31.880678,62.44399,-27.49356,STD
11966751949000,1.514905,-4.48588360511723,-8.66477299633027,0.252935078061162,-0.002443461,0.048258353,0.04550946,31.88792,62.438313,-27.498856,STD
11966756874000,1.51983,-4.47626775598369,-8.69362039311927,0.243319233948012,-0.010079277,0.049480084,0.03970624,31.893377,62.433483,-27.503426,STD
11966761886000,1.524842,-4.47526276154155,-8.70821147088303,0.22494985718252,-0.004886922,0.056199603,0.03726278,31.907333,62.425304,-27.511436,STD
11966766901000,1.529857,-4.4800765985667,-8.71302515711136,0.200880646923925,0.0015271631,0.055588737,0.033292156,31.91922,62.419445,-27.517195,STD
11966771901000,1.534857,-4.48778197424893,-8.71197583905579,0.209045656351931,-0.0061086523,0.057421334,0.030848695,31.933247,62.417473,-27.51936,STD
11966776873000,1.539829,-4.49728703483382,-8.70722343282763,0.237561006834015,0.0036651916,0.063224554,0.027488936,31.948147,62.416428,-27.520199,STD
11966781889000,1.544845,-4.49823681946299,-8.69959306420907,0.247565873754141,0.004581489,0.08032878,0.021991149,31.967367,62.41086,-27.525644,STD
11966786974000,1.54993,-4.49342074135885,-8.6899607822776,0.245157824644217,0.0106901415,0.089186326,0.02321288,31.98552,62.404125,-27.531979,STD
11966791891000,1.554847,-4.48876377851951,-8.68064673502942,0.242829333498986,0.0033597588,0.08399397,0.015882496,32.004868,62.40377,-27.532234,STD
11966796879000,1.559835,-4.4840395705385,-8.67119819574247,0.240467219642486,0.006414085,0.09193522,0.014966198,32.03078,62.40086,-27.534979,STD
11966801876000,1.564832,-4.47928566294487,-8.66435023237962,0.242080029553385,0.004886922,0.09162979,0.018936822,32.054916,62.401283,-27.534676,STD
11966806891000,1.569847,-4.47449776530256,-8.65956245972485,0.24686794969345,0.015271631,0.112704635,0.016493361,32.088017,62.403294,-27.532799,STD
11966811873000,1.574829,-4.46974137326787,-8.65480619185525,0.251624364077859,0.02321288,0.10903945,0.018936822,32.11287,62.40245,-27.533651,STD
11966816862000,1.579818,-4.4649782982255,-8.65004324115243,0.256387461501346,0.01740966,0.12034045,0.022907447,32.14867,62.401703,-27.534832,STD
11966821834000,1.58479,-4.47229434683685,-8.63360335571587,0.279954179372919,0.014966198,0.1160644,0.020463986,32.18165,62.40341,-27.533163,STD
11966826876000,1.589832,-4.49015819200888,-8.60680735479097,0.320148073503515,0.019547688,0.118202426,0.015577064,32.21953,62.404396,-27.532375,STD
11966831853000,1.594809,-4.5073873213477,-8.58949765095839,0.345663372157116,0.019242255,0.12370021,0.009773844,32.25765,62.41168,-27.525799,STD
11966836898000,1.599854,-4.52418169996027,-8.58709840748833,0.34806257053332,0.024129177,0.12034045,0.02076942,32.292603,62.414917,-27.523012,STD
11966841845000,1.604801,-4.5406498448555,-8.5847457697388,0.350415164064952,0.027794369,0.11575896,0.01985312,32.324013,62.417828,-27.520214,STD
11966846876000,1.609832,-4.55739761865131,-8.58235318422882,0.352807704606217,0.031154128,0.12797627,0.013744468,32.359024,62.418777,-27.519432,STD
11966851878000,1.614834,-4.57570197373727,-8.57913788267273,0.352660688253435,0.025961773,0.11056661,0.019547688,32.382233,62.416477,-27.521671,STD
11966856878000,1.619834,-4.59700060475437,-8.57440500731442,0.347927659687654,0.028710667,0.11575896,0.014966198,32.416157,62.418423,-27.519793,STD
11966861867000,1.624823,-4.61825237878324,-8.5696825442819,0.343205043784719,0.018020526,0.11789699,0.016187929,32.45084,62.414944,-27.5236,STD
11966866887000,1.629843,-4.6396362043244,-8.56493073742216,0.338453083104675,0.009468411,0.11575896,0.02076942,32.48509,62.41152,-27.527277,STD
11966871886000,1.634842,-4.65720648555362,-8.55734827166958,0.340945093887919,0.018325957,0.10781772,0.019547688,32.523205,62.411163,-27.527657,STD
11966876898000,1.639854,-4.66651420787279,-8.54338668819081,0.359560159491953,0.022602014,0.10598512,0.014049901,32.561745,62.41072,-27.528406,STD
11966881886000,1.644842,-4.67691099293163,-8.53179197450753,0.38149647612978,0.018325957,0.10262536,0.014049901,32.60088,62.401344,-27.538229,STD
11966886906000,1.649862,-4.69083780888374,-8.52714958941676,0.413992512514484,0.0125227375,0.098043874,0.024740042,32.63819,62.390347,-27.549597,STD
11966891880000,1.654836,-4.69997570231585,-8.52186697639619,0.43829649297408,0.01740966,0.092240654,0.01863139,32.659542,62.373924,-27.565758,STD
11966896874000,1.65983,-4.68719587527389,-8.51334732893917,0.425516612553665,0.010079277,0.09040806,0.024740042,32.68021,62.351665,-27.588102,STD
11966902432000,1.665388,-4.67474745840448,-8.50330109979131,0.412706581152533,0.014966198,0.092240654,0.021380283,32.697624,62.33241,-27.606842,STD
11966907007000,1.669963,-4.70384028353254,-8.48252047941567,0.433487223227092,0.006414085,0.08979719,0.01863139,32.712856,62.312046,-27.627035,STD
11966911907000,1.674863,-4.73499981208499,-8.46026364010624,0.455744085776892,0.008552114,0.089491755,0.024740042,32.72821,62.29004,-27.648712,STD
11966916997000,1.679953,-4.74796230506213,-8.46748511044639,0.467129581692591,0.005192355,0.08582657,0.024129177,32.741665,62.27137,-27.667267,STD
11966922155000,1.685111,-4.75705514933272,-8.48112425816843,0.476222482931431,0.014660766,0.07696902,0.03145956,32.753075,62.248837,-27.689384,STD
11966927005000,1.689961,-4.75642183015537,-8.48830227169088,0.475589136021994,0.013133603,0.067500606,0.030848695,32.759518,62.220665,-27.717146,STD
11966931962000,1.694918,-4.75163251398305,-8.49309173789346,0.470799754836562,0.011911872,0.07147124,0.03145956,32.767498,62.19061,-27.746696,STD
11966937061000,1.700017,-4.7435817940535,-8.4848562325773,0.472520769572065,0.0070249503,0.058337633,0.026572637,32.77041,62.16933,-27.76788,STD
11966942060000,1.705016,-4.73430108296016,-8.47093515382379,0.477161120273335,0.020158553,0.057421334,0.029932396,32.778484,62.145706,-27.79127,STD
11966947002000,1.709958,-4.72512619313754,-8.45717280711447,0.481748560394495,0.02321288,0.05589417,0.03268129,32.782288,62.12534,-27.811575,STD
11966952001000,1.714957,-4.7158454820442,-8.44325172836096,0.486388911095764,0.015271631,0.056505036,0.035430185,32.78655,62.104446,-27.832396,STD
11966956985000,1.719941,-4.71732049053859,-8.44269857717705,0.48565141917045,0.011911872,0.05222898,0.03848451,32.788795,62.083027,-27.853556,STD
11966962006000,1.724962,-4.72724318221213,-8.45262142426744,0.480690099236484,0.0027488936,0.057421334,0.033292156,32.79448,62.063927,-27.87276,STD
11966967008000,1.729964,-4.74592215330068,-8.45182707016141,0.477342399977512,-0.0030543262,0.058337633,0.034513887,32.80406,62.04417,-27.891989,STD
11966971986000,1.734942,-4.76974570554695,-8.44467985522962,0.47496003728999,0.004886922,0.054061573,0.034513887,32.81362,62.02652,-27.90904,STD
11966976974000,1.73993,-4.79361711547149,-8.43751828269452,0.472572888819649,0.004581489,0.052839845,0.028405234,32.822433,62.00828,-27.926994,STD
11966981997000,1.744953,-4.81765602727,-8.4303064585478,0.47016899010944,-0.0070249503,0.057726767,0.03023783,32.83176,61.98828,-27.946814,STD
11966987007000,1.749963,-4.81923137367999,-8.43357358601343,0.481230454607755,-0.004276057,0.045814894,0.034208454,32.835285,61.969547,-27.964947,STD
11966991997000,1.754953,-4.80726157305881,-8.44314962649033,0.500382155599639,-0.0033597588,0.05375614,0.029626964,32.84686,61.953354,-27.981045,STD
11966996929000,1.759885,-4.79543090038072,-8.45261436228835,0.519311251650135,-0.008246681,0.057421334,0.02107485,32.859425,61.929634,-28.00472,STD
11967001932000,1.764888,-4.78342991591023,-8.46221535036569,0.538512846853021,-0.0070249503,0.04184427,0.020463986,32.868214,61.905342,-28.028738,STD
11967006897000,1.769853,-4.77023437811487,-8.47162603514973,0.537285660170839,-0.013439035,0.054061573,0.025350908,32.887096,61.882587,-28.051777,STD
11967011917000,1.774873,-4.75607369004418,-8.48106619813451,0.523124942527246,-0.014660766,0.04337143,0.020463986,32.89358,61.86313,-28.071024,STD
11967016963000,1.779919,-4.75291603653556,-8.47377199497033,0.511508010985816,-0.015882496,0.04795292,0.022296581,32.9022,61.84715,-28.086712,STD
11967022083000,1.785039,-4.75784840792677,-8.45404240639775,0.501643170346042,-0.012217305,0.032986723,0.015271631,32.901173,61.835335,-28.097874,STD
11967026935000,1.789891,-4.75687226575708,-8.44394319264422,0.493792822314993,-0.021685716,0.025045475,0.0125227375,32.904106,61.824802,-28.108248,STD
11967031891000,1.794847,-4.75217975767463,-8.43925056206436,0.486754016092244,-0.034513887,0.029321533,0.018020526,32.90618,61.814137,-28.118744,STD
11967036938000,1.799894,-4.7474010877206,-8.43447176736369,0.47958596625241,-0.02565634,0.0290161,0.018325957,32.91498,61.80579,-28.126492,STD
11967041914000,1.80487,-4.74268964296307,-8.42976019961442,0.472518754839092,-0.021685716,0.030848695,0.02321288,32.925583,61.795048,-28.13705,STD
11967046899000,1.809855,-4.73925010380962,-8.42124301904809,0.474341107412512,-0.03268129,0.036651913,0.023823744,32.93728,61.785706,-28.146374,STD
11967051965000,1.814921,-4.73686214944628,-8.40930324723138,0.483892929852833,-0.03573562,0.03390302,0.025961773,32.946583,61.774498,-28.157288,STD
11967056889000,1.819845,-4.73454112945317,-8.39769814726584,0.493177014672442,-0.04062254,0.032070424,0.0290161,32.959126,61.76349,-28.168457,STD
11967061940000,1.824896,-4.73216024562189,-8.38579372810947,0.50270055496973,-0.039095376,0.035124753,0.02321288,32.972267,61.754494,-28.177567,STD
11967066913000,1.829869,-4.7376957897915,-8.38420816955153,0.512072829634146,-0.03604105,0.028710667,0.0290161,32.993923,61.745197,-28.186605,STD
11967072167000,1.835123,-4.75254128509048,-8.39410540755311,0.521969891951219,-0.047647487,0.026267206,0.032070424,33.01747,61.73856,-28.19332,STD
11967076918000,1.839874,-4.75537744667674,-8.3967121672709,0.522428810793555,-0.03940081,0.0290161,0.032986723,33.038536,61.733463,-28.19842,STD
11967081915000,1.844871,-4.7457389734139,-8.39189280483384,0.512790257015106,-0.040927973,0.025961773,0.03268129,33.056522,61.728203,-28.203997,STD
11967086911000,1.849867,-4.74268679637316,-8.39795214023125,0.501068853143591,-0.03573562,0.016798794,0.03176499,33.076748,61.722744,-28.209291,STD
11967091934000,1.85489,-4.74744065212966,-8.41696746397865,0.486807290838027,-0.033292156,0.016187929,0.027794369,33.098347,61.718277,-28.213734,STD
11967096860000,1.859816,-4.74912621944192,-8.4295302016341,0.481750590661283,-0.037873644,0.021991149,0.034513887,33.11339,61.707363,-28.224453,STD
11967102023000,1.864979,-4.74676370721487,-8.43425532476468,0.488838124875532,-0.042455133,0.009162978,0.031154128,33.12212,61.70051,-28.230877,STD
11967106947000,1.869903,-4.74451055784318,-8.43876171761671,0.495597570637871,-0.03145956,0.010079277,0.036957346,33.13807,61.68941,-28.241701,STD
11967112011000,1.874967,-4.74219334654785,-8.44339623699173,0.502549202104257,-0.041233405,0.019547688,0.03359759,33.152588,61.682476,-28.248802,STD
11967116921000,1.879877,-4.74417022424642,-8.45282851923272,0.502703122072465,-0.03359759,0.0070249503,0.035430185,33.166172,61.675335,-28.255438,STD
11967122006000,1.884962,-4.7589976466051,-8.4775408038161,0.482933284084035,-0.03604105,0.005192355,0.03359759,33.185978,61.67054,-28.260315,STD
11967126940000,1.889896,-4.76790901194826,-8.49328701194826,0.473286404342846,-0.044593163,0.00580322,0.03359759,33.19465,61.663273,-28.267233,STD
11967131989000,1.894945,-4.76313422444949,-8.48851222444949,0.487610482655278,-0.03726278,0.0061086523,0.029932396,33.20256,61.657417,-28.272472,STD
11967137059000,1.900015,-4.75721137981953,-8.48012775963905,0.501686405974843,-0.027183503,0.004581489,0.026267206,33.21095,61.64869,-28.280653,STD
11967142652000,1.905608,-4.74744695310364,-8.46059890620727,0.516333148008386,-0.037873644,-0.003970624,0.032986723,33.21695,61.638447,-28.29056,STD
11967146995000,1.909951,-4.74069818053137,-8.44549322881735,0.526188357473009,-0.032070424,0.00030543262,0.027794369,33.2249,61.63304,-28.295086,STD
11967152033000,1.914989,-4.74309869391015,-8.42868953490223,0.518986804803722,-0.030848695,0.00030543262,0.0290161,33.2252969118828,61.6283933500602,-28.299476806102,STD
11967156959000,1.919915,-4.74544584137022,-8.412259404647,0.511945350169163,-0.044898596,-0.008246681,0.03176499,33.225685,61.62385,-28.30377,STD
11967161994000,1.92495,-4.74784492530474,-8.39546571690134,0.504748085840092,-0.043066,-0.0036651916,0.029932396,33.230564,61.617867,-28.308893,STD
11967167101000,1.930057,-4.75042665031606,-8.38036672132924,0.498985013021492,-0.037873644,-0.010995574,0.032070424,33.227085,61.60684,-28.31867,STD
11967172056000,1.935012,-4.75471169171934,-8.3889370726025,0.511840293836915,-0.04337143,-0.008857546,0.03481932,33.228245,61.596584,-28.328026,STD
11967176978000,1.939934,-4.75896819500632,-8.39745034585516,0.52460995926043,-0.055588737,-0.022602014,0.02687807,33.224087,61.583908,-28.339684,STD
11967182036000,1.944992,-4.76334474582091,-8.40253174582091,0.50469435447366,-0.062002823,-0.01038471,0.0290161,33.22903,61.567966,-28.354944,STD
11967186977000,1.949933,-4.76762051676154,-8.40680751676154,0.479040228867805,-0.059253927,-0.0143553335,0.03268129,33.22448,61.55427,-28.367712,STD
11967192015000,1.954971,-4.75711185281711,-8.42664423661745,0.475332587254193,-0.055283304,-0.019547688,0.034513887,33.220654,61.53913,-28.38174,STD
11967197014000,1.95997,-4.73787933371497,-8.45549304037361,0.484948836764086,-0.05497787,-0.013744468,0.025045475,33.21941,61.52662,-28.393263,STD
11967202016000,1.964972,-4.73248267100633,-8.47821770372977,0.476097370693174,-0.05955936,-0.016187929,0.028405234,33.21919,61.513206,-28.40645,STD
11967207013000,1.969969,-4.73488818370363,-8.49746170483563,0.45685325153212,-0.06536258,-0.027488936,0.03145956,33.21812,61.50282,-28.416601,STD
11967212273000,1.975229,-4.73742030233236,-8.51771854810496,0.436596283994169,-0.05222898,-0.021685716,0.035430185,33.218464,61.496506,-28.42234,STD
11967216996000,1.979952,-4.7396939137931,-8.53590734482759,0.418407375689655,-0.055588737,-0.0143553335,0.03023783,33.21585,61.49257,-28.426065,STD
11967222354000,1.98531,-4.74275656198904,-8.53691931582828,0.41851390567792,-0.055588737,-0.021991149,0.026267206,33.207417,61.48519,-28.43272,STD
11967227011000,1.989967,-4.74561629234395,-8.52976995261454,0.427093147506653,-0.054061573,-0.01740966,0.030543262,33.20542,61.47717,-28.440296,STD
11967231983000,1.994939,-4.74866945517938,-8.52213700567471,0.436252690210638,-0.056199603,-0.0290161,0.03390302,33.19075,61.469368,-28.448103,STD
11967236969000,1.999925,-4.75173121501395,-8.51448256612484,0.445438024064634,-0.058643065,-0.019547688,0.035124753,33.184673,61.461178,-28.456558,STD
11967241983000,2.004939,-4.75481016884678,-8.50678514135488,0.454674940218653,-0.05100725,-0.020463986,0.03481932,33.17176,61.452614,-28.464972,STD
11967246975000,2.009931,-4.75787561310955,-8.49912149068642,0.463871327422654,-0.052534413,-0.018020526,0.034208454,33.16328,61.444298,-28.473513,STD
11967251957000,2.014913,-4.75697929328634,-8.49328111148371,0.466569797816178,-0.056505036,-0.022602014,0.02565634,33.15259,61.43851,-28.479324,STD
11967256990000,2.019946,-4.7503820057487,-8.48998238160416,0.459972472389817,-0.05131268,-0.011911872,0.026572637,33.14781,61.43028,-28.48762,STD
11967261970000,2.024926,-4.74385419093895,-8.48671838899535,0.453444620090337,-0.054061573,-0.013744468,0.032986723,33.145092,61.425232,-28.49253,STD
11967266954000,2.02991,-4.73732113290446,-8.48345177470572,0.446911524535998,-0.05222898,-0.015882496,0.026572637,33.145897,61.42345,-28.494087,STD
11967271957000,2.034913,-4.73076316955242,-8.48017270743225,0.440353523521079,-0.049785517,-0.02321288,0.03390302,33.144173,61.416065,-28.501226,STD
11967276998000,2.039954,-4.72415539556529,-8.47686873419108,0.433745711584999,-0.055283304,-0.015882496,0.029626964,33.146782,61.41402,-28.503288,STD
11967281937000,2.044893,-4.7240195479793,-8.47812761724988,0.4309563,-0.045814894,-0.016493361,0.02321288,33.141823,61.409325,-28.507515,STD
11967287036000,2.049992,-4.72883293863972,-8.48294113356333,0.4309563,-0.050701816,-0.009773844,0.029321533,33.141617,61.40281,-28.514153,STD
11967292003000,2.054959,-4.73352172299162,-8.48763004031543,0.4309563,-0.04734206,-0.018325957,0.032070424,33.137604,61.400257,-28.516441,STD
11967297011000,2.059967,-4.73824921081814,-8.49235765155249,0.4309563,-0.055283304,-0.012217305,0.032070424,33.14052,61.397152,-28.519869,STD
11967301980000,2.064936,-4.73970755253621,-8.49625192884069,0.4309563,-0.043676864,-0.010079277,0.03359759,33.141247,61.39503,-28.521982,STD
11967307017000,2.069973,-4.7381124747768,-8.49944215098208,0.4309563,-0.049480084,-0.01038471,0.029932396,33.143204,61.394905,-28.522654,STD
11967311970000,2.074926,-4.73654399748033,-8.50257917108657,0.4309563,-0.042455133,0.0021380284,0.028099801,33.150284,61.39267,-28.525106,STD
11967316991000,2.079947,-4.73495398647576,-8.50575925950665,0.4309563,-0.050396383,-0.009773844,0.030543262,33.149227,61.39068,-28.527456,STD
11967321965000,2.084921,-4.73337885906355,-8.50890958012036,0.4309563,-0.047647487,-0.004581489,0.030543262,33.166977,61.396023,-28.522806,STD
11967326977000,2.089933,-4.73179169810859,-8.5120839683222,0.4309563,-0.043676864,-0.0009162979,0.028710667,33.180023,61.40107,-28.518412,STD
11967331991000,2.094947,-4.73747434976613,-8.5094274607289,0.433133524166829,-0.04337143,0.009468411,0.022907447,33.197533,61.41038,-28.51037,STD
11967337095000,2.100051,-4.75176390844865,-8.49990085616839,0.4378967269733,-0.036651913,-0.0015271631,0.03023783,33.2087,61.41587,-28.505703,STD
11967342035000,2.104991,-4.75559224524025,-8.4966684306437,0.438492711967362,-0.03756821,-0.009773844,0.020158553,33.215336,61.423496,-28.498781,STD
11967347006000,2.109962,-4.7460010244787,-8.50146416621336,0.433697076548806,-0.033292156,-0.0067195175,0.022907447,33.221645,61.424973,-28.497759,STD
11967351922000,2.114878,-4.73659653953213,-8.50224346856184,0.42899480952522,-0.0421497,-0.0027488936,0.021685716,33.230568,61.430515,-28.492973,STD
11967356995000,2.119951,-4.72700561015694,-8.49744787868917,0.424199319800612,-0.042455133,-0.010079277,0.021991149,33.2365,61.434357,-28.489523,STD
11967361988000,2.124944,-4.72042113326461,-8.49179349845384,0.425158890973347,-0.05375614,-0.0076358155,0.02107485,33.246395,61.44069,-28.484116,STD
11967366990000,2.129946,-4.71806977833407,-8.48473967918323,0.434564121644333,-0.05497787,-0.010995574,0.023823744,33.25174,61.445442,-28.479923,STD
11967371961000,2.134917,-4.71573299597506,-8.47772957610563,0.443911063200805,-0.04642576,-0.0021380284,0.019547688,33.252453,61.445168,-28.480356,STD
11967376977000,2.139933,-4.71337505988318,-8.47065601403819,0.453342617988023,-0.048563786,-0.005497787,0.026572637,33.24801,61.44116,-28.484583,STD
11967381963000,2.144919,-4.71364506755636,-8.46311389624286,0.45968673,-0.051618114,0.00061086525,0.022907447,33.249718,61.441273,-28.484724,STD
11967387059000,2.150015,-4.71951263596032,-8.45431253597836,0.45968673,-0.05100725,-0.0106901415,0.026267206,33.244526,61.43741,-28.48859,STD
11967392023000,2.154979,-4.7252282186835,-8.44573915443342,0.45968673,-0.04795292,0.0021380284,0.024740042,33.25329,61.43703,-28.488785,STD
11967397590000,2.160546,-4.7316380996303,-8.43612432464683,0.45968673,-0.048258353,0.0036651916,0.022296581,33.25464,61.436028,-28.489424,STD
11967402329000,2.165285,-4.73709461585212,-8.42793954319206,0.45968673,-0.048258353,0.01038471,0.018936822,33.261787,61.435646,-28.48958,STD
11967406977000,2.169933,-4.74244635406673,-8.41991192888488,0.45968673,-0.047647487,0.0030543262,0.023823744,33.264652,61.43356,-28.491308,STD
11967411980000,2.174936,-4.74820684165014,-8.41127118999098,0.45968673,-0.048258353,0.009162978,0.018936822,33.268734,61.43046,-28.493929,STD
11967416984000,2.17994,-4.74440856871523,-8.4169684781457,0.468218332866225,-0.04184427,0.01282817,0.021991149,33.269512,61.423702,-28.499979,STD
11967421990000,2.184946,-4.73594208557174,-8.42966802604857,0.480918066422075,-0.047036625,0.012217305,0.03145956,33.27087,61.416847,-28.506407,STD
11967426986000,2.189942,-4.73667022975667,-8.44671291615362,0.490326333230724,-0.04062254,0.017104227,0.027794369,33.27758,61.407555,-28.515125,STD
11967432154000,2.19511,-4.7511799718069,-8.47089590374279,0.495162930748559,-0.04795292,0.008857546,0.023518313,33.279716,61.396397,-28.525959,STD
11967436996000,2.199952,-4.76151079230607,-8.485051,0.494318382658816,-0.04520403,0.0076358155,0.02565634,33.282898,61.387337,-28.534304,STD
11967442023000,2.204979,-4.76659531730475,-8.485051,0.484149380444104,-0.050701816,0.0067195175,0.022296581,33.28365,61.381554,-28.53961,STD
11967446963000,2.209919,-4.77159184674447,-8.485051,0.474156368520357,-0.04886922,-0.0027488936,0.019242255,33.27534,61.372234,-28.548086,STD
11967451938000,2.214894,-4.77662377669641,-8.485051,0.464092555904842,-0.047647487,0.0070249503,0.02107485,33.273186,61.362873,-28.55695,STD
11967456900000,2.219856,-4.77217521531783,-8.47839951531783,0.457026131959884,-0.05100725,0.00030543262,0.025350908,33.262814,61.354008,-28.565102,STD
11967461893000,2.224849,-4.76024602601537,-8.46647032601537,0.452254448765093,-0.043676864,0.0009162979,0.02687807,33.25819,61.3454,-28.572962,STD
11967467238000,2.230194,-4.74747584439677,-8.45370014439677,0.447146368116954,-0.04550946,0.0036651916,0.028405234,33.251625,61.33203,-28.58597,STD
11967471898000,2.234854,-4.73634225293883,-8.44256655293883,0.442692924558427,-0.0571159,0.005192355,0.02321288,33.245216,61.320602,-28.5971,STD
11967476891000,2.239847,-4.71795728900575,-8.4397641364358,0.435338935602302,-0.057421334,-0.0033597588,0.01985312,33.236626,61.30841,-28.608732,STD
11967481877000,2.244833,-4.69426711000198,-8.44450227118476,0.425862864000794,-0.05222898,-0.00061086525,0.022907447,33.23241,61.29632,-28.62054,STD
11967486911000,2.249867,-4.66780679386783,-8.4543697938083,0.411211622742608,-0.050701816,-0.00061086525,0.027183503,33.2275448722045,61.2905692983227,-28.6262278771965,STD
11967491893000,2.254849,-4.63940118775551,-8.46857230025799,0.392274664052391,-0.048563786,0.0012217305,0.03145956,33.22273,61.284878,-28.631857,STD
11967496889000,2.259845,-4.63492004158397,-8.48945775153577,0.380741642856063,-0.049480084,0.00580322,0.025961773,33.215267,61.276875,-28.639788,STD
11967502023000,2.264979,-4.65350719827994,-8.51733836527738,0.376094890072772,-0.030543262,0.004886922,0.038179077,33.2,61.259007,-28.656559,STD
11967506941000,2.269897,-4.6657031593099,-8.5311368406901,0.375293581758282,-0.042760566,0.005192355,0.0290161,33.189766,61.257023,-28.65849,STD
11967511974000,2.27493,-4.67012649059374,-8.52671350940626,0.379716820668074,-0.03268129,-0.0009162979,0.03756821,33.17706,61.245945,-28.668598,STD
11967516939000,2.279895,-4.67290906832525,-8.51934759792416,0.384791020326501,-0.032986723,0.011911872,0.033292156,33.172085,61.241196,-28.673159,STD
11967521981000,2.284937,-4.670390566578,-8.50171861164137,0.392346373043342,-0.03573562,0.0012217305,0.033292156,33.157597,61.23294,-28.680744,STD
11967526902000,2.289858,-4.66793250487665,-8.48451269305795,0.399720409282846,-0.022907447,0.00061086525,0.03268129,33.15245,61.228207,-28.685137,STD
11967531964000,2.29492,-4.66540401303917,-8.4668137782298,0.407305731665363,-0.029932396,-0.00061086525,0.034208454,33.1438,61.22351,-28.68984,STD
11967537307000,2.300263,-4.67453731362882,-8.46057390324722,0.410739448637118,-0.027794369,0.00030543262,0.03573562,33.135868,61.218704,-28.694218,STD
11967542054000,2.30501,-4.69608795103105,-8.46919411320218,0.408584384896895,-0.02443461,-0.003970624,0.033292156,33.126095,61.2149,-28.697643,STD
11967546980000,2.309936,-4.71845122043138,-8.4781393742593,0.406348057956862,-0.027488936,0.010079277,0.035430185,33.122463,61.210613,-28.70213,STD
11967551955000,2.314911,-4.74103694216639,-8.48717361578573,0.404089485783361,-0.02443461,0.008857546,0.03573562,33.112732,61.207485,-28.705023,STD
11967556952000,2.319908,-4.75413978541686,-8.49541847691311,0.40459726286666,-0.027794369,0.015271631,0.034513887,33.11019,61.20449,-28.708233,STD
11967561975000,2.324931,-4.7229813360322,-8.49986978356621,0.41795091324697,-0.02443461,0.012217305,0.03359759,33.104286,61.201225,-28.711382,STD
11967567241000,2.330197,-4.69378165541333,-8.50496907701333,0.4282819450816,-0.028405234,0.015271631,0.033292156,33.102867,61.191036,-28.721931,STD
11967572000000,2.334956,-4.70836602336,-8.51469165056,0.3942518513472,-0.022907447,0.018936822,0.025961773,33.10093,61.183113,-28.729908,STD
11967576956000,2.339912,-4.721366,-8.5240414902294,0.36357692202209,-0.024740042,0.022296581,0.03023783,33.102367,61.18289,-28.730461,STD
11967581969000,2.344925,-4.721366,-8.52884028087361,0.361177576807437,-0.027183503,0.015882496,0.03726278,33.10178,61.183765,-28.72973,STD
11967586993000,2.349949,-4.721366,-8.53364960147933,0.358772966721975,-0.032070424,0.009468411,0.025961773,33.10634,61.183792,-28.730003,STD
11967592020000,2.354976,-4.721366,-8.53846179389275,0.356366920762657,-0.021685716,0.016798794,0.033292156,33.112892,61.17632,-28.7376,STD
11967596954000,2.35991,-4.72197422297407,-8.54129551594543,0.357991237221068,-0.027794369,0.020463986,0.01740966,33.11659,61.17917,-28.735184,STD
11967601959000,2.364915,-4.72630445908393,-8.5326347724275,0.3839729342217,-0.009162978,0.024740042,0.022907447,33.122437,61.173145,-28.741005,STD
11967606935000,2.369891,-4.73060960491463,-8.52402421103984,0.409804087923028,-0.015271631,0.024129177,0.025961773,33.128216,61.173557,-28.741049,STD
11967611972000,2.374928,-4.73557959358868,-8.51872125166528,0.414121131636137,-0.025961773,0.03145956,0.027488936,33.13779,61.1725,-28.742409,STD
11967617049000,2.380005,-4.74064010707744,-8.51366089670067,0.416651393664654,-0.02687807,0.024129177,0.026267206,33.14223,61.171272,-28.743692,STD
11967621965000,2.384921,-4.74554014338052,-8.50876101389467,0.419101416932764,-0.021380283,0.02076942,0.025045475,33.152588,61.172886,-28.742294,STD
11967626927000,2.389883,-4.74972526068173,-8.50253532694213,0.422492618923405,-0.01985312,0.02687807,0.022907447,33.163452,61.17509,-28.740425,STD
11967632000000,2.394956,-4.74491123904082,-8.4808722798256,0.436934696413,-0.025045475,0.025350908,0.026572637,33.17047,61.175896,-28.739855,STD
11967637440000,2.400396,-4.73974895287356,-8.45764204597701,0.452421568390805,-0.022907447,0.028405234,0.021380283,33.178055,61.17117,-28.743921,STD
11967642003000,2.404959,-4.73541889556084,-8.43815683328379,0.465411751632481,-0.036651913,0.02443461,0.018325957,33.18271,61.165386,-28.749418,STD
11967647101000,2.410057,-4.7302880929225,-8.41899589181916,0.479822255148009,-0.029932396,0.02076942,0.01740966,33.1884,61.16009,-28.754005,STD
11967651967000,2.414923,-4.72192767812164,-8.43153627395048,0.492362807510764,-0.026572637,0.02687807,0.012217305,33.196007,61.15733,-28.756498,STD
11967656945000,2.419901,-4.71337483289379,-8.44436529619663,0.50519200390653,-0.024740042,0.022296581,0.027794369,33.19609,61.14765,-28.765343,STD
11967661972000,2.424928,-4.71994830919659,-8.43450527050031,0.511650373298734,-0.032375857,0.024740042,0.028710667,33.200684,61.143852,-28.768602,STD
11967666948000,2.429904,-4.72984127278389,-8.41966610919659,0.516596829267179,-0.036651913,0.032070424,0.01740966,33.20534,61.13918,-28.772661,STD
11967671949000,2.434905,-4.72661117183686,-8.41368233614727,0.495489663989015,-0.03604105,0.03604105,0.024129177,33.21272,61.133965,-28.77693,STD
11967676963000,2.439919,-4.72172736652766,-8.40879837784784,0.471070372259967,-0.027488936,0.03390302,0.021991149,33.220562,61.134357,-28.775536,STD
11967681989000,2.444945,-4.72567905836397,-8.42568923345588,0.477889686268382,-0.026267206,0.03481932,0.024740042,33.229843,61.1263,-28.782444,STD
11967687141000,2.450097,-4.73045260867357,-8.44478343469427,0.487436841717299,-0.026267206,0.032986723,0.027794369,33.237423,61.118736,-28.788677,STD
11967691969000,2.454925,-4.73492595900252,-8.46267683601006,0.496383593756772,-0.02443461,0.026572637,0.02565634,33.248142,61.112774,-28.793585,STD
11967696950000,2.459906,-4.73954107043344,-8.48113728173375,0.505613869628483,-0.025961773,0.021991149,0.02076942,33.25867,61.10692,-28.798496,STD
11967701960000,2.464916,-4.73335799276596,-8.4886318470922,0.493247643273759,-0.022907447,0.013439035,0.03023783,33.265484,61.097553,-28.806688,STD
11967706980000,2.469936,-4.72426574028369,-8.49317809200946,0.475063033874232,-0.028405234,0.016187929,0.027794369,33.27458,61.093296,-28.810102,STD
11967711976000,2.474932,-4.73095219540541,-8.48983496068796,0.466068117638821,-0.033292156,0.02443461,0.014966198,33.285385,61.094376,-28.80788,STD
11967716956000,2.479912,-4.74501383108108,-8.48280422850123,0.461380900036855,-0.02076942,0.0143553335,0.03268129,33.290516,61.087154,-28.813545,STD
11967722571000,2.485527,-4.76086846648649,-8.47487700737101,0.456096015130221,-0.031154128,0.025350908,0.022602014,33.30398,61.09146,-28.8088,STD
11967726977000,2.489933,-4.77330934335135,-8.46865664471744,0.451949051123342,-0.024129177,0.025350908,0.027488936,33.30999,61.085835,-28.813097,STD
11967731998000,2.494954,-4.7788267,-8.47153938908096,0.45434099684625,-0.03268129,0.021685716,0.027794369,33.318398,61.084957,-28.813353,STD
11967736991000,2.499947,-4.7788267,-8.48072343071161,0.461229068826467,-0.034208454,0.026267206,0.028405234,33.32924,61.082275,-28.815222,STD
11967741971000,2.504927,-4.7788267,-8.48988356035725,0.468099206711803,-0.0290161,0.028405234,0.022296581,33.337334,61.07404,-28.822905,STD
11967746974000,2.50993,-4.7788267,-8.49908599582253,0.475001074149621,-0.04795292,0.027488936,0.027183503,33.345673,61.063282,-28.833752,STD
11967751948000,2.514904,-4.77664669483636,-8.49548493381818,0.487560459432727,-0.03634648,0.03481932,0.028099801,33.358524,61.057613,-28.839254,STD
11967757070000,2.520026,-4.77155039796364,-8.4750996398961,0.507945854464416,-0.029626964,0.03481932,0.02687807,33.368477,61.051773,-28.84537,STD
11967761970000,2.524926,-4.76428782509635,-8.4671384368587,0.512185379345313,-0.02565634,0.032375857,0.022602014,33.369877,61.041264,-28.855146,STD
11967766948000,2.529904,-4.75474311618199,-8.46952440852895,0.502640697838731,-0.03268129,0.03359759,0.018020526,33.37256,61.03159,-28.864264,STD
11967771977000,2.534933,-4.74510062097703,-8.4719348246659,0.492998230322338,-0.03604105,0.03176499,0.018936822,33.37159,61.02137,-28.873468,STD
11967776975000,2.539931,-4.73551756449772,-8.47433038240152,0.483415201360929,-0.033292156,0.025961773,0.02107485,33.369835,61.012367,-28.881472,STD
11967781970000,2.544926,-4.72970376459563,-8.47795194843061,0.477601397777557,-0.027488936,0.022296581,0.0143553335,33.362545,61.002266,-28.890427,STD
11967786989000,2.549945,-4.72732039288441,-8.48271884117618,0.475217993712996,-0.02687807,0.030543262,0.02076942,33.357323,60.988255,-28.90347,STD
11967792627000,2.555583,-4.72464307674419,-8.48807364119601,0.472540641229236,-0.026572637,0.0290161,0.021685716,33.34889,60.98057,-28.91008,STD
11967796966000,2.559922,-4.72258261652204,-8.49219469073239,0.47048015303714,-0.029626964,0.02321288,0.02321288,33.34185,60.971245,-28.91849,STD
11967801986000,2.564942,-4.72283626335842,-8.49021717154367,0.470733793337497,-0.03268129,0.01740966,0.02107485,33.343864,60.97328,-28.91665,STD
11967807022000,2.569978,-4.72584856859561,-8.48118017719622,0.473746119020018,-0.028099801,0.022907447,0.016187929,33.34763,60.975494,-28.914593,STD
11967811953000,2.574909,-4.72879806762749,-8.47233160310421,0.476695638070954,-0.030543262,0.019547688,0.017104227,33.346416,60.978157,-28.912153,STD
11967816998000,2.579954,-4.73181575625371,-8.46327845844914,0.479713347179039,-0.040011674,0.029932396,0.026267206,33.351357,60.97978,-28.911064,STD
11967822904000,2.58586,-4.73534845576341,-8.45268026769932,0.483246070666125,-0.043982297,0.019242255,0.02565634,33.352623,60.987854,-28.903511,STD
11967827008000,2.589964,-4.73780328115924,-8.44531572742888,0.485700912723525,-0.032375857,0.026572637,0.023518313,33.362823,60.993366,-28.898718,STD
11967832001000,2.594957,-4.7405195,-8.43695140063751,0.487554770109573,-0.03634648,0.029932396,0.029321533,33.361153,60.993385,-28.899557,STD
11967837020000,2.599976,-4.7405195,-8.43455738913238,0.477978919069628,-0.025961773,0.03268129,0.028099801,33.36178,60.99533,-28.897923,STD
11967841974000,2.60493,-4.7405195,-8.43219438196035,0.468527082836936,-0.031154128,0.029626964,0.024129177,33.367344,60.996704,-28.897379,STD
11967846998000,2.609954,-4.7405195,-8.42979798550653,0.458941692196434,-0.032070424,0.029626964,0.03023783,33.374496,60.995113,-28.89952,STD
11967852007000,2.614963,-4.7407513751792,-8.42735813087387,0.450573683021759,-0.027488936,0.025350908,0.027794369,33.37928,60.996975,-28.89808,STD
11967857001000,2.619957,-4.7437987031922,-8.42431088241104,0.456668374049826,-0.03023783,0.021380283,0.020463986,33.384003,60.998604,-28.897049,STD
11967862367000,2.625323,-4.74707302480168,-8.42103664627736,0.463217054878142,-0.032070424,0.025961773,0.025350908,33.39121,60.994843,-28.901396,STD
11967866996000,2.629952,-4.74989763060308,-8.41821211421199,0.468866298924783,-0.034208454,0.021685716,0.016493361,33.394405,60.997116,-28.89959,STD
11967871922000,2.634878,-4.75290346516296,-8.41520635811909,0.474878002570009,-0.02443461,0.018936822,0.024740042,33.39917,60.99285,-28.90416,STD
11967877004000,2.63996,-4.75600449058587,-8.41210541364809,0.481080089034694,-0.023518313,0.024740042,0.01863139,33.405552,60.995373,-28.90222,STD
11967881952000,2.644908,-4.75902374949823,-8.40908623355315,0.487118641539074,-0.021380283,0.02687807,0.018325957,33.40957,60.99363,-28.904205,STD
11967887050000,2.650006,-4.7634472294744,-8.41409823583431,0.48464293431907,-0.02565634,0.027183503,0.025961773,33.421013,60.992493,-28.90544,STD
11967891914000,2.65487,-4.76799801087339,-8.42092427725674,0.480092169551583,-0.029932396,0.017715093,0.022907447,33.429836,60.994324,-28.903553,STD
11967897008000,2.659964,-4.77276398135991,-8.4280730961313,0.475326216483001,-0.03726278,0.01985312,0.026267206,33.440872,60.990646,-28.907312,STD
11967901934000,2.66489,-4.77737277025205,-8.43498614712778,0.470717444434349,-0.035124753,0.02565634,0.024740042,33.449974,60.989094,-28.908752,STD
11967906999000,2.669955,-4.7771387585492,-8.43885499432731,0.464199639245984,-0.03481932,0.028099801,0.023823744,33.458466,60.986614,-28.91132,STD
11967911922000,2.674878,-4.77477198675703,-8.44122184026104,0.457099244785141,-0.03634648,0.023518313,0.016493361,33.466488,60.98637,-28.911621,STD
11967916997000,2.679953,-4.77233213974398,-8.44366176370482,0.44977962221988,-0.043066,0.029932396,0.028099801,33.48288,60.98178,-28.916666,STD
11967921984000,2.68494,-4.76993459943775,-8.44605937911647,0.442586921188755,-0.04153884,0.021380283,0.02107485,33.492966,60.984318,-28.914164,STD
11967927008000,2.689964,-4.77097475461504,-8.44156975416479,0.443982650652859,-0.03970624,0.021991149,0.02687807,33.513275,60.98444,-28.914751,STD
11967932085000,2.695041,-4.77340713772075,-8.43427263024664,0.448847475281905,-0.033292156,0.02076942,0.021991149,33.53001,60.989227,-28.91038,STD
11967937082000,2.700038,-4.77580119294612,-8.42709048956926,0.453635643229776,-0.03848451,0.02107485,0.03145956,33.55139,60.991055,-28.909462,STD
11967942073000,2.705029,-4.77819237358047,-8.41991697263495,0.45841806192656,-0.03756821,0.014660766,0.028405234,33.569923,60.997242,-28.90377,STD
11967947004000,2.70996,-4.7788267,-8.42304991748469,0.461365390779959,-0.03390302,0.02443461,0.030543262,33.601376,61.004196,-28.897808,STD
11967951986000,2.714942,-4.7788267,-8.4300055429099,0.46368396244776,-0.03848451,0.011301007,0.022602014,33.622784,61.014618,-28.888147,STD
11967956970000,2.719926,-4.7788267,-8.43696396063757,0.466003464895034,-0.03726278,0.018325957,0.022296581,33.65152,61.017727,-28.885553,STD
11967962011000,2.724967,-4.7788267,-8.44400195898533,0.468349494557294,-0.03726278,0.01740966,0.025045475,33.67287,61.022068,-28.881582,STD
11967967010000,2.729966,-4.7788267,-8.44956650873956,0.46644107167751,-0.042455133,0.023823744,0.03268129,33.69207,61.021526,-28.882668,STD
11967971987000,2.734943,-4.7788267,-8.45419505107788,0.461812628415226,-0.04062254,0.016493361,0.024740042,33.70622,61.024414,-28.87997,STD
11967976953000,2.739909,-4.7788267,-8.45881336356574,0.457194414784424,-0.034208454,0.017104227,0.021380283,33.723515,61.024998,-28.879679,STD
11967982052000,2.745008,-4.7788267,-8.46355536424548,0.452452515609342,-0.03756821,0.012217305,0.022296581,33.73628,61.026703,-28.87828,STD
11967987016000,2.749972,-4.7764256508306,-8.47069999805168,0.445307773996103,-0.029932396,0.016493361,0.028710667,33.744205,61.022396,-28.88239,STD
11967991962000,2.754918,-4.77156855913659,-8.4804139785685,0.435593473957137,-0.030848695,0.022602014,0.03176499,33.751053,61.019066,-28.88575,STD
11967996976000,2.759932,-4.76925,-8.47867655813137,0.437330748524763,-0.037873644,0.019547688,0.03268129,33.758198,61.015938,-28.888985,STD
11968002005000,2.764961,-4.76925,-8.46659323051834,0.449414088755081,-0.03940081,0.017104227,0.030543262,33.76737,61.012722,-28.89229,STD
11968006942000,2.769898,-4.76925,-8.45473095403683,0.461276377623062,-0.04337143,0.01863139,0.027183503,33.777134,61.011005,-28.894403,STD
11968012102000,2.775058,-4.76925,-8.44233286883436,0.473674475771489,-0.03726278,0.018020526,0.031154128,33.785175,61.007587,-28.897966,STD
11968016878000,2.779834,-4.76683668054889,-8.44440695835332,0.474013806854429,-0.030543262,0.016187929,0.032070424,33.78744,61.007523,-28.898947,STD
11968022428000,2.785384,-4.76173617675847,-8.45970846972459,0.463813001653392,-0.030848695,0.014660766,0.030848695,33.789528,61.00691,-28.900457,STD
11968026913000,2.789869,-4.76411765844815,-8.46145327193618,0.464131369883974,-0.038789943,0.015577064,0.024129177,33.78985,61.006393,-28.901606,STD
11968031898000,2.794854,-4.77400900771781,-8.4515617677406,0.47402267784005,-0.026572637,0.020158553,0.030543262,33.790726,61.00206,-28.906155,STD
11968036936000,2.799892,-4.77635339829804,-8.44179724163863,0.468947026974075,-0.02565634,0.019242255,0.027794369,33.779938,60.999775,-28.909142,STD
11968041916000,2.804872,-4.77163422493568,-8.43235859924797,0.450070111775183,-0.04062254,0.017715093,0.0290161,33.770554,60.994755,-28.91497,STD
11968046891000,2.809847,-4.76774041832372,-8.42608047349359,0.44279746226859,-0.040011674,0.0125227375,0.027488936,33.75982,60.9892,-28.920826,STD
11968051921000,2.814877,-4.76465249809936,-8.42299266612179,0.447429321646795,-0.028710667,0.016187929,0.02443461,33.751743,60.983997,-28.926483,STD
11968056853000,2.819809,-4.76162474013782,-8.4199650188141,0.451970938039103,-0.028405234,0.012217305,0.027183503,33.741886,60.977325,-28.933884,STD
11968061922000,2.824878,-4.75851287778846,-8.41685327019231,0.456638710442308,-0.022602014,0.01985312,0.028099801,33.73728,60.971832,-28.9399,STD
11968066921000,2.829877,-4.75544398848398,-8.41378449304487,0.461242023569872,-0.03970624,0.013133603,0.033292156,33.724392,60.962032,-28.950165,STD
11968072002000,2.834958,-4.75232475932692,-8.41066537788462,0.465920846134615,-0.03359759,0.014049901,0.03359759,33.716797,60.95302,-28.959198,STD
11968076915000,2.839871,-4.74890615718714,-8.41438771406431,0.471643809353933,-0.03359759,0.02107485,0.03145956,33.70928,60.944016,-28.968695,STD
11968081929000,2.844885,-4.74425504567997,-8.43764327160016,0.480946046938202,-0.039095376,0.022907447,0.03359759,33.700596,60.933975,-28.97915,STD
11968086943000,2.849899,-4.73957237559118,-8.45537385581162,0.485575774795591,-0.03390302,0.013133603,0.028710667,33.68512,60.92523,-28.987703,STD
11968091915000,2.854871,-4.73480124837675,-8.45060262895792,0.471262383188377,-0.0290161,0.013439035,0.0290161,33.67379,60.91485,-28.998154,STD
11968096941000,2.859897,-4.73187704462674,-8.44861272827881,0.457818037819629,-0.038789943,0.024129177,0.025961773,33.658825,60.909588,-29.003569,STD
11968102027000,2.864983,-4.73660547922532,-8.45806979497136,0.44836115381031,-0.03390302,0.029626964,0.024129177,33.64267,60.903763,-29.009079,STD
11968106966000,2.869922,-4.74073057410811,-8.46610905647599,0.440110951783771,-0.044593163,0.03023783,0.028099801,33.6257,60.89645,-29.016954,STD
11968111957000,2.874913,-4.74217566446971,-8.46755402612166,0.437220771060588,-0.038179077,0.034208454,0.021991149,33.61216,60.892315,-29.021273,STD
11968117620000,2.880576,-4.74381532520256,-8.46919354988511,0.433941449594872,-0.04886922,0.03359759,0.023518313,33.598633,60.885475,-29.028933,STD
11968122004000,2.88496,-4.74508466524368,-8.47046278389164,0.431402769512638,-0.03940081,0.029932396,0.022602014,33.585815,60.8807,-29.033955,STD
11968126969000,2.889925,-4.74652222758496,-8.47190022614584,0.428527644830088,-0.050396383,0.038179077,0.02076942,33.57698,60.876587,-29.039068,STD
11968131994000,2.89495,-4.74797716228081,-8.47335503930342,0.425617775438384,-0.04642576,0.036957346,0.023823744,33.569874,60.875473,-29.040798,STD
11968137068000,2.900024,-4.74944628439956,-8.47482403869875,0.422679531200871,-0.04428773,0.028099801,0.02076942,33.563145,60.87685,-29.040262,STD
11968141978000,2.904934,-4.74517209162647,-8.47793615560486,0.428765820273008,-0.028099801,0.025045475,0.02321288,33.55788,60.87541,-29.042202,STD
11968146975000,2.909931,-4.73593896995948,-8.4825528128497,0.442615517235192,-0.036651913,0.037873644,0.025961773,33.555088,60.875202,-29.04341,STD
11968151960000,2.914916,-4.73788925652957,-8.4873665752597,0.447794395843757,-0.036651913,0.037873644,0.025961773,33.54958,60.875465,-29.04372,STD
11968156986000,2.919942,-4.75319543501166,-8.49246875906296,0.44269230260865,-0.035430185,0.0290161,0.016187929,33.545475,60.87785,-29.042063,STD
11968161969000,2.924925,-4.75832519261814,-8.49193230079338,0.443228747133494,-0.039095376,0.03848451,0.026267206,33.544662,60.876846,-29.043877,STD
11968166947000,2.929903,-4.75597596812694,-8.48723370462721,0.447927252536343,-0.029626964,0.040927973,0.023518313,33.539017,60.881897,-29.039133,STD
11968172029000,2.934985,-4.75357766381511,-8.48243694574484,0.452723918759178,-0.033292156,0.049480084,0.02443461,33.539715,60.88144,-29.040476,STD
11968176975000,2.939931,-4.75124354080717,-8.47776855349135,0.457392220832799,-0.03390302,0.044898596,0.024129177,33.536983,60.881824,-29.040583,STD
11968181977000,2.944933,-4.75127482267375,-8.47193844428489,0.45968673,-0.030848695,0.05467244,0.023823744,33.538208,60.878376,-29.044449,STD
11968187602000,2.950558,-4.75385327076393,-8.46420312693854,0.45968673,-0.026267206,0.050701816,0.02687807,33.533512,60.874115,-29.04889,STD
11968191969000,2.954925,-4.75585506326345,-8.45819777034272,0.45968673,-0.034513887,0.04550946,0.03145956,33.530518,60.86998,-29.053371,STD
11968196976000,2.959932,-4.75815022585679,-8.45131230652882,0.45968673,-0.029321533,0.048563786,0.022296581,33.529144,60.86864,-29.054739,STD
11968201948000,2.964904,-4.76730446913938,-8.44979665140539,0.465791908498986,-0.03634648,0.040317107,0.0143553335,33.52243,60.866184,-29.05744,STD
11968206986000,2.969942,-4.79060588824495,-8.45911741369651,0.484433053515889,-0.03940081,0.04428773,0.021380283,33.520725,60.861954,-29.061901,STD
11968211956000,2.974912,-4.80625841380923,-8.46719649127182,0.494098146680175,-0.038789943,0.04153884,0.016493361,33.512684,60.860664,-29.06337,STD
11968216946000,2.979902,-4.80129293864298,-8.47216160349127,0.47920155007793,-0.03481932,0.048258353,0.024740042,33.508965,60.853752,-29.070606,STD
11968222700000,2.985656,-4.79695709252765,-8.4744508780015,0.475402773381504,-0.040011674,0.04153884,0.009773844,33.499573,60.852993,-29.071499,STD
11968226978000,2.989934,-4.79515202796405,-8.47264596422435,0.486233175841741,-0.025350908,0.03390302,0.016798794,33.491882,60.84333,-29.080902,STD
11968231970000,2.994926,-4.79304569736529,-8.47053980957836,0.498871177029563,-0.035430185,0.05131268,0.01863139,33.49416,60.843655,-29.081509,STD
11968236976000,2.999932,-4.79093345958937,-8.46842774824867,0.511544621329691,-0.03390302,0.050701816,0.013744468,33.488144,60.84342,-29.081867,STD
11968241920000,3.004876,-4.78884738216945,-8.46634184508966,0.524061103275323,-0.03756821,0.04184427,0.0125227375,33.485073,60.841923,-29.083864,STD
11968246971000,3.009927,-4.79033071533816,-8.44855290096618,0.520942743923611,-0.028099801,0.03940081,0.009773844,33.48398,60.841946,-29.084099,STD
11968251934000,3.01489,-4.79272250571659,-8.42702658776168,0.513767360300926,-0.038789943,0.04428773,0.017715093,33.482315,60.839706,-29.087029,STD
11968257103000,3.020059,-4.79521357250403,-8.40460677858293,0.50629414693287,-0.029932396,0.031154128,0.009773844,33.476803,60.84866,-29.078026,STD
11968261938000,3.024894,-4.79754367657005,-8.383635647343,0.499303822569444,-0.027488936,0.03970624,0.009773844,33.479717,60.85322,-29.074018,STD
11968266956000,3.029912,-4.7979803,-8.38229802422168,0.492810007110511,-0.03481932,0.03176499,0.011301007,33.473003,60.859432,-29.068043,STD
11968271952000,3.034908,-4.7979803,-8.38544728322254,0.486511617354703,-0.03481932,0.023518313,0.012217305,33.468937,60.86543,-29.062168,STD
11968276976000,3.039932,-4.7979803,-8.38861419219377,0.480177928376884,-0.038179077,0.032070424,0.01985312,33.473442,60.86457,-29.06351,STD
11968281987000,3.044943,-4.7979803,-8.39177290653591,0.47386062832357,-0.042760566,0.03726278,0.027183503,33.474136,60.8635,-29.064953,STD
11968287026000,3.049982,-4.7979803,-8.39494927084842,0.467508029048246,-0.03176499,0.038789943,0.024740042,33.47353,60.860973,-29.067577,STD
11968291954000,3.05491,-4.7979803,-8.39805566563549,0.461295365974462,-0.032070424,0.03726278,0.027794369,33.473484,60.855167,-29.0738,STD
11968296970000,3.059926,-4.80334055621072,-8.39528642123117,0.463260237871895,-0.036651913,0.029321533,0.03176499,33.471863,60.849728,-29.079462,STD
11968301969000,3.064925,-4.81050524091589,-8.39050986501048,0.468036699329542,-0.03756821,0.03481932,0.030848695,33.474186,60.844845,-29.084623,STD
11968306979000,3.069935,-4.81768569108051,-8.38572279826399,0.47282367110446,-0.038179077,0.03604105,0.030543262,33.472553,60.83429,-29.094994,STD
11968311973000,3.074929,-4.82484320966776,-8.38095101955502,0.477595355145166,-0.03481932,0.042760566,0.027488936,33.474667,60.82498,-29.104181,STD
11968316950000,3.079906,-4.82332852218591,-8.3898528512929,0.482222563130828,-0.02443461,0.041233405,0.03268129,33.474453,60.813526,-29.11533,STD
11968321952000,3.084908,-4.81872382609824,-8.40366737229645,0.486827307300779,-0.028710667,0.02443461,0.036957346,33.471516,60.803623,-29.125055,STD
11968326980000,3.089936,-4.8201733891645,-8.4114764843765,0.497535409531776,-0.020463986,0.022907447,0.03634648,33.473343,60.790867,-29.137308,STD
11968331978000,3.094934,-4.82477528769349,-8.41607852706471,0.511341244472647,-0.023518313,0.02687807,0.030543262,33.47166,60.779045,-29.148817,STD
11968336985000,3.099941,-4.82915958904538,-8.42168728242595,0.518371992194006,-0.021685716,0.027794369,0.038179077,33.4747,60.76964,-29.157625,STD
11968341983000,3.104939,-4.83337285839092,-8.42800709845517,0.520478640065138,-0.021380283,0.03145956,0.029626964,33.480156,60.766712,-29.160128,STD
11968346967000,3.109923,-4.83757432586154,-8.43430921191849,0.522579386961841,-0.020463986,0.030543262,0.038789943,33.48807,60.760918,-29.16554,STD
11968351961000,3.114917,-4.84178422324282,-8.44062397007174,0.52468434884028,-0.020463986,0.033292156,0.033292156,33.49845,60.7617,-29.164469,STD
11968357249000,3.120205,-4.84393963170841,-8.44514010975701,0.523837394213084,-0.02565634,0.03726278,0.029321533,33.51045,60.7607,-29.165337,STD
11968361975000,3.124931,-4.82363609968598,-8.42822049973832,0.49338206084486,-0.032986723,0.03940081,0.033292156,33.522446,60.758953,-29.16701,STD
11968367007000,3.129963,-4.80201795048224,-8.41020537540187,0.460954799416822,-0.04520403,0.040011674,0.03481932,33.534645,60.759026,-29.167048,STD
11968371948000,3.134904,-4.78651415580049,-8.3969706163438,0.43864375580049,-0.03604105,0.03634648,0.035430185,33.54581,60.75786,-29.168032,STD
11968376986000,3.139942,-4.78114253273213,-8.39159888109553,0.433272132732131,-0.03023783,0.043066,0.034208454,33.560318,60.756977,-29.169146,STD
11968381988000,3.144944,-4.77620561092843,-8.39452534235977,0.428335183558994,-0.035124753,0.040927973,0.031154128,33.574318,60.75731,-29.169346,STD
11968387103000,3.150059,-4.77146820082205,-8.40400045938105,0.423597723984526,-0.0421497,0.03604105,0.02443461,33.58931,60.75883,-29.168314,STD
11968392002000,3.154958,-4.76851357916718,-8.408437,0.423588718668468,-0.038789943,0.036957346,0.028099801,33.612732,60.759914,-29.16744,STD
11968396980000,3.159936,-4.76704956043484,-8.408437,0.427980687730623,-0.030848695,0.03726278,0.025961773,33.634003,60.764336,-29.163206,STD
11968401943000,3.164899,-4.76558995316914,-8.408437,0.432359422655386,-0.03756821,0.03604105,0.024740042,33.65443,60.768738,-29.159224,STD
11968406964000,3.16992,-4.7641132882324,-8.408437,0.436789329578062,-0.044898596,0.038179077,0.02321288,33.675594,60.773415,-29.154858,STD
11968411970000,3.174926,-4.76264103476231,-8.408437,0.441206002363346,-0.03970624,0.023823744,0.022602014,33.692837,60.781475,-29.147203,STD
11968416946000,3.179902,-4.76117760422552,-8.408437,0.445596206873848,-0.035124753,0.018936822,0.032986723,33.713173,60.78655,-29.142788,STD
11968422438000,3.185394,-4.76001181746331,-8.40979223447497,0.450448740387655,-0.03573562,0.026267206,0.025961773,33.73257,60.7964,-29.133549,STD
11968426968000,3.189924,-4.7640938470079,-8.42611992642077,0.454530684685736,-0.047036625,0.023823744,0.02107485,33.746616,60.802513,-29.127993,STD
11968431929000,3.194885,-4.76856425508092,-8.44400109192699,0.459000999401581,-0.04337143,0.016493361,0.02565634,33.759007,60.808475,-29.122168,STD
11968436971000,3.199927,-4.78050086116905,-8.43924324313941,0.444685517812843,-0.027794369,0.018936822,0.019547688,33.77357,60.81851,-29.112312,STD
11968442450000,3.205406,-4.79490017636297,-8.42964346578851,0.425486349026711,-0.03604105,0.019242255,0.02565634,33.7845,60.82381,-29.107458,STD
11968446965000,3.209921,-4.79957403297989,-8.42918378290522,0.422973249621665,-0.036651913,0.017715093,0.02076942,33.794605,60.83424,-29.096983,STD
11968451987000,3.214943,-4.80196820797989,-8.43157803290522,0.425367449621665,-0.043676864,0.01985312,0.025961773,33.805496,60.84001,-29.091476,STD
11968456985000,3.219941,-4.80435094128335,-8.43396084085026,0.427750207805655,-0.04520403,0.024129177,0.027794369,33.818882,60.842857,-29.088919,STD
11968461971000,3.224927,-4.80672795373855,-8.43633792776782,0.430127245081641,-0.03940081,0.021991149,0.02321288,33.830578,60.84588,-29.08612,STD
11968466964000,3.22992,-4.80111575475403,-8.44038770669698,0.434176939437784,-0.032070424,0.021991149,0.029626964,33.840534,60.84433,-29.088072,STD
11968471977000,3.234933,-4.79119259482224,-8.44534941618437,0.439138545307978,-0.032986723,0.031154128,0.02321288,33.852768,60.847664,-29.085245,STD
11968477131000,3.240087,-4.7884035,-8.44792426408451,0.441713343133803,-0.040011674,0.028710667,0.025350908,33.864414,60.84891,-29.084406,STD
11968481970000,3.244926,-4.7884035,-8.44944931025405,0.44323836223246,-0.04184427,0.029321533,0.029932396,33.87974,60.85097,-29.082785,STD
11968487008000,3.249964,-4.7884035,-8.45103707272608,0.444826096520337,-0.03176499,0.032986723,0.03573562,33.893517,60.853703,-29.080313,STD
11968491980000,3.254936,-4.7884035,-8.45260403481638,0.446393030795709,-0.03268129,0.032986723,0.019242255,33.90618,60.861515,-29.072939,STD
11968496969000,3.259925,-4.7884035,-8.45417635458076,0.447965322650059,-0.024129177,0.032986723,0.021685716,33.91833,60.861095,-29.073458,STD
11968501964000,3.26492,-4.7884035,-8.45575056528893,0.449539505414637,-0.026572637,0.028710667,0.025350908,33.928936,60.865005,-29.06981,STD
11968506986000,3.269942,-4.79134232503105,-8.46807623875036,0.45304875503105,-0.025045475,0.036957346,0.025961773,33.94202,60.866367,-29.06836,STD
11968512622000,3.275578,-4.79649899311168,-8.48870280338206,0.458205423111684,-0.029321533,0.04062254,0.03023783,33.951916,60.865692,-29.069012,STD
11968516944000,3.2799,-4.79667929530583,-8.48682194466502,0.455783711841986,-0.010995574,0.03634648,0.029321533,33.962772,60.867485,-29.066757,STD
11968522042000,3.284998,-4.79422553210534,-8.47209931421822,0.448422414553953,-0.013133603,0.025961773,0.018020526,33.972603,60.871353,-29.062855,STD
11968526973000,3.289929,-4.79185214914309,-8.45785896687943,0.441302258232397,-0.022907447,0.028099801,0.025045475,33.983776,60.87092,-29.063103,STD
11968532000000,3.294956,-4.78943255957682,-8.4433413789516,0.434043481954063,-0.01863139,0.029932396,0.023823744,33.991455,60.875675,-29.057835,STD
11968537046000,3.300002,-4.79390077378602,-8.43991570864588,0.439202262341097,-0.029626964,0.03145956,0.02565634,33.99941,60.877872,-29.05562,STD
11968542016000,3.304972,-4.8032960456968,-8.44461346723253,0.453295258501777,-0.017104227,0.029626964,0.024129177,34.0067,60.88071,-29.052238,STD
11968546999000,3.309955,-4.81012183150147,-8.43648494180569,0.464816291234544,-0.028405234,0.027183503,0.024740042,34.018246,60.877666,-29.054972,STD
11968552003000,3.314959,-4.81482480578999,-8.4176735357213,0.474222053205103,-0.020463986,0.019242255,0.02321288,34.02721,60.875072,-29.056608,STD
11968556979000,3.319935,-4.81653521464916,-8.40723942929832,0.479439122846186,-0.015271631,0.0290161,0.024740042,34.036083,60.867332,-29.063387,STD
11968562004000,3.32496,-4.8153407341458,-8.40485046829159,0.480633578404776,-0.022907447,0.03604105,0.02107485,34.041546,60.861782,-29.067991,STD
11968566987000,3.329943,-4.81415623736007,-8.40248147472015,0.481818050454218,-0.024129177,0.021685716,0.018325957,34.03688,60.85042,-29.077984,STD
11968571987000,3.334943,-4.81296769954578,-8.40010439909156,0.483006563447839,-0.022602014,0.030848695,0.018936822,34.042274,60.83952,-29.087969,STD
11968577004000,3.33996,-4.81177512070292,-8.39771924140584,0.484199117385639,-0.027488936,0.028099801,0.020158553,34.037422,60.82847,-29.09794,STD
11968582288000,3.345244,-4.81051907394078,-8.39520714788156,0.485455137917298,-0.025961773,0.032986723,0.02107485,34.038177,60.817474,-29.107914,STD
11968586950000,3.349906,-4.80941088128273,-8.39299076256546,0.48656330743255,-0.029626964,0.034208454,0.020463986,34.03697,60.80707,-29.117453,STD
11968591978000,3.354934,-4.80821568765668,-8.39060037531336,0.487758476098935,-0.03848451,0.032986723,0.015882496,34.03669,60.797897,-29.125889,STD
11968596939000,3.359895,-4.81764317485813,-8.39130027709916,0.484382673737617,-0.03023783,0.03023783,0.018936822,34.036377,60.788155,-29.134869,STD
11968601959000,3.364915,-4.84076308252381,-8.39592435519862,0.4751346961864,-0.02565634,0.03634648,0.021685716,34.03867,60.78024,-29.142368,STD
11968607003000,3.369959,-4.85276683995288,-8.39975140840058,0.467480741360834,-0.03145956,0.028099801,0.025045475,34.035503,60.77214,-29.149902,STD
11968612008000,3.374964,-4.84555942420931,-8.40215393885018,0.462675783316125,-0.034208454,0.033292156,0.019242255,34.03885,60.76592,-29.155643,STD
11968616936000,3.379892,-4.83846289178487,-8.40451950729287,0.457944747702872,-0.03359759,0.038789943,0.022602014,34.042114,60.753025,-29.16822,STD
11968622903000,3.385859,-4.82987015457371,-8.4073838228159,0.452216239280738,-0.03726278,0.0290161,0.02321288,34.0422,60.74295,-29.178015,STD
11968626900000,3.389856,-4.82755521581727,-8.40590339963807,0.451798960752714,-0.032375857,0.02687807,0.024129177,34.04306,60.729717,-29.190851,STD
11968632034000,3.39499,-4.82995995470019,-8.39868903232906,0.456608436007532,-0.03848451,0.02565634,0.020158553,34.04121,60.71836,-29.202023,STD
11968636953000,3.399909,-4.83226398870195,-8.39177678597281,0.461216501605204,-0.043676864,0.020158553,0.013744468,34.031773,60.70785,-29.212318,STD
11968642094000,3.40505,-4.83467200634843,-8.38455258216766,0.466032534383743,-0.030848695,0.03023783,0.022907447,34.027176,60.694138,-29.225756,STD
11968646936000,3.409892,-4.83563993520217,-8.38164873496432,0.46926352,-0.03940081,0.025350908,0.022602014,34.01635,60.68578,-29.234133,STD
11968652010000,3.414966,-4.83328118158827,-8.38872514358526,0.46926352,-0.03268129,0.025961773,0.013439035,34.01088,60.677105,-29.242445,STD
11968656943000,3.419899,-4.83098797473424,-8.39560490782001,0.46926352,-0.035124753,0.03023783,0.014966198,34.013306,60.66695,-29.25228,STD
11968662007000,3.424963,-4.82863386982671,-8.40266737003058,0.46926352,-0.048563786,0.027488936,0.0143553335,34.013805,60.66029,-29.25865,STD
11968666968000,3.429924,-4.82747773763608,-8.40920401360809,0.467345925108865,-0.039095376,0.030543262,0.018325957,34.017536,60.651646,-29.26672,STD
11968671987000,3.434943,-4.83214977877138,-8.41387590838841,0.455665817392107,-0.043066,0.030848695,0.015882496,34.01957,60.6457,-29.272577,STD
11968676983000,3.439939,-4.83680040987558,-8.41852639380832,0.444039234775467,-0.032375857,0.03481932,0.021685716,34.013725,60.632652,-29.28495,STD
11968682044000,3.445,-4.84151154758942,-8.42323738394246,0.43226138557154,-0.040927973,0.03390302,0.019242255,34.006756,60.623455,-29.2939,STD
11968687015000,3.449971,-4.84560226262116,-8.42811408570236,0.421641537378843,-0.03940081,0.039095376,0.01863139,34.003212,60.611996,-29.304825,STD
11968692018000,3.454974,-4.84115828632843,-8.43700222390206,0.426085513671567,-0.02321288,0.03604105,0.01863139,33.996887,60.60125,-29.314817,STD
11968696909000,3.459865,-4.83681379541344,-8.44569138719102,0.43043000458656,-0.03481932,0.043676864,0.013133603,33.999165,60.595413,-29.321514,STD
11968702003000,3.464959,-4.83228898725131,-8.45474119250568,0.43495481274869,-0.027488936,0.037873644,0.017715093,33.995987,60.586174,-29.330708,STD
11968706918000,3.469874,-4.82792317804109,-8.46347299327552,0.439320621958911,-0.034208454,0.040011674,0.016493361,33.99809,60.580807,-29.33671,STD
11968712009000,3.474965,-4.83198587359681,-8.45886426383482,0.444049900146849,-0.024740042,0.028710667,0.014966198,33.99389,60.573902,-29.343542,STD
11968716987000,3.479943,-4.83903359613167,-8.44946707150249,0.448748405549697,-0.03176499,0.042760566,0.017104227,33.99874,60.566925,-29.351227,STD
11968722072000,3.485028,-4.84623280647514,-8.43986789050411,0.453547903334647,-0.03390302,0.04337143,0.017104227,33.993206,60.564095,-29.354015,STD
11968727007000,3.489963,-4.85321965073178,-8.43055187118711,0.458205823013847,-0.02687807,0.0290161,0.015271631,33.98741,60.561207,-29.356798,STD
11968732070000,3.495026,-4.84915780321097,-8.4307316804056,0.456545115203267,-0.029321533,0.032375857,0.017104227,33.988422,60.561,-29.35782,STD
11968737041000,3.499997,-4.84021854412731,-8.43520142662661,0.452075462325603,-0.036651913,0.021685716,0.017715093,33.98022,60.5616,-29.357649,STD
11968741994000,3.50495,-4.82787419769288,-8.423144878294,0.447305496873743,-0.018936822,0.03176499,0.013744468,33.982616,60.559807,-29.359581,STD
11968747014000,3.50997,-4.81261045443962,-8.39770539475077,0.442217584226902,-0.034208454,0.028405234,0.020463986,33.977047,60.555656,-29.364403,STD
11968751998000,3.514954,-4.81685306710821,-8.39857922888867,0.443631787957534,-0.029626964,0.02107485,0.013439035,33.971664,60.556267,-29.363712,STD
11968756989000,3.519945,-4.83081955444628,-8.41254595928704,0.44828728211649,-0.025961773,0.03023783,0.018020526,33.97045,60.552032,-29.368336,STD
11968762006000,3.524962,-4.83773030844031,-8.41079995779844,0.458766782148443,-0.024129177,0.03481932,0.02076942,33.965973,60.550304,-29.37029,STD
11968767492000,3.530448,-4.8403144570213,-8.39787921489351,0.474271676332694,-0.043066,0.030848695,0.016187929,33.961803,60.54975,-29.371407,STD
11968771990000,3.534946,-4.84243321391471,-8.38728543042644,0.486984219905563,-0.038789943,0.030543262,0.018936822,33.960186,60.545116,-29.376167,STD
11968776975000,3.539931,-4.84478136934238,-8.37554465328808,0.501073154923516,-0.036651913,0.028710667,0.021685716,33.956882,60.54223,-29.379509,STD
11968782014000,3.54497,-4.84844851883002,-8.38305122907229,0.502402251069529,-0.034208454,0.03023783,0.015271631,33.954742,60.54115,-29.38097,STD
11968786989000,3.549945,-4.85314066798306,-8.40651221981485,0.49301785967205,-0.025961773,0.02687807,0.022296581,33.950275,60.535362,-29.386898,STD
11968792023000,3.554979,-4.84444560313247,-8.42021289567295,0.492815306450757,-0.02321288,0.016493361,0.021685716,33.940132,60.52789,-29.393724,STD
11968796987000,3.559943,-4.82341240465446,-8.42441918396602,0.501228581449429,-0.02107485,0.01863139,0.017715093,33.9332,60.519516,-29.401426,STD
11968802048000,3.565004,-4.81019744003972,-8.42891024069816,0.510211174525502,-0.027794369,0.0143553335,0.018936822,33.924538,60.51305,-29.40734,STD
11968807022000,3.569978,-4.82015464152383,-8.4338889194189,0.520168355215301,-0.01740966,0.011911872,0.01160644,33.917507,60.509956,-29.409552,STD
11968811907000,3.574863,-4.82738606784932,-8.43784238195357,0.520646082303986,-0.01740966,0.0143553335,0.018020526,33.90776,60.50725,-29.411554,STD
11968817060000,3.580016,-4.82954766445028,-8.44000402369689,0.501191690324135,-0.02321288,0.005192355,0.019242255,33.89376,60.508083,-29.40978,STD
11968822556000,3.585512,-4.83185314376697,-8.44230955116075,0.48044235240035,-0.027488936,0.003970624,0.013744468,33.882755,60.508358,-29.408587,STD
11968827032000,3.589988,-4.83373075028471,-8.44418719689006,0.46354387413491,-0.021991149,0.011301007,0.022296581,33.871624,60.504314,-29.411644,STD
11968831958000,3.594914,-4.83579712421375,-8.44625361397284,0.444946487196671,-0.031154128,0.012217305,0.017715093,33.8585,60.50607,-29.409214,STD
11968837814000,3.60077,-4.84081554010895,-8.43768773065671,0.431477019782104,-0.025350908,0.009162978,0.02107485,33.846497,60.502823,-29.411432,STD
11968841913000,3.604869,-4.84477552227378,-8.42976760092807,0.423557055452436,-0.02076942,0.0067195175,0.023518313,33.835262,60.50144,-29.412024,STD
11968847006000,3.609962,-4.84025900829398,-8.42572171900827,0.426984817069067,-0.027183503,0.017104227,0.018325957,33.83274,60.499905,-29.413527,STD
11968851931000,3.614887,-4.83329832709071,-8.42340167768595,0.4339455297683,-0.020463986,0.019547688,0.016798794,33.826885,60.496395,-29.416521,STD
11968856978000,3.619934,-4.82616521886068,-8.42102416528926,0.441078670274498,-0.019547688,0.01282817,0.014049901,33.821236,60.49346,-29.419538,STD
11968861959000,3.624915,-4.81912539082546,-8.41867774380165,0.448118530163813,-0.020463986,0.01863139,0.009468411,33.820633,60.491478,-29.42168,STD
11968867223000,3.630179,-4.81397927522217,-8.4201170766492,0.452213071433576,-0.018936822,0.016798794,0.0106901415,33.815372,60.48863,-29.424442,STD
11968872037000,3.634993,-4.81003975639455,-8.42274333112111,0.454839406806141,-0.002443461,0.023823744,0.011911872,33.815063,60.486828,-29.426031,STD
11968877051000,3.640007,-4.80593656831776,-8.425478694628,0.457574854574741,-0.017715093,0.025045475,0.005497787,33.814285,60.490383,-29.422384,STD
11968882195000,3.645151,-4.80172699522901,-8.42828497900763,0.460381225400763,-0.01282817,0.021685716,0.003970624,33.814182,60.491394,-29.42056,STD
11968887013000,3.649969,-4.79778420301641,-8.43091341566025,0.463009743021249,-0.004276057,0.0143553335,-0.00030543262,33.81847,60.498486,-29.413023,STD
11968892025000,3.654981,-4.79368265163211,-8.43364768807679,0.465744099665888,-0.007941248,0.01985312,0.0012217305,33.82561,60.50429,-29.407047,STD
11968896949000,3.659905,-4.78965311471744,-8.43633395251794,0.468430446856272,-0.007941248,0.020158553,0.009773844,33.828445,60.508842,-29.401936,STD
11968902011000,3.664967,-4.78507339855892,-8.43050679711784,0.475923761132205,-0.004276057,0.020463986,0.01282817,33.83295,60.51431,-29.39598,STD
11968907320000,3.670276,-4.78007212315562,-8.42050424631123,0.485926369384222,-0.010995574,0.01863139,0.009468411,33.836666,60.519234,-29.390776,STD
11968911999000,3.674955,-4.77566433117745,-8.41168866235491,0.494742003969113,-0.009162978,0.022907447,0.0106901415,33.83982,60.524746,-29.384634,STD
11968917003000,3.679959,-4.77095037711489,-8.40226075422979,0.504169966239426,-0.010079277,0.025350908,0.020463986,33.84157,60.528778,-29.380148,STD
11968922056000,3.685012,-4.7662004305098,-8.40495907529412,0.513669856690196,-0.01282817,0.029932396,0.02107485,33.844948,60.53375,-29.374655,STD
11968927008000,3.689964,-4.76155096372549,-8.41425791176471,0.52296875627451,-0.01740966,0.028099801,0.022907447,33.846775,60.535564,-29.372349,STD
11968932065000,3.695021,-4.75680291172059,-8.42375391661765,0.532464825579412,-0.016798794,0.028405234,0.020463986,33.848495,60.538692,-29.36853,STD
11968937019000,3.699975,-4.75215156712255,-8.43305650867647,0.541767480777451,-0.009468411,0.029321533,0.019242255,33.84971,60.540836,-29.36565,STD
11968941981000,3.704937,-4.75260396658168,-8.44469023541076,0.528324137540132,0.0027488936,0.032070424,0.024740042,33.854942,60.543674,-29.362091,STD
11968946969000,3.709925,-4.75711469175637,-8.45822283484419,0.49674870805949,0.0027488936,0.02687807,0.0290161,33.8548124480546,60.5440621556358,-29.3613101869234,STD
11968951953000,3.714909,-4.76397843689371,-8.46374524783561,0.489603897277563,0.002443461,0.018020526,0.03848451,33.854683,60.54445,-29.36053,STD
11968956980000,3.719936,-4.77402179246897,-8.4587234913946,0.514712181344529,0.01038471,0.015882496,0.038789943,33.855648,60.55044,-29.3532,STD
11968961971000,3.724927,-4.79116385492677,-8.4538535174853,0.531659261970708,0.0067195175,0.0125227375,0.040011674,33.861645,60.55614,-29.346903,STD
11968966962000,3.729918,-4.8149746593504,-8.44909125714855,0.541183583740161,0.008552114,0.016493361,0.04520403,33.869072,60.560127,-29.342104,STD
11968971989000,3.734945,-4.83416402795351,-8.43929074987367,0.540909097402729,0.013133603,0.0125227375,0.049480084,33.87063,60.562817,-29.338243,STD
11968976937000,3.739893,-4.84853062971198,-8.42492429813037,0.531331329560384,0.01282817,0.007330383,0.05131268,33.872917,60.564686,-29.335333,STD
11968981961000,3.744917,-4.86045758076275,-8.4129973406637,0.541774074191184,0.007330383,0.004886922,0.054367006,33.869766,60.557198,-29.341494,STD
11968986943000,3.749899,-4.86991015465082,-8.40354461872214,0.570131667542348,0.019547688,0.013744468,0.04917465,33.868843,60.55137,-29.345715,STD
11968991928000,3.754884,-4.87679497657748,-8.38785861711259,0.5951866205899,0.0125227375,0.013439035,0.05681047,33.866615,60.538284,-29.357847,STD
11968996929000,3.759885,-4.88116841980641,-8.36599140096795,0.617053832167839,0.013439035,0.008246681,0.059864793,33.865887,60.52779,-29.367014,STD
11969001925000,3.764881,-4.88898921776704,-8.3493700661299,0.627251530678476,0.0106901415,0.008246681,0.050396383,33.86952,60.52182,-29.371958,STD
11969006869000,3.769825,-4.90423812726785,-8.34428700783682,0.612002679560923,0.006414085,0.0143553335,0.053145275,33.873245,60.51174,-29.38108,STD
11969011873000,3.774829,-4.91710367224665,-8.35400412642415,0.605439687091745,0.013133603,0.015577064,0.051618114,33.873898,60.503616,-29.387754,STD
11969016896000,3.779852,-4.92671870627623,-8.38284947951229,0.610247229206476,0.016493361,0.010079277,0.046120327,33.87437,60.49623,-29.393887,STD
11969022757000,3.785713,-4.92725893040502,-8.3940633051911,0.617712232133485,0.017104227,0.007330383,0.043066,33.88261,60.48737,-29.401724,STD
11969026896000,3.789852,-4.92079846781028,-8.38760267394671,0.62417272508516,0.004581489,0.004581489,0.043676864,33.888966,60.47941,-29.408848,STD
11969032184000,3.79514,-4.9125875477465,-8.37897227625102,0.631964412946996,0.004886922,0.005192355,0.043982297,33.894608,60.47331,-29.413763,STD
11969036919000,3.799875,-4.90608566381494,-8.36380117602638,0.629797125846676,0.009468411,0.0070249503,0.030848695,33.899857,60.47116,-29.414915,STD
11969041878000,3.804834,-4.89927619339961,-8.34791237222196,0.627527310275295,-0.0067195175,-0.012217305,0.03573562,33.896873,60.46843,-29.41731,STD
11969046892000,3.809848,-4.89239119951728,-8.33184734655642,0.625232320302538,-0.013133603,-0.006414085,0.035124753,33.902847,60.47055,-29.414871,STD
11969051892000,3.814848,-4.88552542979018,-8.31582717736462,0.622943738359222,-0.019547688,-0.004886922,0.029321533,33.901108,60.473095,-29.412085,STD
11969057018000,3.819974,-4.88218044129463,-8.31664999266811,0.616519255962939,-0.021991149,0.002443461,0.029932396,33.90304,60.473972,-29.411182,STD
11969061858000,3.824814,-4.87985273015116,-8.32130526912067,0.609536124963089,-0.02321288,0.0018325958,0.02687807,33.902946,60.477543,-29.407608,STD
11969066916000,3.829872,-4.87742017581982,-8.32617022538041,0.602238464509115,-0.030848695,-0.009468411,0.027794369,33.899387,60.474995,-29.409864,STD
11969071867000,3.834823,-4.8750390812183,-8.33093226540451,0.59509518319088,-0.039095376,-0.005497787,0.03634648,33.900555,60.47118,-29.413637,STD
11969076943000,3.839899,-4.84712326983814,-8.33967054204501,0.58591305527043,-0.04550946,-0.0030543262,0.027794369,33.897816,60.472157,-29.412577,STD
11969081871000,3.844827,-4.81451748760363,-8.34898714686143,0.576597111930517,-0.044593163,-0.0030543262,0.03023783,33.895325,60.46764,-29.417055,STD
11969086985000,3.849941,-4.81045754159314,-8.35484335513856,0.570741024670063,-0.04153884,0.0018325958,0.023518313,33.90162,60.46751,-29.416716,STD
11969092247000,3.855203,-4.81421496401143,-8.3598532081024,0.565731145549894,-0.04184427,0.004276057,0.026572637,33.906822,60.46397,-29.419834,STD
11969096942000,3.859898,-4.81756751023984,-8.36432323084379,0.56126109947061,-0.041233405,0.006414085,0.016798794,33.912216,60.471172,-29.412157,STD
11969101969000,3.864925,-4.82115712682987,-8.36910934465018,0.556474960676028,-0.044593163,0.01038471,0.022602014,33.918552,60.473007,-29.41003,STD
11969106956000,3.869912,-4.82471818072574,-8.37385737519573,0.551726905341121,-0.040317107,0.015882496,0.01985312,33.926155,60.47965,-29.402945,STD
11969111902000,3.874858,-4.82824995786007,-8.37856637039891,0.54701788555238,-0.03848451,0.018325957,0.016798794,33.933777,60.484673,-29.397638,STD
11969116930000,3.879886,-4.83184028851746,-8.38335343628682,0.542230794671306,-0.03848451,0.021991149,0.013439035,33.94339,60.490295,-29.391771,STD
11969121928000,3.884884,-4.83540919715422,-8.38811193972909,0.537472266384988,-0.03481932,0.014966198,0.016187929,33.949974,60.494686,-29.3869,STD
11969126992000,3.889948,-4.83812062287569,-8.38561686909636,0.5363012,-0.030543262,0.01160644,0.0030543262,33.958977,60.50429,-29.376888,STD
11969131917000,3.894873,-4.84047537774338,-8.38090750688967,0.5363012,-0.03145956,0.009468411,0.004886922,33.965557,60.50867,-29.372084,STD
11969136961000,3.899917,-4.84288702922616,-8.37608435501747,0.5363012,-0.039095376,0.02076942,0.0027488936,33.980953,60.518456,-29.362461,STD
11969141933000,3.904889,-4.8452642558662,-8.37133005067399,0.5363012,-0.030543262,0.016187929,0.0018325958,33.990044,60.52667,-29.353785,STD
11969146945000,3.909901,-4.84413424097226,-8.37705019998077,0.5363012,-0.03145956,0.03176499,0.0021380284,34.009075,60.535202,-29.345642,STD
11969151963000,3.914919,-4.84182350469298,-8.38629309684089,0.5363012,-0.03390302,0.024129177,-0.0070249503,34.018776,60.546185,-29.334482,STD
11969157028000,3.919984,-4.83949112540751,-8.39562256527384,0.5363012,-0.03145956,0.023823744,-0.0009162979,34.035927,60.5508,-29.329954,STD
11969162623000,3.925579,-4.83691468669039,-8.40592826633649,0.5363012,-0.024129177,0.024740042,-0.004276057,34.05085,60.560307,-29.320372,STD
11969166992000,3.929948,-4.83436793679176,-8.41035651309825,0.531502261913412,-0.03176499,0.027794369,-0.002443461,34.071827,60.56968,-29.311314,STD
11969172086000,3.935042,-4.83111610606919,-8.41360825893214,0.523372634173777,-0.026267206,0.038179077,0.0015271631,34.09497,60.57846,-29.302462,STD
11969177008000,3.939964,-4.82797407410679,-8.41675020887215,0.515517505054326,-0.036651913,0.034208454,-0.0067195175,34.11308,60.59258,-29.288631,STD
11969182011000,3.944967,-4.82478033458872,-8.419943865018,0.507533106235835,-0.038179077,0.035124753,0.0009162979,34.13528,60.600224,-29.281145,STD
11969187056000,3.950012,-4.8215597837455,-8.4231643317891,0.499481678684509,-0.040317107,0.04642576,0.0012217305,34.159267,60.61208,-29.269783,STD
11969192020000,3.954976,-4.81839094045794,-8.42633309235435,0.491559520832222,-0.036957346,0.03970624,0.004581489,34.176914,60.62036,-29.261662,STD
11969197006000,3.959962,-4.817134,-8.42472880961577,0.485555865502575,-0.03573562,0.049785517,0.0033597588,34.195366,60.62121,-29.26059,STD
11969202005000,3.964961,-4.817134,-8.41998797742127,0.480814877367796,-0.025045475,0.049785517,0.0018325958,34.207993,60.620785,-29.260262,STD
11969206997000,3.969953,-4.817134,-8.41525378371955,0.476080527944147,-0.03604105,0.0571159,0.01038471,34.229458,60.62087,-29.260542,STD
11969212012000,3.974968,-4.817134,-8.41049777782729,0.471324365612498,-0.03756821,0.05131268,0.0067195175,34.246395,60.624184,-29.25692,STD
11969216946000,3.979902,-4.82705200703301,-8.41587544054764,0.48662014363841,-0.02443461,0.052534413,0.0030543262,34.269264,60.629803,-29.251884,STD
11969222399000,3.985355,-4.84664016072768,-8.430566427982,0.520899632483121,-0.013744468,0.047036625,0.008857546,34.287422,60.633522,-29.248644,STD
11969226976000,3.989932,-4.85342500228622,-8.42708690617577,0.548397321009501,-0.024129177,0.044593163,0.011911872,34.301598,60.63745,-29.246042,STD
11969232400000,3.995356,-4.84828406594418,-8.40138195605701,0.579243282624703,-0.022602014,0.05009095,0.0061086523,34.316303,60.6415,-29.242773,STD
11969236972000,3.999928,-4.84966716363458,-8.39308592319795,0.595663461890058,-0.020463986,0.04428773,0.0070249503,34.325657,60.64463,-29.240253,STD
11969241983000,4.004939,-4.85910557357656,-8.40252448097158,0.600382642222441,-0.014049901,0.047647487,0.014660766,34.339462,60.647095,-29.238434,STD
11969246907000,4.009863,-4.86332988690564,-8.40506080906532,0.60333884,-0.025350908,0.045814894,0.015271631,34.346554,60.651047,-29.234955,STD
11969251964000,4.01492,-4.85854737266578,-8.39549588046215,0.60333884,-0.024740042,0.049785517,0.016493361,34.356297,60.65206,-29.234093,STD
11969256943000,4.019899,-4.85383862471239,-8.38607848289142,0.60333884,-0.028710667,0.04642576,0.022907447,34.360523,60.650585,-29.235987,STD
11969261977000,4.024933,-4.84907786206982,-8.37655705702859,0.60333884,-0.029626964,0.035124753,0.017104227,34.363445,60.65206,-29.234764,STD
11969266942000,4.029898,-4.84883097469606,-8.37457992685579,0.606305497658397,-0.021991149,0.04184427,0.019242255,34.37083,60.649292,-29.237864,STD
11969271979000,4.034935,-4.85836712048038,-8.3888838717011,0.615841588676485,-0.028710667,0.032070424,0.019547688,34.36916,60.649017,-29.238443,STD
