timestamp,rel_time,acc_x,acc_y,acc_z,gyro_x,gyro_y,gyro_z,azimuth,pitch,roll,label
4336059241000,0,1.72247404721051,-9.60116595581453,-1.17659612438879,-0.03604105,-0.08368854,0.0018325958,153.13147,-136.94516,37.666416,STD
4336064193000,0.004952,1.71071498110588,-9.59646247671708,-1.16483703372675,-0.03604105,-0.07391469,0.005497787,154.14537,-138.3097,38.42007,STD
4336069252000,0.010011,1.69870183178775,-9.59165736751798,-1.15282385932061,-0.03634648,-0.064446285,0.006414085,155.15422,-139.64311,39.147293,STD
4336074176000,0.014935,1.68700925474833,-9.58698048321349,-1.14113125786263,-0.042760566,-0.05222898,0.004886922,156.17133,-140.95752,39.853157,STD
4336079216000,0.019975,1.69388075934686,-9.59474649737754,-1.12709586097971,-0.029321533,-0.043982297,0.0030543262,157.21295,-142.27197,40.541626,STD
4336084185000,0.024944,1.70329928862939,-9.60416473161801,-1.11296806705591,-0.04337143,-0.036957346,0.008552114,158.26279,-143.56174,41.209145,STD
4336089245000,0.030004,1.7026479642885,-9.60148985536062,-1.1169805071345,-0.04062254,-0.029626964,0.013133603,159.31902,-144.83694,41.855488,STD
4336094896000,0.035655,1.70001061064327,-9.59621531330409,-1.12489256807018,-0.036957346,-0.021991149,0.013744468,160.38304,-146.08975,42.480236,STD
4336099287000,0.040046,1.69796130612086,-9.59211683265107,-1.13104048163743,-0.028405234,-0.014660766,0.018325957,161.46051,-147.33183,43.091026,STD
4336104216000,0.044975,1.69566091395712,-9.58751619244639,-1.13794165812866,-0.024129177,-0.0012217305,0.017104227,162.5413,-148.55142,43.680626,STD
4336109242000,0.050001,1.68411574455803,-9.61566132832231,-1.1250012594107,-0.026267206,-0.004581489,0.014660766,163.65039,-149.76094,44.243454,STD
4336114251000,0.05501,1.66969295706554,-9.65412189416717,-1.10577087608739,-0.020463986,0.0018325958,0.017104227,164.76067,-150.9515,44.78939,STD
4336119231000,0.05999,1.65573088935346,-9.66654256523422,-1.08006585272938,-0.029626964,0.002443461,0.013133603,165.87138,-152.10892,45.30542,STD
4336124247000,0.065006,1.6417827488192,-9.67119202632598,-1.05216966875726,-0.021380283,0.008246681,0.0125227375,166.98616,-153.2506,45.80416,STD
4336129233000,0.069992,1.61313478317359,-9.67480223895101,-1.03607681483626,-0.011911872,0.011911872,0.011301007,168.13705,-154.39398,46.282173,STD
4336134268000,0.075027,1.57783053210863,-9.67801178334665,-1.02484362728634,-0.019547688,0.019547688,0.004276057,169.28514,-155.51117,46.740295,STD
4336139239000,0.079998,1.5429750341853,-9.68118053115016,-1.01375322503994,-0.024129177,0.016798794,0.0061086523,170.45253,-156.62042,47.17939,STD
4336144303000,0.085062,1.50746744185304,-9.6844085615016,-1.00245533789936,-0.01160644,0.027183503,0.004276057,171.61035,-157.70479,47.601486,STD
4336149331000,0.09009,1.47221227316294,-9.68761364376997,-0.991237767492013,-0.012217305,0.028099801,0.0033597588,172.77066,-158.76315,48.002018,STD
4336154283000,0.095042,1.43748999882854,-9.6907702800852,-0.980189754632588,-0.008246681,0.024740042,-0.00061086525,173.92587,-159.80023,48.384773,STD
4336159277000,0.100036,1.40408532852956,-9.68519773864192,-0.983365424963361,-0.008246681,0.019547688,0.0018325958,175.08029,-160.813,48.74814,STD
4336164800000,0.105559,1.36791051493894,-9.67486187718613,-0.993701070571568,-0.0030543262,0.022907447,0.005192355,176.22885,-161.80402,49.095448,STD
4336169256000,0.110015,1.33174793102334,-9.66631739458531,-1.00224537473482,0.004886922,0.021991149,0.009162978,177.40709,-162.79361,49.407383,STD
4336174281000,0.11504,1.28799489713102,-9.65659430639459,-1.01196825987473,-0.0018325958,0.024740042,0.0033597588,178.57263,-163.75577,49.704597,STD
4336179233000,0.119992,1.24861172928374,-9.65655901187179,-1.02769331812426,0.0015271631,0.030848695,0.004886922,179.7493,-164.70715,49.97244,STD
4336184283000,0.125042,1.21033484760586,-9.66134372200237,-1.04683180892362,-0.00030543262,0.031154128,0.013133603,180.91493,-165.6322,50.2258,STD
4336189285000,0.130044,1.20940030274135,-9.65223611892318,-1.13954466735036,-0.00030543262,0.03726278,0.021991149,181.493026382232,-166.084792475684,50.3436451739697,STD
4336194256000,0.135015,1.22817804568583,-9.63580574090327,-1.27098894148999,0.0015271631,0.042760566,0.024740042,182.06754,-166.53458,50.46076,STD
4336199333000,0.140092,1.24735619916182,-9.61902500680406,-1.40523609091806,0.0009162979,0.03359759,0.030543262,183.21185,-167.41365,50.67862,STD
4336204389000,0.145148,1.26645502602307,-9.60231368287151,-1.53892795373237,-0.00030543262,0.029626964,0.024129177,184.33914,-168.2688,50.88007,STD
4336209271000,0.15003,1.26824125770976,-9.61511997653761,-1.58427585770976,-0.005497787,0.021380283,0.03359759,185.46303,-169.09712,51.055706,STD
4336214298000,0.155057,1.25894463250941,-9.6476578735155,-1.57497923250941,0.007330383,0.025350908,0.029932396,186.56387,-169.9034,51.22347,STD
4336219278000,0.160037,1.2444564046695,-9.65794551061249,-1.30280578908429,-0.0036651916,0.025961773,0.02443461,187.58708,-170.64206,51.357788,STD
4336224230000,0.164989,1.22528344586618,-9.64835933151405,-0.794722030442693,-0.0061086523,0.026267206,0.035430185,188.60829,-171.37415,51.486813,STD
4336229268000,0.170027,1.25720229808414,-9.62081166482323,-0.762753052854039,0.002443461,0.032986723,0.021685716,189.61589,-172.0917,51.609642,STD
4336234474000,0.175233,1.33598065611298,-9.57649845605372,-1.16156853857397,-0.003970624,0.029321533,0.032375857,190.63223,-172.80069,51.7255,STD
4336239274000,0.180033,1.34983790288547,-9.57238717411998,-1.31889771301934,-0.0012217305,0.038179077,0.025350908,191.69064,-173.52768,51.913246,STD
4336244286000,0.185045,1.3117624073178,-9.60094389519088,-1.2951004288944,0.0036651916,0.03023783,0.036651913,192.75533,-174.24265,52.09009,STD
4336249380000,0.190139,1.3138611709361,-9.59412185341928,-1.28562451485426,-0.011301007,0.03940081,0.028405234,193.74272,-174.90614,52.222992,STD
4336254404000,0.195163,1.35431558857436,-9.55366748271674,-1.29011954923393,-0.007941248,0.03634648,0.03573562,194.73758,-175.567,52.34566,STD
4336259283000,0.200042,1.36845901467974,-9.52538922494637,-1.40948121526203,-0.010995574,0.03573562,0.026267206,195.7217,-176.21077,52.46241,STD
4336264282000,0.205041,1.33911525747267,-9.51560775125141,-1.73226331055266,-0.010995574,0.052839845,0.02687807,196.70581,-176.84644,52.57923,STD
4336269244000,0.210003,1.32545075923554,-9.51362043966657,-1.87294481010471,-0.0027488936,0.062308256,0.027488936,197.67232,-177.4633,52.694546,STD
4336274282000,0.215041,1.33526023740978,-9.52343012270001,-1.74051675232286,-0.013744468,0.057726767,0.02076942,198.62984,-178.06357,52.80629,STD
4336279246000,0.220005,1.32654312946588,-9.55734265628091,-1.60140504635015,-0.0036651916,0.06383542,0.014049901,199.53313,-178.64311,52.872234,STD
4336284217000,0.224976,1.29358126925816,-9.62326618001978,-1.4507223832641,-0.008552114,0.06383542,0.010079277,200.43088,-179.20941,52.931118,STD
4336289178000,0.229937,1.27558255694582,-9.64619255100218,-1.33003015740226,-0.009162978,0.06505715,0.0061086523,201.33392,-179.76547,53.00567,STD
4336294229000,0.234988,1.28038231004167,-9.60299442230601,-1.25323325584441,-0.011911872,0.059864793,0.002443461,202.23083,179.68951,53.07537,STD
4336299310000,0.240069,1.27963102144277,-9.58046807412667,-1.17555920068162,-0.007330383,0.057726767,-0.0027488936,22.017223,179.14505,53.16098,STD
4336304407000,0.245166,1.27038881851747,-9.58971051831866,-1.09700001740983,-0.008857546,0.06261369,-0.0033597588,22.210152,178.61282,53.245106,STD
4336309178000,0.249937,1.26103286582737,-9.59347644077594,-1.03890297883805,-0.0125227375,0.0711658,-0.0015271631,22.412748,178.09547,53.334457,STD
4336314277000,0.255036,1.24907242123053,-9.58390788527481,-1.01976624250514,-0.013439035,0.06963864,-0.004581489,22.616243,177.59018,53.421333,STD
4336319203000,0.259962,1.23751777324385,-9.57466397384148,-1.00127878159596,-0.01740966,0.06780604,0.0012217305,22.835026,177.095,53.51894,STD
4336324282000,0.265041,1.22560424154992,-9.56513294944646,-0.982217106005682,-0.02076942,0.0580322,0.0018325958,23.054714,176.61282,53.613636,STD
4336329261000,0.27002,1.21074796905038,-9.56224176780544,-0.948902419195136,-0.014049901,0.06261369,0.009468411,23.277163,176.14027,53.713158,STD
4336334265000,0.275024,1.18299904571511,-9.58536583034163,-0.856406120758541,-0.019242255,0.045814894,0.0076358155,23.503813,175.68219,53.803837,STD
4336339221000,0.27998,1.15448089303743,-9.60661519925707,-0.771408687408325,-0.021991149,0.03940081,0.0033597588,23.737268,175.23233,53.89482,STD
4336344280000,0.285039,1.11756382954567,-9.61584465787218,-0.734491575731022,-0.025961773,0.0421497,0.0076358155,23.975166,174.79097,53.983723,STD
4336349442000,0.290201,1.081821224379,-9.62483419293972,-0.697460214460925,-0.03390302,0.032375857,0.011301007,24.22099,174.35576,54.082085,STD
4336354334000,0.295093,1.07622628272428,-9.62707221166523,-0.671723519070651,-0.028710667,0.03634648,0.0106901415,24.46625,173.9272,54.185,STD
4336359294000,0.300053,1.07055357000812,-9.62934133940002,-0.64562907730128,-0.03145956,0.040927973,0.0125227375,24.713081,173.50401,54.29261,STD
4336364273000,0.305032,1.06485912714245,-9.63161915935798,-0.619434676984809,-0.03634648,0.04184427,0.015271631,24.96068,173.08778,54.39973,STD
4336369291000,0.31005,1.05912008028566,-9.63391482124773,-0.593035098597975,-0.03145956,0.03940081,0.012217305,25.207396,172.67848,54.50686,STD
4336374254000,0.315013,1.05344393649326,-9.63618532143881,-0.566924873900115,-0.036957346,0.03756821,0.01740966,25.460821,172.27585,54.613155,STD
4336379232000,0.319991,1.04775063731967,-9.63846268391134,-0.540735734559807,-0.03390302,0.03848451,0.016798794,25.710918,171.87955,54.719482,STD
4336384280000,0.325039,1.04197727970049,-9.640772070364,-0.514178326888077,-0.03756821,0.04428773,0.016187929,25.961845,171.48349,54.824802,STD
4336389278000,0.330037,1.0362611066853,-9.64305858254514,-0.487883968024506,-0.03848451,0.0421497,0.01282817,26.211971,171.09337,54.927677,STD
4336394263000,0.335022,1.03724058972596,-9.64089947951785,-0.496513119196723,-0.03268129,0.045814894,0.01740966,26.470016,170.71198,55.03021,STD
4336399306000,0.340065,1.04178869281477,-9.63635132893869,-0.52380147653263,-0.033292156,0.044593163,0.01160644,26.728947,170.34015,55.13126,STD
4336404278000,0.345037,1.04117767450856,-9.64504513316424,-0.533606902642148,-0.032375857,0.034208454,0.008246681,26.993475,169.96452,55.243114,STD
4336409277000,0.350036,1.03611797010146,-9.66528363379835,-0.528547251067428,-0.033292156,0.03756821,0.0125227375,27.259624,169.59346,55.35681,STD
4336414284000,0.355043,1.02822066715798,-9.66801923879711,-0.561652404698783,-0.03268129,0.03634648,0.01160644,27.525099,169.22818,55.458855,STD
4336419998000,0.360757,1.01739430743892,-9.65989958205559,-0.623904001345336,-0.02107485,0.027488936,0.0106901415,27.789156,168.86453,55.55823,STD
4336424266000,0.365025,1.00930769503413,-9.65383470719161,-0.670402043782768,-0.011301007,0.033292156,0.01160644,28.05478,168.50243,55.660194,STD
4336429228000,0.369987,0.999906155495103,-9.64678365070729,-0.724460920674646,-0.026572637,0.0290161,0.0076358155,226.94034,168.14775,55.756313,STD
4336434226000,0.374985,0.989794721466408,-9.648799511786,-0.78043405502781,-0.02443461,0.031154128,0.013744468,227.90385,167.78593,55.854908,STD
4336439260000,0.380019,0.979154291180365,-9.65731180268385,-0.837892363017569,-0.01282817,0.026267206,0.013744468,228.86397,167.43126,55.949986,STD
4336444254000,0.385013,0.968598409406727,-9.66575645519555,-0.894894109163945,-0.013439035,0.026267206,0.01282817,229.80089,167.08743,56.028915,STD
4336449270000,0.390029,0.957996025951267,-9.67423830881964,-0.952146964324181,-0.0018325958,0.017104227,0.015271631,230.73973,166.74266,56.1027,STD
4336454350000,0.395109,0.948868237907812,-9.68100539718647,-1.00938663355283,0.0012217305,0.01160644,0.013744468,231.68706,166.39467,56.173534,STD
4336459244000,0.400003,0.958220523959892,-9.66697671176295,-1.05614799057169,0.00580322,0.011301007,0.019242255,232.6409,166.04593,56.2409,STD
4336464358000,0.405117,0.967611651186245,-9.65306687839785,-1.10345770711747,0.008552114,0.0067195175,0.0106901415,233.57535,165.68556,56.278744,STD
4336469220000,0.409979,0.972084074738258,-9.64859482845068,-1.13029224842955,0.016187929,-0.007941248,0.0076358155,234.51387,165.32472,56.311085,STD
4336474582000,0.415341,0.976304731102216,-9.64313889461925,-1.16038230577174,0.016798794,-0.018325957,0.007941248,235.44234,164.96587,56.333332,STD
4336479227000,0.419986,0.963881258727425,-9.626573947682,-1.19765270127537,0.021991149,-0.016798794,0.016493361,236.37367,164.6073,56.3527,STD
4336484207000,0.424966,0.95056179857103,-9.60881432749953,-1.23761105856451,0.017104227,-0.013744468,0.019547688,237.30124,164.24188,56.36199,STD
4336489904000,0.430663,0.966281627386036,-9.59644840788559,-1.28588489318701,0.021991149,-0.019242255,0.018020526,238.22922,163.87668,56.367077,STD
4336494232000,0.434991,0.982747391414242,-9.58821579451783,-1.32293285687754,0.013133603,-0.022602014,0.01985312,239.16185,163.51584,56.370655,STD
4336499388000,0.440147,1.01858704135617,-9.57431778575721,-1.35128609510216,0.015271631,-0.023518313,0.02076942,240.07935,163.15602,56.363113,STD
4336504244000,0.445003,1.05585066435296,-9.56034365354567,-1.3745757804387,0.021991149,-0.014049901,0.017104227,240.99785,162.80058,56.356014,STD
4336509271000,0.45003,1.07058944203822,-9.561435,-1.41687934968153,0.02443461,-0.023518313,0.021685716,241.90588,162.44385,56.33431,STD
4336514204000,0.454963,1.07970782736923,-9.56599428787879,-1.46247132394325,0.014966198,-0.027183503,0.020158553,242.81412,162.09314,56.31603,STD
4336519291000,0.46005,1.10420270776778,-9.57824198385119,-1.46748703074407,0.011911872,-0.03023783,0.025350908,243.72049,161.7391,56.28835,STD
4336524178000,0.464937,1.13290374309076,-9.59259280120605,-1.45792001896975,0.009773844,-0.027183503,0.024129177,244.62415,161.39099,56.260784,STD
4336529278000,0.470037,1.15715349438379,-9.59245823528868,-1.42765303093079,0.008857546,-0.029626964,0.02107485,245.5181,161.04195,56.220222,STD
4336534187000,0.474946,1.17890248095855,-9.58810835621762,-1.39285467966321,0.0036651916,-0.025961773,0.0106901415,246.41093,160.69864,56.181725,STD
4336539282000,0.480041,1.20269836949784,-9.58031416544229,-1.34567670710476,0.0061086523,-0.028710667,0.015577064,247.31378,160.35194,56.13983,STD
4336544314000,0.485073,1.22694636064204,-9.5706147664285,-1.2923311265875,0.0021380284,-0.026267206,0.013133603,248.21198,160.01385,56.10136,STD
4336549392000,0.490151,1.2453303776588,-9.56392250504211,-1.21748902539765,0.005497787,-0.018020526,0.0061086523,249.11853,159.6832,56.074375,STD
4336554323000,0.495082,1.26005847854247,-9.55901303555463,-1.13402973579374,-0.0067195175,-0.021685716,0.0027488936,250.02307,159.35715,56.04322,STD
4336559407000,0.500166,1.28522413227398,-9.57171035728385,-1.08630973849191,-0.0030543262,-0.014660766,0.002443461,250.94485,159.0359,56.026478,STD
4336564224000,0.504983,1.31254244606198,-9.58992291512041,-1.05443842787209,-0.00580322,-0.011911872,0.0027488936,251.8642,158.71979,56.006264,STD
4336569251000,0.51001,1.30180121948769,-9.59266124008036,-1.00757534721246,-0.0106901415,-0.009468411,0.005192355,252.81068,158.4004,55.993954,STD
4336574240000,0.514999,1.27300439074837,-9.58786167674536,-0.95478117789553,-0.0125227375,-0.011911872,0.0027488936,253.7561,158.08401,55.979286,STD
4336579231000,0.51999,1.26090821160793,-9.59284437440203,-0.896533270545739,-0.007330383,-0.011911872,0.00061086525,254.241073584811,157.927729343753,55.978896961026,STD
4336584221000,0.52498,1.25624275890852,-9.60217498750366,-0.835882341608904,-0.004581489,0.00580322,0.0061086523,254.72595,157.77148,55.978508,STD
4336589244000,0.530003,1.25153715120697,-9.60402485193165,-0.785295325937913,-0.0061086523,0.0036651916,-0.0009162979,255.68506,157.46527,55.972206,STD
4336594311000,0.53507,1.24678509268472,-9.60164902115262,-0.740150737723155,-0.0070249503,0.006414085,0.005497787,256.6734,157.15543,55.96874,STD
4336599353000,0.540112,1.24205648027714,-9.59928491245165,-0.695228887756941,-0.0070249503,0.013133603,0.006414085,257.67645,156.8669,55.98753,STD
4336604349000,0.545108,1.23737100872056,-9.59694237237428,-0.650716876168046,-0.011911872,0.019547688,0.0021380284,258.68417,156.57925,56.002136,STD
4336609266000,0.550025,1.2327393726268,-9.609304636866,-0.608050675281232,-0.015882496,0.02321288,0.004276057,259.69916,156.28992,56.011436,STD
4336614270000,0.555029,1.22801050868364,-9.6329489565818,-0.565490884979278,-0.019242255,0.016798794,0.008857546,260.71512,156.00175,56.015625,STD
4336619285000,0.560044,1.21786337886978,-9.64650075184275,-0.52994214387285,-0.015271631,0.01282817,0.004276057,261.7579,155.73329,56.045643,STD
4336624221000,0.56498,1.20334523243243,-9.65133972972973,-0.500905825731982,-0.015882496,0.003970624,0.0009162979,262.8025,155.46335,56.066353,STD
4336629441000,0.5702,1.20884368911214,-9.64754978936949,-0.447317360518658,-0.011911872,0.0106901415,0.0027488936,263.8741,155.19444,56.091824,STD
4336634273000,0.575032,1.22716501845986,-9.6383894116599,-0.383192664757003,-0.01985312,0.015271631,-0.005192355,264.94073,154.92888,56.111343,STD
4336639278000,0.580037,1.22337735498965,-9.63694141204023,-0.35434186,-0.014660766,0.006414085,0.00030543262,266.0227,154.65297,56.12012,STD
4336644297000,0.585056,1.20204838670743,-9.641681028794,-0.35434186,-0.015577064,0.0125227375,0.0018325958,267.11136,154.38016,56.128056,STD
4336649360000,0.590119,1.18053243404497,-9.64646219628242,-0.35434186,-0.009773844,0.010995574,-0.0076358155,268.21252,154.10384,56.13271,STD
4336654383000,0.595142,1.15918646718272,-9.6512055903757,-0.35434186,-0.0067195175,0.01282817,-0.004276057,269.3239,153.82256,56.128315,STD
4336659280000,0.600039,1.13510061155624,-9.66047924162173,-0.366105355283128,-0.01160644,0.029932396,-0.00030543262,270.4398,153.54086,56.11774,STD
4336664278000,0.605037,1.10744372804314,-9.67430797216872,-0.389152767837057,-0.01160644,0.033292156,-0.002443461,271.55075,153.25745,56.098194,STD
4336669281000,0.61004,1.0960356047408,-9.68429184705761,-0.425763719480573,-0.0061086523,0.041233405,-0.0033597588,272.67493,152.96793,56.07032,STD
4336674283000,0.615042,1.1059094898485,-9.68922889271359,-0.480070118503556,-0.004276057,0.04153884,0.0036651916,273.79892,152.67563,56.0327,STD
4336679221000,0.61998,1.11318236534439,-9.68945618719163,-0.518934580961121,0.004581489,0.03970624,-0.0015271631,274.91656,152.37978,55.984657,STD
4336684275000,0.625034,1.11795848012631,-9.68467997266627,-0.542815184793764,0.008552114,0.042760566,0.004886922,276.04056,152.0778,55.9256,STD
4336689272000,0.630031,1.11621040161523,-9.68108297807903,-0.576834803086242,0.005497787,0.04550946,0.0033597588,277.14322,151.78076,55.86005,STD
4336694285000,0.635044,1.10697888572253,-9.67877505090857,-0.622992406648399,0.00580322,0.043066,0.007330383,278.24628,151.4784,55.78416,STD
4336699222000,0.639981,1.09788732498798,-9.67650211325834,-0.668450234054418,0.0067195175,0.031154128,0.005497787,279.3356,151.18309,55.7055,STD
4336704263000,0.645022,1.08860424666859,-9.674181295212,-0.714865649884627,0.0033597588,0.029932396,0.0012217305,280.4265,150.88614,55.620605,STD
4336709199000,0.649958,1.0767892164576,-9.6732487611338,-0.762487096528588,0.0061086523,0.024129177,0.007941248,281.5096,150.5845,55.52408,STD
4336714226000,0.654985,1.05806395918903,-9.67558946411902,-0.816322189789965,0.0143553335,0.022602014,0.004581489,282.58713,150.285,55.424652,STD
4336719208000,0.659967,1.03950632407624,-9.67790921392454,-0.869675369544924,0.01038471,0.002443461,0.008552114,283.62097,149.97878,55.30037,STD
4336724281000,0.66504,1.02060971971509,-9.68027133571568,-0.92400308550175,0.0143553335,0.0012217305,0.008552114,284.65704,149.6721,55.174644,STD
4336729239000,0.669998,1.00129025648373,-9.68044218688684,-0.974951507255949,0.006414085,-0.016493361,0.004276057,285.67526,149.3705,55.04401,STD
4336734284000,0.675043,0.977825003448276,-9.67105588965517,-1.01718901172414,0.014049901,-0.01740966,0.005497787,286.69754,149.0647,54.908485,STD
4336739244000,0.680003,0.95884550850817,-9.65950356231268,-1.06043765713043,0.02107485,-0.016187929,0.0076358155,287.66843,148.74753,54.744644,STD
4336745114000,0.685873,0.969715820023204,-9.62689251426085,-1.12565958297399,0.014660766,-0.024129177,-0.0027488936,288.6279,148.43367,54.578335,STD
4336749327000,0.690086,0.981570929872219,-9.60395812447502,-1.17531755230989,0.0067195175,-0.021685716,0.006414085,289.57785,148.11331,54.400356,STD
4336754285000,0.695044,1.04521377785721,-9.58274385658118,-1.2686603310428,0.013439035,-0.019547688,0.0125227375,290.5168,147.79568,54.22102,STD
4336759176000,0.699935,1.10799658735591,-9.5618162679832,-1.36074172087392,0.017104227,-0.017715093,0.010079277,291.42502,147.47935,54.034477,STD
4336764289000,0.705048,1.12826546548291,-9.58099027767695,-1.40045255038505,0.014966198,-0.010995574,0.01282817,292.33423,147.15977,53.842445,STD
4336769197000,0.709956,1.13748760398293,-9.60865678947368,-1.42581345533428,0.02443461,-0.018325957,0.01160644,293.23212,146.8407,53.647373,STD
4336774281000,0.71504,1.14704044671604,-9.63731541742287,-1.45208379778781,0.023823744,-0.011911872,0.01160644,294.07715,146.50986,53.428658,STD
4336779197000,0.719956,1.15627761722666,-9.66502702540835,-1.47748604080542,0.033292156,-0.006414085,0.015882496,294.91437,146.17734,53.206066,STD
4336784255000,0.725014,1.18809123684307,-9.66931964281144,-1.48114971079426,0.03481932,-0.005497787,0.015577064,295.7469,145.8474,52.982742,STD
4336789223000,0.729982,1.22722827901472,-9.66497099680102,-1.47680115559821,0.04550946,-0.0018325958,0.015271631,296.57895,145.51555,52.756947,STD
4336794315000,0.735074,1.2495728403106,-9.67217383271438,-1.4702402596894,0.04795292,0.010995574,0.0125227375,297.39963,145.17706,52.519596,STD
4336799299000,0.740058,1.25763002653612,-9.68828812103309,-1.46218307346388,0.04337143,0.01740966,0.02076942,298.21564,144.83633,52.277336,STD
4336804227000,0.744986,1.26841657628764,-9.69959382666402,-1.45653021347068,0.05131268,0.01160644,0.018325957,299.01526,144.49521,52.03129,STD
4336809274000,0.750033,1.29235388340927,-9.69001922375198,-1.46131766489699,0.049480084,0.011301007,0.02076942,299.8167,144.15259,51.78126,STD
4336815067000,0.755826,1.31812328706884,-9.68443972579943,-1.44999967436505,0.04917465,0.010995574,0.020463986,300.61554,143.81068,51.530434,STD
4336819265000,0.760024,1.33368263355425,-9.69027439949688,-1.41110128784287,0.053145275,0.013744468,0.017715093,301.4099,143.46982,51.278374,STD
4336824286000,0.765045,1.35229232357409,-9.69725293609405,-1.36457703850322,0.062308256,0.0067195175,0.02076942,302.1887,143.12968,51.023182,STD
4336829278000,0.770037,1.37079452882783,-9.7041911664651,-1.3183215012191,0.0729984,0.003970624,0.016187929,302.96362,142.79324,50.770065,STD
4336864199000,0.804958,1.3516385760811,-9.6553841709547,-1.13497111372065,0.09285152,0.0012217305,0.01985312,307.5717,140.79918,49.247143,STD
4336869266000,0.810025,1.34847010988403,-9.66085991581348,-1.10216782884177,0.10476339,0.004276057,0.021685716,308.34888,140.47766,49.001007,STD
4336874197000,0.814956,1.34617872258722,-9.67002565641225,-1.06779699546315,0.106901415,0.004276057,0.024129177,308.729190744499,140.318498635587,48.8769799395157,STD
4336879219000,0.819978,1.34384504848367,-9.67936054777039,-1.03279185954195,0.099571034,-0.00061086525,0.02687807,309.11652,140.1564,48.750664,STD
4336884470000,0.825229,1.34140496032801,-9.68912110422631,-0.996190511727886,0.09590584,0.01985312,0.02443461,309.90656,139.8417,48.509308,STD
4336889275000,0.830034,1.35810323623389,-9.68478876057088,-0.979471005506444,0.10476339,0.013744468,0.026572637,310.68616,139.53113,48.268093,STD
4336894318000,0.835077,1.38382258994568,-9.674500804239,-0.969183264021728,0.10629055,0.02687807,0.02443461,311.4746,139.22316,48.028522,STD
4336899307000,0.840066,1.3438097795082,-9.67631067647059,-0.918694681051109,0.10781772,0.020158553,0.023518313,312.27734,138.91742,47.79194,STD
4336904254000,0.845013,1.28898647672131,-9.68087937647059,-0.85930277367406,0.11789699,-0.004276057,0.0143553335,313.06903,138.6139,47.55467,STD
4336909286000,0.850045,1.23842167700454,-9.67156369198185,-0.832170898360061,0.11789699,-0.0015271631,0.014049901,313.86,138.31116,47.315964,STD
4336914269000,0.855028,1.19029137503782,-9.65712429984871,-0.817731787667171,0.11301007,-0.008246681,0.013133603,314.62793,138.01088,47.075138,STD
4336919289000,0.860048,1.16749629086225,-9.64993763342082,-0.807061248463109,0.112704635,-0.0106901415,0.01863139,315.43146,137.71436,46.838814,STD
4336924273000,0.865032,1.15357650744629,-9.64529810936133,-0.797781429997084,0.12705997,-0.016187929,0.016187929,316.22076,137.41895,46.600536,STD
4336929259000,0.870018,1.13942169548079,-9.63404969092176,-0.785079841615568,0.11911872,-0.033292156,0.015271631,317.00064,137.1178,46.352386,STD
4336934290000,0.875049,1.12503361640454,-9.61966131136771,-0.770691727483576,0.1160644,-0.049785517,0.002443461,317.76807,136.81915,46.10464,STD
4336939264000,0.880023,1.11727313782596,-9.60975856304326,-0.781139741373566,0.106595986,-0.06811147,0.01038471,318.53098,136.5196,45.853237,STD
4336944298000,0.885057,1.1124931254784,-9.60179187579734,-0.803446492282117,0.10567969,-0.07788532,0.0015271631,319.27948,136.22757,45.606674,STD
4336949369000,0.890128,1.10767797994514,-9.59376663324189,-0.825917198252966,0.113926366,-0.09162979,-0.004581489,320.013,135.93152,45.3531,STD
4336954317000,0.895076,1.10297962851572,-9.58593604752619,-0.847842864422117,0.10934488,-0.113926366,-0.006414085,320.72998,135.63692,45.09746,STD
4336959273000,0.900032,1.09827368072182,-9.57809280120303,-0.869803980334468,0.10476339,-0.12583824,-0.007330383,321.43665,135.34317,44.840797,STD
4336964288000,0.905047,1.09351170973989,-9.57015618289982,-0.892026538102918,0.10415252,-0.13683382,-0.009162978,322.1262,135.05008,44.582024,STD
4336969312000,0.910071,1.08363464850427,-9.55910876157408,-0.905634091503739,0.1133155,-0.14630222,-0.01038471,322.8025,134.75659,44.32179,STD
4336974284000,0.915043,1.07091673995727,-9.54639103009259,-0.914112692775107,0.11026118,-0.16371189,-0.013439035,323.46313,134.46475,44.060326,STD
4336979209000,0.919968,1.06191082097805,-9.53738519769722,-0.914914331002088,0.11942416,-0.17715092,-0.01160644,324.09644,134.17223,43.795288,STD
4336984264000,0.925023,1.0588482079585,-9.53432252071867,-0.902663870929019,0.116980694,-0.1853976,-0.015882496,324.7178,133.88307,43.531357,STD
4336989217000,0.929976,1.05584739247169,-9.53132164256342,-0.890660601148226,0.11301007,-0.19150625,-0.016187929,325.32648,133.59273,43.264656,STD
4336994259000,0.935018,1.05279265560827,-9.52826684190549,-0.878441645720251,0.10903945,-0.21074851,-0.02443461,325.92004,133.3064,43.00008,STD
4336999282000,0.940041,1.04974943004998,-9.52522355279307,-0.866268735542798,0.10903945,-0.22632557,-0.021991149,326.5097,133.01955,42.73439,STD
4337004317000,0.945076,1.04669893419371,-9.52217299323085,-0.854066744154488,0.11148291,-0.23243423,-0.02687807,327.08896,132.73767,42.472294,STD
4337009335000,0.950094,1.04352819119497,-9.51923139507054,-0.841383768369879,0.11789699,-0.2275473,-0.027794369,327.6581,132.45276,42.205925,STD
4337014281000,0.95504,1.03869728679245,-9.51762106557879,-0.822060201203468,0.11728613,-0.24404067,-0.035430185,328.2105,132.17198,41.941933,STD
4337019250000,0.960009,1.03384391761006,-9.51600324769675,-0.802646775152133,0.119729586,-0.2519819,-0.035124753,328.7674,131.88779,41.675278,STD
4337024602000,0.965361,1.02861646100629,-9.5142607318375,-0.781737003321435,0.12370021,-0.26175576,-0.04153884,329.3111,131.60858,41.412243,STD
4337029332000,0.970091,1.02399653018868,-9.51272072809791,-0.763257328291688,0.12736541,-0.2669481,-0.04550946,329.84525,131.3278,41.146564,STD
4337034280000,0.975039,1.01916367232704,-9.51110974744178,-0.743925947309196,0.13164146,-0.28588495,-0.049785517,330.3649,131.0499,40.88252,STD
4337039231000,0.97999,1.01233844998243,-9.51137077512298,-0.724233377055516,0.13164146,-0.2950479,-0.054367006,330.8808,130.77429,40.620075,STD
4337044247000,0.985006,0.995459579768597,-9.52101603804839,-0.70253196350266,0.12797627,-0.3200934,-0.06078109,331.37823,130.50156,40.3591,STD
4337049252000,0.990011,0.978617724621022,-9.53064014908142,-0.680878140768999,0.12858713,-0.3304781,-0.062002823,331.8818,130.22646,40.095905,STD
4337054255000,0.995014,0.961782599485493,-9.54026041431583,-0.659232970911555,0.13927728,-0.34574974,-0.06719518,332.3687,129.95552,39.835796,STD
4337059236000,0.999995,0.944631028737134,-9.54720877632621,-0.63643677037213,0.13927728,-0.35888332,-0.07238753,332.83963,129.68231,39.57284,STD
4337064225000,1.004984,0.925716284981196,-9.54247999039984,-0.608064667082344,0.14019357,-0.3753767,-0.08307768,333.29877,129.41359,39.313686,STD
4337069238000,1.009997,0.904113410510814,-9.53736332763062,-0.583048589785662,0.13225232,-0.38087448,-0.086437434,333.7633,129.13826,39.04758,STD
4337074243000,1.015002,0.869169106219198,-9.53037432860267,-0.576059726981288,0.1423316,-0.39370266,-0.0852157,334.2141,128.86624,38.784176,STD
4337079239000,1.019998,0.834287638838396,-9.52339789720535,-0.569083431562576,0.13591751,-0.4184427,-0.09162979,334.65994,128.59735,38.52307,STD
4337084260000,1.025019,0.799231624483111,-9.51638655572297,-0.562072226739247,0.14355333,-0.43188173,-0.1001819,335.1004,128.33029,38.263638,STD
4337089357000,1.030116,0.764560314434895,-9.50881850189447,-0.557355824001479,0.13958271,-0.46120325,-0.1020145,335.52158,128.06543,38.005123,STD
4337094263000,1.035022,0.742850777053877,-9.49579296081693,-0.583407286993808,0.14263703,-0.4804455,-0.106595986,335.93695,127.80557,37.751343,STD
4337099351000,1.04011,0.720335871592274,-9.48228420561871,-0.610425192355605,0.1423316,-0.49632803,-0.111177474,336.3398,127.53613,37.48753,STD
4337104300000,1.045059,0.713867742346677,-9.467860910515,-0.595344591039214,0.14110987,-0.50946164,-0.11911872,336.7328,127.27133,37.22783,STD
4337109212000,1.049971,0.709051397348213,-9.4534120766868,-0.576079190928637,0.14477506,-0.5375614,-0.124005646,337.11096,127.0093,36.970306,STD
4337114232000,1.054991,0.729540899924981,-9.46899467282445,-0.553751200075019,0.14508049,-0.55955255,-0.12461651,337.48096,126.74963,36.714584,STD
4337119241000,1.06,0.752032549962491,-9.48698789891223,-0.531259550037509,0.14110987,-0.5714644,-0.13072516,337.84128,126.495285,36.463753,STD
4337124229000,1.064988,0.801329717966246,-9.46620029203162,-0.534862940995514,0.14355333,-0.59131753,-0.12858713,338.18506,126.23912,36.210995,STD
4337129214000,1.069973,0.857422895332194,-9.43560393601794,-0.545061690835292,0.14263703,-0.6078109,-0.13958271,338.52286,125.99102,35.96594,STD
4337134315000,1.075074,0.853603694455208,-9.43730953953317,-0.550032452772396,0.14874569,-0.60994893,-0.1386664,338.86066,125.74383,35.72177,STD
4337139835000,1.080594,0.843849300876465,-9.44218683817695,-0.554909649561768,0.1386664,-0.6246097,-0.14660765,339.1853,125.504974,35.48537,STD
4337144237000,1.084996,0.850155079983677,-9.45382596551724,-0.544360680024485,0.1518,-0.6224717,-0.1459968,339.504,125.27617,35.259106,STD
4337149311000,1.09007,0.860069930667211,-9.46869803448276,-0.529488403999184,0.15607607,-0.6310238,-0.1459968,339.81128,125.05215,35.037125,STD
4337154279000,1.095038,0.853895416139767,-9.45141904034942,-0.454569686657654,0.1591304,-0.6640105,-0.16126843,340.09674,124.82562,34.81224,STD
4337159174000,1.099933,0.844145325457571,-9.42704381364393,-0.366818799251248,0.14446963,-0.6957755,-0.17287487,340.37762,124.60057,34.588585,STD
4337164224000,1.104983,0.862677524624057,-9.38772478379669,-0.398162588382536,0.13744467,-0.7266242,-0.18570304,340.63977,124.37827,34.367474,STD
4337169242000,1.110001,0.885633692874749,-9.34640382860418,-0.448666128810547,0.12858713,-0.7254025,-0.18051068,340.90048,124.156845,34.147057,STD
4337174242000,1.115001,0.942008096024723,-9.32271097331502,-0.496376057317767,0.124311075,-0.72082096,-0.17501289,341.16226,123.9432,33.93459,STD
4337179235000,1.119994,1.00768431238105,-9.30394595379182,-0.543287660723045,0.13316862,-0.70952,-0.16982053,341.42487,123.73067,33.723198,STD
4337184258000,1.125017,1.06047070104146,-9.3133802441418,-0.580481465796115,0.129198,-0.69058317,-0.172264,341.68002,123.530136,33.52346,STD
4337189270000,1.130029,1.10853696553174,-9.33260713138394,-0.614127830863209,0.129198,-0.6640105,-0.16615535,341.93997,123.32773,33.321907,STD
4337194239000,1.134998,1.13088936432601,-9.35472527387668,-0.584348194883291,0.14049901,-0.6563747,-0.16401732,342.18536,123.14164,33.136536,STD
4337199369000,1.140128,1.14522382765999,-9.37861604609998,-0.53178845108831,0.14782938,-0.66798115,-0.1695151,342.43158,122.957634,32.953197,STD
4337204255000,1.145014,1.18902361784129,-9.37914691107103,-0.498775174094525,0.13255776,-0.68966687,-0.17715092,342.66843,122.78113,32.777184,STD
4337209643000,1.150402,1.25106560063818,-9.36960204814095,-0.470140430820385,0.13103059,-0.69913524,-0.17348573,342.90393,122.604385,32.600975,STD
4337214233000,1.154992,1.31478786601264,-9.3825464177567,-0.448734052401352,0.12736541,-0.7247916,-0.1731803,343.13004,122.43134,32.428368,STD
4337219253000,1.160012,1.39339414942228,-9.41398872318509,-0.427772389593416,0.12644911,-0.75441855,-0.16920967,343.35,122.25786,32.255253,STD
4337224175000,1.164934,1.51867410876512,-9.45322880286084,-0.41643771156357,0.12644911,-0.77366084,-0.1777618,343.55145,122.09549,32.09321,STD
4337229224000,1.169983,1.669513704063,-9.49737710827056,-0.409079678589363,0.12095132,-0.81489426,-0.18234327,343.73434,121.93273,31.930649,STD
4337234339000,1.175098,1.81950018364471,-9.54151750726538,-0.398777267601879,0.12339478,-0.84940815,-0.18173242,343.9032,121.77818,31.776321,STD
4337239250000,1.180009,1.93254477194363,-9.57748590090681,-0.357670142633016,0.11759156,-0.8549059,-0.18387043,344.06723,121.62775,31.626034,STD
4337244238000,1.184997,2.04489020709206,-9.61184588764577,-0.316148134881957,0.112704635,-0.8717047,-0.18051068,344.19955,121.501785,31.50014,STD
4337249340000,1.190099,2.15144185146487,-9.63964204029582,-0.274454022004361,0.118507855,-0.8912524,-0.18784106,344.32855,121.38118,31.379606,STD
4337254285000,1.195044,2.24963173868087,-9.66732749759533,-0.231843612892477,0.12370021,-0.8940013,-0.1863139,344.45166,121.2711,31.269617,STD
4337259251000,1.20001,2.31498172270697,-9.70000270285125,-0.174662408856063,0.12797627,-0.9092729,-0.19822577,344.56345,121.16853,31.167097,STD
4337264212000,1.204971,2.38026590932669,-9.73264500918928,-0.117538777518035,0.12583824,-0.93401295,-0.20280726,344.64716,121.0688,31.06731,STD
4337269249000,1.210008,2.4519879521084,-9.76657964839721,-0.0860827997977551,0.13408493,-0.95203346,-0.20463985,344.72778,120.97337,30.97185,STD
4337274205000,1.214964,2.52398095609263,-9.80017610627971,-0.0620850950510668,0.11942416,-0.95294976,-0.20616703,344.8058,120.88092,30.87929,STD
4337279652000,1.220411,2.61032656231295,-9.8109131933406,-0.0276190889025865,0.12217305,-0.9505063,-0.20677789,344.87164,120.793846,30.792194,STD
4337284243000,1.225002,2.68439666713903,-9.81527034396987,0.00288034994163116,0.13316862,-0.93523467,-0.20922135,344.94135,120.70952,30.707855,STD
4337289245000,1.230004,2.71896606609553,-9.81256561031875,0.0461899670997416,0.13194689,-0.9056077,-0.21380283,345.0131,120.63522,30.633581,STD
4337294219000,1.234978,2.74176447865416,-9.80800583258351,0.0917868269735809,0.12736541,-0.8689558,-0.2134974,345.09186,120.56174,30.56017,STD
4337299300000,1.240059,2.75947602281851,-9.79936190513416,0.123565699359814,0.1414153,-0.8197812,-0.2125811,345.17865,120.502075,30.50072,STD
4337304264000,1.245023,2.77454238685823,-9.7893180120431,0.148676234424255,0.14477506,-0.7684685,-0.22143865,345.27734,120.44618,30.445038,STD
4337309240000,1.249999,2.7660483943635,-9.787497,0.162583554664494,0.15943582,-0.7272351,-0.22143865,345.37582,120.38472,30.383831,STD
4337314212000,1.254971,2.75235513842024,-9.787497,0.173994568715491,0.16676621,-0.6768387,-0.21685717,345.49283,120.325386,30.324774,STD
4337319249000,1.260008,2.73848286766679,-9.787497,0.185554761349214,0.18112154,-0.62796944,-0.21533,345.62112,120.27037,30.270048,STD
4337324176000,1.264935,2.72491354505368,-9.787497,0.196862497919862,0.20311269,-0.5656612,-0.22815818,345.76843,120.21878,30.21869,STD
4337329225000,1.269984,2.70645193966834,-9.79417735577133,0.237856075649138,0.22937989,-0.4908302,-0.22968534,345.9317,120.16258,30.162582,STD
4337334236000,1.274995,2.68550972092516,-9.80464819179577,0.295447521610299,0.25320363,-0.43096542,-0.2593123,346.1078,59.88157,30.11833,STD
4337339241000,1.28,2.64121008220227,-9.77734405879017,0.295468027018904,0.28008172,-0.39095375,-0.2941316,346.28683,59.937077,30.062468,STD
4337344244000,1.285003,2.591395286862,-9.74111534026465,0.281882177183365,0.31764993,-0.35460728,-0.31429017,346.48102,59.98799,30.010809,STD
4337349322000,1.290081,2.52373591477062,-9.74401596667352,0.330152585229377,0.35124752,-0.32925636,-0.32406402,346.68106,60.039276,29.958225,STD
4337354244000,1.295003,2.45100852984983,-9.7634098212302,0.402879970150175,0.37843102,-0.31887165,-0.3323107,346.8842,60.085056,29.910532,STD
4337359239000,1.299998,2.30316249269775,-9.78876618136929,0.431591065804767,0.38453966,-0.29840767,-0.33169982,347.0875,60.139957,29.853172,STD
4337364251000,1.30501,2.12996326892033,-9.8161134923559,0.445264687983098,0.35979962,-0.31612277,-0.3304781,347.27768,60.19261,29.797752,STD
4337369248000,1.310007,1.97448546264465,-9.81606882737219,0.453354919774879,0.34666604,-0.31887165,-0.3399465,347.4822,60.25918,29.727581,STD
4337374260000,1.315019,1.82805486853566,-9.80092052398485,0.458404248788134,0.31673363,-0.33750305,-0.3417791,347.67172,60.328037,29.65522,STD
4337379226000,1.319985,1.71368033563139,-9.74444857424859,0.403553968901895,0.3155119,-0.3481932,-0.34208453,347.87717,60.42577,29.553394,STD
4337384311000,1.32507,1.60740539931554,-9.67198845918064,0.326263124010515,0.31581733,-0.32467487,-0.33933565,348.0841,60.52296,29.451994,STD
4337389241000,1.33,1.50989980028902,-9.61995755722543,0.303111475722543,0.31306845,-0.30085114,-0.34788775,348.29404,60.637657,29.3329,STD
4337394241000,1.335,1.41302455944123,-9.57382653603083,0.298498373603083,0.31673363,-0.3100141,-0.35246924,348.49725,60.75268,29.21322,STD
4337399233000,1.339992,1.27971897807246,-9.57317504523619,0.331029538969175,0.32070425,-0.3231477,-0.33628133,348.70425,60.879417,29.081861,STD
4337404249000,1.345008,1.12587672194756,-9.59721288991193,0.383912827375901,0.31215215,-0.31642818,-0.29016098,348.91132,61.01224,28.944275,STD
4337409238000,1.349997,1.01118692746993,-9.59632481699862,0.3377396562887,0.25259277,-0.31948254,-0.24251351,349.1025,61.167866,28.785131,STD
4337414248000,1.355007,0.916570839716032,-9.58213261624926,0.23839279872609,0.20891592,-0.30970868,-0.21013765,349.29724,61.330185,28.61895,STD
4337419220000,1.359979,0.857405408102277,-9.54427336636037,0.177452145013983,0.17073683,-0.2947425,-0.17745635,349.5101,61.530827,28.414728,STD
4337424222000,1.364981,0.819128797147423,-9.49164295385537,0.139175529063124,0.14355333,-0.2687807,-0.14385876,349.7269,61.73849,28.203785,STD
4337429223000,1.369982,0.818980496868418,-9.46565069215628,0.130309982926877,0.11759156,-0.24098633,-0.11056661,349.9481,61.966145,27.97391,STD
4337434320000,1.375079,0.843000273650231,-9.45604309044385,0.139917890629859,0.08552113,-0.21777347,-0.08399397,350.1739,62.19871,27.739481,STD
4337439243000,1.380002,0.896601257953653,-9.46337529948939,0.132585736956009,0.076052725,-0.19608775,-0.062002823,350.401,62.43966,27.496803,STD
4337444255000,1.385014,0.972012024528673,-9.48222788040063,0.113733047772977,0.06078109,-0.15882497,-0.05131268,350.6387,62.682194,27.252832,STD
4337449304000,1.390063,1.06970969006039,-9.49328876140976,0.121381124724285,0.053145275,-0.124005646,-0.038179077,350.8729,62.926834,27.006474,STD
4337454325000,1.395084,1.18396013173943,-9.49804929175329,0.14994373017325,0.04550946,-0.09773844,-0.025045475,351.1143,63.17136,26.760218,STD
4337459237000,1.399996,1.30436628642825,-9.49099838632866,0.181194577714803,0.036651913,-0.081855945,-0.013744468,351.35184,63.40608,26.523642,STD
4337464959000,1.405718,1.4532077586057,-9.47115244916252,0.220885654230874,0.022602014,-0.065973446,0.0030543262,351.59555,63.64314,26.284704,STD
4337469227000,1.409986,1.57110755866361,-9.47022901834261,0.229407349276122,0.01863139,-0.060170226,0.0036651916,351.8297,63.8576,26.068172,STD
4337474241000,1.415,1.72314661150781,-9.49644261982749,0.197951000122284,0.01985312,-0.044898596,0.005497787,352.06955,64.0744,25.849215,STD
4337479217000,1.419976,1.86027291547525,-9.51437164930693,0.184260606594059,0.0125227375,-0.018936822,-0.0030543262,352.29974,64.261246,25.660164,STD
4337484212000,1.424971,1.98341544176238,-9.52384434534654,0.18899685570297,0.012217305,-0.014049901,-0.00030543262,352.52557,64.44924,25.469852,STD
4337489185000,1.429944,2.09077872681913,-9.53436274754975,0.188272280334125,0.019242255,-0.022296581,0.004276057,352.74353,64.60971,25.306175,STD
4337494262000,1.435021,2.1822357977824,-9.54639655944956,0.181051990681121,0.011301007,-0.028710667,-0.0070249503,352.9613,64.76499,25.147993,STD
4337499373000,1.440132,2.27430534469854,-9.55851096020196,0.173783347699733,-0.002443461,-0.03726278,-0.0036651916,353.16144,64.90448,25.005804,STD
4337504277000,1.445036,2.36264599390159,-9.57013471705772,0.166809091158796,-0.00030543262,-0.04428773,-0.015577064,353.358,65.034775,24.872723,STD
4337509193000,1.449952,2.42689828438462,-9.56906824932692,0.168609815327885,0.011301007,-0.06658431,-0.025350908,353.5448,65.16528,24.739815,STD
4337514268000,1.455027,2.459611344,-9.55037517,0.1826297029,0.020463986,-0.07696902,-0.02076942,353.7309,65.29512,24.607553,STD
4337519177000,1.459936,2.46990663139215,-9.54495311622095,0.183469687050237,0.0030543262,-0.099571034,-0.035430185,353.88586,65.388405,24.512398,STD
4337524276000,1.465035,2.43817369754561,-9.56448097355661,0.159059721115021,0.008246681,-0.12980886,-0.0421497,354.03308,65.48354,24.414846,STD
4337529185000,1.469944,2.40762320288928,-9.58328117980505,0.135559324414496,0.013133603,-0.1386664,-0.047036625,354.175,65.56768,24.328703,STD
4337534716000,1.475475,2.37320177572607,-9.60446348592852,0.109081285271982,0.01985312,-0.14996742,-0.06414085,354.3053,65.64545,24.249172,STD
4337539230000,1.479989,2.3443553985002,-9.61841096881208,0.0924711623184346,0.02443461,-0.14996742,-0.07513642,354.42343,65.729225,24.163624,STD
4337544243000,1.485002,2.31097627725467,-9.62794801708383,0.0829343082332141,0.027488936,-0.14752395,-0.07666359,354.53766,65.80972,24.081352,STD
4337549252000,1.490011,2.27858212359408,-9.62692900590533,0.0663398550639593,0.024129177,-0.1432479,-0.089491755,354.64975,65.900085,23.989758,STD
4337554285000,1.495044,2.24792892676479,-9.60503383265195,0.0356865910182611,0.042760566,-0.13622294,-0.090713486,354.76236,65.99137,23.896515,STD
4337559239000,1.499998,2.21932448193712,-9.58576030745948,0.0139425666708651,0.052534413,-0.12186762,-0.09590584,354.88403,66.081604,23.803944,STD
4337564222000,1.504981,2.20068703050186,-9.58110084729545,0.0465581295493068,0.061086524,-0.11056661,-0.09101892,355.00565,66.17274,23.709978,STD
4337569211000,1.50997,2.18226199167723,-9.57662842365319,0.0773287449549575,0.050701816,-0.09468412,-0.09193522,355.13266,66.26379,23.616468,STD
4337574242000,1.515001,2.16642120610587,-9.57436540702644,0.0863806285680334,0.064446285,-0.070554934,-0.092240654,355.2644,66.35442,23.522253,STD
4337579595000,1.520354,2.14956655987976,-9.57195755013856,0.096011861519891,0.06536258,-0.043982297,-0.089491755,355.4025,66.448875,23.423899,STD
4337584307000,1.525066,2.13473018905641,-9.56983802432953,0.104489793458832,0.062002823,-0.028710667,-0.09101892,355.54312,66.54073,23.32776,STD
4337589178000,1.529937,2.11939318517684,-9.56764697801888,0.113253801624066,0.0720821,-0.0015271631,-0.08460484,355.69388,66.63425,23.229073,STD
4337594311000,1.53507,2.11277083059949,-9.55611944648768,0.140846685139757,0.07360926,0.025350908,-0.08155051,355.84756,66.725845,23.132513,STD
4337599259000,1.540018,2.10841389731519,-9.54304882861346,0.171345240877161,0.06841691,0.044898596,-0.07513642,356.00537,66.81928,23.033792,STD
4337604351000,1.54511,2.08949361445211,-9.53153828947369,0.199363253759707,0.06688975,0.064446285,-0.070554934,356.17358,66.917206,22.929844,STD
4337609242000,1.550001,2.06423459566437,-9.52143451315789,0.224622182872088,0.06505715,0.077579886,-0.071776666,356.3437,67.01461,22.826464,STD
4337614274000,1.555033,2.04401649111089,-9.5230953055204,0.233592595052088,0.063224554,0.09132435,-0.06169739,356.52448,67.11244,22.721365,STD
4337619289000,1.560048,2.02531231352351,-9.52777144757083,0.238268649214293,0.059864793,0.1142318,-0.05681047,356.70978,67.20788,22.61852,STD
4337624270000,1.565029,1.99921576900958,-9.50026924161342,0.257328879972045,0.05100725,0.1432479,-0.048563786,356.90167,67.309814,22.508839,STD
4337629243000,1.570002,1.97068616054313,-9.46222996226038,0.281103563624201,0.038789943,0.16707164,-0.05222898,357.09647,67.40926,22.40171,STD
4337634250000,1.575009,1.93814180645313,-9.44728817993406,0.288977775233161,0.03848451,0.1826487,-0.04153884,357.3012,67.51546,22.286839,STD
4337639274000,1.580033,1.90414707492228,-9.44048909637306,0.291244093823834,0.03359759,0.19914207,-0.041233405,357.51083,67.61765,22.1763,STD
4337644283000,1.585042,1.87025384040038,-9.43371031262365,0.293503645937824,0.016493361,0.20952678,-0.03359759,357.72263,67.72679,22.058823,STD
4337649406000,1.590165,1.83558922861046,-9.42677725030617,0.295814623274611,0.015271631,0.21746802,-0.03604105,357.93585,67.83213,21.94463,STD
4337654308000,1.595067,1.80582719165894,-9.423578,0.290623697432808,0.008857546,0.20555615,-0.040317107,358.14008,67.94104,21.827892,STD
4337659276000,1.600035,1.77888076682113,-9.423578,0.278375321343837,-0.002443461,0.20005837,-0.038789943,358.3457,68.050476,21.710772,STD
4337664285000,1.605044,1.75171195804243,-9.423578,0.266025861635774,-0.008857546,0.19181168,-0.028710667,358.5509,68.17146,21.582281,STD
4337669287000,1.610046,1.72458111725363,-9.423578,0.25369366010658,-0.01985312,0.1826487,-0.03023783,358.7516,68.28934,21.457825,STD
4337674246000,1.615005,1.71719793077854,-9.43537606151674,0.254896040796692,-0.02443461,0.17073683,-0.016798794,358.94583,68.413284,21.327538,STD
4337679226000,1.619985,1.72200757821702,-9.45461455082695,0.264515350740218,-0.03756821,0.15332718,-0.02107485,359.13345,68.53158,21.204176,STD
4337684203000,1.624962,1.73398889557657,-9.46333698466739,0.256534954626727,-0.03359759,0.1554652,-0.013133603,359.33267,68.66013,21.070084,STD
4337689255000,1.630014,1.7505791993093,-9.46570707401783,0.23757461846331,-0.04062254,0.14966199,-0.008857546,359.52197,68.78634,20.93997,STD
4337694262000,1.635021,1.76702172717743,-9.46805605212109,0.218783168904673,-0.055588737,0.14752395,-0.01038471,359.71857,68.90842,20.813524,STD
4337699294000,1.640053,1.78354635274811,-9.47041675869501,0.199897893454492,-0.06169739,0.1441642,-0.006414085,359.91043,69.03206,20.685644,STD
4337704300000,1.645059,1.80813242778749,-9.478104120737,0.19153613,-0.05589417,0.14294247,0.00030543262,0.10879237,69.15027,20.5624,STD
4337709242000,1.650001,1.8388545322964,-9.48992030528786,0.19153613,-0.056505036,0.14385876,0.0067195175,0.3042151,69.26915,20.439209,STD
4337714217000,1.654976,1.86978178238378,-9.50181539192091,0.19153613,-0.055283304,0.14996742,0.011301007,0.49359056,69.383255,20.321205,STD
4337719258000,1.660017,1.9011193236281,-9.51386828271833,0.19153613,-0.06719518,0.14660765,0.012217305,0.6780166,69.497856,20.203627,STD
4337724241000,1.665,1.92293580376065,-9.521870853981,0.18901132874645,-0.058643065,0.14477506,0.011911872,0.87756664,69.60282,20.094519,STD
4337729220000,1.669979,1.93694507431202,-9.52654070835374,0.184341571895995,-0.065973446,0.13041973,0.0070249503,1.0697836,69.7075,19.987455,STD
4337734243000,1.675002,1.95588820559579,-9.53364153760294,0.193755744218176,-0.06566802,0.13652839,0.009773844,1.2594473,69.80384,19.887875,STD
4337739248000,1.680007,1.97966630064491,-9.54315272596488,0.217533856647485,-0.06352998,0.13530666,0.018020526,1.4401078,69.90014,19.789087,STD
4337744263000,1.685022,2.00349190437543,-9.55268291770017,0.241359477792936,-0.076052725,0.12675454,0.017104227,1.619797,69.99119,19.695911,STD
4337749328000,1.690087,2.02755505151305,-9.56230812630221,0.265422642519099,-0.070554934,0.12186762,0.014660766,1.7977157,70.08269,19.601347,STD
4337754300000,1.695059,2.04439092277287,-9.56269901916774,0.275461838613566,-0.077579886,0.12003502,0.01160644,1.9717212,70.1745,19.507917,STD
4337759281000,1.70004,2.05386595322276,-9.55322428552984,0.270724323388619,-0.0693332,0.11911872,0.009773844,2.1423142,70.26443,19.415514,STD
4337764249000,1.705008,2.06537796930761,-9.54595544736069,0.274515129432964,-0.07422013,0.11789699,0.015882496,2.308674,70.34773,19.329777,STD
4337769291000,1.71005,2.07956459992165,-9.54122650465185,0.288701671166389,-0.08246681,0.1301143,0.015271631,2.4767053,70.428024,19.24674,STD
4337774216000,1.714975,2.09157547946075,-9.54233135943696,0.293049536538462,-0.061086524,0.1255328,0.015577064,2.635483,70.50649,19.164768,STD
4337779231000,1.71999,2.1010972185567,-9.55185280025773,0.2835277875,-0.064751714,0.13775012,0.014660766,2.8008666,70.58581,19.08324,STD
4337784176000,1.724935,2.1158148095773,-9.55943647916051,0.27951084191546,-0.058643065,0.13805555,0.010995574,2.9589071,70.65899,19.00616,STD
4337790054000,1.730813,2.14354780317273,-9.56498319371367,0.285057440634545,-0.058643065,0.1386664,0.013439035,3.1183407,70.73389,18.92776,STD
4337794227000,1.734986,2.15373560587554,-9.56409200670446,0.284689213596636,-0.037873644,0.13591751,0.005192355,3.279504,70.799,18.85851,STD
4337799317000,1.740076,2.15076456229658,-9.55517884494423,0.277261601546901,-0.028099801,0.13713925,0.008857546,3.439424,70.86864,18.785301,STD
4337804183000,1.744942,2.14792426798318,-9.54665793234595,0.270160862797586,-0.021380283,0.13439035,-0.002443461,3.59327,70.92685,18.722906,STD
4337809247000,1.750006,2.14496840065826,-9.53779029950631,0.262771191398793,-0.012217305,0.13316862,-0.006414085,3.745403,70.98747,18.657494,STD
4337814203000,1.754962,2.1420755731578,-9.52911178679832,0.255539119626989,-0.01160644,0.13500121,0.0009162979,3.9043183,71.04352,18.595762,STD
4337819275000,1.760034,2.13911503621625,-9.52023014506004,0.248137774181752,-0.007941248,0.1328632,-0.008857546,4.0595737,71.09321,18.540102,STD
4337824207000,1.764966,2.13623621756567,-9.51159365904797,0.240940724549278,-0.011911872,0.13164146,-0.0106901415,4.212901,71.14774,18.480051,STD
4337829265000,1.770024,2.12264209392244,-9.49307292359637,0.21715867570519,0.008552114,0.13194689,-0.009773844,4.363763,71.19893,18.422007,STD
4337834196000,1.774955,2.10669749659464,-9.47257283576114,0.189825140426876,0.014049901,0.12614368,-0.0143553335,4.5102005,71.24929,18.366192,STD
4337839242000,1.780001,2.09038104189659,-9.4515946481285,0.161854136773587,0.010995574,0.12950343,-0.013439035,4.66135,71.29886,18.310503,STD
4337844306000,1.785065,2.07400638343623,-9.43054162748408,0.133783355461605,0.0125227375,0.11575896,-0.0143553335,4.803357,71.346344,18.256998,STD
4337849284000,1.790043,2.03761470998825,-9.40809025499412,0.139986244709166,0.018325957,0.106901415,-0.011301007,4.9486423,71.39347,18.204231,STD
4337854278000,1.795037,1.99078104449667,-9.38467342224834,0.16340309212593,0.02076942,0.098043874,-0.013439035,5.087644,71.43927,18.153368,STD
4337860113000,1.800872,1.93477507807844,-9.37188941096585,0.176187232192156,0.030543262,0.08155051,-0.01863139,5.220139,71.489174,18.099236,STD
4337864246000,1.805005,1.89466059978717,-9.36787809298672,0.180198680021283,0.024129177,0.071776666,-0.016493361,5.3499126,71.5415,18.04367,STD
4337869256000,1.810015,1.87079874483957,-9.37237282250153,0.166320932301247,0.023518313,0.048563786,-0.018936822,5.468045,71.599236,17.98333,STD
4337874243000,1.815002,1.86103796380544,-9.38213355257511,0.141918964427754,0.018325957,0.034513887,-0.025961773,5.5843897,71.65677,17.923996,STD
4337879218000,1.819977,1.84217544663031,-9.38212592364628,0.121495245481885,0.013744468,0.016798794,-0.024129177,5.691684,71.72594,17.853495,STD
4337884256000,1.825015,1.81868113498247,-9.3774269631866,0.102699778500195,0.0070249503,-0.011301007,-0.02076942,5.7904587,71.7935,17.785618,STD
4337889253000,1.830012,1.81604690625878,-9.37870926609829,0.0987832721669007,0.0061086523,-0.026267206,-0.021991149,5.887495,71.86248,17.716913,STD
4337894313000,1.835072,1.82576779051153,-9.38356980972919,0.103643722413641,-0.0009162979,-0.032070424,-0.019547688,5.9777822,71.933464,17.64731,STD
4337899267000,1.840026,1.83515418998822,-9.39275111248528,0.108336926556243,0.00030543262,-0.049785517,-0.008246681,6.069495,72.00515,17.576529,STD
4337904254000,1.845013,1.84452982830781,-9.40447066038477,0.113024748163526,-0.016187929,-0.052534413,-0.003970624,6.163101,72.07638,17.507536,STD
4337909236000,1.849995,1.85389606654888,-9.4161784581861,0.117707869729093,-0.028099801,-0.073303826,-0.007941248,6.244395,72.145805,17.440584,STD
4337914243000,1.855002,1.86330930518257,-9.42794500647821,0.122414491503239,-0.027488936,-0.07574729,-0.004276057,6.329356,72.21798,17.370703,STD
4337919284000,1.860043,1.88355155275879,-9.45190837414562,0.113782331751362,-0.030543262,-0.086132,-0.003970624,6.406165,72.288,17.303179,STD
4337924282000,1.865041,1.91200024797424,-9.48509865884101,0.0948165530946013,-0.03176499,-0.0888809,-0.0018325958,6.4837995,72.35852,17.234835,STD
4337929254000,1.870013,1.934539902526,-9.50499370087296,0.0741891235710438,-0.03848451,-0.089491755,0.0036651916,6.5530963,72.4295,17.167524,STD
4337934293000,1.875052,1.95246616374443,-9.5139565507058,0.051781281605312,-0.05009095,-0.092240654,0.006414085,6.620486,72.49967,17.101381,STD
4337939219000,1.879978,1.98175657626669,-9.52119715628504,0.0327538702541543,-0.05100725,-0.08032878,0.014660766,6.6891274,72.56911,17.035797,STD
4337944355000,1.885114,2.03190077526761,-9.52621168090529,0.0177106000818636,-0.048258353,-0.0711658,0.014966198,6.7558584,72.63656,16.972675,STD
4337949189000,1.889948,2.08611302583276,-9.5231159214405,0.0134481817580328,-0.048258353,-0.071776666,0.018936822,6.815256,72.70721,16.907398,STD
4337954209000,1.894968,2.15224823326128,-9.50894405252039,0.0228960676526973,-0.050396383,-0.05955936,0.029321533,6.8807745,72.778656,16.840694,STD
4337959168000,1.899927,2.21757980569913,-9.49494439156923,0.0322291485593986,-0.0421497,-0.043066,0.027488936,6.942383,72.83861,16.78446,STD
4337964219000,1.904978,2.28412341779503,-9.48068500712391,0.0417353779725361,-0.04184427,-0.029626964,0.027183503,7.006163,72.90156,16.725473,STD
4337969202000,1.909961,2.34678254727417,-9.46982708834063,0.0593281828125746,-0.050396383,-0.026572637,0.032375857,7.068199,72.966705,16.663017,STD
4337974245000,1.915004,2.40443775351174,-9.46502239166335,0.0929603812670115,-0.057726767,-0.009773844,0.034513887,7.137921,73.02995,16.601883,STD
4337979209000,1.919968,2.44496313105277,-9.46044640465702,0.117799114057359,-0.043676864,-0.003970624,0.034208454,7.190356,73.06714,16.56593,STD
4337984221000,1.92498,2.45359370222961,-9.45613147954688,0.126429694246157,-0.03604105,0.00580322,0.03634648,7.248343,73.10605,16.528622,STD
4337989240000,1.929999,2.46284949277901,-9.45069877359404,0.134612030926338,-0.03970624,0.028710667,0.030543262,7.3024635,73.13249,16.504284,STD
4337994251000,1.93501,2.47678502993902,-9.43676294540703,0.139257209979673,-0.043982297,0.03634648,0.031154128,7.354196,73.16075,16.477726,STD
4337999334000,1.940093,2.48899886739453,-9.42260718091098,0.144299322412805,-0.040011674,0.040927973,0.028099801,7.4103184,73.183846,16.455553,STD
4338004291000,1.94505,2.47492747199881,-9.40853598142476,0.153680262472088,-0.035124753,0.056199603,0.0290161,7.471042,73.20841,16.431742,STD
4338009511000,1.95027,2.45882233061872,-9.3931215907238,0.160734027426397,-0.029626964,0.055283304,0.028099801,7.525786,73.22833,16.411297,STD
4338014281000,1.95504,2.42985513476764,-9.37243070567986,0.135904948089501,-0.028710667,0.07513642,0.030543262,7.5902905,73.24955,16.38894,STD
4338019246000,1.960005,2.39970374537549,-9.35089396684482,0.110060843496694,-0.028405234,0.0729984,0.03145956,7.648323,73.27133,16.365988,STD
4338024268000,1.965027,2.39225791456751,-9.34793596301411,0.101457106090344,-0.032375857,0.076358154,0.029321533,7.712925,73.29325,16.342733,STD
4338029202000,1.969961,2.38992770788046,-9.34910109068942,0.096796689066476,-0.02565634,0.089186326,0.025961773,7.7787523,73.31452,16.319431,STD
4338034397000,1.975156,2.38747423732123,-9.35032785158793,0.0918897441051879,-0.032375857,0.09621128,0.025350908,7.8452215,73.34246,16.29112,STD
4338039179000,1.979938,2.38521581649078,-9.35145708558536,0.0873728989069435,-0.036651913,0.10995574,0.024740042,7.9165697,73.36898,16.263447,STD
4338044350000,1.985109,2.38277368054049,-9.35267817906105,0.0824886231812802,-0.037873644,0.10995574,0.031154128,7.9944468,73.39279,16.237371,STD
4338049323000,1.990082,2.38042505511392,-9.35385251629845,0.0777913686495217,-0.038179077,0.10751228,0.015882496,8.074794,73.410866,16.217274,STD
4338054346000,1.995105,2.37805281591873,-9.35503866066673,0.0730468865435447,-0.03970624,0.09621128,0.01985312,8.15077,73.43651,16.189865,STD
4338059222000,1.999981,2.37575000120327,-9.35619009207022,0.0684412535057698,-0.03726278,0.09773844,0.013439035,8.229048,73.45508,16.16938,STD
4338064233000,2.004992,2.37229287678746,-9.36480685455436,0.0808142746939275,-0.046120327,0.09407325,0.018936822,8.298458,73.47982,16.145624,STD
4338069254000,2.010013,2.36836820222005,-9.37658071433235,0.100437659825335,-0.052839845,0.086132,0.016187929,8.366233,73.50041,16.125898,STD
4338074169000,2.014928,2.36428788255136,-9.39237212940816,0.116105198684453,-0.051923547,0.08460484,0.017104227,8.437567,73.52468,16.102808,STD
4338079211000,2.01997,2.35935215469692,-9.42198659961157,0.121040931692732,-0.06078109,0.07513642,0.013133603,8.503312,73.54796,16.081999,STD
4338084227000,2.024986,2.35731764708121,-9.45127031220587,0.127344585648343,-0.06414085,0.06658431,0.008552114,8.57308,73.56969,16.061995,STD
4338089239000,2.029998,2.36212378722339,-9.48010725342946,0.136956870951237,-0.06688975,0.04917465,-0.004581489,8.636614,73.58858,16.045673,STD
4338094260000,2.035019,2.36268587070006,-9.50506760719548,0.146437616938358,-0.076052725,0.036651913,-0.0009162979,8.699294,73.61382,16.023441,STD
4338099253000,2.040012,2.35359557802386,-9.52097539394515,0.155527869273799,-0.07422013,0.03970624,-0.003970624,8.760915,73.63316,16.006699,STD
4338104255000,2.045014,2.34448889988118,-9.53691185485481,0.164634507002994,-0.081855945,0.03726278,-0.007941248,8.820683,73.65323,15.989066,STD
4338109246000,2.050005,2.33540224841975,-9.55281326956894,0.173721118139822,-0.08552113,0.03268129,-0.009773844,8.879858,73.67285,15.971496,STD
4338114287000,2.055046,2.32350469590606,-9.56513898000635,0.181436571726436,-0.081855945,0.033292156,-0.005497787,8.938969,73.69324,15.953064,STD
4338119284000,2.060043,2.28806759792658,-9.54488931545541,0.176374123871787,-0.09315695,0.02443461,-0.01038471,8.993283,73.71176,15.937826,STD
4338124266000,2.065025,2.25436760865634,-9.53180235558334,0.173342319559488,-0.07849618,0.025045475,-0.01038471,9.052838,73.735664,15.914831,STD
4338129262000,2.070021,2.22675635956526,-9.54560778791959,0.177944199213235,-0.08460484,0.025045475,-0.016798794,9.109028,73.75825,15.895175,STD
4338134269000,2.075028,2.20013108237697,-9.55701942352461,0.183860219540535,-0.079107046,0.022907447,-0.014966198,9.166877,73.78647,15.868366,STD
4338139275000,2.080034,2.1805511514805,-9.5521248497039,0.198545177935471,-0.08124508,0.0076358155,-0.01282817,9.220143,73.81372,15.843539,STD
4338144235000,2.084994,2.16168809824152,-9.54693256106092,0.208782390406101,-0.07696902,0.0015271631,-0.007941248,9.289762,73.84145,15.81576,STD
4338149986000,2.090745,2.14296016481104,-9.53890613625765,0.195405286717672,-0.080634214,0.003970624,-0.005497787,9.356445,73.869675,15.788206,STD
4338154340000,2.095099,2.12878151376664,-9.53282944462256,0.185277672483727,-0.07238753,0.006414085,-0.0125227375,9.422511,73.8982,15.759241,STD
4338159237000,2.099996,2.11283460192364,-9.52599491110463,0.173887014030895,-0.07422013,-0.0027488936,-0.01282817,9.484785,73.929955,15.727982,STD
4338164357000,2.105116,2.09699882995561,-9.51902402323165,0.166347393177826,-0.0720821,-0.004276057,-0.008552114,9.55405,73.957115,15.701538,STD
4338169252000,2.110011,2.09257174184531,-9.51459684266692,0.215045399372934,-0.056199603,-0.011911872,-0.008552114,9.617876,73.982315,15.676635,STD
4338174208000,2.114967,2.08808948471055,-9.51011449192558,0.264350265297951,-0.064446285,-0.02076942,-0.009773844,9.682704,74.01546,15.645554,STD
4338179227000,2.119986,2.0810911264819,-9.50089861003745,0.274803431837204,-0.06078109,-0.018325957,-0.009162978,9.747697,74.04735,15.61405,STD
4338184295000,2.125054,2.07381988149813,-9.49120373483146,0.282074631265918,-0.052839845,-0.021380283,-0.013133603,9.807708,74.077675,15.584612,STD
4338189244000,2.130003,2.06671937016729,-9.48173650172285,0.289175098111361,-0.051923547,-0.016798794,-0.016493361,9.8707285,74.10723,15.554886,STD
4338194229000,2.134988,2.0595672083196,-9.47220040209738,0.296327215150062,-0.04734206,-0.015271631,-0.013744468,9.931012,74.13657,15.524834,STD
4338199247000,2.140006,2.06301157373592,-9.49145286867959,0.300879193735917,-0.042760566,-0.02321288,-0.015882496,9.989083,74.163445,15.497372,STD
4338204256000,2.145015,2.06733516014421,-9.51307080072105,0.305202780144209,-0.03940081,-0.021380283,-0.010079277,10.04943,74.193,15.4668455,STD
4338209241000,2.15,2.07872281572113,-9.52947875679185,0.299702782822613,-0.04184427,-0.013133603,-0.01038471,10.109685,74.221214,15.437527,STD
4338214240000,2.154999,2.09306802840591,-9.54382416919696,0.290139364286856,-0.032986723,-0.014049901,-0.009773844,10.166798,74.25028,15.406664,STD
4338219837000,2.160596,2.11687741356756,-9.5441655956032,0.2873042,-0.032375857,-0.009773844,-0.013744468,10.227651,74.278885,15.375808,STD
4338224231000,2.16499,2.13775997979257,-9.53998899513672,0.2873042,-0.023518313,-0.009468411,-0.009773844,10.286012,74.30868,15.342891,STD
4338229215000,2.169974,2.16144653192397,-9.53525158577738,0.2873042,-0.027488936,-0.004276057,-0.0076358155,10.345121,74.33597,15.31341,STD
4338234264000,2.175023,2.18544199775694,-9.53045239238748,0.2873042,-0.018936822,-0.012217305,-0.008246681,10.399516,74.36218,15.284061,STD
4338239273000,2.180032,2.20113573554765,-9.53214184143931,0.280866646520364,-0.007941248,0.0106901415,-0.004581489,10.466632,74.38908,15.252317,STD
4338244325000,2.185084,2.21309253507315,-9.53692466113088,0.271301199408857,-0.02443461,0.005192355,-0.0067195175,10.522157,74.41518,15.223301,STD
4338249300000,2.190059,2.22486709517596,-9.54163458353104,0.261881543949684,-0.02443461,0.0021380284,-0.004581489,10.578829,74.433044,15.200586,STD
4338254289000,2.195048,2.23667478971926,-9.54635775998418,0.252435380917359,-0.015271631,0.002443461,0.0030543262,10.633856,74.452354,15.177024,STD
4338259259000,2.200018,2.25198454888808,-9.54532400528618,0.24624403565257,-0.024129177,0.013439035,0.0015271631,10.693491,74.46849,15.159281,STD
4338264239000,2.204998,2.26937152081662,-9.54097717152752,0.24189729720926,-0.032070424,0.02076942,0.011301007,10.750836,74.4894,15.136205,STD
4338269210000,2.209969,2.28351692218304,-9.53955925543168,0.235183242332383,-0.031154128,0.008246681,0.0076358155,10.802511,74.50328,15.120951,STD
4338274242000,2.215001,2.29351232416386,-9.54205816463573,0.225187803821623,-0.028405234,0.016798794,-0.00061086525,10.861574,74.519104,15.103687,STD
4338279216000,2.219975,2.30339251682136,-9.54452827083225,0.215307575055224,-0.032070424,0.024740042,0.005497787,10.911006,74.53609,15.08658,STD
4338284222000,2.224981,2.31333627324345,-9.54701426834327,0.205363782291937,-0.037873644,0.02076942,0.0012217305,10.958949,74.548004,15.0747175,STD
4338289186000,2.229945,2.32377245072369,-9.54542609190708,0.194927613265593,-0.03481932,0.015882496,0.00061086525,11.007968,74.562485,15.059839,STD
4338294285000,2.235044,2.33494068845035,-9.54063962577188,0.183759418853857,-0.028710667,0.01985312,0.0030543262,11.057667,74.576935,15.045103,STD
4338299284000,2.240043,2.34588989817689,-9.53594703031986,0.172810251592773,-0.033292156,0.011911872,-0.0030543262,11.109704,74.58242,15.039145,STD
4338304292000,2.245051,2.35685882042343,-9.53124598650635,0.16184137188813,-0.036651913,0.022296581,-0.0009162979,11.167171,74.59082,15.029453,STD
4338309269000,2.250028,2.36775984398994,-9.52657404260463,0.150940390600189,-0.027488936,0.01863139,-0.005192355,11.217427,74.59559,15.023404,STD
4338314280000,2.255039,2.37873533707649,-9.52187018267063,0.139964940081027,-0.02687807,0.016798794,-0.00580322,11.270251,74.6031,15.015177,STD
4338319278000,2.260037,2.3882912849753,-9.51714625964121,0.128942497206287,-0.0290161,0.018020526,-0.004886922,11.318637,74.61129,15.00677,STD
4338324291000,2.26505,2.39625104529628,-9.51237046994065,0.117798824445402,-0.026267206,0.026572637,-0.005192355,11.367851,74.61893,14.998535,STD
4338329267000,2.270026,2.40415205613954,-9.50762992943595,0.10673740101469,-0.022296581,0.032375857,-0.0030543262,11.411484,74.622894,14.9944725,STD
4338334323000,2.275082,2.41218009288059,-9.50281317445369,0.0954981411944159,-0.029932396,0.04062254,-0.0015271631,11.457588,74.627556,14.990132,STD
4338339271000,2.28003,2.42003664465961,-9.49809930901615,0.0844989605000497,-0.026267206,0.040927973,-0.013744468,11.502449,74.628395,14.988816,STD
4338344287000,2.285046,2.42800116845177,-9.49332066127267,0.0733486188745565,-0.026267206,0.046731193,-0.0033597588,11.55012,74.63705,14.98004,STD
4338349273000,2.290032,2.43046753809571,-9.49265748322081,0.0690790914404289,-0.026572637,0.059864793,-0.005192355,11.599643,74.63909,14.97772,STD
4338354301000,2.29506,2.4256866948471,-9.49743837638999,0.0738598867652899,-0.022602014,0.061086524,-0.008246681,11.64636,74.64378,14.972573,STD
4338359248000,2.300007,2.41761455621163,-9.4913303961719,0.0819320211090646,-0.017715093,0.06566802,-0.0076358155,11.688658,74.64753,14.971169,STD
4338364248000,2.305007,2.4046449372156,-9.4697142892741,0.0949016969848321,-0.020158553,0.08032878,-0.007941248,11.733656,74.65074,14.970271,STD
4338369219000,2.309978,2.3875054541343,-9.45063488512764,0.109530082400111,-0.017104227,0.08093964,-0.009773844,11.775945,74.65487,14.966572,STD
4338374237000,2.314996,2.35194750328339,-9.44174524657788,0.131753728583981,-0.017715093,0.09010262,-0.019242255,11.824431,74.65753,14.9643955,STD
4338379450000,2.320209,2.31596482172375,-9.433155,0.153391138166418,-0.0067195175,0.08246681,-0.015577064,11.863959,74.66506,14.957656,STD
4338384214000,2.324973,2.2947325862621,-9.433155,0.155514366146687,-0.005192355,0.07727446,-0.018020526,11.906422,74.66923,14.954801,STD
4338389226000,2.329985,2.27239506230454,-9.433155,0.157748123207372,-0.0015271631,0.07727446,-0.029321533,11.95132,74.67666,14.947382,STD
4338394289000,2.335048,2.24983024111597,-9.433155,0.160004610038626,-0.0030543262,0.08368854,-0.022602014,11.995585,74.68887,14.935313,STD
4338399272000,2.340031,2.2276219646035,-9.433155,0.162225442327811,0.007330383,0.08124508,-0.02076942,12.03678,74.69586,14.927783,STD
4338404251000,2.34501,2.19895550975003,-9.42172331403528,0.143752628875663,0.0076358155,0.07941248,-0.0125227375,12.079087,74.70747,14.916184,STD
4338409179000,2.349938,2.16831306603181,-9.40640230548642,0.118217237779461,0.008552114,0.07696902,-0.009468411,12.119833,74.71765,14.905447,STD
4338414278000,2.355037,2.14848273525861,-9.43220716463924,0.11889060032965,0.01282817,0.07727446,-0.009773844,12.166795,74.73643,14.885386,STD
4338419187000,2.359946,2.1310205711951,-9.46276567824311,0.123256145903984,0.0067195175,0.07147124,-0.011911872,12.210516,74.756096,14.865228,STD
4338424265000,2.365024,2.12288331710999,-9.46829421634615,0.130834260741822,0.009468411,0.06994407,-0.01282817,12.257356,74.78033,14.8401785,STD
4338429219000,2.369978,2.11861988547807,-9.46403091826923,0.139361130683411,0.0061086523,0.06688975,-0.011301007,12.301415,74.80526,14.815336,STD
4338434229000,2.374988,2.11430826002876,-9.45971942788461,0.14798438833528,-0.015577064,0.053450707,-0.016187929,12.344397,74.83375,14.78814,STD
4338439389000,2.380148,2.10986754399712,-9.45527885096154,0.156865827353972,-0.008552114,0.06169739,-0.0036651916,12.3919735,74.86567,14.755516,STD
4338444226000,2.384985,2.10821532508687,-9.45274820500347,0.16148799399583,-0.01740966,0.06719518,-0.009162978,12.43469,74.893265,14.72999,STD
4338449321000,2.39008,2.11305934335352,-9.454362742877,0.156643972357126,-0.026572637,0.06719518,-0.004276057,12.477325,74.92648,14.698221,STD
4338454264000,2.395023,2.11775884920083,-9.45592911396803,0.15194446323836,-0.029626964,0.058948494,-0.003970624,12.521517,74.95621,14.66975,STD
4338459239000,2.399998,2.12248877871538,-9.45750562543433,0.147214530431186,-0.034513887,0.06414085,0.0021380284,12.568948,74.989296,14.638292,STD
4338464238000,2.404997,2.12724152598034,-9.45908974218207,0.142461779857705,-0.045814894,0.05589417,-0.0067195175,12.601805,75.02207,14.609599,STD
4338469249000,2.410008,2.13200568212052,-9.46067766157054,0.137697620401072,-0.041233405,0.0421497,-0.004886922,12.633997,75.05833,14.576548,STD
4338474891000,2.41565,2.1403813724194,-9.46663847168789,0.132490840872392,-0.048258353,0.04734206,0.0027488936,12.665956,75.096794,14.541878,STD
4338479226000,2.419985,2.15162911774587,-9.47788645191005,0.128741588515308,-0.045814894,0.035124753,0.0067195175,12.688639,75.13325,14.508776,STD
4338484512000,2.425271,2.16527024765723,-9.49134547431721,0.12413375074668,-0.037873644,0.04062254,0.0018325958,12.716609,75.167076,14.47825,STD
4338489277000,2.430036,2.17670433735906,-9.50049269832122,0.119560112478076,-0.0421497,0.028405234,0.0030543262,12.735551,75.20365,14.4458885,STD
4338494504000,2.435263,2.18924704184415,-9.51052680952142,0.114543028064645,-0.034208454,0.025961773,-0.0030543262,12.758019,75.233345,14.41904,STD
4338499238000,2.439997,2.20060674397394,-9.5196145237785,0.109999144840391,-0.03145956,0.019547688,-0.00030543262,12.775538,75.26582,14.390069,STD
4338504471000,2.44523,2.21367625951847,-9.52856452763427,0.107137205521006,-0.032375857,0.021380283,0.0036651916,12.794826,75.296135,14.362855,STD
4338509379000,2.450138,2.23200277648894,-9.52398280270982,0.130045366086363,-0.032986723,0.022602014,-0.006414085,12.812234,75.32253,14.339466,STD
4338514558000,2.455317,2.25073939915864,-9.51877661045153,0.153798307872301,-0.028710667,0.02443461,0.004276057,12.833065,75.350235,14.313164,STD
4338519234000,2.459993,2.25492572399738,-9.50621781078807,0.166357291131158,-0.03390302,0.020463986,0.00061086525,12.852781,75.37137,14.2942295,STD
4338524219000,2.464978,2.25938869006263,-9.49282909899972,0.179746198647284,-0.022907447,0.018020526,-0.004581489,12.871142,75.388985,14.276931,STD
4338529223000,2.469982,2.24832711998428,-9.47488370878365,0.193758618229515,-0.030543262,0.018325957,-0.003970624,12.888965,75.40835,14.259316,STD
4338534236000,2.474995,2.2341764523482,-9.45601625044213,0.207909295716251,-0.021380283,0.03634648,-0.003970624,12.911222,75.424164,14.243372,STD
4338539244000,2.480003,2.20684057208413,-9.45581662523901,0.221213515809888,-0.028710667,0.034208454,-0.0009162979,12.926569,75.44016,14.228646,STD
4338544930000,2.485689,2.17213459069471,-9.460774208413,0.236087523365201,-0.030848695,0.021380283,-0.006414085,12.943944,75.45276,14.216426,STD
4338549293000,2.490052,2.1435171010467,-9.45890792028985,0.251329499905395,-0.03145956,0.018325957,-0.0030543262,12.97866,75.46182,14.207566,STD
4338554275000,2.495034,2.10990384388084,-9.45410642753623,0.270537085456924,-0.01740966,0.01740966,-0.0067195175,13.009898,75.4668,14.202302,STD
4338559280000,2.500039,2.08882286443105,-9.457974073474,0.274894774529013,-0.018020526,0.004886922,-0.004276057,13.039774,75.48094,14.188663,STD
4338564231000,2.50499,2.07542373099096,-9.46690648709495,0.270428427807084,-0.017715093,0.0012217305,-0.014966198,13.071733,75.48951,14.179711,STD
4338569248000,2.510007,2.06734096499163,-9.47396052219431,0.265652126069933,-0.0067195175,-0.00580322,-0.009162978,13.098077,75.51037,14.15651,STD
4338574242000,2.515001,2.0648374819933,-9.47896759275544,0.260645152230946,0.00061086525,-0.002443461,-0.008857546,13.126265,75.5267,14.138088,STD
4338579226000,2.519985,2.06233901197655,-9.48396463714405,0.255648204370812,-0.0021380284,-0.010079277,-0.0070249503,13.152748,75.54725,14.114912,STD
4338584279000,2.525038,2.05980595238693,-9.48903086212311,0.250582077256595,0.003970624,-0.0143553335,-0.0012217305,13.180697,75.56773,14.090794,STD
4338589242000,2.530001,2.07345335218705,-9.48419829187101,0.237765915436172,-0.0021380284,-0.012217305,-0.0012217305,13.207962,75.58773,14.068236,STD
4338594280000,2.535039,2.09496384276019,-9.4746381459355,0.221035562718086,0.004886922,-0.007941248,-0.0012217305,13.234152,75.60783,14.044509,STD
4338599271000,2.54003,2.11627365984049,-9.46516718754644,0.204461289114281,0.0076358155,-0.007941248,0.00061086525,13.260071,75.63039,14.01931,STD
4338604249000,2.545008,2.1375279714866,-9.4557208980532,0.187930186329321,0.0015271631,0.0015271631,0.0018325958,13.28968,75.65255,13.994516,STD
4338609238000,2.549997,2.16025580906225,-9.45983450453113,0.183464430906225,-0.010995574,-0.004276057,0.005192355,13.314359,75.67572,13.969286,STD
4338614688000,2.555447,2.1859618571316,-9.4726875285658,0.18603503571316,-0.003970624,0.0030543262,-0.0018325958,13.345457,75.69517,13.946741,STD
4338619280000,2.560039,2.2076209713948,-9.4835170856974,0.18820094713948,-0.012217305,0.006414085,0.0067195175,13.367796,75.71487,13.925888,STD
4338624318000,2.565077,2.23138373656422,-9.49539846828211,0.190577223656422,-0.01160644,0.006414085,-0.0030543262,13.39138,75.72633,13.912468,STD
4338629219000,2.569978,2.24760746955892,-9.50682768341466,0.188882255248563,-0.005192355,0.009773844,-0.0018325958,13.416297,75.7432,13.893639,STD
4338634310000,2.575069,2.25938470202908,-9.51860494048022,0.1841713499628,-0.01160644,0.009773844,-0.0018325958,13.4272732610867,75.7507892104475,13.8856348618658,STD
4338639231000,2.57999,2.27076866608049,-9.52998892830571,0.179617752455191,-0.0125227375,0.002443461,-0.00030543262,13.437883,75.758125,13.877898,STD
4338644270000,2.585029,2.28242560468139,-9.54164589125078,0.174954964842746,-0.01160644,-0.00061086525,-0.00030543262,13.4479766349715,75.7617306261636,13.8732256652988,STD
4338649222000,2.589981,2.28480592,-9.53997535540409,0.170357123655307,-0.008552114,0.002443461,0.0030543262,13.457896,75.765274,13.868634,STD
4338654286000,2.595045,2.27536156,-9.52108643816942,0.165634928862707,-0.019242255,0.00030543262,0.0009162979,13.47688,75.77166,13.861661,STD
4338659170000,2.599929,2.2662529,-9.50286892794547,0.16108058459591,-0.007330383,-0.00030543262,0.004886922,13.495263,75.77522,13.856654,STD
4338664274000,2.605033,2.25673394,-9.48383080915287,0.156321089686465,-0.0061086523,0.0015271631,0.006414085,13.513519,75.778984,13.852862,STD
4338669179000,2.609938,2.24477800365998,-9.46785475228749,0.152507459704167,0.00061086525,0.0070249503,0.009468411,13.5322895,75.78324,13.847416,STD
4338674283000,2.615042,2.22623915676291,-9.45626797297682,0.150190101422273,-0.007941248,-0.002443461,0.0009162979,13.54706,75.78565,13.845048,STD
4338679223000,2.619982,2.20829599381785,-9.44505349613616,0.147947203712132,-0.011301007,0.0030543262,0.003970624,13.566451,75.79533,13.832909,STD
4338684558000,2.625317,2.18891810428104,-9.43294231517565,0.145524964990755,-0.013439035,0.0067195175,0.002443461,13.582477,75.80178,13.824833,STD
4338689246000,2.630005,2.17230856934835,-9.42412022154063,0.141483257998793,-0.005497787,0.009468411,0.002443461,13.599382,75.809296,13.814865,STD
4338694275000,2.635034,2.15777868382945,-9.42896361786002,0.122110067192277,-0.005497787,0.004581489,0.002443461,13.6056860212025,75.8138033776627,13.8094385257814,STD
4338699292000,2.640051,2.14541466528702,-9.43294513033019,0.106394207092533,-0.00061086525,-0.004886922,0.008246681,13.611975,75.8183,13.804025,STD
4338704296000,2.645055,2.14699386212351,-9.43136590051407,0.114290196221907,-0.003970624,0.003970624,0.0030543262,13.630444,75.83284,13.787291,STD
4338709388000,2.650147,2.148600830607,-9.42975889847097,0.122325043673301,0.0012217305,0.002443461,0.008246681,13.645927,75.8523,13.76583,STD
4338714277000,2.655036,2.15014373495024,-9.42821596190602,0.130039570222764,0.003970624,-0.0033597588,0.008857546,13.662713,75.869156,13.747431,STD
4338719513000,2.660272,2.15179614794701,-9.42656351440058,0.138301640382917,0.003970624,0.0036651916,-0.0027488936,13.6736773316995,75.877910076623,13.7381416435931,STD
4338724274000,2.665033,2.15329865716734,-9.42506097380215,0.145814191191261,-0.008552114,0.0070249503,0.002443461,13.683647,75.88587,13.729695,STD
4338729333000,2.670092,2.15841038168582,-9.42267081641961,0.155043303684764,-0.016798794,0.0061086523,0.00061086525,13.699293,75.90327,13.711151,STD
4338734239000,2.674998,2.2078626121042,-9.41030792018244,0.179769457622138,-0.021685716,0.019242255,0.01038471,13.721828,75.92249,13.691011,STD
4338739191000,2.67995,2.25777852018244,-9.39782910604333,0.204727450752566,-0.020463986,0.022296581,0.008857546,13.736414,75.93745,13.6763935,STD
4338744257000,2.685016,2.28642881686657,-9.40599847791104,0.201397711594703,-0.015882496,0.01863139,0.005497787,13.752603,75.954445,13.659695,STD
4338749264000,2.690023,2.30799607526237,-9.42037665017491,0.189415935572214,-0.024129177,0.021380283,0.010995574,13.771281,75.97398,13.64102,STD
4338754252000,2.695011,2.32948149265367,-9.43470026176912,0.177479626644678,-0.022907447,0.027183503,0.011911872,13.784179,75.97812,13.635929,STD
4338759219000,2.699978,2.3508764541979,-9.44896356946527,0.165593570822089,-0.030543262,0.032375857,0.0076358155,13.797519,75.98344,13.630788,STD
4338764239000,2.704998,2.35949816896047,-9.46672320058565,0.184427145051245,-0.038789943,0.040927973,0.0106901415,13.81321,75.99099,13.6231985,STD
4338769251000,2.71001,2.36418327599805,-9.48546353089312,0.212537801953148,-0.04184427,0.033292156,0.01038471,13.825561,75.9966,13.617983,STD
4338774241000,2.715,2.37205961095134,-9.49720400457099,0.230148873306352,-0.0421497,0.032375857,0.0125227375,13.842076,75.99709,13.618135,STD
4338779232000,2.719991,2.38116308848681,-9.50630719693363,0.243804099115322,-0.040011674,0.037873644,0.010079277,13.858054,75.99643,13.619537,STD
4338784304000,2.725063,2.38361821796502,-9.50674869594595,0.242956273585056,-0.04184427,0.03970624,0.017715093,13.867723,76.0005,13.616556,STD
4338789211000,2.72997,2.38206173420774,-9.50207930968469,0.233617364540276,-0.04550946,0.02687807,0.0076358155,13.874853,75.999016,13.619389,STD
4338794279000,2.735038,2.3804541817965,-9.4972567195946,0.223972043358506,-0.03634648,0.032070424,0.007941248,13.886582,76.00006,13.618193,STD
4338799979000,2.740738,2.37864616112878,-9.49183273310811,0.213123911800477,-0.034208454,0.04153884,0.014049901,13.895747,76.00072,13.618234,STD
4338804242000,2.745001,2.37729395198728,-9.48777616216216,0.205010651303657,-0.027183503,0.046731193,0.0125227375,13.90625,75.99773,13.621361,STD
4338809363000,2.750122,2.3756695881558,-9.48290313851352,0.195264461530207,-0.026572637,0.05467244,0.009162978,13.920051,75.996346,13.622937,STD
4338814265000,2.755024,2.37791481131001,-9.47817232882425,0.185802904386697,-0.02076942,0.06414085,0.011911872,13.935488,75.995605,13.622957,STD
4338819277000,2.760036,2.38279671952807,-9.47329031865338,0.176039082852929,-0.018325957,0.07544186,0.0143553335,13.953548,75.99423,13.623689,STD
4338824880000,2.765639,2.39517121715679,-9.46618886847939,0.162715139436974,-0.020158553,0.090713486,0.0125227375,13.980117,75.99157,13.625636,STD
4338829321000,2.77008,2.40774119847544,-9.45990385047535,0.151192638878627,-0.007941248,0.09621128,0.01160644,14.006575,75.989044,13.626358,STD
4338834305000,2.775064,2.42184810838136,-9.45285036483425,0.138261284953204,-0.010079277,0.105374254,0.0076358155,14.040252,75.98345,13.632819,STD
4338854240000,2.794999,2.47827291756564,-9.42463783749569,0.0865384638249347,0.0061086523,0.15485434,0.009773844,14.15895,75.967964,13.646013,STD
4338859285000,2.800044,2.49255248427417,-9.41749802307768,0.0734488409208906,-0.0012217305,0.1572978,0.009468411,14.204986,75.96055,13.654293,STD
4338864260000,2.805019,2.50510723475337,-9.42353373554842,0.0678320421958459,0.0070249503,0.16890424,0.010995574,14.257417,75.947754,13.665276,STD
4338869972000,2.810731,2.51779210572432,-9.44527933676748,0.0696441700802995,0.009162978,0.18906279,0.01282817,14.312046,75.936676,13.675314,STD
4338874278000,2.815037,2.52735461524829,-9.4616722917481,0.0710102454777884,0.011301007,0.19333886,0.0106901415,14.361941,75.9211,13.688857,STD
4338879238000,2.819997,2.53836948920065,-9.48055502670024,0.0725838019040647,0.014049901,0.19547687,0.004886922,14.416004,75.90573,13.701839,STD
4338884320000,2.825079,2.54965529352039,-9.49990221602014,0.0741960627424388,0.020158553,0.19120082,-0.004276057,14.476512,75.88553,13.71836,STD
4338889281000,2.83004,2.56067238821347,-9.51878875797529,0.0757699364179945,0.021991149,0.19394971,-0.01038471,14.538394,75.86575,13.734568,STD
4338894261000,2.83502,2.57090464733359,-9.51812160724017,0.0701336133814714,0.017104227,0.20922135,-0.010079277,14.604337,75.84477,13.751976,STD
4338899419000,2.840178,2.58051892643052,-9.49408641144414,0.0557124848610354,0.0143553335,0.20250183,-0.0143553335,14.663392,75.821754,13.771721,STD
4338904290000,2.845049,2.57471421760074,-9.47736434191756,0.0442094483546086,0.006414085,0.19792034,-0.016798794,14.724105,75.79782,13.792873,STD
4338909273000,2.850032,2.54819007095878,-9.46852280583604,0.0353680913748958,0.0012217305,0.18997909,-0.025045475,14.780677,75.77232,13.815958,STD
4338914232000,2.854991,2.52458956596417,-9.45205192813488,0.0311887023409905,0.0009162979,0.20097467,-0.025961773,14.841323,75.74588,13.8403015,STD
4338919278000,2.860037,2.50931305353003,-9.41131491612223,0.0413730148965227,-0.004581489,0.19608775,-0.030543262,14.893887,75.71812,13.867239,STD
4338924171000,2.86493,2.48364242654911,-9.38209019859534,0.0558360823430962,-0.004886922,0.2012801,-0.03145956,14.954033,75.69702,13.887091,STD
4338929265000,2.870024,2.43504293635186,-9.37237034115362,0.0801358690543933,-0.019242255,0.20189096,-0.03481932,15.010253,75.676445,13.9080305,STD
4338934233000,2.874992,2.38950832161355,-9.36532473251089,0.0973536499722916,-0.016187929,0.20555615,-0.026267206,15.06618,75.659935,13.92364,STD
4338939800000,2.880559,2.34252864108288,-9.36271483504675,0.102573612779948,-0.013439035,0.20616703,-0.01985312,15.120309,75.64394,13.939844,STD
4338944218000,2.884977,2.30524532357174,-9.36064360691731,0.106716202268762,-0.016493361,0.21044308,-0.017104227,15.181558,75.63551,13.949234,STD
4338949397000,2.890156,2.26153995883879,-9.35821560997699,0.111572352328193,-0.014966198,0.2144137,-0.014966198,15.241635,75.62902,13.956156,STD
4338954222000,2.894981,2.22575119315081,-9.36557264380469,0.1194375290159,-0.017104227,0.22540927,-0.01863139,15.303959,75.62291,13.962991,STD
4338959280000,2.900039,2.20296473421771,-9.40203078775049,0.137666710438423,-0.01985312,0.23365596,-0.016493361,15.36537,75.61969,13.966813,STD
4338964261000,2.90502,2.1774087461711,-9.42976430342839,0.155941468673502,-0.02565634,0.24129178,-0.024129177,15.443952,75.625496,13.960559,STD
4338969282000,2.910041,2.13118787516822,-9.40408604176012,0.176484088733312,-0.027183503,0.24312437,-0.01282817,15.521517,75.63766,13.947708,STD
4338974237000,2.914996,2.09378626031624,-9.38291466891631,0.198605165079059,-0.034208454,0.25442538,-0.019242255,15.6091,75.64868,13.935261,STD
4338979219000,2.919978,2.07998604346317,-9.37371463642499,0.226205425865793,-0.028710667,0.25350907,-0.015271631,15.691814,75.66545,13.91645,STD
4338984300000,2.925059,2.06291571127451,-9.36800898636642,0.251834217325368,-0.04184427,0.25900686,-0.010995574,15.782173,75.688324,13.892618,STD
4338989277000,2.930036,2.03370999215686,-9.3777441752451,0.266437092132353,-0.040011674,0.2648101,-0.009773844,15.870885,75.7104,13.868316,STD
4338994294000,2.935053,2.00781195258791,-9.38637683889767,0.284362299442908,-0.04642576,0.26267207,-0.010079277,15.953547,75.7388,13.838333,STD
4338999372000,2.940131,1.99340134697748,-9.39118047441723,0.313183530726985,-0.058948494,0.25411993,-0.0027488936,16.034533,75.77009,13.80583,STD
4339004262000,2.945021,1.97855461783238,-9.39292576877353,0.333266046909055,-0.059864793,0.2602286,-0.0033597588,16.123741,75.803055,13.769849,STD
4339009475000,2.950234,1.95877104010303,-9.38303377333069,0.323374247715475,-0.048258353,0.25503623,0.002443461,16.205597,75.83976,13.730485,STD
4339014241000,2.955,1.94778372341375,-9.36978687627715,0.315296235317249,-0.05681047,0.26083946,0.005497787,16.292782,75.878365,13.689821,STD
4339019278000,2.960037,1.96849220697175,-9.33665304310123,0.31115453860565,-0.0580322,0.25809056,0.014966198,16.374441,75.9189,13.646221,STD
4339024183000,2.964942,1.98865800245557,-9.30438751764403,0.307121379508886,-0.058337633,0.25167647,0.008552114,16.462957,75.95734,13.604528,STD
4339029264000,2.970023,2.01252773974694,-9.30730016218116,0.314678604482828,-0.058337633,0.26419923,0.014966198,16.554518,76.0018,13.556578,STD
4339034274000,2.975033,2.03661880622615,-9.31693704157461,0.324315041136774,-0.06566802,0.25259277,0.01740966,16.636011,76.04372,13.512494,STD
4339039278000,2.980037,2.06516297603987,-9.32666781862097,0.342480174119801,-0.069027774,0.25045475,0.02687807,16.718319,76.08374,13.469557,STD
4339044262000,2.985021,2.09428792508899,-9.33637605049324,0.361896749374555,-0.07788532,0.25900686,0.024129177,16.799383,76.12178,13.429756,STD
4339049389000,2.990148,2.10571530150276,-9.34158433840593,0.372313161502758,-0.07574729,0.25045475,0.02687807,16.86892,76.15946,13.390904,STD
4339054243000,2.995002,2.11455794696595,-9.34600575347156,0.38115580696595,-0.086132,0.2565634,0.02321288,16.944403,76.195946,13.354535,STD
4339059285000,3.000044,2.11904220001344,-9.33926043908339,0.38050445998656,-0.08307768,0.2602286,0.030543262,17.01261,76.22944,13.319715,STD
4339064205000,3.004964,2.12220850980445,-9.3297613113366,0.377338150195551,-0.093767814,0.25595254,0.03145956,17.079472,76.26177,13.287982,STD
4339069285000,3.010044,2.12547778901956,-9.31995326886634,0.374068870980445,-0.09896017,0.26083946,0.030848695,17.150463,76.29164,13.257725,STD
4339074174000,3.014933,2.12862414848464,-9.31051399334722,0.370922511515355,-0.09621128,0.2602286,0.035124753,17.217503,76.32323,13.226128,STD
4339079217000,3.019976,2.13186961602043,-9.30077738740676,0.367677043979571,-0.10415252,0.2660318,0.032375857,17.287025,76.35375,13.196648,STD
4339084234000,3.024993,2.1350983510248,-9.29109098010886,0.364448308975203,-0.11759156,0.26511553,0.025961773,17.353436,76.38453,13.1672945,STD
4339089273000,3.030032,2.14766370810811,-9.29351398648649,0.367930562702703,-0.12767084,0.27000242,0.03268129,17.425844,76.416306,13.136955,STD
4339094232000,3.034991,2.16182050993641,-9.29823301897854,0.372649496645469,-0.12980886,0.25870144,0.034513887,17.49241,76.44536,13.110133,STD
4339099382000,3.040141,2.1765225727345,-9.30313380892289,0.377550184244833,-0.13347405,0.2724459,0.029932396,17.571533,76.4698,13.087611,STD
4339104176000,3.044935,2.19020833759936,-9.30769582581478,0.382112105866455,-0.1386664,0.28527406,0.035430185,17.64582,76.497894,13.061798,STD
4339109273000,3.050032,2.22826747667732,-9.31647364696486,0.394798493722045,-0.15454891,0.2770274,0.02321288,17.724588,76.51776,13.044367,STD
4339114202000,3.054961,2.27068325391374,-9.32589957208466,0.408937095976438,-0.15393804,0.28802297,0.02107485,17.81118,76.54141,13.021682,STD
4339119276000,3.060035,2.30457201323951,-9.35671529812054,0.400963270547172,-0.16584991,0.3051272,0.020158553,17.893942,76.559235,13.006415,STD
4339124242000,3.065001,2.33539413293214,-9.3919407485418,0.38775382089251,-0.16890424,0.3200934,0.014966198,17.978106,76.575035,12.992403,STD
4339129261000,3.07002,2.38012128598505,-9.44160859103217,0.372931203615293,-0.17256944,0.3277292,0.01282817,18.06621,76.58035,12.990149,STD
4339134270000,3.075029,2.4320763830391,-9.49875882345933,0.357344658223763,-0.1777618,0.35033122,0.008552114,18.16166,76.58481,12.988586,STD
4339139277000,3.080036,2.47953314664796,-9.52849272332398,0.346852362849956,-0.19456059,0.36010507,0.0030543262,18.251696,76.5868,12.991053,STD
4339144275000,3.085034,2.52583753515527,-9.55164491757763,0.337591475478379,-0.19181168,0.37782016,0.002443461,18.349049,76.588905,12.991802,STD
4339149346000,3.090105,2.56636040417036,-9.57903304673174,0.345878233599527,-0.18448131,0.39522982,-0.0009162979,18.458422,76.57702,13.007749,STD
4339154263000,3.095022,2.60350069680568,-9.60688829044661,0.35980581667554,-0.20158553,0.41722095,-0.003970624,18.57236,76.56802,13.021838,STD
4339159273000,3.100032,2.63165321749042,-9.63229891749042,0.357044685826105,-0.19639318,0.44257188,-0.008246681,18.694862,76.54532,13.047595,STD
4339164284000,3.105043,2.65585603411337,-9.65650173411338,0.347363549067985,-0.20005837,0.47067168,-0.018020526,18.8225,76.523895,13.073403,STD
4339169285000,3.110044,2.66587258763322,-9.67707907701589,0.365886780502715,-0.2003638,0.5018258,-0.010995574,18.954151,76.50001,13.100447,STD
4339174280000,3.115039,2.67068217098331,-9.69631730997386,0.394744300691735,-0.20861048,0.52442783,-0.016798794,19.089394,76.47276,13.13139,STD
4339179217000,3.119976,2.66503334958482,-9.69785741281139,0.409121637615658,-0.20616703,0.5537493,-0.02443461,19.231289,76.44577,13.160903,STD
4339184341000,3.1251,2.65533158540925,-9.69300693594306,0.418823411921708,-0.21013765,0.5864306,-0.019242255,19.378004,76.4239,13.185733,STD
4339189274000,3.130033,2.63103997763485,-9.69005700316718,0.436427164226478,-0.20433442,0.59864795,-0.024740042,19.52751,76.39427,13.217689,STD
4339194882000,3.135641,2.59702021502704,-9.68744004580227,0.459979299582907,-0.20433442,0.605062,-0.022602014,19.6817,76.3712,13.243183,STD
4339199327000,3.140086,2.57005554940798,-9.68536579910345,0.478647138680505,-0.18417588,0.6178902,-0.0290161,19.845345,76.34252,13.271961,STD
4339204281000,3.14504,2.54000314142669,-9.68305402899186,0.499452644842372,-0.18753563,0.63194007,-0.02565634,20.007921,76.32106,13.294892,STD
4339209273000,3.150032,2.50178125216561,-9.6644881271229,0.510514708565973,-0.1685988,0.64721173,-0.02107485,20.171532,76.29769,13.31677,STD
4339214284000,3.155043,2.45837811637021,-9.63555263611697,0.515337273614712,-0.160963,0.66248333,-0.012217305,20.33598,76.27969,13.334044,STD
4339219282000,3.160041,2.43064312877815,-9.61896957997125,0.514286889726881,-0.1572978,0.68844515,-0.013133603,20.514502,76.266785,13.344551,STD
4339224261000,3.16502,2.41236511719214,-9.60983035946335,0.509717374901773,-0.14996742,0.70646566,-0.013744468,20.691645,76.25771,13.350454,STD
4339229294000,3.170053,2.39100637267327,-9.60042826910891,0.52289742879604,-0.1282817,0.732122,-0.007330383,20.888147,76.25213,13.350629,STD
4339234304000,3.175063,2.36725401227723,-9.59092762257426,0.551400291033663,-0.11789699,0.7583892,0.0018325958,21.086338,76.2495,13.34803,STD
4339239274000,3.180033,2.33878617697799,-9.5888281005354,0.552811337215943,-0.11209377,0.77182823,0.007330383,21.291645,76.2502,13.339709,STD
4339244290000,3.185049,2.30544668596074,-9.59359096311719,0.528997491790601,-0.100792766,0.79229224,0.008857546,21.502586,76.253235,13.327689,STD
4339249279000,3.190038,2.29119154547455,-9.5947935528825,0.498468766451518,-0.08735373,0.8179486,0.016187929,21.71821,76.26025,13.311681,STD
4339254285000,3.195044,2.29587996763483,-9.59244929284632,0.460961369586817,-0.07880162,0.85154617,0.025045475,21.937958,76.26955,13.292764,STD
4339259263000,3.200022,2.30054216609946,-9.59011814493179,0.423663762396949,-0.06627888,0.8542951,0.036957346,22.155416,76.28935,13.263154,STD
4339264884000,3.205643,2.30580657300376,-9.58748588650922,0.381548485174319,-0.05222898,0.8881981,0.03970624,22.387596,76.30999,13.231246,STD
4339269229000,3.209988,2.30994882104461,-9.59219948216645,0.350349004590997,-0.054367006,0.9211848,0.042760566,22.622135,76.33033,13.20148,STD
4339274279000,3.215038,2.31486324437557,-9.60694254689564,0.315948020747891,-0.051923547,0.97310835,0.039095376,22.867773,76.34993,13.170602,STD
4339279219000,3.219978,2.32328322266877,-9.61701272738217,0.283590193992036,-0.048258353,1.0024298,0.04184427,23.1273,76.369446,13.139981,STD
4339284326000,3.225085,2.33687037748866,-9.62154182628021,0.251887135410686,-0.040011674,1.0210613,0.04734206,23.39387,76.39026,13.107267,STD
4339289204000,3.229963,2.35980580714286,-9.63413267119508,0.202867298814371,-0.05131268,1.02717,0.05131268,23.66053,76.41624,13.07175,STD
4339294302000,3.235061,2.41162333571429,-9.67040519549989,0.0992320614938442,-0.05497787,1.0693196,0.04520403,23.938242,76.44173,13.035068,STD
4339299330000,3.240089,2.45332225736568,-9.70109279780474,0.0139613356946852,-0.0720821,1.099252,0.03634648,24.212906,76.46921,12.999085,STD
4339304375000,3.245134,2.48123384373195,-9.72435245310996,-0.0465138103591373,-0.08307768,1.1221595,0.026267206,24.492882,76.49652,12.963032,STD
4339309174000,3.249933,2.51519481454509,-9.73392259577015,-0.0904589770171588,-0.099571034,1.1169671,0.024129177,24.765713,76.52604,12.929879,STD
4339314287000,3.255046,2.56892875159617,-9.7143826113328,-0.105113669501197,-0.11056661,1.1096367,0.01740966,25.039892,76.5541,12.89882,STD
4339319202000,3.259961,2.61332159873237,-9.69990002633518,-0.123351791936324,-0.12736541,1.1123856,0.01740966,25.322443,76.583374,12.867148,STD
4339324277000,3.265036,2.64197715872353,-9.69512424512357,-0.152007396810298,-0.14263703,1.0955868,0.018020526,25.592388,76.613846,12.836017,STD
4339329218000,3.269977,2.6698760990026,-9.69047456335675,-0.179906380787108,-0.14752395,1.0754282,0.027183503,25.861898,76.634926,12.814833,STD
4339334687000,3.275446,2.70075634680391,-9.6853280121358,-0.210786676955731,-0.14080444,1.0760391,0.024129177,26.128227,76.655304,12.794986,STD
4339339236000,3.279995,2.73117432093775,-9.68896881628941,-0.234387893120453,-0.1423316,1.0580186,0.020463986,26.38556,76.67694,12.775689,STD
4339344271000,3.28503,2.77990025869038,-9.71820448069927,-0.253878288573161,-0.14110987,1.0613784,0.016798794,26.64494,76.69909,12.755011,STD
4339349297000,3.290056,2.80825827445513,-9.74205383629961,-0.257166483646141,-0.13500121,1.0534371,0.012217305,26.889034,76.71353,12.744108,STD
4339354283000,3.295042,2.78099082892357,-9.75114271590368,-0.216265210949843,-0.12339478,1.0317514,-0.0030543262,27.126324,76.72548,12.735674,STD
4339359271000,3.30003,2.7573408492477,-9.75253042653741,-0.167929206447743,-0.121256754,1.0024298,-0.0067195175,27.369392,76.72655,12.738104,STD
4339364269000,3.305028,2.75250748093507,-9.71386368191457,-0.0809285147428052,-0.12095132,0.9837985,-0.01160644,27.605606,76.72464,12.743269,STD
4339369267000,3.310026,2.73904736290986,-9.67524566439386,-0.00526037798505966,-0.10842858,0.9578367,-0.013439035,27.828138,76.72726,12.742431,STD
4339374279000,3.315038,2.6861056064073,-9.6367422672215,0.0188040738757646,-0.10720685,0.95447695,-0.022907447,28.048336,76.72938,12.743181,STD
4339379220000,3.319979,2.6340927648048,-9.58732521604878,0.0482409628006687,-0.09865474,0.9447031,-0.035430185,28.272596,76.71556,12.754969,STD
4339384306000,3.325065,2.58140472566624,-9.48194963791917,0.105718756068247,-0.116675265,0.92271197,-0.03359759,28.488232,76.70758,12.7634325,STD
4339389255000,3.330014,2.52660243038636,-9.38781587847427,0.158854552149616,-0.10995574,0.9260717,-0.032070424,28.713497,76.70062,12.76653,STD
4339394310000,3.335069,2.45025992314212,-9.34010128208161,0.197025855594323,-0.10415252,0.93645644,-0.035124753,28.930584,76.69665,12.768737,STD
4339399350000,3.340109,2.36531370558838,-9.29779155438257,0.240142716571429,-0.10781772,0.9306532,-0.026572637,29.13937,76.7009,12.761431,STD
4339404374000,3.345133,2.22551551664891,-9.28847148697337,0.314701747428571,-0.12034045,0.9288206,-0.025961773,29.348597,76.70446,12.755281,STD
4339409361000,3.35012,2.09188863401333,-9.279200734899,0.382710116105085,-0.101098195,0.93309665,-0.025350908,29.576193,76.71196,12.739944,STD
4339414240000,3.354999,2.02214248177928,-9.26990155219425,0.378060379096427,-0.11942416,0.93126404,-0.022296581,29.797157,76.72629,12.722363,STD
4339419413000,3.360172,1.94967106738334,-9.25822810284355,0.374949107603289,-0.12705997,0.9392053,-0.012217305,30.041685,76.75762,12.681343,STD
4339424214000,3.364973,1.89956100447835,-9.22633972099475,0.393170940875855,-0.129198,0.9651671,-0.008857546,30.286486,76.790504,12.640114,STD
4339429480000,3.370239,1.84719342592802,-9.19357252890337,0.413417358257297,-0.13713925,0.9819659,0.0036651916,30.532816,76.84305,12.581002,STD
4339434272000,3.375031,1.83202179188628,-9.19140510734863,0.435091134752999,-0.13439035,0.999681,0.014049901,30.7825,76.89635,12.520494,STD
4339439567000,3.380326,1.81525764283555,-9.18901017889865,0.459039934115425,-0.14049901,1.0354166,0.026267206,31.058321,76.95471,12.453679,STD
4339444310000,3.385069,1.80024114445074,-9.18686492004345,0.480492088105223,-0.15210545,1.0418307,0.03634648,31.325655,77.01667,12.384331,STD
4339449292000,3.390051,1.78446796398413,-9.18461156149051,0.503025217174837,-0.16126843,1.0571023,0.05955936,31.6128,77.082794,12.30859,STD
4339454243000,3.395002,1.77314428160078,-9.21265338565119,0.548279661964882,-0.16065755,1.0687088,0.07452556,31.895544,77.150665,12.23193,STD
4339459174000,3.399933,1.76297010356566,-9.24826303533341,0.599150339666056,-0.16798794,1.0687088,0.0870483,32.173916,77.22656,12.1491585,STD
4339464229000,3.404988,1.74946836002655,-9.28496603773585,0.620224208999716,-0.16768251,1.070236,0.1001819,32.464928,77.3012,12.065444,STD
4339469184000,3.409943,1.73597076526026,-9.32095990566038,0.638220983229354,-0.17684549,1.0412198,0.10995574,32.741634,77.380615,11.979732,STD
4339474279000,3.415038,1.70074255556468,-9.3237276973306,0.633481151679671,-0.17470746,1.0155635,0.1133155,33.024017,77.4555,11.896369,STD
4339479190000,3.419949,1.66211285141684,-9.31889913557495,0.623823740768994,-0.16554448,0.9972375,0.11362094,33.294914,77.53299,11.811695,STD
4339484382000,3.425141,1.6524859979805,-9.28382054909471,0.605286206079387,-0.17623462,0.9611965,0.11362094,33.550003,77.61597,11.724218,STD
4339489178000,3.429937,1.64791667720852,-9.24726583978313,0.587009118610227,-0.15607607,0.9462303,0.112399206,33.801357,77.69534,11.637365,STD
4339494330000,3.435089,1.61374921582468,-9.22302828656927,0.628800575527196,-0.15607607,0.93737274,0.1133155,34.064537,77.771736,11.55738,STD
4339499238000,3.439997,1.57651753041718,-9.20234401689843,0.678442848655166,-0.14874569,0.9089675,0.12522738,34.312817,77.84876,11.475496,STD
4339504275000,3.445034,1.55526422310317,-9.17359060598153,0.72500580228623,-0.13683382,0.87017757,0.12797627,34.55145,77.924194,11.396541,STD
4339509280000,3.450039,1.5456432608892,-9.13991736380972,0.768300393449418,-0.13805555,0.8313876,0.12858713,34.777493,78.003075,11.315781,STD
4339514276000,3.455035,1.53168249016188,-9.13833520147346,0.801300794246479,-0.14477506,0.79901177,0.13469578,35.018353,78.07319,11.238866,STD
4339519837000,3.460596,1.51299872301909,-9.1596879030221,0.830660937247031,-0.14508049,0.7675522,0.1469131,35.243744,78.14499,11.161135,STD
4339524268000,3.465027,1.49811151348669,-9.17670171718538,0.854055073847542,-0.15821409,0.7519751,0.15607607,35.47087,78.211266,11.08844,STD
4339529260000,3.470019,1.48133946429108,-9.19586961614795,0.880411095041347,-0.16371189,0.73761976,0.16768251,35.684887,78.281044,11.012614,STD
4339534278000,3.475037,1.49271935082895,-9.22716574322685,0.914497940226445,-0.16035213,0.732122,0.172264,35.89316,78.3519,10.936859,STD
4339539276000,3.480035,1.52175180921957,-9.26587548564497,0.953207904957541,-0.16401732,0.7128797,0.17379116,36.089554,78.42622,10.859898,STD
4339544331000,3.48509,1.52090293661042,-9.36247419735877,0.953024905901504,-0.17073683,0.70005155,0.17928895,36.284554,78.50554,10.77654,STD
4339549328000,3.490087,1.50334781203228,-9.48974921716801,0.931080977265224,-0.18020524,0.66431594,0.1863139,36.463947,78.58598,10.694079,STD
4339554388000,3.495147,1.49639871537002,-9.60840827324478,0.895204273586338,-0.1881465,0.64599,0.18417588,36.63853,78.659325,10.618269,STD
4339559285000,3.500044,1.50134258945815,-9.7122297323424,0.845765486243938,-0.18692477,0.61636305,0.17715092,36.7966,78.732796,10.543753,STD
4339564270000,3.505029,1.52749347876978,-9.79333872917289,0.783713925004479,-0.19181168,0.589485,0.17287487,36.99901,78.793434,10.479858,STD
4339569285000,3.510044,1.57051620888823,-9.85548290006967,0.712009428050164,-0.19028452,0.58368176,0.17623462,37.195343,78.85371,10.4162855,STD
4339574275000,3.515034,1.61878578617854,-9.90702155646941,0.648277790310933,-0.19517145,0.57910025,0.17012598,37.391655,78.91291,10.358521,STD
4339579226000,3.519985,1.6710989857673,-9.94982312527583,0.591208849819458,-0.20341812,0.5852089,0.16187929,37.586018,78.97279,10.300625,STD
4339584340000,3.525099,1.71115625456691,-9.95339448952905,0.543616313268115,-0.20708331,0.57787853,0.15974127,37.783577,79.028534,10.248905,STD
4339589838000,3.530597,1.74221706258972,-9.92233357339494,0.502201875543211,-0.20891592,0.57360244,0.15332718,37.98071,79.082054,10.200479,STD
4339594336000,3.535095,1.76001864877811,-9.87219215977023,0.483441793672476,-0.21288654,0.5571091,0.14172074,38.167725,79.1324,10.158949,STD
4339599351000,3.54011,1.77404683079544,-9.79737535176711,0.474089690230747,-0.2171626,0.5329799,0.13194689,38.348354,79.18224,10.118647,STD
4339604375000,3.545134,1.78343051444986,-9.71587771100285,0.50142976361798,-0.20647246,0.50671273,0.1337795,38.51939,79.22907,10.082068,STD
4339609282000,3.550041,1.78775015390201,-9.62948492195974,0.566224409526611,-0.20250183,0.47616947,0.12217305,38.68004,79.2713,10.052136,STD
4339614235000,3.554994,1.78538745054067,-9.5518987964009,0.628246873329568,-0.19211712,0.4364632,0.11728613,38.847263,79.29965,10.032165,STD
4339619286000,3.560045,1.7658698110071,-9.49724960135571,0.682896174351194,-0.18692477,0.39064834,0.10629055,39.001457,79.324394,10.01698,STD
4339624205000,3.564964,1.7468622345142,-9.44402857771143,0.736117301202389,-0.18142697,0.3494149,0.101098195,39.14383,79.33718,10.009065,STD
4339629258000,3.570017,1.71771174182495,-9.42232641154562,0.793915474301676,-0.16584991,0.32253686,0.094989546,39.274918,79.34641,10.004103,STD
4339634228000,3.574987,1.68668968670391,-9.4090314301676,0.851527908659218,-0.1518,0.27550024,0.09865474,39.385983,79.357544,9.997989,STD
4339639275000,3.580034,1.63165349485396,-9.42024203755216,0.880979642350487,-0.14721853,0.25350907,0.098043874,39.50123,79.36007,9.995075,STD
4339644259000,3.585018,1.56526855577191,-9.44395094436718,0.895205016147427,-0.12461651,0.23426682,0.10262536,39.601463,79.362816,9.989698,STD
4339649316000,3.590075,1.52908653983017,-9.47786765345734,0.871466191378892,-0.108123146,0.21013765,0.09560041,39.692028,79.36293,9.985565,STD
4339654310000,3.595069,1.50974695677315,-9.51654641568945,0.827952306198949,-0.08460484,0.20525073,0.10567969,39.78038,79.3667,9.974802,STD
4339659628000,3.600387,1.50006039732914,-9.53941746190102,0.779046511374705,-0.06047566,0.19853121,0.1133155,39.87774,79.371284,9.959851,STD
4339664266000,3.605025,1.49569892851532,-9.55250168617439,0.735431795911233,-0.03359759,0.20219639,0.11209377,39.974644,79.37413,9.944318,STD
4339669251000,3.61001,1.47251267363139,-9.57912228649635,0.693724286952555,-0.0076358155,0.2134974,0.119729586,40.076138,79.38726,9.917078,STD
4339674246000,3.615005,1.43856576441606,-9.61306944890511,0.654927710766423,0.0076358155,0.21991149,0.12614368,40.175236,79.398415,9.8906975,STD
4339679218000,3.619977,1.44838946279298,-9.62775466323428,0.583437591768167,0.019242255,0.2284636,0.12095132,40.27887,79.4117,9.862416,STD
4339684273000,3.625032,1.48162223346082,-9.63250230812984,0.493234187840541,0.034513887,0.22968534,0.124005646,40.37983,79.42713,9.830283,STD
4339689275000,3.630034,1.49100561349791,-9.64319643519809,0.438853408946845,0.04184427,0.23060162,0.1160644,40.490105,79.44785,9.792882,STD
4339694364000,3.635123,1.48615429603822,-9.65775018494923,0.404894161400557,0.04886922,0.2302962,0.11759156,40.59788,79.47036,9.752462,STD
4339699359000,3.640118,1.51243757595718,-9.62562147056402,0.373960704701523,0.06536258,0.22082779,0.106901415,40.703133,79.48879,9.719521,STD
4339704268000,3.645027,1.55598565044257,-9.56755774176616,0.344928668517909,0.07727446,0.2049453,0.09468412,40.80437,79.50712,9.687123,STD
4339709272000,3.650031,1.595712954375,-9.54179770527344,0.313211154308594,0.0720821,0.20372356,0.08460484,40.920338,79.52185,9.658052,STD
4339714282000,3.655041,1.633197148125,-9.53242646113281,0.280412465207031,0.07544186,0.18784106,0.07696902,41.02543,79.532234,9.632537,STD
4339719284000,3.660043,1.66505283119976,-9.54379141679071,0.262203223968443,0.09132435,0.17256944,0.07941248,41.132313,79.53422,9.614112,STD
4339724275000,3.665034,1.69351242749826,-9.56750770576561,0.252716693519897,0.09407325,0.15882497,0.0729984,41.23324,79.533745,9.600503,STD
4339729347000,3.670106,1.73440374488962,-9.57383372497135,0.247510365083969,0.11178834,0.15393804,0.074830994,41.328568,79.53036,9.5882435,STD
4339734380000,3.675139,1.7824428733742,-9.56902971430707,0.245108412421887,0.12644911,0.13561209,0.07452556,41.414318,79.52558,9.578717,STD
4339739273000,3.680032,1.82914572568396,-9.56435933398116,0.242773273463896,0.13316862,0.11759156,0.07971791,41.498226,79.51842,9.570916,STD
4339744358000,3.685117,1.87768118531918,-9.55950568919121,0.240346504283151,0.14202617,0.09254608,0.09010262,41.57291,79.511444,9.561994,STD
4339749270000,3.690029,1.92382900133968,-9.57975019104941,0.247706567517717,0.15393804,0.06872234,0.10140363,41.643715,79.50231,9.556173,STD
4339754296000,3.695055,1.97055557842928,-9.61713170643627,0.26172453576546,0.17440203,0.05100725,0.106901415,41.7074,79.49305,9.549254,STD
4339759272000,3.700031,2.00228467686575,-9.65488564608722,0.244955608214322,0.18784106,0.04886922,0.11728613,41.763977,79.4729,9.551095,STD
4339764278000,3.705037,2.02159838853862,-9.6935128677611,0.20149972165777,0.18112154,0.039095376,0.12461651,41.81181,79.454216,9.552539,STD
4339769281000,3.71004,2.0407653918067,-9.70039966292135,0.166235731344337,0.17684549,0.043676864,0.12156218,41.857246,79.427345,9.5604,STD
4339774257000,3.715016,2.05971901885254,-9.68144613483146,0.137805270984389,0.17256944,0.050701816,0.12614368,41.899105,79.40599,9.563871,STD
4339779232000,3.719991,2.07350877092391,-9.66027870108696,0.149091103233696,0.16920967,0.043676864,0.13225232,41.937485,79.38867,9.56698,STD
4339784321000,3.72508,2.08296856209239,-9.6366294701087,0.19638959482337,0.17928895,0.043676864,0.13133603,41.97903,79.37031,9.570214,STD
4339789249000,3.730008,2.087744,-9.61914757574717,0.233570778625902,0.19058995,0.022907447,0.13347405,42.018677,79.350914,9.57525,STD
4339794237000,3.734996,2.087744,-9.60742625307945,0.261701975059135,0.20799962,0.017715093,0.14569137,42.06164,79.33266,9.576997,STD
4339799212000,3.739971,2.087744,-9.59573547916769,0.28975985442067,0.22357668,0.013744468,0.13836098,42.095646,79.302216,9.588341,STD
4339804257000,3.745016,2.087744,-9.58388021195465,0.318212518014428,0.23823744,0.010079277,0.13164146,42.127007,79.27373,9.595964,STD
4339809173000,3.749932,2.08414546448497,-9.56421218206013,0.349582239274519,0.24770586,0.00061086525,0.12644911,42.15476,79.24322,9.60527,STD
4339814262000,3.755021,2.07453741241991,-9.53058415032035,0.388014066298669,0.25625798,-0.0070249503,0.12736541,42.181053,79.21161,9.614566,STD
4339819176000,3.759935,2.05859307491863,-9.50810295167176,0.42013362626689,0.269697,-0.004886922,0.12858713,42.20971,79.168785,9.628314,STD
4339824499000,3.765258,2.02842601323602,-9.50307552805997,0.445272870585857,0.27152961,-0.005497787,0.13255776,42.234287,79.12818,9.641074,STD
4339829752000,3.770511,2.00902438808608,-9.500193,0.468106785348779,0.28527406,-0.004886922,0.122783914,42.258183,79.07782,9.658869,STD
4339834274000,3.775033,2.00469959759325,-9.500193,0.48540596312578,0.28130344,-0.015271631,0.12644911,42.2775094495786,79.037664998711,9.67074412622707,STD
4339839837000,3.780596,1.99937920628152,-9.500193,0.506687547816947,0.28344148,-0.0125227375,0.12797627,42.301285,78.988266,9.685353,STD
4339844931000,3.78569,1.99450736135217,-9.500193,0.526174945339292,0.28955013,-0.0061086523,0.12767084,42.322304,78.943,9.698374,STD
4339849208000,3.789967,1.98283902270998,-9.48953336289143,0.539346792430007,0.2846632,0.006414085,0.118507855,42.345047,78.898026,9.713103,STD
4339854203000,3.794962,1.95484012543167,-9.45686778782558,0.548679758189445,0.2773328,0.032375857,0.11453723,42.372337,78.854744,9.72575,STD
4339859174000,3.799933,1.92877090632742,-9.43698440466753,0.563751821231791,0.27030787,0.053450707,0.124005646,42.406116,78.81025,9.733569,STD
4339864211000,3.80497,1.90725938229115,-9.45132545396888,0.594824011525121,0.27000242,0.064446285,0.12339478,42.44349,78.76346,9.744733,STD
4339869176000,3.809935,1.88605534877118,-9.46546150911703,0.625452049009018,0.26083946,0.101098195,0.1255328,42.49368,78.72648,9.744456,STD
4339874179000,3.814938,1.86468902858983,-9.47970575562382,0.656314500475671,0.24617869,0.12736541,0.13347405,42.542473,78.69257,9.742673,STD
4339879158000,3.819917,1.84778394325095,-9.48467866448823,0.687509897868409,0.21960606,0.16707164,0.13744467,42.60424,78.66228,9.739928,STD
4339884288000,3.825047,1.8453698611911,-9.45812371141467,0.721307061830868,0.19853121,0.2049453,0.13897185,42.671314,78.63568,9.734872,STD
4339889231000,3.82999,1.84304377783401,-9.43253674590929,0.753872243403273,0.18875736,0.24220806,0.13713925,42.75227,78.610695,9.726299,STD
4339894244000,3.835003,1.84068475378605,-9.40658743211636,0.786898594854307,0.17562376,0.26633725,0.12736541,42.83863,78.58882,9.718748,STD
4339899268000,3.840027,1.83364752838672,-9.37592204554805,0.825077206482515,0.15882497,0.29046643,0.13683382,42.931583,78.57675,9.700291,STD
4339904278000,3.845037,1.80544901648545,-9.32422418483691,0.886174026435498,0.14110987,0.30115658,0.13072516,43.026318,78.56173,9.688639,STD
4339909237000,3.849996,1.77455227684999,-9.27747635214512,0.942200044154909,0.11881329,0.31581733,0.13072516,43.122417,78.546234,9.675396,STD
4339914881000,3.85564,1.71748666444956,-9.25672534840196,0.973326739365582,0.10995574,0.32528573,0.13225232,43.218143,78.531456,9.663096,STD
4339919363000,3.860122,1.67451703744643,-9.24126195285558,0.998480181680454,0.09773844,0.32070425,0.1301143,43.309982,78.5162,9.651764,STD
4339924277000,3.865036,1.6557547457889,-9.23657129422904,1.03131415534735,0.08552113,0.32467487,0.1160644,43.40527,78.50094,9.642662,STD
4339929394000,3.870153,1.63318966412008,-9.23101542220726,1.06883729197537,0.067500606,0.33108896,0.106901415,43.509167,78.4913,9.622543,STD
4339934339000,3.875098,1.57395315084191,-9.21734565890503,1.14630041008371,0.061086524,0.3381139,0.101098195,43.61256,78.480286,9.605288,STD
4339939613000,3.880372,1.50949708906031,-9.20529554878155,1.22814659050666,0.054367006,0.33567044,0.102319926,43.712585,78.471565,9.587464,STD
4339944307000,3.885066,1.42280555834502,-9.2525822085817,1.28331396938114,0.035124753,0.33108896,0.105374254,43.812035,78.466,9.570483,STD
4339949304000,3.890063,1.33051804684432,-9.30292124544179,1.34204242959327,0.031154128,0.30909783,0.10751228,43.90375,78.459435,9.549027,STD
4339954284000,3.895043,1.26251580278087,-9.3489486974416,1.37526424682981,0.018325957,0.2968805,0.09621128,43.995358,78.45576,9.530462,STD
4339959261000,3.90002,1.20507892527809,-9.39313064474416,1.39735528968298,0.01282817,0.28710666,0.10048734,44.078945,78.45652,9.507628,STD
4339964262000,3.905021,1.14833720400933,-9.432843882902,1.41855785362749,0.020463986,0.2669481,0.09407325,44.166714,78.46526,9.460237,STD
4339969283000,3.910042,1.09223445232287,-9.46854581310989,1.43895894138736,0.009773844,0.24465153,0.08246681,44.24926,78.477806,9.414555,STD
4339974282000,3.915041,1.02074895574418,-9.52069147234502,1.47354966797328,0.005497787,0.23243423,0.07513642,44.33045,78.49767,9.356609,STD
4339979245000,3.920004,0.941369361715296,-9.58139326760979,1.51557407403478,0.01985312,0.22571471,0.062002823,44.40583,78.51192,9.305485,STD
4339984682000,3.925441,0.883265072502,-9.6221192292,1.54223837215,0.016798794,0.23365596,0.05467244,44.48395,78.53569,9.248472,STD
4339989278000,3.930037,0.848053066686,-9.6441267156,1.55544290995,0.007941248,0.23579398,0.046120327,44.55752,78.55451,9.197217,STD
4339994272000,3.935031,0.796012835585762,-9.6734353764913,1.58675211623313,0.011911872,0.23090707,0.0421497,44.63474,78.57954,9.136798,STD
4339999406000,3.940165,0.733507916849208,-9.70709204498338,1.63002471752396,0.004276057,0.23640485,0.0421497,44.71431,78.60664,9.078503,STD
4340004281000,3.94504,0.687053173676456,-9.72316286978596,1.65532216819313,0.0143553335,0.24037547,0.036957346,44.79441,78.632935,9.014209,STD
4340009279000,3.950038,0.648932803237432,-9.72792801124938,1.66961734380289,0.01282817,0.23884831,0.04062254,44.87278,78.66405,8.948835,STD
4340014271000,3.95503,0.629493247719315,-9.70942798036561,1.71200497882774,0.018325957,0.24984388,0.03940081,44.957767,78.69406,8.879537,STD
4340019284000,3.960043,0.624849810404294,-9.67228019092756,1.77701314972434,0.018936822,0.23609942,0.043982297,45.03345,78.726715,8.809949,STD
4340024238000,3.964997,0.624784582131148,-9.63737607868852,1.8146008042623,0.011911872,0.2443461,0.04642576,45.12743,78.758865,8.73338,STD
4340029270000,3.970029,0.629572506383507,-9.6038609088922,1.82417665276701,0.016187929,0.23945917,0.042760566,45.2122,78.78785,8.659846,STD
4340034214000,3.974973,0.621708209966424,-9.56980623465771,1.83745891775788,0.017104227,0.23579398,0.046120327,45.29396,78.811424,8.588142,STD
4340039282000,3.980041,0.599074740341354,-9.53359239209103,1.85556569723932,0.01038471,0.2284636,0.04795292,45.372032,78.833984,8.519648,STD
4340044168000,3.984927,0.579683509270066,-9.50226612589601,1.8659767251792,0.019547688,0.22571471,0.056199603,45.450996,78.85123,8.446467,STD
4340049324000,3.990083,0.564728017231701,-9.47734034053508,1.86099156810702,0.016493361,0.21930063,0.055588737,45.525654,78.86995,8.377224,STD
4340054308000,3.995067,0.560393837641174,-9.45200707599808,1.84802243847042,0.028099801,0.21380283,0.058643065,45.594063,78.88874,8.300128,STD
4340059288000,4.000047,0.574157915678692,-9.42447934151034,1.8204943207215,0.018936822,0.19883664,0.056505036,45.656887,78.91013,8.226901,STD
4340064247000,4.005006,0.588963317958017,-9.40323045525255,1.79924518019867,-0.00030543262,0.18081611,0.06719518,45.71946,78.93413,8.148186,STD
4340069289000,4.010048,0.607063294715584,-9.39870536538281,1.79472018482804,0.007330383,0.1685988,0.074830994,45.77842,78.95291,8.072961,STD
4340074252000,4.015011,0.625548077879282,-9.39729250196718,1.79208515736494,0.008857546,0.17012598,0.07819075,45.834835,78.97787,7.9992547,STD
4340079222000,4.019981,0.648385025187602,-9.41556193772191,1.80121992293446,-0.00030543262,0.16462818,0.079107046,45.884583,79.00374,7.9266515,STD
4340084348000,4.025107,0.671363200606061,-9.4364440020202,1.80935869959596,-0.0009162979,0.1563815,0.09162979,45.928055,79.030655,7.8484426,STD
4340089278000,4.030037,0.685670359393939,-9.48413453131313,1.79982059373737,0.0033597588,0.14049901,0.08399397,45.9677,79.05357,7.77814,STD
4340094330000,4.035089,0.703051665792094,-9.53444565983407,1.79322975774524,0.014049901,0.12583824,0.095294975,46.00156,79.077286,7.7043257,STD
4340099305000,4.040064,0.749556902322108,-9.59955284626647,1.82113287926794,0.0106901415,0.11453723,0.0888809,46.0322,79.09704,7.6399956,STD
4340104379000,4.045138,0.796989427633841,-9.66553535560766,1.84853514556467,0.014966198,0.090713486,0.08552113,46.063396,79.110825,7.575303,STD
4340109277000,4.050036,0.842815151043376,-9.72052636342321,1.85311771359906,0.028405234,0.06566802,0.09773844,46.089947,79.12459,7.51032,STD
4340114594000,4.055353,0.893900357511291,-9.77936767904876,1.86025299262605,0.040927973,0.035430185,0.09254608,46.10489,79.12563,7.4601707,STD
4340119279000,4.060038,0.968341522586413,-9.81245244169969,1.9140160558116,0.04795292,0.03359759,0.098043874,46.119442,79.12904,7.40521,STD
4340124177000,4.064936,1.04616709922205,-9.84704137819154,1.97022341621348,0.05589417,-0.0070249503,0.09193522,46.11276,79.121155,7.363007,STD
4340129275000,4.070034,1.10083639863081,-9.869658240489,2.04289635677262,0.059864793,-0.038789943,0.10354166,46.10683,79.11681,7.315741,STD
4340134298000,4.075057,1.14788213594132,-9.88847643716381,2.11816963471883,0.067500606,-0.079107046,0.11026118,46.08716,79.10755,7.2752886,STD
4340139276000,4.080035,1.18800670885,-9.8745828308,2.1538861692,0.07666359,-0.119729586,0.116675265,46.055893,79.07798,7.2486706,STD
4340144169000,4.084928,1.2254941837,-9.8511531896,2.1773158104,0.09132435,-0.14935656,0.12156218,46.016132,79.04662,7.2232347,STD
4340149314000,4.090073,1.24575996848802,-9.83460527563623,2.19041324565868,0.09590584,-0.16707164,0.12583824,45.964977,78.99952,7.2061243,STD
4340154280000,4.095039,1.25910906714072,-9.82125636283683,2.19931264476048,0.10354166,-0.18020524,0.13072516,45.90678,78.94993,7.1898746,STD
4340159281000,4.10004,1.24892102411412,-9.81013988252614,2.19353511446847,0.12217305,-0.17989981,0.12950343,45.84323,78.88878,7.1809344,STD
4340164285000,4.105044,1.22459250995025,-9.80040827363184,2.17893800597015,0.14019357,-0.16676621,0.1337795,45.779667,78.828445,7.1703787,STD
4340169944000,4.110703,1.20865166199678,-9.76666180676328,2.15492810499195,0.15821409,-0.1572978,0.14385876,45.71773,78.759415,7.1620994,STD
4340174296000,4.115055,1.20026232351047,-9.73310462801932,2.13395475877617,0.17654006,-0.14721853,0.15699236,45.65966,78.68844,7.152382,STD
4340179215000,4.119974,1.20328428627547,-9.69263382632667,2.11986781372452,0.19700404,-0.129198,0.16249016,45.60873,78.618546,7.1389213,STD
4340184364000,4.125123,1.21299403190903,-9.64894007236389,2.11015806809097,0.2275473,-0.11942416,0.19058995,45.556877,78.54941,7.116703,STD
4340189273000,4.130032,1.23693946506889,-9.66381799417815,2.11576259825344,0.25473082,-0.1133155,0.2125811,45.510498,78.47978,7.094259,STD
4340194273000,4.135032,1.26946299505143,-9.71028024917524,2.12970127475257,0.27947086,-0.124311075,0.22174409,45.46133,78.40717,7.0695415,STD
4340199297000,4.140056,1.3180818345973,-9.7851197963021,2.18201437549358,0.3051272,-0.14202617,0.23304509,45.41706,78.32624,7.036432,STD
4340204274000,4.145033,1.37782959401442,-9.87972022908179,2.26167793340646,0.33444872,-0.1591304,0.2574797,45.36853,78.243324,6.999565,STD
4340209274000,4.150033,1.44578889116126,-9.95659668349789,2.33345847664316,0.3643811,-0.18417588,0.269697,45.31118,78.15061,6.970965,STD
4340214228000,4.154987,1.51716608589563,-10.02351271622,2.40037464911142,0.38973203,-0.20891592,0.28893927,45.247482,78.05825,6.9364934,STD
4340219258000,4.160017,1.59510239624893,-10.1402379481943,2.44069515921109,0.42638394,-0.22388211,0.30818152,45.172695,77.946045,6.9100513,STD
4340224243000,4.165002,1.67720107063629,-10.2993046689596,2.45608859703353,0.46700647,-0.24587326,0.3155119,45.08871,77.82921,6.885393,STD
