timestamp,rel_time,acc_x,acc_y,acc_z,gyro_x,gyro_y,gyro_z,azimuth,pitch,roll,label
9183286758000,0,-1.33576450792205,-9.65655014003888,-0.700206484029507,-0.051618114,-0.016493361,-0.004581489,196.3228,96.28435,-4.670765,STD
9183291823000,0.005065,-1.32585189419778,-9.65534128563026,-0.696821690170662,-0.049480084,-0.0125227375,-0.0036651916,196.34244,96.331856,-4.7568183,STD
9183296769000,0.010011,-1.31617217307631,-9.65416083273688,-0.693516420590041,-0.05100725,-0.0061086523,-0.005497787,196.36131,96.37898,-4.841552,STD
9183301754000,0.014996,-1.30641612580771,-9.65297107178388,-0.690185088430843,-0.061391957,0.0015271631,0.004886922,196.38109,96.42987,-4.927376,STD
9183306720000,0.019962,-1.29669726307232,-9.65178584552659,-0.68686645342531,-0.056505036,0.013439035,0.006414085,196.40285,96.47547,-5.007465,STD
9183311758000,0.025,-1.28683749052684,-9.65058343515925,-0.683499702890096,-0.054367006,0.026267206,0.0015271631,196.4262,96.52373,-5.0860653,STD
9183316754000,0.029996,-1.27705991537058,-9.6493910488561,-0.680161019747196,-0.050701816,0.038789943,-0.0009162979,196.45198,96.57106,-5.163158,STD
9183321764000,0.035006,-1.26725494108458,-9.64819532119823,-0.676812980806858,-0.055588737,0.06047566,0.010079277,196.48325,96.6208,-5.2399325,STD
9183326793000,0.040035,-1.25741278226536,-9.64699505884464,-0.673452244712854,-0.056505036,0.06627888,0.014966198,196.51233,96.66654,-5.312087,STD
9183331759000,0.045001,-1.24769391952998,-9.64580983258735,-0.670133609707322,-0.046731193,0.07238753,0.008246681,196.54652,96.7103,-5.3813424,STD
9183336747000,0.049989,-1.23793200101929,-9.64461935562977,-0.666800272734387,-0.04917465,0.07696902,0.003970624,196.5809,96.75705,-5.4503593,STD
9183341746000,0.054988,-1.22814855462094,-9.64342625332204,-0.66345958477775,-0.04795292,0.08827003,0.014049901,196.61792,96.80246,-5.519156,STD
9183346728000,0.05997,-1.21839837859443,-9.64223720837362,-0.660130257432288,-0.04886922,0.09010262,0.01282817,196.6521,96.844154,-5.5815477,STD
9183351722000,0.064964,-1.20862471759956,-9.64104529940687,-0.65679291083188,-0.03970624,0.106595986,0.017104227,196.6928,96.886696,-5.645806,STD
9183356707000,0.069949,-1.19886867033096,-9.63985553845387,-0.653461578672681,-0.040927973,0.08552113,0.018936822,196.72197,96.929306,-5.7077217,STD
9183361730000,0.074972,-1.18903825399591,-9.63865670810945,-0.650104852206151,-0.040927973,0.09468412,0.02107485,196.7634,96.97037,-5.7680254,STD
9183366725000,0.079967,-1.17926263592035,-9.63746456047451,-0.646766837334496,-0.040927973,0.08399397,0.023823744,196.79202,97.011314,-5.82792,STD
9183371711000,0.084953,-1.16950463157105,-9.63627456085331,-0.643434836904052,-0.040011674,0.0888809,0.021991149,196.82655,97.05063,-5.884758,STD
9183376745000,0.089987,-1.15965268734835,-9.63507310515875,-0.64007075945382,-0.03970624,0.098043874,0.020463986,196.85828,97.08987,-5.940781,STD
9183382886000,0.096128,-1.14763425479539,-9.63360744377212,-0.635966905734736,-0.038179077,0.099571034,0.016187929,196.88808,97.12678,-5.993797,STD
9183386714000,0.099956,-1.14014254989184,-9.63269382192095,-0.633408763406669,-0.043982297,0.10170906,0.017715093,196.91972,97.16491,-6.0461483,STD
9183391699000,0.104941,-1.13038650262324,-9.63150406096795,-0.63007743124747,-0.03390302,0.09254608,0.013744468,196.94734,97.19714,-6.094278,STD
9183396722000,0.109964,-1.12055608628819,-9.63030523062354,-0.62672070478094,-0.030848695,0.099571034,0.023518313,196.97952,97.23415,-6.14485,STD
9183401721000,0.114963,-1.11077263988985,-9.62911212831581,-0.623380016824304,-0.02076942,0.112704635,0.017104227,197.00952,97.2629,-6.1882324,STD
9183406735000,0.119977,-1.10095983728106,-9.62791544598515,-0.620029304798983,-0.018325957,0.10781772,0.014966198,197.03569,97.294945,-6.23432,STD
9183411748000,0.12499,-1.09114899175298,-9.62671900232268,-0.616679261044909,-0.018936822,0.10995574,0.014049901,197.0666,97.32392,-6.2770762,STD
9183416706000,0.129948,-1.08144578566316,-9.62553568541096,-0.613365972209341,-0.016493361,0.113926366,0.0106901415,197.09564,97.35025,-6.3171897,STD
9183421739000,0.134981,-1.07159579852116,-9.62433446838459,-0.610002563030354,0.008246681,0.11209377,0.0070249503,197.12273,97.37243,-6.355683,STD
9183426893000,0.140135,-1.06150900461496,-9.6231043725066,-0.606558293030653,0.00061086525,0.11942416,0.0070249503,197.138147467474,97.3868237312543,-6.37423668338465,STD
9183431808000,0.14505,-1.05188995299507,-9.62193131832727,-0.603273739858645,-0.019242255,0.12003502,0.004276057,197.15285,97.40055,-6.39193,STD
9183436696000,0.149938,-1.04232374255396,-9.6207647081892,-0.600007230010268,-0.016493361,0.111177474,-0.0027488936,197.17668,97.418236,-6.425021,STD
9183441729000,0.154971,-1.03247375541195,-9.61956349116284,-0.596643820831281,-0.00580322,0.11453723,0.0061086523,197.2057,97.44135,-6.460328,STD
9183446690000,0.159932,-1.02276467808005,-9.61837945824652,-0.593328527181977,-0.01740966,0.09743301,0.007941248,197.2253,97.46318,-6.491099,STD
9183451673000,0.164915,-1.01301254497284,-9.61719017462992,-0.589998531565269,-0.01985312,0.07880162,0.006414085,197.24477,97.482994,-6.522302,STD
9183456987000,0.170229,-1.00261261815531,-9.6159218918407,-0.586447338166276,-0.025961773,0.07086037,0.007330383,197.26183,97.505455,-6.553809,STD
9183461601000,0.174843,-0.997288296331897,-9.61641442348912,-0.555576496256767,-0.026267206,0.06169739,0.0070249503,197.27263,97.52624,-6.583945,STD
9183466638000,0.17988,-1.00261791091592,-9.62174414937576,-0.438324875235886,-0.022296581,0.054061573,0.010995574,197.28122,97.54807,-6.6147757,STD
9183471618000,0.18486,-1.00041146505197,-9.62675233702687,-0.369372869889194,-0.023518313,0.03970624,0.014049901,197.36249,97.56393,-6.6281075,STD
9183476678000,0.18992,-0.988532025946264,-9.6315042119043,-0.359869313642871,-0.03023783,0.040011674,0.008552114,197.44388,97.57766,-6.638901,STD
9183481602000,0.194844,-0.976971876112963,-9.63612836840557,-0.350621188947833,-0.03268129,0.03359759,0.008552114,197.58324,97.61644,-6.672857,STD
9183486636000,0.199878,-0.965153477603452,-9.64085582653462,-0.341166465203962,-0.027794369,0.03726278,0.0076358155,197.72246,97.65118,-6.7026467,STD
9183491637000,0.204879,-0.961135188571429,-9.6455721,-0.347278957214286,-0.045814894,0.044593163,0.007941248,197.91667,97.71597,-6.751239,STD
9183496640000,0.209882,-0.970641682698413,-9.65032495,-0.380551706511905,-0.04886922,0.051618114,0.01038471,198.10782,97.774925,-6.7971487,STD
9183501684000,0.214926,-0.988835781570864,-9.64892051294427,-0.403726063238262,-0.047647487,0.045814894,0.004886922,198.35904,97.85447,-6.8576527,STD
9183506697000,0.219939,-1.02254078275559,-9.63628132996929,-0.407939182887231,-0.04337143,0.050701816,0.0030543262,198.61023,97.93117,-6.9158106,STD
9183511696000,0.224938,-1.05486263532868,-9.62398406757253,-0.41427689440874,-0.045814894,0.06047566,-0.0012217305,198.91826,98.03625,-6.9936705,STD
9183516717000,0.229959,-1.07252150892398,-9.61515444638267,-0.445179955469152,-0.049480084,0.06627888,0.002443461,199.22035,98.13713,-7.068727,STD
9183521715000,0.234957,-1.09009949144326,-9.60636527157547,-0.475941456998715,-0.051618114,0.062308256,-0.0015271631,199.57994,98.26867,-7.1665206,STD
9183527683000,0.240925,-1.13538943415872,-9.61644557210941,-0.549744639217779,-0.055283304,0.056199603,-0.0018325958,199.93317,98.3963,-7.260816,STD
9183532039000,0.245281,-1.16913618687351,-9.62449957428401,-0.605444480101432,-0.054061573,0.061086524,-0.0021380284,200.2809,98.51632,-7.3485594,STD
9183536714000,0.249956,-1.18694507311058,-9.62004725974543,-0.654418945147176,-0.06383542,0.06872234,0.003970624,200.68652,98.671715,-7.4607835,STD
9183542078000,0.25532,-1.20715550130152,-9.61527327042661,-0.710913441070137,-0.065973446,0.0693332,0.0012217305,201.07935,98.82771,-7.5724697,STD
9183546754000,0.259996,-1.21929788655098,-9.61932081670282,-0.767577947830803,-0.053450707,0.0720821,0.004886922,201.46678,98.97888,-7.681546,STD
9183551660000,0.264902,-1.23203752342733,-9.62356745101229,-0.82702963092914,-0.054061573,0.081855945,0.004886922,201.98454,99.19636,-7.832087,STD
9183556758000,0.27,-1.23020257289372,-9.61427990955037,-0.891343955895676,-0.0571159,0.07849618,0.009162978,202.48811,99.40481,-7.9771323,STD
9183561674000,0.274916,-1.22346826466886,-9.60081124622133,-0.954197546207028,-0.052839845,0.08368854,0.0030543262,202.98544,99.60045,-8.111052,STD
9183566751000,0.279993,-1.21651340647976,-9.5869014814285,-1.01910960438659,-0.04428773,0.09865474,0.0033597588,203.53758,99.828,-8.265467,STD
9183571705000,0.284947,-1.20972704298384,-9.57332870719497,-1.0824490442569,-0.05131268,0.100792766,0.0067195175,204.0749,100.04656,-8.410945,STD
9183576776000,0.290018,-1.21209763156952,-9.55097014869704,-1.15155911506863,-0.045814894,0.09773844,0.0027488936,204.66711,100.28074,-8.564915,STD
9183583023000,0.296265,-1.22399862015118,-9.51526705868311,-1.24081659156555,-0.037873644,0.102319926,0.009162978,205.24875,100.50811,-8.713715,STD
9183586746000,0.299988,-1.23374714017563,-9.51504633699232,-1.27303202129528,-0.03481932,0.10781772,0.004886922,205.88286,100.764694,-8.873237,STD
9183591756000,0.304998,-1.248110906666,-9.52462238129927,-1.30654752643449,-0.042455133,0.09621128,-0.0027488936,206.49826,101.01128,-9.024963,STD
9183597173000,0.310415,-1.25137044099327,-9.52573167434764,-1.34074692071759,-0.030543262,0.08093964,0.003970624,207.1651,101.28766,-9.191798,STD
9183601763000,0.315005,-1.24674528190236,-9.52110641866583,-1.36849782696759,-0.027183503,0.07971791,0.006414085,207.81592,101.55218,-9.345942,STD
9183606697000,0.319939,-1.25103590348929,-9.53447350872324,-1.36998362635805,-0.025961773,0.07269296,0.0076358155,208.51913,101.84506,-9.51849,STD
9183611699000,0.324941,-1.26053296011102,-9.55821615027756,-1.35573809100912,-0.035430185,0.06841691,0.01160644,209.2053,102.1277,-9.682534,STD
9183616720000,0.329962,-1.25530751557547,-9.58194830737422,-1.31206217008959,-0.03634648,0.057421334,0.010079277,209.87543,102.39927,-9.841606,STD
9183621720000,0.334962,-1.2411643630698,-9.60552022821699,-1.25077512667126,-0.03726278,0.06078109,0.022907447,210.53215,102.66456,-9.9963255,STD
9183626820000,0.340062,-1.23252725870056,-9.61799490146236,-1.18838033302581,-0.03481932,0.059253927,0.02321288,211.1672,102.91439,-10.135817,STD
9183631869000,0.345111,-1.22778162486014,-9.62274063440966,-1.12668704354696,-0.034208454,0.063224554,0.021685716,211.7893,103.1556,-10.269551,STD
9183636751000,0.349993,-1.21919604364417,-9.63132625635583,-1.05754007618058,-0.042760566,0.076358154,0.01985312,212.3984,103.37528,-10.3936205,STD
9183641739000,0.354981,-1.20740528528904,-9.64311701471097,-0.979721014402429,-0.030848695,0.074830994,0.019547688,212.98955,103.5805,-10.51039,STD
9183646722000,0.359964,-1.19562634605815,-9.65489595394185,-0.901979958901121,-0.039095376,0.0711658,0.014660766,213.5704,103.77146,-10.614873,STD
9183651750000,0.364992,-1.18374103470899,-9.66678126529101,-0.823536846908229,-0.023823744,0.06994407,0.013133603,214.13756,103.9467,-10.713101,STD
9183656736000,0.369978,-1.17875299454401,-9.67338071136997,-0.745013413354241,-0.029321533,0.082161374,0.01740966,214.69865,104.120186,-10.804919,STD
9183661773000,0.375015,-1.18035389530068,-9.67498164555954,-0.664968317013142,-0.027488936,0.08399397,0.016798794,215.24257,104.27874,-10.888976,STD
9183666681000,0.379923,-1.18191379621665,-9.67654157905217,-0.586973214205496,-0.032070424,0.08277224,0.014049901,215.78035,104.40896,-10.958302,STD
9183671714000,0.384956,-1.18351342566043,-9.6781412419023,-0.506991683555356,-0.028405234,0.08002335,0.0070249503,216.3052,104.527596,-11.020306,STD
9183676729000,0.389971,-1.1851073341962,-9.67973518372494,-0.427296198514536,-0.043676864,0.07452556,-0.00061086525,216.81421,104.641624,-11.070228,STD
9183681723000,0.394965,-1.18669456833931,-9.68132245101553,-0.347934433351254,-0.03726278,0.071776666,-0.0018325958,217.31119,104.742805,-11.114851,STD
9183686711000,0.399953,-1.19823404657637,-9.67572589785553,-0.282895919638826,-0.03940081,0.06994407,-0.0009162979,217.79964,104.84184,-11.1537285,STD
9183691767000,0.405009,-1.22100506839729,-9.66206299943567,-0.232799633589165,-0.03481932,0.07696902,-0.0021380284,218.27814,104.93022,-11.186776,STD
9183696712000,0.409954,-1.24484891560237,-9.66128833264366,-0.182231328511239,-0.03023783,0.08093964,-0.0021380284,218.74895,104.984825,-11.209861,STD
9183701717000,0.414959,-1.27189601468071,-9.68382754265024,-0.128137186839086,-0.040317107,0.079107046,-0.004581489,219.20934,105.033806,-11.227569,STD
9183706684000,0.419926,-1.29745168552545,-9.69672233840053,-0.078171554827495,-0.038179077,0.08093964,-0.004276057,219.66441,105.07232,-11.245923,STD
9183711729000,0.424971,-1.31874049627671,-9.67543363879709,-0.0409161104487773,-0.043982297,0.08032878,-0.003970624,220.10825,105.107544,-11.259826,STD
9183716655000,0.429897,-1.34250577290027,-9.65355668924978,-0.0210418773330677,-0.04734206,0.08155051,-0.007941248,220.54358,105.13085,-11.270118,STD
9183721721000,0.434963,-1.37150810554947,-9.62938807870878,-0.0258756024696622,-0.041233405,0.0870483,-0.00580322,220.97093,105.14916,-11.278371,STD
9183726740000,0.439982,-1.39237101765328,-9.61604752147151,-0.0492674790776629,-0.04734206,0.0888809,-0.0067195175,221.38853,105.16337,-11.280785,STD
9183731725000,0.444967,-1.40155408524164,-9.61834333031979,-0.0997742573224333,-0.04886922,0.08246681,-0.004886922,221.79674,105.171326,-11.281418,STD
9183736663000,0.449905,-1.41065057225295,-9.62061749362828,-0.149804843274826,-0.04337143,0.07971791,-0.004581489,222.19606,105.17879,-11.282818,STD
9183741727000,0.454969,-1.41997916889637,-9.62294968540515,-0.201112029840827,-0.05100725,0.07727446,-0.0070249503,222.58519,105.18394,-11.281225,STD
9183746672000,0.459914,-1.43121757831712,-9.62522517164215,-0.258649972028367,-0.043066,0.08246681,0.00030543262,222.96811,105.18256,-11.279348,STD
9183751718000,0.46496,-1.44974246009392,-9.62754083324548,-0.342012111697733,-0.042760566,0.086132,-0.00061086525,223.34138,105.177376,-11.271964,STD
9183757031000,0.470273,-1.46924755261872,-9.62997902391107,-0.429785208816905,-0.039095376,0.105068825,-0.0036651916,223.70854,105.18135,-11.273978,STD
9183761761000,0.475003,-1.48661233478365,-9.63214966984523,-0.507926889482007,-0.034208454,0.1133155,-0.0015271631,224.06627,105.181854,-11.274967,STD
9183766768000,0.48001,-1.50421295190913,-9.63394081721276,-0.589747233277414,-0.039095376,0.1282817,-0.0033597588,224.42238,105.17766,-11.268857,STD
9183771709000,0.484951,-1.51248188485802,-9.62980626439493,-0.660033189245959,-0.04428773,0.1337795,-0.008246681,224.77063,105.16859,-11.260243,STD
9183776751000,0.489993,-1.52091984477064,-9.62558719633028,-0.73175587493578,-0.050701816,0.14782938,-0.0015271631,225.11452,105.185715,-11.257938,STD
9183782608000,0.49585,-1.53199712725615,-9.62004848789628,-0.825912035152436,-0.043982297,0.16707164,-0.006414085,225.45306,105.19383,-11.248428,STD
9183786653000,0.499895,-1.53984450100273,-9.61612476005267,-0.892614081055404,-0.031154128,0.18784106,-0.004581489,225.78935,105.20097,-11.239937,STD
9183791714000,0.504956,-1.52243676226148,-9.59957075588087,-0.971970017885916,-0.035124753,0.1994475,-0.004581489,226.12578,105.219765,-11.234899,STD
9183796679000,0.509921,-1.49843423293286,-9.58036891287229,-1.04877786110651,-0.02565634,0.21380283,-0.016187929,226.46088,105.22761,-11.223992,STD
9183801715000,0.514957,-1.48224608469327,-9.5728950132023,-1.12170421738138,-0.023823744,0.21960606,-0.011911872,226.78741,105.249,-11.219625,STD
9183806717000,0.519959,-1.46798070244193,-9.56813978648005,-1.19303117829065,-0.014049901,0.23090707,-0.01160644,227.11137,105.26007,-11.208229,STD
9183811792000,0.525034,-1.45008472008461,-9.57102175906163,-1.24838621823863,-0.0125227375,0.24465153,-0.013744468,227.42743,105.275894,-11.188471,STD
9183816717000,0.529959,-1.43194584233247,-9.5755565850399,-1.29826830962407,-0.009773844,0.25167647,-0.02565634,227.7371,105.28416,-11.164589,STD
9183821716000,0.534958,-1.41073959954457,-9.57032501152524,-1.30229975265359,-0.00580322,0.25778514,-0.019242255,228.04482,105.30088,-11.148292,STD
9183826775000,0.540017,-1.38822392264151,-9.5613185902965,-1.28879030889488,-0.0033597588,0.27183503,-0.021991149,228.34871,105.30978,-11.12427,STD
9183831725000,0.544967,-1.37351617043452,-9.56874114857829,-1.26388817415899,-0.0033597588,0.27855456,-0.0290161,228.6495,105.32177,-11.097619,STD
9183836701000,0.549943,-1.36397393815579,-9.5878261113336,-1.23049023663396,-0.016493361,0.2843578,-0.027794369,228.9474,105.33397,-11.070995,STD
9183841727000,0.554969,-1.33565143293374,-9.60505653727114,-1.20412694812555,-0.018325957,0.28863382,-0.028405234,229.2408,105.33491,-11.0376,STD
9183846744000,0.559986,-1.29376221669573,-9.62076473365301,-1.18318239468178,-0.01863139,0.3005457,-0.029932396,229.53134,105.33542,-11.002994,STD
9183852370000,0.565612,-1.27908825176707,-9.63730220080321,-1.15692829546185,-0.01038471,0.3173445,-0.029321533,229.8225,105.32683,-10.964586,STD
9183856700000,0.569942,-1.27492488720884,-9.64979225100402,-1.13611121182731,-0.015271631,0.31490102,-0.03145956,230.10484,105.31752,-10.924966,STD
9183861728000,0.57497,-1.27022828667182,-9.65690808615028,-1.09868008004636,-0.019242255,0.31581733,-0.03573562,230.3889,105.29586,-10.877377,STD
9183866715000,0.579957,-1.26561562474406,-9.66152084440796,-1.05716612269654,-0.021380283,0.32253686,-0.03359759,230.66794,105.27354,-10.830666,STD
9183871708000,0.58495,-1.2673288877575,-9.65661742436728,-0.996016136998234,-0.02443461,0.3371976,-0.035124753,230.94421,105.243675,-10.775877,STD
9183876725000,0.589967,-1.27204213139101,-9.6471912323916,-0.925317413594271,-0.02443461,0.34116822,-0.04153884,231.21326,105.21114,-10.720606,STD
9183881723000,0.594965,-1.26444305914928,-9.64075418850321,-0.850767857158908,-0.023823744,0.34269542,-0.041233405,231.48186,105.171715,-10.664101,STD
9183886719000,0.599961,-1.25004327199037,-9.63595415920947,-0.77396891211878,-0.032375857,0.34513888,-0.05009095,231.7453,105.12934,-10.6031885,STD
9183891720000,0.604962,-1.24786112990378,-9.64577285954848,-0.738362210288675,-0.025350908,0.3481932,-0.045814894,232.00659,105.076164,-10.544805,STD
9183896724000,0.609966,-1.252295096151,-9.6635086319393,-0.725060311547002,-0.034513887,0.35185838,-0.049785517,232.26245,105.02319,-10.481793,STD
9183901721000,0.614963,-1.25202941300954,-9.67510733987424,-0.705599065047702,-0.034208454,0.3539964,-0.05375614,232.5169,104.9546,-10.41603,STD
9183906695000,0.619937,-1.24686516721596,-9.68027169351691,-0.679777836079792,-0.03573562,0.36926803,-0.049785517,232.77133,104.88799,-10.350933,STD
9183911756000,0.624998,-1.24041894400978,-9.67758594865526,-0.647546704156479,-0.04428773,0.3753767,-0.057421334,233.03015,104.820404,-10.278692,STD
9183916754000,0.629996,-1.23339720615159,-9.67056406415648,-0.612437990425428,-0.03481932,0.37751472,-0.058948494,233.28763,104.750336,-10.209276,STD
9183922216000,0.635458,-1.22572359026895,-9.66289028801956,-0.574069884303179,-0.043066,0.38453966,-0.057726767,233.55176,104.68334,-10.141852,STD
9183926778000,0.64002,-1.21931439296822,-9.65648095687042,-0.542023875491443,-0.05131268,0.38515055,-0.057421334,233.80936,104.61291,-10.07453,STD
9183931750000,0.644992,-1.21882117426379,-9.62775425736211,-0.516457689544365,-0.050396383,0.39675698,-0.065973446,234.06656,104.53977,-10.004684,STD
9183936753000,0.649995,-1.2234171196259,-9.58179480374101,-0.498073884100719,-0.054367006,0.40225476,-0.06078109,234.3179,104.47119,-9.939683,STD
9183941694000,0.654936,-1.22352677041199,-9.55073950749064,-0.490721679588015,-0.06719518,0.42424592,-0.058948494,234.5747,104.39006,-9.866725,STD
9183946731000,0.659973,-1.21850821635456,-9.53568405493134,-0.495740233645443,-0.06963864,0.4361578,-0.056505036,234.82571,104.308075,-9.796367,STD
9183951714000,0.664956,-1.21122730354973,-9.53143665071863,-0.513075552474197,-0.073303826,0.4352415,-0.055588737,235.08176,104.22983,-9.720018,STD
9183956711000,0.669953,-1.20199507250892,-9.53605286264107,-0.540772269697116,-0.07544186,0.44073927,-0.06169739,235.33784,104.14999,-9.642284,STD
9183961725000,0.674967,-1.19937148967419,-9.54531167418546,-0.582701899799499,-0.073303826,0.43890667,-0.052839845,235.58737,104.07309,-9.570267,STD
9183966717000,0.679959,-1.20416421003509,-9.55968963508772,-0.640214594175439,-0.06688975,0.45081854,-0.053145275,235.83685,103.992,-9.493897,STD
9183971703000,0.684945,-1.19522999189298,-9.57180916930843,-0.69785095881474,-0.08124508,0.45142943,-0.0421497,236.09052,103.926,-9.42709,STD
9183976824000,0.690066,-1.17047335624432,-9.58171200969207,-0.757266796479556,-0.082161374,0.44440445,-0.0421497,236.33983,103.85275,-9.357693,STD
9183982911000,0.696153,-1.13845628831469,-9.57960475453143,-0.822583273277092,-0.08552113,0.45753807,-0.03359759,236.59332,103.79508,-9.292618,STD
9183986718000,0.69996,-1.11736553767836,-9.57257435750097,-0.861249682477825,-0.07452556,0.45998153,-0.031154128,236.83649,103.73236,-9.227527,STD
9183991973000,0.705215,-1.08910742838605,-9.56111739929711,-0.906943563995674,-0.07360926,0.4633413,-0.02687807,237.07797,103.67853,-9.164004,STD
9183996721000,0.709963,-1.064522055907,-9.54882488420294,-0.939724077748941,-0.06505715,0.4709771,-0.019242255,237.31677,103.62089,-9.102595,STD
9184001721000,0.714963,-1.04195385674891,-9.53786060667634,-0.975249756313498,-0.069027774,0.47342056,-0.015882496,237.55273,103.5704,-9.03797,STD
9184006710000,0.719952,-1.0324977137848,-9.53470849868057,-1.01465031634121,-0.064446285,0.48655418,-0.010995574,237.78952,103.51704,-8.975864,STD
9184011685000,0.724927,-1.02306810639926,-9.53156523604697,-1.05394031155825,-0.07452556,0.48838675,-0.005192355,238.01851,103.470436,-8.914243,STD
9184016690000,0.729932,-1.01358163705964,-9.52840301906584,-1.09346723136957,-0.07360926,0.49296826,0.005192355,238.24771,103.42135,-8.855356,STD
9184021709000,0.734951,-1.00406863214144,-9.52523195672252,-1.13310471599156,-0.07880162,0.48624873,0.004886922,238.48093,103.37769,-8.793849,STD
9184026727000,0.739969,-0.994557522621718,-9.52206152619079,-1.17273430312706,-0.07391469,0.48197266,0.0033597588,238.71164,103.332214,-8.735341,STD
9184031689000,0.744931,-0.980753069020267,-9.52060336589224,-1.20982104908552,-0.07788532,0.48624873,0.008246681,238.93834,103.289795,-8.679248,STD
9184036696000,0.749938,-0.938087766135442,-9.53008473791399,-1.23352398413248,-0.086437434,0.47861293,0.004886922,239.16104,103.24689,-8.622917,STD
9184041702000,0.754944,-0.896312304958708,-9.54094221871313,-1.25407325625737,-0.08155051,0.45875978,0.015271631,239.37338,103.21928,-8.573602,STD
9184046684000,0.759926,-0.86167273340049,-9.56259192267901,-1.2497433154642,-0.07422013,0.44868052,0.015577064,239.58093,103.18925,-8.521188,STD
9184051647000,0.764889,-0.827165267795626,-9.58415906053181,-1.24542988789364,-0.06078109,0.43554693,0.011911872,239.79788,103.16329,-8.470172,STD
9184056664000,0.769906,-0.781046462912621,-9.60206343954104,-1.24722483998235,-0.05100725,0.4251622,0.018020526,240.00839,103.137115,-8.423077,STD
9184061635000,0.774877,-0.734085247058824,-9.61936477005348,-1.24969648074866,-0.054367006,0.41050145,0.013439035,240.20865,103.10709,-8.373544,STD
9184066635000,0.779877,-0.686850067161622,-9.63676703369503,-1.25218254066248,-0.04520403,0.3998113,0.013744468,240.40555,103.06715,-8.32164,STD
9184071787000,0.785029,-0.636557518053775,-9.65269409710445,-1.24801936520165,-0.039095376,0.39920044,0.016187929,240.59686,103.02736,-8.270116,STD
9184076671000,0.789913,-0.56884049945605,-9.64302054467425,-1.16095461546019,-0.042455133,0.39858958,0.007330383,240.79178,102.988594,-8.214098,STD
9184081629000,0.794871,-0.505848877338099,-9.63475994505599,-1.0802113555635,-0.040317107,0.38973203,0.007330383,240.98705,102.939224,-8.150864,STD
9184086643000,0.799885,-0.489831401666905,-9.63933622058613,-1.06190565611151,-0.034513887,0.3894266,-0.005497787,241.17937,102.88541,-8.082398,STD
9184091689000,0.804931,-0.473711700383131,-9.64394170250179,-1.04348312730522,-0.03756821,0.38515055,-0.012217305,241.37073,102.81406,-8.006535,STD
9184096639000,0.809881,-0.457898675937098,-9.6484595652609,-1.02541108656183,-0.047036625,0.39064834,-0.015882496,241.56055,102.74124,-7.929088,STD
9184101700000,0.814942,-0.441731056397427,-9.65307873766976,-1.00693379399571,-0.042455133,0.39584067,-0.020158553,241.75589,102.66904,-7.850999,STD
9184107468000,0.82071,-0.447937083134706,-9.66822900750227,-1.0030967073398,-0.057421334,0.38759398,-0.026267206,241.94485,102.602394,-7.773406,STD
9184111680000,0.824922,-0.453719685946385,-9.679794245329,-1.00116917441105,-0.052839845,0.37232238,-0.029321533,242.12946,102.530205,-7.6972075,STD
9184116718000,0.82996,-0.460636293962823,-9.69362749988054,-0.998863640010513,-0.055588737,0.38056904,-0.0290161,242.3177,102.45288,-7.6155252,STD
9184121698000,0.83494,-0.46747327449515,-9.7073014990204,-0.996584648086205,-0.054367006,0.35979962,-0.034208454,242.4895,102.372505,-7.5354066,STD
9184126743000,0.839985,-0.473048720320127,-9.71845253502377,-1.01869907030111,-0.05009095,0.34605515,-0.03604105,242.67462,102.29851,-7.4596267,STD
9184131683000,0.844925,-0.478047086955098,-9.72844944574749,-1.04868922835711,-0.05131268,0.3390302,-0.032070424,242.8523,102.22582,-7.3863654,STD
9184136720000,0.849962,-0.482935065029657,-9.71365701161154,-1.05959087254449,-0.05375614,0.3210097,-0.032375857,243.01935,102.151276,-7.315212,STD
9184141759000,0.855001,-0.487786527299688,-9.69425101055595,-1.06686806594953,-0.04550946,0.310625,-0.027183503,243.18385,102.07654,-7.2482195,STD
9184146723000,0.859965,-0.492565780863577,-9.67513384658691,-1.07403694629537,-0.04917465,0.30207285,-0.018936822,243.35014,102.014366,-7.183796,STD
9184151650000,0.864892,-0.497309411465769,-9.65615917558058,-1.08115239219865,-0.05131268,0.28893927,-0.021991149,243.5087,101.94908,-7.119773,STD
9184156706000,0.869948,-0.486057850499594,-9.6414850770665,-1.11201944355787,-0.060170226,0.2687807,-0.01282817,243.6607,101.88984,-7.06356,STD
9184161734000,0.874976,-0.472245489558732,-9.62767292044748,-1.14655033990056,-0.05375614,0.26206118,-0.0125227375,243.8093,101.82572,-7.0052457,STD
9184166720000,0.879962,-0.45854850633456,-9.61397613983841,-1.18079279200172,-0.048258353,0.25259277,-0.004581489,243.957,101.77826,-6.968758,STD
9184171683000,0.884925,-0.444914706145719,-9.60034254133002,-1.21487728654205,-0.04520403,0.2406809,-0.0030543262,244.0989,101.72869,-6.931578,STD
9184177668000,0.89091,-0.430762341713147,-9.59316929814077,-1.21606053296813,-0.042455133,0.23060162,0.0033597588,244.24582,101.68263,-6.8941207,STD
9184182968000,0.89621,-0.418966209840637,-9.5897989063745,-1.20426439053785,-0.03573562,0.2312125,0.0036651916,244.3893,101.63398,-6.8560486,STD
9184186712000,0.899954,-0.410633244231076,-9.58741801075697,-1.19593141747012,-0.041233405,0.22388211,0.006414085,244.52605,101.59979,-6.8209653,STD
9184191778000,0.90502,-0.399357922709163,-9.5841964249668,-1.18465608585657,-0.02687807,0.21044308,0.008246681,244.65842,101.55904,-6.7865305,STD
9184196720000,0.909962,-0.388358586159363,-9.5810536936255,-1.17365673946215,-0.018020526,0.20158553,0.008857546,244.78732,101.52075,-6.7531843,STD
9184201730000,0.914972,-0.377207903011952,-9.57786771952191,-1.16250604633466,-0.018325957,0.18203785,0.013439035,244.90712,101.48205,-6.723084,STD
9184206709000,0.919951,-0.376490810916305,-9.58579292764028,-1.14681219633478,-0.01985312,0.18142697,0.02443461,245.02774,101.44266,-6.6949472,STD
9184211727000,0.924969,-0.381030427617608,-9.59941158813527,-1.12865372952957,-0.02443461,0.15821409,0.019242255,245.1336,101.402,-6.665869,STD
9184216722000,0.929964,-0.385809922681144,-9.61648785654625,-1.12322405696388,-0.019547688,0.14874569,0.021685716,245.2445,101.35437,-6.6368375,STD
9184221690000,0.934932,-0.390777310628524,-9.63635778179161,-1.12819143453748,-0.017104227,0.1386664,0.020158553,245.34625,101.30695,-6.6067433,STD
9184226720000,0.939962,-0.389643355734446,-9.64685046690519,-1.15110325730471,-0.028405234,0.118507855,0.02565634,245.46484,101.26783,-6.573034,STD
9184231733000,0.944975,-0.384872077791692,-9.65162133631485,-1.18450218297555,-0.025045475,0.11026118,0.028405234,245.58145,101.223976,-6.538664,STD
9184236717000,0.949959,-0.377219455732069,-9.67683240041494,-1.179542456639,-0.031154128,0.09254608,0.028405234,245.68738,101.18585,-6.507346,STD
9184241770000,0.955012,-0.367657793926102,-9.71507934716459,-1.15085742130014,-0.019242255,0.06872234,0.031154128,245.7874,101.143654,-6.478735,STD
9184247011000,0.960253,-0.354623384561519,-9.72693751230388,-1.14067280766309,-0.036957346,0.04795292,0.035430185,245.88565,101.11697,-6.451769,STD
9184251726000,0.964968,-0.341200038867052,-9.7224629734104,-1.14216428947977,-0.027183503,0.02443461,0.03359759,245.97427,101.08049,-6.4254837,STD
9184256707000,0.969949,-0.327019405801486,-9.71773600029728,-1.14373991427911,-0.028099801,0.015271631,0.03604105,246.06563,101.04664,-6.399464,STD
9184261730000,0.974972,-0.312719201045747,-9.71296916914946,-1.14532882481255,-0.021685716,-0.0027488936,0.041233405,246.14618,101.00909,-6.3756185,STD
9184266716000,0.979958,-0.298524333255161,-9.7082374510322,-1.1469060312469,-0.026572637,-0.025045475,0.027488936,246.21841,100.97201,-6.3527637,STD
9184271739000,0.984981,-0.284224128499422,-9.70347061988439,-1.14849494178035,-0.030543262,-0.034208454,0.036651913,246.28918,100.9381,-6.3382535,STD
9184276833000,0.990075,-0.285712963016705,-9.68533410744292,-1.15187865248591,-0.020158553,-0.044593163,0.04428773,246.35141,100.89974,-6.320747,STD
9184281730000,0.994972,-0.299619542708313,-9.65752135465059,-1.15651417582287,-0.0421497,-0.060170226,0.03756821,246.40823,100.86923,-6.302568,STD
9184286717000,0.999959,-0.312345725938781,-9.63677949418327,-1.15526085938781,-0.032375857,-0.07452556,0.03940081,246.4679,100.83078,-6.2834225,STD
9184291742000,1.004984,-0.323817896292553,-9.62301285334224,-1.14837756292553,-0.03726278,-0.084910266,0.034513887,246.52258,100.79889,-6.261323,STD
9184296718000,1.00996,-0.335178198716506,-9.60938045437208,-1.14156138716506,-0.040927973,-0.094989546,0.03573562,246.57172,100.76917,-6.244709,STD
9184301717000,1.014959,-0.346591010576905,-9.59568504391151,-1.13471370576905,-0.037873644,-0.10842858,0.03604105,246.61584,100.738335,-6.2273264,STD
9184306698000,1.01994,-0.362337654453569,-9.59278059949463,-1.13326151644557,-0.048258353,-0.12095132,0.037873644,246.66049,100.71373,-6.2112303,STD
9184311731000,1.024973,-0.387711446058118,-9.61307951831965,-1.14341102884818,-0.042455133,-0.1282817,0.029321533,246.7016,100.68322,-6.192858,STD
9184316979000,1.030221,-0.410965267921803,-9.62687589146764,-1.14266226248074,-0.04917465,-0.14813483,0.026267206,246.73431,100.65831,-6.173133,STD
9184321711000,1.034953,-0.428421909393297,-9.63124014069723,-1.12956978821263,-0.040317107,-0.15424347,0.020158553,246.76782,100.62685,-6.1502833,STD
9184326812000,1.040054,-0.442228227024632,-9.63511557988511,-1.12302908655438,-0.032986723,-0.16310102,0.021380283,246.7937,100.60145,-6.1328173,STD
9184331733000,1.044975,-0.44681663191364,-9.63740982664784,-1.12991168310778,-0.048563786,-0.1740966,0.021685716,246.81656,100.57855,-6.1141343,STD
9184336695000,1.049937,-0.451443265739947,-9.63972318824847,-1.13685162297731,-0.05100725,-0.17806722,0.016493361,246.83432,100.54935,-6.101415,STD
9184341757000,1.054999,-0.45616314087674,-9.64208317140493,-1.14393142459352,-0.054367006,-0.18234327,0.013133603,246.84885,100.52476,-6.0899124,STD
9184346706000,1.059948,-0.466875362319992,-9.64439792503578,-1.15087571945911,-0.06078109,-0.17134771,0.013744468,246.86646,100.501686,-6.077762,STD
9184351712000,1.064954,-0.497632878041258,-9.64676368805211,-1.15797362613631,-0.06383542,-0.17348573,0.011301007,246.87877,100.47796,-6.064739,STD
9184356703000,1.069945,-0.528298231809702,-9.64912236228594,-1.16505026461531,-0.064446285,-0.16523905,0.006414085,246.89545,100.45811,-6.0525136,STD
9184361737000,1.074979,-0.559227783176233,-9.65150135769629,-1.17218787192913,-0.06383542,-0.16126843,0.009162978,246.91037,100.43984,-6.042202,STD
9184366721000,1.079963,-0.591120104728058,-9.64995358845474,-1.17968101482427,-0.06352998,-0.15699236,0.011911872,246.92735,100.421265,-6.030366,STD
9184371707000,1.084949,-0.628622529385431,-9.63120248871,-1.18905661364618,-0.056199603,-0.16890424,0.0027488936,246.94025,100.39966,-6.0166354,STD
9184376860000,1.090102,-0.665820996689304,-9.61385869439729,-1.19626401794667,-0.048258353,-0.17165314,0.0076358155,246.95364,100.38792,-6.0143094,STD
9184382947000,1.096189,-0.700752005772496,-9.6051260713073,-1.19044218816539,-0.04520403,-0.17959438,0.009773844,246.96158,100.37382,-6.009368,STD
9184387131000,1.100373,-0.72476241188455,-9.59912355857385,-1.18644045729552,-0.04642576,-0.17928895,0.008857546,246.96939,100.36501,-6.0097413,STD
9184391755000,1.104997,-0.751297812903226,-9.59248980645161,-1.1820178943074,-0.054367006,-0.18509217,0.01038471,246.97336,100.35793,-6.0118175,STD
9184396706000,1.109948,-0.774492918872278,-9.58761243623108,-1.17549034415836,-0.045814894,-0.17898351,0.009162978,246.97563,100.34559,-6.0157247,STD
9184401715000,1.114957,-0.765639016758952,-9.5964660147656,-1.15778258615725,-0.049480084,-0.17959438,0.01038471,246.97464,100.338745,-6.0210032,STD
9184407261000,1.120503,-0.7565677,-9.60513693229061,-1.13903987963673,-0.042455133,-0.18936823,0.01160644,246.97163,100.3316,-6.0324707,STD
9184411694000,1.124936,-0.7565677,-9.6008531154894,-1.13261395313824,-0.049480084,-0.18234327,0.011911872,246.9734,100.328674,-6.042887,STD
9184416720000,1.129962,-0.7565677,-9.59599625484359,-1.12532843394551,-0.05222898,-0.17928895,0.009468411,246.965,100.31525,-6.0494084,STD
9184421709000,1.134951,-0.7565677,-9.59117514904137,-1.11809654869828,-0.042455133,-0.17623462,0.013744468,246.95923,100.302025,-6.057294,STD
9184426967000,1.140209,-0.756282944561177,-9.58681112721146,-1.11076722228059,-0.043676864,-0.17989981,0.018936822,246.95265,100.29199,-6.064594,STD
9184432593000,1.145835,-0.750942830898459,-9.59482118618366,-1.10809716544923,-0.03726278,-0.18234327,0.013439035,246.9473,100.27713,-6.06954,STD
9184436846000,1.150088,-0.746905947960751,-9.60087642628475,-1.10607872398038,-0.028099801,-0.18478674,0.01160644,246.94199,100.26325,-6.083066,STD
9184441756000,1.154998,-0.742245450612022,-9.60786707497894,-1.10374847530601,-0.015882496,-0.17256944,0.01740966,246.94055,100.24789,-6.096133,STD
9184447046000,1.160288,-0.73722502201382,-9.61549216386969,-1.10057648805528,-0.01863139,-0.17715092,0.009468411,246.93336,100.23156,-6.1050353,STD
9184451718000,1.16496,-0.732808160256663,-9.62432607186575,-1.08290904102665,-0.013133603,-0.18234327,0.013439035,246.93048,100.213936,-6.1178975,STD
9184457257000,1.170499,-0.728337547383586,-9.63326751045636,-1.06202510262106,-0.018325957,-0.17867808,0.02443461,246.9235,100.19259,-6.118618,STD
9184461738000,1.17498,-0.736314801923971,-9.6173130846733,-1.04607055189144,-0.028405234,-0.18142697,0.024129177,246.91339,100.17045,-6.1176033,STD
9184466754000,1.179996,-0.745244484756948,-9.59945381225021,-1.02821113960405,-0.03268129,-0.19028452,0.031154128,246.90407,100.14963,-6.1277986,STD
9184471711000,1.184953,-0.758601070545787,-9.60370084429312,-1.00149803972965,-0.038789943,-0.19333886,0.030543262,246.89572,100.13065,-6.135182,STD
9184476710000,1.189952,-0.773198465555443,-9.61343210224616,-0.972303351326354,-0.03359759,-0.19303341,0.024740042,246.88632,100.11085,-6.1428156,STD
9184481723000,1.194965,-0.786903601091932,-9.61884148339587,-0.948620452772045,-0.04184427,-0.20616703,0.034208454,246.88141,100.1005,-6.1577806,STD
9184486713000,1.199955,-0.800352428146341,-9.62332452560976,-0.926205686402439,-0.038179077,-0.21563543,0.03145956,246.87717,100.08344,-6.166945,STD
9184491734000,1.204976,-0.801114565406213,-9.624691,-0.931053645888092,-0.027183503,-0.21044308,0.028099801,246.87524,100.06502,-6.1787567,STD
9184496735000,1.209977,-0.796346191073775,-9.624691,-0.947742977212764,-0.022296581,-0.22632557,0.03023783,246.86508,100.04802,-6.191966,STD
9184502556000,1.215798,-0.790795959722222,-9.624691,-0.967168811574074,-0.014049901,-0.22449298,0.024740042,246.8536,100.01965,-6.1986594,STD
9184506722000,1.219964,-0.786823744671446,-9.624691,-0.981071581879729,-0.014660766,-0.21655174,0.030848695,246.8406,99.99532,-6.209151,STD
9184511761000,1.225003,-0.775396968844574,-9.61809007746267,-0.993011884687844,-0.022907447,-0.22327125,0.027183503,246.8273,99.9697,-6.213835,STD
9184516754000,1.229996,-0.761021657018739,-9.60850635945486,-1.00259540255537,-0.02321288,-0.20952678,0.027794369,246.82306,99.9449,-6.2199435,STD
9184521750000,1.234992,-0.769994709576219,-9.59882371778455,-1.01563493878049,-0.022296581,-0.21288654,0.03023783,246.81091,99.92615,-6.2258677,STD
9184526765000,1.240007,-0.78951818102439,-9.58906230569106,-1.03027751560976,-0.027183503,-0.20005837,0.025350908,246.80746,99.90798,-6.2284245,STD
9184531820000,1.245062,-0.81460417660336,-9.59624862991134,-1.04087151421839,-0.03268129,-0.19394971,0.03023783,246.80177,99.89277,-6.2332563,STD
9184536748000,1.24999,-0.841031338914139,-9.60946224671022,-1.04968058441904,-0.050396383,-0.19792034,0.02076942,246.79642,99.87824,-6.2323227,STD
9184541749000,1.254991,-0.867849975017265,-9.62287160093327,-1.05862014612226,-0.05100725,-0.19608775,0.027794369,246.78256,99.86478,-6.2377625,STD
9184546757000,1.259999,-0.89470614970322,-9.63629972449837,-1.06757222070929,-0.0421497,-0.19303341,0.030543262,246.76788,99.851036,-6.239308,STD
9184551758000,1.265,-0.920845657201941,-9.64826445674193,-1.07481219759443,-0.040317107,-0.1966986,0.03268129,246.74385,99.8364,-6.2398014,STD
9184556751000,1.269993,-0.946070916931842,-9.65835423612577,-1.07985724532602,-0.03023783,-0.1994475,0.03176499,246.72159,99.81845,-6.239971,STD
9184561764000,1.275006,-0.95638524149021,-9.66558895760052,-1.0873610069852,-0.029932396,-0.2098322,0.03268129,246.69775,99.81115,-6.244901,STD
9184566759000,1.280001,-0.954001884121369,-9.67035574699815,-1.09689438668726,-0.026572637,-0.22602014,0.038179077,246.67224,99.80202,-6.251045,STD
9184572557000,1.285799,-0.951235376408749,-9.67588884908574,-1.10796035976284,-0.027183503,-0.22937989,0.03481932,246.64697,99.79535,-6.257435,STD
9184576881000,1.290123,-0.949172185765532,-9.68001529500274,-1.11621307924867,-0.0125227375,-0.22693644,0.035430185,246.61984,99.786674,-6.2666154,STD
9184582960000,1.296202,-0.939694854605886,-9.67974938150459,-1.12168768416032,-0.0076358155,-0.20952678,0.03940081,246.58875,99.77783,-6.2756042,STD
9184586765000,1.300007,-0.931362503701042,-9.67736866187568,-1.12287801911606,-0.004276057,-0.19730948,0.040317107,246.55771,99.766205,-6.2837267,STD
9184591740000,1.304982,-0.920468037012054,-9.67425589442394,-1.1244343703394,-0.005192355,-0.18051068,0.03481932,246.53287,99.75661,-6.2898297,STD
9184596766000,1.310008,-0.909461888352987,-9.67111121719531,-1.12600667611799,-0.016798794,-0.1740966,0.044898596,246.50992,99.75207,-6.3002744,STD
9184601750000,1.314992,-0.898547713081044,-9.66799281860648,-1.12756584285108,-0.014966198,-0.15760323,0.034513887,246.48863,99.73638,-6.295842,STD
9184606727000,1.319969,-0.887648866706955,-9.66487879979094,-1.12912281974325,-0.009468411,-0.1441642,0.03726278,246.4698,99.72713,-6.297834,STD
9184611697000,1.324939,-0.888614653797532,-9.65167529467242,-1.13195031098625,-0.018325957,-0.1518,0.03604105,246.4447,99.71692,-6.2972217,STD
9184616759000,1.330001,-0.908069986344938,-9.62249223236681,-1.13681413777466,-0.01038471,-0.14263703,0.04642576,246.42938,99.70496,-6.2995543,STD
9184621679000,1.334921,-0.928787570301013,-9.59988861235843,-1.13775717790582,-0.004276057,-0.14385876,0.038789943,246.40932,99.689896,-6.293484,STD
9184626843000,1.340085,-0.953352763446255,-9.58514971706736,-1.13284414440691,-0.009468411,-0.14385876,0.03940081,246.39343,99.67943,-6.292333,STD
9184631716000,1.344958,-0.970840875227861,-9.57501527496882,-1.12468813715821,-0.0061086523,-0.1441642,0.0421497,246.36545,99.665215,-6.2939906,STD
9184636757000,1.349999,-0.980104359598964,-9.57038343605488,-1.11079291060155,-0.012217305,-0.14477506,0.04642576,246.33824,99.655075,-6.2962213,STD
9184642120000,1.355362,-0.981472662898344,-9.57052236015667,-1.09145592579669,-0.0070249503,-0.14019357,0.047647487,246.31262,99.64427,-6.301023,STD
9184646765000,1.360007,-0.969593304878049,-9.57844209756098,-1.0676972097561,-0.014660766,-0.13469578,0.041233405,246.28767,99.63732,-6.3046894,STD
9184651782000,1.365024,-0.958019894080505,-9.58672320116417,-1.04522877632202,-0.010995574,-0.14477506,0.04734206,246.25464,99.626656,-6.314228,STD
9184656760000,1.370002,-0.962723259352802,-9.59142666466062,-1.06404223741121,-0.0143553335,-0.14966199,0.042760566,246.22485,99.61641,-6.3183455,STD
9184661945000,1.375187,-0.965792755225359,-9.5970595418524,-1.08034826759782,-0.0106901415,-0.14996742,0.04795292,246.19695,99.6013,-6.3243194,STD
9184666760000,1.380002,-0.947521392298167,-9.61076285537395,-1.0575090460525,-0.009162978,-0.1459968,0.0421497,246.16916,99.585014,-6.3257675,STD
9184672039000,1.385281,-0.929069364427861,-9.62445276616915,-1.0342951,-0.008552114,-0.12736541,0.046731193,246.1398,99.57273,-6.33192,STD
9184676777000,1.390019,-0.930535245360858,-9.62152094307682,-1.0342951,-0.01038471,-0.12492194,0.048258353,246.10756,99.559555,-6.3358774,STD
9184681713000,1.394955,-0.93206238514247,-9.61846659972863,-1.0342951,-0.015577064,-0.12370021,0.050396383,246.08322,99.54254,-6.3373747,STD
9184686751000,1.399993,-0.933621082512761,-9.61534913988499,-1.0342951,-0.022296581,-0.1142318,0.04184427,246.06238,99.52508,-6.3358006,STD
9184691783000,1.405025,-0.935177923554306,-9.61223539277638,-1.0342951,-0.023518313,-0.10873401,0.04153884,246.04182,99.510056,-6.337176,STD
9184696761000,1.410003,-0.936718057637139,-9.609155060283,-1.0342951,-0.018020526,-0.096516706,0.038179077,246.02327,99.49269,-6.335785,STD
9184701653000,1.414895,-0.938231584341281,-9.60612794365833,-1.0342951,-0.021380283,-0.08827003,0.03634648,246.00583,99.47822,-6.3346543,STD
9184706729000,1.419971,-0.975361452286633,-9.6096297944623,-1.0465732697086,-0.0290161,-0.0888809,0.032070424,245.98721,99.46426,-6.338538,STD
9184711697000,1.424939,-1.01976652643368,-9.61456379176605,-1.06137500402364,-0.025045475,-0.083383106,0.0290161,245.97319,99.44885,-6.3415275,STD
9184716759000,1.430001,-1.05715426600301,-9.62727772539444,-1.0589711095417,-0.018325957,-0.079107046,0.032070424,245.96625,99.440765,-6.352298,STD
9184721682000,1.434924,-1.09257624041134,-9.64056122586401,-1.05454336851991,-0.009162978,-0.08124508,0.036957346,245.95929,99.43132,-6.362349,STD
9184726779000,1.440021,-1.11220088540509,-9.63659945841864,-1.08605305621527,-0.0125227375,-0.08735373,0.033292156,245.94864,99.42727,-6.373841,STD
9184731752000,1.444994,-1.126130521673,-9.62731284030418,-1.12784196501901,-0.008552114,-0.08857546,0.04428773,245.93974,99.42369,-6.3902755,STD
9184736758000,1.45,-1.12685430385116,-9.61827307367442,-1.16531120269767,-0.0021380284,-0.07391469,0.043982297,245.92488,99.4184,-6.407967,STD
9184741772000,1.455014,-1.12238750615814,-9.60933929172093,-1.20104563088372,-0.004581489,-0.074830994,0.038179077,245.90593,99.41541,-6.4270597,STD
9184746760000,1.460002,-1.09175194274601,-9.62277771635829,-1.22200138544996,0.0036651916,-0.06383542,0.048563786,245.9006,99.422134,-6.449947,STD
9184751760000,1.465002,-1.04141126780908,-9.65298219491169,-1.23206950992431,0.005497787,-0.0571159,0.054061573,245.89368,99.42852,-6.4693556,STD
9184756753000,1.469995,-1.00882130897168,-9.65504950863571,-1.22269049721766,0.002443461,-0.043066,0.05681047,245.89034,99.44096,-6.490292,STD
9184761766000,1.475008,-0.984925771932706,-9.64310174635409,-1.2035740526156,0.0033597588,-0.03573562,0.05467244,245.88712,99.45204,-6.510681,STD
9184766750000,1.479992,-0.961168469598328,-9.63122310138868,-1.18456819586382,0.009162978,-0.04153884,0.062308256,245.88602,99.46422,-6.537889,STD
9184771779000,1.485021,-0.937196665136131,-9.61923720541536,-1.1653907372754,0.014660766,-0.040927973,0.059864793,245.88834,99.4735,-6.5603004,STD
9184776746000,1.489988,-0.923032509155292,-9.61807293375966,-1.1499169840985,0.022602014,-0.04428773,0.070249505,245.88852,99.48485,-6.5879655,STD
9184783161000,1.496403,-0.911304888667558,-9.62393686952372,-1.13232554418249,0.032070424,-0.05131268,0.062002823,245.88712,99.49028,-6.6088867,STD
9184786745000,1.499987,-0.840297877356064,-9.63498705582075,-1.13778528218217,0.036957346,-0.058337633,0.061391957,245.88858,99.48853,-6.6277785,STD
9184791753000,1.504995,-0.714147133071603,-9.65367594583536,-1.15180202287384,0.04642576,-0.07391469,0.065973446,245.88554,99.483345,-6.6456313,STD
9184796731000,1.509973,-0.660151645864662,-9.66746246616541,-1.15656141353383,0.042760566,-0.08307768,0.06963864,245.88928,99.47757,-6.658911,STD
9184801718000,1.51496,-0.678106345714286,-9.67644000357143,-1.15207273857143,0.05009095,-0.09590584,0.0711658,245.8877,99.468254,-6.672917,STD
9184806705000,1.519947,-0.674730969935044,-9.68585166372058,-1.13626757133426,0.053450707,-0.099571034,0.074830994,245.89339,99.45261,-6.676915,STD
9184811765000,1.525007,-0.633450044836546,-9.69617156362475,-1.10014679016079,0.05375614,-0.11026118,0.07788532,245.89355,99.43659,-6.6814966,STD
9184816755000,1.529997,-0.605875382449465,-9.69895844351962,-1.07513894244946,0.053450707,-0.1255328,0.06780604,245.89099,99.41944,-6.685254,STD
9184821750000,1.534992,-0.591655371747919,-9.69421883590963,-1.06091893174792,0.045814894,-0.124311075,0.06627888,245.8907,99.406364,-6.6916986,STD
9184827125000,1.540367,-0.579005685432026,-9.69431869345326,-1.04049991358007,0.043982297,-0.13897185,0.059864793,245.87894,99.37688,-6.684434,STD
9184831827000,1.545069,-0.57015280808611,-9.69874498884302,-1.01836772021528,0.04550946,-0.14172074,0.06536258,245.8717,99.35102,-6.6796875,STD
9184836699000,1.549941,-0.560979856484813,-9.70333131618009,-0.995435341212032,0.03573562,-0.15118915,0.057421334,245.8562,99.32133,-6.671415,STD
9184841752000,1.554994,-0.55146611994102,-9.70808803047282,-0.971650999852551,0.029932396,-0.16676621,0.056199603,245.83914,99.29377,-6.666833,STD
9184846699000,1.559941,-0.553419035308863,-9.70899670377002,-0.94448389411519,0.03481932,-0.17745635,0.058643065,245.81783,99.263756,-6.658707,STD
9184851762000,1.565004,-0.572711739588183,-9.70417343201034,-0.910721676735303,0.022296581,-0.18020524,0.055588737,245.79489,99.23777,-6.649052,STD
9184856671000,1.569913,-0.59320417549866,-9.70491265029274,-0.872605168284212,0.024129177,-0.20158553,0.052839845,245.7619,99.19921,-6.6392703,STD
9184861759000,1.575001,-0.617381385096755,-9.7145837381165,-0.824250693547683,0.010995574,-0.21044308,0.046120327,245.73251,99.165634,-6.6273108,STD
9184866653000,1.579895,-0.637067400340602,-9.72545708857584,-0.786544694217484,-0.0009162979,-0.23609942,0.046731193,245.69112,99.12875,-6.61692,STD
9184871760000,1.585002,-0.65122472476071,-9.73961418139714,-0.762949176512929,0.005192355,-0.24831672,0.04337143,245.65193,99.08984,-6.603586,STD
9184876784000,1.590026,-0.669500843518519,-9.75353966261574,-0.751341486902006,-0.010079277,-0.26725355,0.042455133,245.60085,99.051254,-6.5897946,STD
9184881769000,1.595011,-0.697128359722222,-9.76735370920139,-0.765155293084491,-0.03023783,-0.28496864,0.038789943,245.548,99.01252,-6.5749297,STD
9184886677000,1.599919,-0.726835869993867,-9.77256039865072,-0.77679331691199,-0.03634648,-0.2996294,0.03848451,245.49326,98.97365,-6.5623775,STD
9184891768000,1.60501,-0.766705466924256,-9.7476419233364,-0.781776996363079,-0.052534413,-0.31429017,0.03573562,245.43489,98.94069,-6.5489945,STD
9184897038000,1.61028,-0.807390931148325,-9.72847147300068,-0.78529817,-0.06078109,-0.31703907,0.034513887,245.37343,98.91551,-6.5466747,STD
9184901761000,1.615003,-0.842724394688995,-9.72405470012694,-0.78529817,-0.055588737,-0.3222314,0.035124753,245.30878,98.89174,-6.544694,STD
9184906712000,1.619954,-0.879763560047847,-9.71942471018455,-0.78529817,-0.065973446,-0.3231477,0.028405234,245.23273,98.87427,-6.547406,STD
9184911758000,1.625,-0.917513434497608,-9.7147058797969,-0.78529817,-0.0693332,-0.3136793,0.025045475,245.16032,98.85627,-6.550965,STD
9184916731000,1.629973,-0.956488424091314,-9.70752819312667,-0.78613662609587,-0.0693332,-0.32650748,0.029626964,245.07431,98.83608,-6.550968,STD
9184921756000,1.634998,-1.00414960600178,-9.68846384975735,-0.790902736821828,-0.07360926,-0.3381139,0.03176499,244.99326,98.81724,-6.549168,STD
9184926767000,1.640009,-1.04942473196457,-9.66860876288245,-0.795668216595209,-0.06811147,-0.33567044,0.027183503,244.91228,98.80566,-6.5560627,STD
9184931823000,1.645065,-1.08353726272142,-9.6442426694847,-0.800541430186192,-0.064751714,-0.32834008,0.030543262,244.83173,98.798294,-6.565897,STD
9184936740000,1.649982,-1.1132929456159,-9.62071875730684,-0.806835108934118,-0.074830994,-0.31795537,0.024740042,244.74094,98.79387,-6.579661,STD
9184941763000,1.655005,-1.127213346812,-9.59751808864667,-0.820755529510948,-0.058948494,-0.31337386,0.034513887,244.65332,98.78878,-6.5984273,STD
9184946735000,1.659977,-1.14050139128191,-9.57594559072897,-0.834043591281909,-0.06719518,-0.31612277,0.035430185,244.56152,98.7926,-6.620746,STD
9184951777000,1.665019,-1.14940125776426,-9.56704553838356,-0.842943457764261,-0.06352998,-0.32650748,0.036957346,244.47131,98.794075,-6.645492,STD
9184956708000,1.66995,-1.1581051930329,-9.55834142134366,-0.8516473930329,-0.06566802,-0.32375857,0.04337143,244.38492,98.80421,-6.6735454,STD
9184961769000,1.675011,-1.1587936,-9.56424966245576,-0.841341582990562,-0.062308256,-0.32253686,0.03970624,244.29695,98.811264,-6.6988792,STD
9184966718000,1.67996,-1.1587936,-9.57123893295321,-0.82969303236335,-0.055588737,-0.3200934,0.03756821,244.21236,98.82025,-6.7256937,STD
9184971770000,1.685012,-1.1587936,-9.57837366614235,-0.817802048777035,-0.053145275,-0.30695978,0.042760566,244.12094,98.82885,-6.7522,STD
9184976770000,1.690012,-1.1587936,-9.58543496185608,-0.806033458529296,-0.06291912,-0.29657507,0.035124753,244.03122,98.835754,-6.773922,STD
9184983092000,1.696334,-1.16978135560971,-9.56990210843741,-0.74951323436288,-0.06261369,-0.2932153,0.040011674,243.9458,98.84475,-6.799945,STD
9184986683000,1.699925,-1.17676490081227,-9.55942662656107,-0.714595668776526,-0.06352998,-0.29718593,0.042455133,243.86288,98.85399,-6.8225584,STD
9184991782000,1.705024,-1.18004726625165,-9.56395303032079,-0.700283834993409,-0.05375614,-0.2910773,0.03573562,243.78607,98.85819,-6.8451,STD
9184996764000,1.710006,-1.18237682133197,-9.57094184151164,-0.690965614672135,-0.0571159,-0.2959642,0.051923547,243.70749,98.870964,-6.8746786,STD
9185001840000,1.715082,-1.18475033028172,-9.5780625170646,-0.681471578873102,-0.051618114,-0.30695978,0.0421497,243.63123,98.868034,-6.8933825,STD
9185006708000,1.71995,-1.18702657960549,-9.58489140764611,-0.672366581578048,-0.03604105,-0.30695978,0.040011674,243.55914,98.86966,-6.9180145,STD
9185011654000,1.724896,-1.18374247680806,-9.59394700945987,-0.677939746383888,-0.03390302,-0.3155119,0.040011674,243.48306,98.87152,-6.9404383,STD
9185016673000,1.729915,-1.1788532530058,-9.60372515074764,-0.687718193988404,-0.029932396,-0.32467487,0.03848451,243.40851,98.87003,-6.961255,STD
9185021640000,1.734882,-1.17409884871591,-9.61708259496317,-0.685681648715907,-0.022907447,-0.3268129,0.03848451,243.33636,98.86619,-6.981736,STD
9185026652000,1.739894,-1.16932093495919,-9.63141663557635,-0.680903734959188,-0.02107485,-0.32345316,0.03604105,243.26491,98.862305,-7.0006413,STD
9185031660000,1.744902,-1.17986208699641,-9.6495900359992,-0.687614357997607,-0.020463986,-0.31123585,0.036957346,243.19463,98.85788,-7.0179677,STD
9185036618000,1.74986,-1.19406684599122,-9.66852961577583,-0.697084197327483,-0.01740966,-0.30909783,0.03359759,243.12405,98.851845,-7.033141,STD
9185041644000,1.754886,-1.19524323213046,-9.672575,-0.691676228521833,-0.025045475,-0.301462,0.039095376,243.06107,98.84884,-7.0492444,STD
9185046658000,1.7599,-1.19289527480808,-9.672575,-0.682284399232311,-0.040011674,-0.30115658,0.03268129,242.9978,98.8437,-7.0607815,STD
9185051637000,1.764879,-1.19056370729549,-9.672575,-0.672958129181947,-0.034513887,-0.28588495,0.02687807,242.93233,98.83788,-7.0747795,STD
9185056638000,1.76988,-1.18822183761674,-9.672575,-0.66359065046697,-0.030848695,-0.28680122,0.025045475,242.86392,98.83497,-7.0881987,STD
9185061649000,1.774891,-1.18412491524194,-9.66577648850806,-0.664198884758064,-0.027794369,-0.28771752,0.024129177,242.80133,98.830666,-7.0995812,STD
9185066639000,1.779881,-1.17930755314516,-9.65614156310484,-0.669016246854839,-0.03634648,-0.3023783,0.01985312,242.73596,98.827065,-7.1096406,STD
9185071649000,1.784891,-1.17965953160717,-9.65170891142446,-0.668664268392831,-0.025045475,-0.30115658,0.02107485,242.67957,98.81778,-7.1173153,STD
9185076663000,1.789905,-1.18204362749119,-9.64932501469639,-0.666280172508813,-0.024129177,-0.29657507,0.023518313,242.62135,98.81162,-7.12435,STD
9185081635000,1.794877,-1.18440775288715,-9.64696108678814,-0.663916047112854,-0.03268129,-0.3036,0.0290161,242.56158,98.80707,-7.1325235,STD
9185086636000,1.799878,-1.18678566742962,-9.64458337088526,-0.661538132570379,-0.040317107,-0.31123585,0.022602014,242.50412,98.80056,-7.1377926,STD
9185091653000,1.804895,-1.20376119096961,-9.6341027013362,-0.662423410792423,-0.03970624,-0.31520647,0.02321288,242.44745,98.7975,-7.1465845,STD
9185096639000,1.809881,-1.22713247722089,-9.6200798661348,-0.664760541857961,-0.0421497,-0.31215215,0.025961773,242.39186,98.79573,-7.154121,STD
9185101741000,1.814983,-1.25104749977485,-9.60573078767559,-0.667152046610543,-0.04734206,-0.31031954,0.02687807,242.32364,98.79157,-7.162758,STD
9185106708000,1.81995,-1.27432972576966,-9.59176138886986,-0.669480271641134,-0.050701816,-0.310625,0.0290161,242.25745,98.78903,-7.172399,STD
9185111764000,1.825006,-1.28038387212054,-9.59510845955474,-0.677646857656831,-0.05955936,-0.3222314,0.028405234,242.19006,98.78836,-7.1816354,STD
9185116737000,1.829979,-1.2757839611967,-9.60890831240643,-0.689146695006519,-0.05467244,-0.3203988,0.032375857,242.12817,98.788025,-7.192332,STD
9185121757000,1.834999,-1.27114057635099,-9.62283858815859,-0.700755217728304,-0.063224554,-0.31520647,0.025350908,242.05472,98.79281,-7.2043004,STD
9185126730000,1.839972,-1.26654066542715,-9.63663844101029,-0.712255055077993,-0.070249505,-0.30573806,0.022296581,241.98491,98.798805,-7.2181754,STD
9185131797000,1.845039,-1.26759831839013,-9.63923182853103,-0.724026843913022,-0.07452556,-0.29657507,0.020463986,241.918,98.80481,-7.230142,STD
9185136752000,1.849994,-1.27453896621325,-9.62997747038175,-0.735594550021939,-0.079107046,-0.29077184,0.015577064,241.85416,98.81092,-7.2401285,STD
9185141737000,1.854979,-1.28152163612208,-9.62066708180976,-0.747232292696602,-0.076358154,-0.26236662,0.014049901,241.7953,98.81722,-7.2492304,STD
9185146769000,1.860011,-1.28857014063186,-9.61126891224221,-0.758979759324265,-0.06994407,-0.24373524,0.009162978,241.73654,98.82209,-7.2561164,STD
9185151720000,1.864962,-1.29634542735076,-9.59684593162311,-0.75397700427235,-0.06383542,-0.21899518,0.0076358155,241.68054,98.82403,-7.2607155,STD
9185156701000,1.869943,-1.30554632248047,-9.57384369379882,-0.721773871318353,-0.06963864,-0.21105394,0.009773844,241.62637,98.82701,-7.2650604,STD
9185161682000,1.874924,-1.32046850732436,-9.55624546636771,-0.694883946337818,-0.056505036,-0.19364429,0.0106901415,241.57411,98.82929,-7.2714458,STD
9185166720000,1.879962,-1.34931629112108,-9.55143790403587,-0.680460054439462,-0.06414085,-0.18936823,0.011911872,241.5216,98.836784,-7.2787127,STD
9185171762000,1.885004,-1.37802359438741,-9.54665360702063,-0.680340042778919,-0.051618114,-0.18325958,0.011911872,241.47693,98.8367,-7.285922,STD
9185176786000,1.890028,-1.40625118425736,-9.54194891864672,-0.713272173648186,-0.029321533,-0.19028452,0.012217305,241.43074,98.83691,-7.293749,STD
9185182990000,1.896232,-1.42582764892928,-9.53961667439064,-0.738530751070718,-0.03848451,-0.18417588,0.019547688,241.37973,98.84268,-7.309694,STD
9185187221000,1.900463,-1.42395357091254,-9.54149079154526,-0.740404829087461,-0.037873644,-0.17989981,0.022296581,241.3274,98.842705,-7.324333,STD
9185192046000,1.905288,-1.42181638669349,-9.54362802039684,-0.742542013306508,-0.03726278,-0.17287487,0.021380283,241.27094,98.85108,-7.3429723,STD
9185196720000,1.909962,-1.41974608637436,-9.54569836395171,-0.744612313625642,-0.03359759,-0.18173242,0.028405234,241.21266,98.86162,-7.364555,STD
9185201705000,1.914947,-1.41753803179779,-9.54790646464086,-0.746820368202211,-0.040011674,-0.18509217,0.03726278,241.15918,98.87408,-7.3857193,STD
9185206708000,1.91995,-1.41301320384956,-9.57855616372945,-0.725219873909619,-0.03176499,-0.19608775,0.040011674,241.1026,98.88617,-7.4110713,STD
9185211717000,1.924959,-1.40829023515802,-9.61161595825539,-0.701605523609333,-0.028099801,-0.18570304,0.035430185,241.0524,98.900375,-7.4357924,STD
9185216723000,1.929965,-1.38018609797608,-9.63877503367065,-0.691219916228151,-0.025350908,-0.2012801,0.03604105,240.99297,98.91524,-7.4625154,STD
9185221756000,1.934998,-1.34914656370745,-9.66538048104876,-0.682351464636615,-0.036957346,-0.2134974,0.03481932,240.93848,98.93026,-7.48649,STD
9185226791000,1.940033,-1.3331609915417,-9.66118714586255,-0.691341312687453,-0.034513887,-0.20738874,0.038789943,240.88785,98.939735,-7.5094457,STD
9185231741000,1.944983,-1.32293223763081,-9.6458442286115,-0.706684443553781,-0.029626964,-0.19394971,0.03940081,240.83694,98.94968,-7.53072,STD
9185236712000,1.949954,-1.30604780349099,-9.63218111993243,-0.720347336486487,-0.03970624,-0.2003638,0.03970624,240.76355,98.95022,-7.546507,STD
9185241733000,1.954975,-1.28799774198574,-9.61864336176802,-0.733884811936937,-0.034513887,-0.19547687,0.034513887,240.69878,98.94698,-7.5599623,STD
9185246719000,1.959961,-1.26867288150493,-9.6224237309808,-0.730104521670991,-0.04062254,-0.18692477,0.032070424,240.6344,98.949165,-7.573644,STD
9185251689000,1.964931,-1.24891301777893,-9.63230389496627,-0.720224564016606,-0.037873644,-0.18600847,0.035124753,240.57082,98.94974,-7.587239,STD
9185257325000,1.970567,-1.23171724980626,-9.62984535757576,-0.70941539987084,-0.03848451,-0.16462818,0.020158553,240.51636,98.94692,-7.5925155,STD
9185261721000,1.974963,-1.21916893004471,-9.6256624969697,-0.70104985336314,-0.024740042,-0.15790866,0.016798794,240.45975,98.94548,-7.6021466,STD
9185266715000,1.979957,-1.23733991224716,-9.62117669123488,-0.702621135374527,-0.035124753,-0.14874569,0.0070249503,240.40106,98.940605,-7.6096888,STD
9185271713000,1.984955,-1.26386518041009,-9.61675572088298,-0.707042013401681,-0.021991149,-0.14874569,0.009162978,240.34341,98.93278,-7.619501,STD
9185276821000,1.990063,-1.28160820350246,-9.62616410776015,-0.718155164422931,-0.025350908,-0.15027285,0.0036651916,240.28992,98.92246,-7.622053,STD
9185281747000,1.994989,-1.29356405917685,-9.64290237062193,-0.732502161270211,-0.015882496,-0.15790866,0.004581489,240.23627,98.91098,-7.6270733,STD
9185286710000,1.999952,-1.30560971725886,-9.65976635734198,-0.746956920781591,-0.02107485,-0.15607607,0.0067195175,240.17943,98.90876,-7.6417747,STD
9185291747000,2.004989,-1.31783498015612,-9.6768817917786,-0.761627205621167,-0.017715093,-0.15790866,0.006414085,240.12086,98.90401,-7.6558876,STD
9185296719000,2.009961,-1.32772719066679,-9.67602408136164,-0.78452789119611,-0.02107485,-0.15332718,0.0027488936,240.0661,98.901115,-7.6690497,STD
9185301717000,2.014959,-1.33667974774151,-9.66707133732348,-0.81138559046479,-0.02443461,-0.14660765,-0.0012217305,240.01286,98.898,-7.681631,STD
9185306704000,2.019946,-1.34337187495212,-9.66037907035581,-0.815748737878238,-0.02565634,-0.13744467,0.0012217305,239.94981,98.90011,-7.699987,STD
9185311730000,2.024972,-1.34822350248967,-9.65552734149783,-0.80119386033162,-0.023823744,-0.13561209,0.0015271631,239.888,98.90113,-7.716198,STD
9185316716000,2.029958,-1.35830287020982,-9.64943451346002,-0.792217279467538,-0.02443461,-0.11942416,0.0009162979,239.82675,98.90451,-7.7305,STD
9185321705000,2.034947,-1.37248890704177,-9.64234158145289,-0.787488599700614,-0.024740042,-0.1151481,0.007330383,239.76431,98.909744,-7.746817,STD
9185326837000,2.040079,-1.38708155908056,-9.63504534431908,-0.782624381507819,-0.03940081,-0.106901415,0.008246681,239.71445,98.91453,-7.7581005,STD
9185331792000,2.045034,-1.40117091817102,-9.62800075059383,-0.777927927660332,-0.03573562,-0.109650314,0.0070249503,239.66391,98.918045,-7.7704864,STD
9185336710000,2.049952,-1.4103112754065,-9.6272117754065,-0.780762837632114,-0.03848451,-0.11026118,0.0070249503,239.61752,98.92521,-7.783018,STD
9185341712000,2.054954,-1.41517958373984,-9.63208008373984,-0.790499235715447,-0.036957346,-0.11209377,0.01282817,239.57115,98.932556,-7.7967124,STD
9185346717000,2.059959,-1.41083688096958,-9.63296185164482,-0.792262731934702,-0.042455133,-0.10934488,0.010995574,239.52614,98.942444,-7.811476,STD
9185351720000,2.064962,-1.39898606957705,-9.63059164481821,-0.787522424701954,-0.039095376,-0.0983493,0.00580322,239.48404,98.95153,-7.826433,STD
9185356701000,2.069943,-1.38718737048726,-9.62823186064803,-0.782802962314123,-0.050701816,-0.09743301,0.008857546,239.42923,98.967064,-7.8490233,STD
9185361729000,2.074971,-1.37527734056888,-9.62584980989364,-0.778038967757606,-0.04184427,-0.09315695,0.016493361,239.37976,98.9792,-7.870657,STD
9185366714000,2.079956,-1.36350848964026,-9.62230098594456,-0.781696305368587,-0.04520403,-0.09621128,0.014966198,239.32938,98.993065,-7.890236,STD
9185371703000,2.084945,-1.35176810847258,-9.61760473540397,-0.793436676728917,-0.051923547,-0.087964594,0.02076942,239.2849,99.009865,-7.9132276,STD
9185376765000,2.090007,-1.33985593980735,-9.61283976842933,-0.805348835443287,-0.04642576,-0.09407325,0.023823744,239.23389,99.017006,-7.9275756,STD
9185382955000,2.096197,-1.32528930131708,-9.6070129913505,-0.819915461765284,-0.057726767,-0.09743301,0.02321288,239.18715,99.02796,-7.9420114,STD
9185386714000,2.099956,-1.31141653451422,-9.59942737853052,-0.807312796488401,-0.046120327,-0.09743301,0.017715093,239.13565,99.03515,-7.9584074,STD
9185391730000,2.104972,-1.28810423269921,-9.58544022139183,-0.770013162269242,-0.065973446,-0.10751228,0.017715093,239.08153,99.04941,-7.976107,STD
9185396654000,2.109896,-1.27061380466826,-9.57835778005138,-0.742338657002392,-0.059253927,-0.10934488,0.017104227,239.03064,99.057526,-7.9905605,STD
9185401717000,2.114959,-1.26202361272921,-9.58265296571884,-0.729453369093808,-0.04886922,-0.113926366,0.019242255,238.97728,99.06857,-8.005825,STD
9185406695000,2.119937,-1.25159927653333,-9.58519900586667,-0.717668015306667,-0.05955936,-0.11942416,0.026267206,238.92642,99.07843,-8.022568,STD
9185411731000,2.124973,-1.22587726864,-9.57490998784,-0.712523613728,-0.058643065,-0.12797627,0.025045475,238.87445,99.08392,-8.037348,STD
9185416684000,2.129926,-1.20773858038224,-9.56829090253746,-0.709214140191121,-0.064446285,-0.124311075,0.024740042,238.81784,99.08702,-8.049093,STD
9185421714000,2.134956,-1.21220778333256,-9.57276019882173,-0.71144874166628,-0.058948494,-0.12064589,0.019242255,238.76007,99.087166,-8.058955,STD
9185427803000,2.141045,-1.21761791787818,-9.57817044635153,-0.714153808939092,-0.06505715,-0.12614368,0.027183503,238.70667,99.08585,-8.061777,STD
9185431725000,2.144967,-1.22110265226609,-9.58165525351394,-0.715896176133043,-0.057726767,-0.12767084,0.01985312,238.65628,99.07725,-8.0586815,STD
9185436669000,2.149911,-1.22549544339658,-9.58604813638261,-0.718092571698288,-0.05100725,-0.118202426,0.0143553335,238.6089,99.072426,-8.058376,STD
9185441700000,2.154942,-1.2435282223193,-9.59965650694996,-0.722684730579825,-0.04917465,-0.115453534,0.016493361,238.56036,99.06783,-8.058498,STD
9185446661000,2.159903,-1.26239657212073,-9.61380757227959,-0.727401818030183,-0.05955936,-0.1160644,0.014660766,238.51456,99.06202,-8.055976,STD
9185451719000,2.164961,-1.27720427360356,-9.61946933366288,-0.723482057291152,-0.0571159,-0.10598512,0.01282817,238.46722,99.052055,-8.049688,STD
9185456667000,2.169909,-1.29125850138408,-9.62415415778547,-0.71879733100346,-0.049785517,-0.10262536,0.009773844,238.41893,99.04261,-8.04305,STD
9185461694000,2.174936,-1.32362546488407,-9.62264052618693,-0.726462223969085,-0.050396383,-0.09407325,0.008246681,238.37537,99.03701,-8.038704,STD
9185466683000,2.179925,-1.35802994993039,-9.62034684595075,-0.735636753314771,-0.04062254,-0.094989546,0.0015271631,238.33093,99.0275,-8.032422,STD
9185471688000,2.18493,-1.39254477207047,-9.61804580975469,-0.744840705885459,-0.043676864,-0.09896017,-0.0018325958,238.28839,99.01917,-8.024174,STD
9185476846000,2.190088,-1.42811469266958,-9.61567443219241,-0.754326018045221,-0.043676864,-0.09468412,0.005192355,238.24908,99.010735,-8.017278,STD
9185481717000,2.194959,-1.44531297425842,-9.60632202574158,-0.754809305148316,-0.046120327,-0.08735373,0.0027488936,238.21027,99.00036,-8.0072155,STD
9185486648000,2.19989,-1.45718406546003,-9.59445093453997,-0.752435086907994,-0.043982297,-0.07849618,0.0076358155,238.1744,98.99357,-8.001529,STD
9185491718000,2.20496,-1.46938979095023,-9.58224520904977,-0.749993941809955,-0.03634648,-0.074830994,0.0015271631,238.11934,98.993095,-8.005263,STD
9185496746000,2.209988,-1.48149440392157,-9.57014059607843,-0.747573019215686,-0.036651913,-0.070249505,-0.0009162979,238.06854,98.99587,-8.011265,STD
9185501719000,2.214961,-1.49515569346854,-9.55647945620837,-0.757741630887762,-0.032986723,-0.059253927,0.004276057,238.02118,98.999535,-8.020444,STD
9185506685000,2.219927,-1.50933952549955,-9.54229582165225,-0.771925512287504,-0.03359759,-0.04795292,0.013439035,237.97646,99.00447,-8.029929,STD
9185512287000,2.225529,-1.51905525021699,-9.53652668912142,-0.7717748400569,-0.0290161,-0.04520403,0.01038471,237.93243,99.00996,-8.040659,STD
9185516752000,2.229994,-1.52524109885235,-9.53446471086894,-0.767650948143505,-0.016187929,-0.029626964,0.017104227,237.8967,99.01936,-8.056051,STD
9185521746000,2.234988,-1.53215982854663,-9.53215843552898,-0.763038469707783,-0.025350908,-0.030848695,0.023518313,237.86002,99.03148,-8.067837,STD
9185526794000,2.240036,-1.53915337029607,-9.52982722249012,-0.758376116655415,-0.022602014,-0.023823744,0.021380283,237.83083,99.03995,-8.078419,STD
9185531687000,2.244929,-1.53396898642068,-9.53945222316913,-0.746038421858026,-0.01282817,-0.0067195175,0.025961773,237.80511,99.052,-8.09235,STD
9185536701000,2.249943,-1.52047814277955,-9.55743979556097,-0.728050755553474,-0.0106901415,-0.0070249503,0.02565634,237.77682,99.06282,-8.10428,STD
9185541744000,2.254986,-1.50603336543104,-9.56959739429548,-0.713525810287363,-0.0125227375,0.0012217305,0.025045475,237.75198,99.07381,-8.118073,STD
9185546788000,2.26003,-1.49055252603354,-9.57475778186091,-0.703205250689029,-0.0036651916,0.011911872,0.028405234,237.72842,99.08402,-8.13257,STD
9185551683000,2.264925,-1.46092042871679,-9.58202589655172,-0.693888112436405,-0.017715093,0.016187929,0.03634648,237.7132,99.096436,-8.147071,STD
9185556707000,2.269949,-1.42012288856228,-9.5910921954023,-0.684822002920671,-0.014660766,0.02565634,0.03604105,237.70276,99.10414,-8.159484,STD
9185561718000,2.27496,-1.39114270788466,-9.5983178086827,-0.689381322302618,-0.008246681,0.0290161,0.036651913,237.69324,99.11219,-8.171762,STD
9185566766000,2.280008,-1.37571064208342,-9.60346141881251,-0.709957481655671,-0.013439035,0.039095376,0.030848695,237.68839,99.11941,-8.18145,STD
9185571799000,2.285041,-1.36115800311442,-9.61108738050102,-0.726585896885579,-0.010079277,0.046731193,0.03390302,237.68137,99.11574,-8.182327,STD
9185576723000,2.289965,-1.347475007699,-9.62020956794661,-0.740268892300996,0.0018325958,0.039095376,0.033292156,237.67285,99.10937,-8.180659,STD
9185581658000,2.2949,-1.32263966773163,-9.62695521086262,-0.753783414376997,0.005497787,0.051618114,0.032375857,237.6725,99.1049,-8.178627,STD
9185586720000,2.299962,-1.28619702546514,-9.63151063033265,-0.767449434955835,0.004581489,0.049480084,0.03023783,237.6659,99.09919,-8.176547,STD
9185591695000,2.304937,-1.25751754524265,-9.63332212956742,-0.779504798767895,0.004886922,0.032986723,0.035430185,237.65128,99.09178,-8.173927,STD
9185596724000,2.309966,-1.24009379774149,-9.63083297079953,-0.789461215515014,-0.0036651916,0.03756821,0.033292156,237.64227,99.08343,-8.168353,STD
9185601711000,2.314953,-1.2228155657295,-9.62836460039279,-0.79933448064086,0.008246681,0.03573562,0.035124753,237.62454,99.073456,-8.165843,STD
9185606709000,2.319951,-1.20549922251796,-9.62589078541527,-0.809229523572278,0.009162978,0.025961773,0.03145956,237.60617,99.06423,-8.161313,STD
9185611726000,2.324968,-1.19464295261803,-9.62223300128675,-0.811570612618034,0.0033597588,0.01863139,0.032986723,237.59863,99.06069,-8.162116,STD
9185616721000,2.329963,-1.18990810989805,-9.61749805968524,-0.80683576989805,0.004276057,0.036651913,0.027183503,237.59564,99.053505,-8.159425,STD
9185621710000,2.334952,-1.17164708776565,-9.61284581141107,-0.79991547992533,0.005192355,0.027794369,0.023518313,237.58061,99.04676,-8.157391,STD
9185626830000,2.340072,-1.13878924514647,-9.60815174286808,-0.790527543796669,0.0036651916,0.024129177,0.0290161,237.57262,99.04125,-8.155886,STD
9185631802000,2.345044,-1.1174208985656,-9.60758071030248,-0.777123492039358,0.0009162979,0.016493361,0.030848695,237.55847,99.03406,-8.154388,STD
9185636757000,2.349999,-1.11025601195833,-9.61235740112738,-0.758017110296442,0.005497787,0.007941248,0.031154128,237.54352,99.02736,-8.154062,STD
9185641725000,2.354967,-1.1030723274649,-9.6171466241381,-0.738860600811314,0.005497787,0.00030543262,0.027488936,237.53232,99.013725,-8.144213,STD
9185646759000,2.360001,-1.09579320754945,-9.6219994720922,-0.719449596634959,0.007330383,-0.0018325958,0.029321533,237.52075,99.00116,-8.136273,STD
9185652030000,2.365272,-1.09386536358952,-9.62258159235895,-0.702355609231453,0.003970624,-0.007941248,0.029932396,237.51112,98.99266,-8.132433,STD
9185656709000,2.369951,-1.09784669163927,-9.61860018116393,-0.690411625082186,0.0036651916,-0.013744468,0.027183503,237.50125,98.983376,-8.128209,STD
9185661759000,2.375001,-1.10214025734761,-9.61753642263116,-0.68237567204282,-0.0030543262,-0.021991149,0.016798794,237.49391,98.96385,-8.1123,STD
9185666716000,2.379958,-1.10634022174644,-9.63013657896134,-0.694975565239317,-0.008552114,-0.01863139,0.020463986,237.48875,98.94759,-8.099838,STD
9185672477000,2.385719,-1.11223819601338,-9.64301462857547,-0.709514071424532,0.002443461,-0.02321288,0.024129177,237.47952,98.92728,-8.085344,STD
9185676819000,2.390061,-1.1279141848452,-9.63321714834362,-0.719311551656378,-0.002443461,-0.021991149,0.018325957,237.47314,98.90851,-8.069392,STD
9185681744000,2.394986,-1.14569498746996,-9.62210416120824,-0.730424538791763,-0.00061086525,-0.03268129,0.016187929,237.45233,98.89076,-8.0585785,STD
9185686716000,2.399958,-1.16364547491164,-9.6108851212007,-0.741643578799303,-0.0021380284,-0.03604105,0.01282817,237.43442,98.87271,-8.045915,STD
9185691690000,2.404932,-1.18160318298384,-9.59966156830498,-0.752867131695019,-0.0036651916,-0.024740042,0.023823744,237.41855,98.85816,-8.037,STD
9185696717000,2.409959,-1.19724293793258,-9.60729954277154,-0.743609249423221,-0.0018325958,-0.025961773,0.022602014,237.39844,98.83989,-8.024279,STD
9185701713000,2.414955,-1.21157872603745,-9.624024479201,-0.724494865283396,-0.014660766,-0.018020526,0.023518313,237.38501,98.82741,-8.015177,STD
9185706712000,2.419954,-1.22592312250187,-9.64075945862672,-0.705369003330836,-0.015271631,-0.018020526,0.018020526,237.36806,98.82129,-8.01232,STD
9185711746000,2.424988,-1.24036794982772,-9.65761160634207,-0.686109233563046,-0.020158553,-0.020158553,0.022907447,237.35336,98.8203,-8.012628,STD
9185716715000,2.429957,-1.26076467402903,-9.66615401412319,-0.689421144644959,-0.021380283,-0.013744468,0.021991149,237.33803,98.81434,-8.007873,STD
9185721799000,2.435041,-1.28464097497058,-9.67092936406434,-0.703746895292272,-0.022296581,-0.0070249503,0.018936822,237.32266,98.80985,-8.004062,STD
9185726792000,2.440034,-1.29915653343462,-9.66943116762889,-0.7086837,-0.022602014,-0.006414085,0.014660766,237.30862,98.804115,-8.001366,STD
9185731793000,2.445035,-1.30885846330396,-9.66458010138762,-0.7086837,-0.017104227,-0.0018325958,0.016187929,237.2981,98.798706,-7.9993267,STD
9185736710000,2.449952,-1.31839743334346,-9.65981051676289,-0.7086837,-0.01038471,0.0030543262,0.021380283,237.2905,98.80232,-8.00639,STD
9185741727000,2.454969,-1.32813040318039,-9.65494393021371,-0.7086837,-0.020158553,0.004276057,0.01740966,237.28323,98.805176,-8.011036,STD
9185746722000,2.459964,-1.33750285445077,-9.65974778657537,-0.711847027225383,-0.022296581,0.0021380284,0.014966198,237.27646,98.80748,-8.016656,STD
9185751718000,2.46496,-1.34673145755618,-9.6689765824091,-0.716461328778089,-0.02443461,0.009162978,0.01985312,237.2729,98.81175,-8.0228615,STD
9185756705000,2.469947,-1.35311166725292,-9.65866566373542,-0.723824234505831,-0.022296581,0.011911872,0.011911872,237.26654,98.81452,-8.027347,STD
9185761810000,2.475052,-1.35778472823552,-9.63530035882241,-0.733170356471038,-0.020463986,0.021991149,0.018325957,237.2648,98.82243,-8.03681,STD
9185766720000,2.479962,-1.36237091704557,-9.62222663149012,-0.720163880681029,-0.018936822,0.028099801,0.0106901415,237.26402,98.82543,-8.039826,STD
9185771708000,2.48495,-1.36711320617492,-9.61748424332374,-0.686967856775539,-0.024740042,0.021380283,0.010995574,237.26268,98.83263,-8.0467615,STD
9185776796000,2.490038,-1.37558141440349,-9.61267487574226,-0.676474501668548,-0.02107485,0.021991149,0.02076942,237.263,98.8384,-8.051668,STD
9185782975000,2.496217,-1.39010150342052,-9.60686703420523,-0.690994560362173,-0.02565634,0.017715093,0.014660766,237.25967,98.84168,-8.05228,STD
9185786698000,2.49994,-1.39885021541444,-9.6033676663395,-0.699743254085489,-0.014660766,0.0106901415,0.013439035,237.25726,98.84373,-8.056476,STD
9185791731000,2.504973,-1.41067730847524,-9.59863698719144,-0.711570322446876,-0.011301007,0.003970624,0.015577064,237.25366,98.84643,-8.05987,STD
9185796678000,2.50992,-1.42110285939822,-9.59035781463596,-0.714525121099554,-0.015577064,-0.0012217305,0.018325957,237.25723,98.84948,-8.061832,STD
9185801845000,2.515087,-1.4302936222604,-9.57657131045691,-0.7053343102526,-0.014049901,-0.00030543262,0.016493361,237.2605,98.85074,-8.063043,STD
9185806702000,2.519944,-1.43927171823766,-9.56860538784156,-0.697731540881169,-0.015882496,0.01160644,0.020158553,237.26343,98.86083,-8.070595,STD
9185811733000,2.524975,-1.44947736975217,-9.57370832016522,-0.692628715123914,-0.016187929,-0.0018325958,0.031154128,237.25935,98.87181,-8.08001,STD
9185816676000,2.529918,-1.44870057868955,-9.5785505394629,-0.685171333267441,-0.018020526,0.012217305,0.026267206,237.26834,98.88006,-8.084981,STD
9185821712000,2.534954,-1.43009826337207,-9.58320120934381,-0.673544877088858,-0.023823744,0.010995574,0.022296581,237.2691,98.89161,-8.093623,STD
9185826743000,2.539985,-1.41151441739068,-9.5878472618003,-0.661929964254375,-0.01282817,0.02443461,0.025961773,237.27866,98.906265,-8.108731,STD
9185831787000,2.545029,-1.39288255113543,-9.59250531956029,-0.65028503872523,-0.01740966,0.022907447,0.018936822,237.283,98.9192,-8.119553,STD
9185836655000,2.549897,-1.37493364339424,-9.59750840170286,-0.638551155660576,-0.016187929,0.03145956,0.015577064,237.294,98.93161,-8.131577,STD
9185841725000,2.554967,-1.35635359455659,-9.60447583210562,-0.624616110544341,-0.024740042,0.040011674,0.021380283,237.30432,98.945885,-8.143876,STD
9185846668000,2.55991,-1.33823896311585,-9.61126873318664,-0.611030128688415,-0.02076942,0.0421497,0.013744468,237.31607,98.944435,-8.142986,STD
9185851718000,2.56496,-1.31973220835645,-9.61820867865685,-0.597150054164355,-0.014660766,0.036651913,0.018936822,237.32813,98.94841,-8.147262,STD
9185856801000,2.570043,-1.30280629663684,-9.62415026257328,-0.584545736636841,-0.025350908,0.04184427,0.017715093,237.34325,98.950096,-8.147194,STD
9185861724000,2.574966,-1.30765527189139,-9.61687690095649,-0.589394711891392,-0.017104227,0.029321533,0.014966198,237.35147,98.94964,-8.148478,STD
9185866722000,2.579964,-1.31257811940759,-9.60949273248997,-0.59431755940759,-0.015882496,0.030543262,0.018936822,237.37173,98.94485,-8.14445,STD
9185871721000,2.584963,-1.31750195188728,-9.60210708659879,-0.599241391887278,-0.008857546,0.028405234,0.02076942,237.38702,98.93716,-8.139372,STD
9185876762000,2.590004,-1.31950891971754,-9.59805147591675,-0.606683604086224,-0.020463986,0.023518313,0.016187929,237.40152,98.9309,-8.133647,STD
9185881791000,2.595033,-1.30757586030723,-9.60998451040634,-0.625776474222002,-0.015577064,0.02107485,0.017715093,237.41599,98.92397,-8.130187,STD
9185886714000,2.599956,-1.29589432292864,-9.62166602338949,-0.644466909632309,-0.023518313,0.018020526,0.015882496,237.4206,98.91594,-8.121748,STD
9185891734000,2.604976,-1.28398261916254,-9.63357770227949,-0.663525610781962,-0.015271631,0.020158553,0.0143553335,237.42596,98.90608,-8.1139555,STD
9185896696000,2.609938,-1.27190647549078,-9.64505084523101,-0.682365066012294,-0.014966198,0.022602014,0.0143553335,237.42914,98.89554,-8.102748,STD
9185901718000,2.61496,-1.257601094884,-9.65458746688479,-0.701438906821336,-0.021991149,0.016798794,0.013133603,237.43051,98.884476,-8.0912,STD
9185907360000,2.620602,-1.24614378451716,-9.66763351386672,-0.717101615482841,-0.032070424,0.023823744,0.017104227,237.43576,98.875496,-8.079024,STD
9185911734000,2.624976,-1.25032264756584,-9.6843488787909,-0.712922752434158,-0.03359759,0.024129177,0.013439035,237.43726,98.86436,-8.064977,STD
9185916734000,2.629976,-1.25651470279815,-9.69739902499321,-0.704777701031423,-0.03848451,0.028710667,0.011301007,237.44177,98.85631,-8.051339,STD
9185921700000,2.634942,-1.27374136691117,-9.66294596658517,-0.67032443126596,-0.043066,0.027183503,0.014660766,237.44456,98.84919,-8.038795,STD
9185926789000,2.640031,-1.29139470836729,-9.62763956017387,-0.635017808262248,-0.050701816,0.012217305,0.014966198,237.44907,98.84387,-8.027538,STD
9185931812000,2.645054,-1.31215472271981,-9.59576231523048,-0.646533557281288,-0.044593163,0.004276057,0.016187929,237.45497,98.83873,-8.017737,STD
9185936709000,2.649951,-1.33066335952663,-9.56705904960552,-0.660115911452663,-0.04520403,0.024129177,0.018936822,237.46448,98.83595,-8.008554,STD
9185941736000,2.654978,-1.32354167704142,-9.56468510586785,-0.650620317454142,-0.051618114,0.028405234,0.019242255,237.46776,98.832565,-8.001614,STD
9185946776000,2.660018,-1.31640157763314,-9.56230502302761,-0.641100167513314,-0.044898596,0.028710667,0.015271631,237.4573,98.83164,-8.002238,STD
9185951717000,2.664959,-1.30940173017751,-9.5599716918146,-0.631767020517751,-0.052534413,0.020158553,0.015882496,237.4458,98.83452,-8.00433,STD
9185956993000,2.670235,-1.30146612471235,-9.55814284702101,-0.623961941567522,-0.040927973,0.019547688,0.015882496,237.43681,98.83312,-8.004958,STD
9185961745000,2.674987,-1.28874640622351,-9.56450282801509,-0.643041501591745,-0.036957346,0.014966198,0.020158553,237.42456,98.83489,-8.007242,STD
9185966992000,2.680234,-1.27470171705874,-9.57152530702939,-0.664108515785159,-0.034513887,0.018325957,0.01985312,237.41525,98.83291,-8.009431,STD
9185971696000,2.684938,-1.26211048057484,-9.57782104579121,-0.682995352980854,-0.032070424,0.01282817,0.020158553,237.40251,98.831764,-8.013144,STD
9185977341000,2.690583,-1.24700046145246,-9.58537619998137,-0.705660360627475,-0.024740042,0.005497787,0.025045475,237.38744,98.83081,-8.018762,STD
9185982936000,2.696178,-1.24024447211204,-9.586384,-0.718164555775915,-0.028099801,0.013439035,0.02107485,237.37543,98.828705,-8.021601,STD
9185986646000,2.699888,-1.23661229791454,-9.586384,-0.725428904170926,-0.028405234,0.01160644,0.019242255,237.35907,98.82725,-8.026565,STD
9185991731000,2.704973,-1.23163396751176,-9.586384,-0.735385564976487,-0.03359759,0.009162978,0.018325957,237.34447,98.82626,-8.027971,STD
9185996676000,2.709918,-1.22679270028624,-9.586384,-0.74506809942752,-0.038179077,0.003970624,0.0125227375,237.32877,98.823586,-8.027497,STD
9186001695000,2.714937,-1.22775074899216,-9.58446451092245,-0.737393655039222,-0.029626964,0.014049901,0.009773844,237.32426,98.82695,-8.034746,STD
9186006728000,2.71997,-1.23014376033165,-9.58207144960778,-0.725428598341773,-0.028710667,0.004276057,0.005192355,237.31259,98.82967,-8.040047,STD
9186011693000,2.724935,-1.23250444010525,-9.57971072053421,-0.713625199473736,-0.026267206,0.004886922,0.006414085,237.30556,98.832146,-8.044727,STD
9186016679000,2.729921,-1.23487510462715,-9.57734000650382,-0.701771876864264,-0.030848695,0.004886922,0.010995574,237.29576,98.835,-8.04913,STD
9186021704000,2.734946,-1.23356551820512,-9.58970514952442,-0.704634645384653,-0.041233405,-0.003970624,0.014966198,237.27736,98.8371,-8.053784,STD
9186026759000,2.740001,-1.23117969572224,-9.60640600655463,-0.711792112833276,-0.04153884,0.00061086525,0.0061086523,237.26309,98.8364,-8.055686,STD
9186031680000,2.744922,-1.22885711759401,-9.6226641504608,-0.718759847217978,-0.032986723,-0.00061086525,0.01038471,237.24615,98.838646,-8.062396,STD
9186036722000,2.749964,-1.22647743075748,-9.63932205771031,-0.725898907727564,-0.032375857,0.0061086523,0.016493361,237.23312,98.84007,-8.066774,STD
9186041692000,2.754934,-1.22236275015841,-9.6369077554438,-0.726103025079205,-0.05222898,-0.00061086525,0.01740966,237.21646,98.84316,-8.071654,STD
9186046825000,2.760067,-1.217418549565,-9.62701914774956,-0.723630924782499,-0.040317107,0.0021380284,0.006414085,237.20471,98.84091,-8.074362,STD
9186051677000,2.764919,-1.21274501337189,-9.61767188016093,-0.721294156685944,-0.04734206,0.013439035,0.008246681,237.1983,98.84767,-8.080165,STD
9186056618000,2.76986,-1.20798575073171,-9.60815315609756,-0.718914525365854,-0.05467244,0.0012217305,0.006414085,237.18585,98.849236,-8.082062,STD
9186061637000,2.774879,-1.22066280761867,-9.58805561547666,-0.697282838571998,-0.042455133,-0.004276057,0.007941248,237.18188,98.851364,-8.08517,STD
9186066612000,2.779854,-1.23966742668528,-9.5642998416434,-0.668775909972078,-0.04337143,-0.0067195175,0.0076358155,237.17532,98.85484,-8.087314,STD
9186071620000,2.784862,-1.25865358695481,-9.56107025202289,-0.633462233317545,-0.03970624,-0.005497787,0.016798794,237.169,98.857925,-8.091526,STD
9186076658000,2.7899,-1.27769751529505,-9.56583134596408,-0.595374247381093,-0.043066,-0.01985312,0.008552114,237.15733,98.85728,-8.090932,STD
9186081638000,2.79488,-1.28664764120533,-9.57394128241065,-0.577474083728101,-0.03604105,-0.023823744,0.014049901,237.15051,98.85764,-8.092962,STD
9186086633000,2.799875,-1.29143662058264,-9.58351924116528,-0.567896304991491,-0.031154128,-0.030848695,0.01160644,237.13858,98.85452,-8.090748,STD
9186091655000,2.804897,-1.29957209501042,-9.57968076500347,-0.561680052494792,-0.040011674,-0.028710667,0.016493361,237.1297,98.85419,-8.093061,STD
9186096661000,2.809903,-1.3090833460371,-9.5701693153457,-0.55692442698145,-0.038789943,-0.02687807,0.023823744,237.11903,98.85225,-8.095478,STD
9186101740000,2.814982,-1.3054154591464,-9.57714091825374,-0.56866909550542,-0.023518313,-0.03726278,0.015271631,237.10513,98.84247,-8.089424,STD
9186106682000,2.819924,-1.29617069977537,-9.59100834690888,-0.587158633554058,-0.030543262,-0.03634648,0.013744468,237.09555,98.83905,-8.0873,STD
9186111723000,2.824965,-1.30198481505085,-9.60203801966102,-0.587684817274576,-0.029932396,-0.032375857,0.02107485,237.08401,98.83438,-8.086783,STD
9186116729000,2.829971,-1.31591453731719,-9.61132421026634,-0.578398316369976,-0.03268129,-0.02321288,0.02076942,237.07446,98.82872,-8.083642,STD
9186121670000,2.834912,-1.32252040505741,-9.61327204758744,-0.582897455133736,-0.029626964,-0.02321288,0.015882496,237.06732,98.8274,-8.085245,STD
9186126759000,2.840001,-1.32413772553262,-9.61003750796443,-0.597453356298533,-0.029626964,-0.026267206,0.009773844,237.06204,98.826324,-8.086196,STD
9186131722000,2.844964,-1.32571500230968,-9.60688305322891,-0.611648863761864,-0.03023783,-0.02687807,0.020158553,237.05775,98.82876,-8.091656,STD
9186136719000,2.849961,-1.3273030845291,-9.60370698828566,-0.625941620319241,-0.03145956,-0.024740042,0.015882496,237.05319,98.82586,-8.091135,STD
9186141709000,2.854951,-1.32888894209863,-9.60053537250282,-0.640214355004314,-0.0290161,-0.021991149,0.021991149,237.05347,98.82337,-8.0882435,STD
9186146726000,2.859968,-1.33048338046061,-9.59734659567266,-0.65456431691113,-0.028405234,-0.014660766,0.017715093,237.05542,98.817535,-8.081232,STD
9186151719000,2.864961,-1.32939730813524,-9.59685037163233,-0.656352464765584,-0.03390302,-0.020463986,0.018020526,237.05457,98.815025,-8.077589,STD
9186156721000,2.869963,-1.32623413106181,-9.59843182805071,-0.648444512173138,-0.035430185,-0.018020526,0.023518313,237.05818,98.812355,-8.074085,STD
9186162301000,2.875543,-1.32270543692552,-9.60019602773376,-0.639622765778526,-0.03604105,-0.01160644,0.023823744,237.05486,98.809235,-8.0655575,STD
9186166726000,2.879968,-1.31990714453249,-9.6015950570523,-0.632627026030111,-0.034208454,-0.0061086523,0.020463986,237.05203,98.80668,-8.057835,STD
9186171707000,2.884949,-1.31675724749076,-9.60316987400951,-0.624752273558505,-0.03359759,-0.0018325958,0.020158553,237.05077,98.805374,-8.051278,STD
9186176764000,2.890006,-1.31355928938193,-9.60476871949287,-0.616757368268621,-0.025961773,-0.0070249503,0.020463986,237.04825,98.8025,-8.044308,STD
9186182727000,2.895969,-1.31696559991234,-9.60059415493061,-0.607972640087655,-0.035124753,-0.00580322,0.023823744,237.05453,98.80604,-8.041992,STD
9186186731000,2.899973,-1.32256757320672,-9.59499235712199,-0.60237066679328,-0.024740042,-0.014660766,0.016187929,237.05606,98.80363,-8.037016,STD
9186191685000,2.904927,-1.32949868601899,-9.5880614614317,-0.595439553981008,-0.016798794,-0.019547688,0.01740966,237.06064,98.80189,-8.0333,STD
9186196765000,2.910007,-1.3384051333463,-9.58999854215696,-0.611834358268988,-0.01740966,-0.01985312,0.02443461,237.06387,98.799576,-8.029331,STD
9186201731000,2.914973,-1.34765503878246,-9.59462359146164,-0.63495910254206,-0.01863139,-0.024740042,0.018325957,237.06412,98.79343,-8.022298,STD
9186206705000,2.919947,-1.34028353046057,-9.60265830322198,-0.658389817533109,-0.013439035,-0.0290161,0.01863139,237.06241,98.78936,-8.018901,STD
9186211734000,2.924976,-1.3260035164657,-9.6121780143309,-0.682189890561376,-0.021685716,-0.034208454,0.01282817,237.05885,98.78398,-8.012292,STD
9186216761000,2.930003,-1.33462962088267,-9.61837162325081,-0.696045210441335,-0.023518313,-0.025961773,0.011301007,237.05682,98.78394,-8.011609,STD
9186221744000,2.934986,-1.35330901980624,-9.62304157050592,-0.705384909903122,-0.022907447,-0.017104227,0.011911872,237.05351,98.78371,-8.010057,STD
9186226852000,2.940094,-1.36625821628368,-9.61833921790808,-0.702332050554675,-0.018325957,-0.005192355,0.014660766,237.05173,98.78107,-8.003825,STD
9186232547000,2.945789,-1.37706241423336,-9.60753473791601,-0.691527796196514,-0.01863139,0.0021380284,0.010079277,237.05109,98.77735,-7.9958725,STD
9186236763000,2.950005,-1.37592891309696,-9.63371823795741,-0.686398880401075,-0.016798794,0.0027488936,0.02076942,237.05109,98.78109,-7.9959297,STD
9186241753000,2.954995,-1.37098910195369,-9.67817741513335,-0.681459017676246,-0.022907447,0.0018325958,0.013744468,237.05223,98.780045,-7.9896903,STD
9186246760000,2.960002,-1.3594689840016,-9.69840506819318,-0.676615161333867,-0.032986723,-0.003970624,0.0125227375,237.05232,98.78408,-7.989408,STD
9186251746000,2.964988,-1.34514543891611,-9.70795379912009,-0.67184064630537,-0.029321533,-0.00061086525,0.014049901,237.05461,98.786095,-7.9878635,STD
9186256744000,2.969986,-1.34386833375844,-9.70776660118154,-0.676607167516879,-0.035430185,-0.00030543262,0.013133603,237.05087,98.79285,-7.993667,STD
9186261804000,2.975046,-1.34841246429107,-9.70322237575019,-0.685695428582146,-0.03145956,0.009773844,0.01038471,237.05096,98.79772,-7.9989476,STD
9186266816000,2.980058,-1.35314846532992,-9.68721167335038,-0.69798609598977,-0.03970624,0.016493361,0.009773844,237.05042,98.80402,-8.005093,STD
9186271708000,2.98495,-1.35794127408696,-9.66324762956522,-0.71236452226087,-0.05009095,0.01282817,0.007330383,237.04968,98.80877,-8.00974,STD
9186276716000,2.989958,-1.36557094902965,-9.64492455038912,-0.721092689301547,-0.049480084,0.024740042,0.01038471,237.05472,98.81605,-8.016279,STD
9186281730000,2.994972,-1.37503165723574,-9.63073361156536,-0.725823068101665,-0.048258353,0.027488936,0.006414085,237.05582,98.82184,-8.020203,STD
9186286716000,2.999958,-1.37550520311503,-9.62380225489877,-0.730503479623722,-0.05100725,0.028405234,0.010079277,237.05197,98.82986,-8.025321,STD
9186291707000,3.004949,-1.36928195150055,-9.62224640544235,-0.735170930518847,-0.050701816,0.025961773,0.011911872,237.04785,98.83576,-8.028745,STD
9186296715000,3.009957,-1.36303750267561,-9.62068525655882,-0.739854279363323,-0.04795292,0.022602014,0.00580322,237.0434,98.83978,-8.028117,STD
9186302241000,3.015483,-1.35614716237875,-9.61896263101361,-0.745022048076297,-0.044593163,0.0106901415,0.008246681,237.03595,98.84634,-8.030695,STD
9186306710000,3.019952,-1.35057478981512,-9.61756950514289,-0.749201338408958,-0.04550946,0.014660766,0.008857546,237.032,98.85098,-8.030844,STD
9186311754000,3.024996,-1.34428545277977,-9.6159971339431,-0.753918353499121,-0.04795292,0.01740966,0.015577064,237.02454,98.857635,-8.033738,STD
9186316674000,3.029916,-1.33779870630666,-9.61019017717777,-0.749674348048877,-0.049785517,0.011911872,0.013133603,237.0134,98.8657,-8.040645,STD
9186321716000,3.034958,-1.33066140453291,-9.59829467422152,-0.73302064391013,-0.050701816,0.014660766,0.0125227375,237.0057,98.87596,-8.049559,STD
9186326732000,3.039974,-1.32356090756799,-9.58646051261332,-0.716452817658652,-0.055283304,0.018936822,0.013439035,236.99707,98.88551,-8.056232,STD
9186331736000,3.044978,-1.31647739743792,-9.57465466239653,-0.699924627355144,-0.0580322,0.017715093,0.01282817,236.98772,98.89425,-8.062214,STD
9186336651000,3.049893,-1.30418561778292,-9.56801371376996,-0.687962705193242,-0.058643065,0.030543262,0.015271631,236.98041,98.90126,-8.065505,STD
9186341714000,3.054956,-1.28174294755381,-9.57025802531821,-0.683474175834298,-0.06047566,0.03023783,0.020158553,236.96915,98.90919,-8.069597,STD
9186346648000,3.05989,-1.25987209333488,-9.57244515413099,-0.679100009557973,-0.0580322,0.03481932,0.016187929,236.96356,98.91358,-8.074613,STD
9186351720000,3.064962,-1.23738952896552,-9.57469345517241,-0.67460350137931,-0.06169739,0.03145956,0.0125227375,236.95584,98.92012,-8.081038,STD
9186356904000,3.070146,-1.21708087394731,-9.57845973926571,-0.669963313026343,-0.04550946,0.03268129,0.013744468,236.95059,98.92359,-8.08672,STD
9186361789000,3.075031,-1.22678480840075,-9.59786750684505,-0.665111345799627,-0.043982297,0.026572637,0.007941248,236.94218,98.92641,-8.089428,STD
9186366706000,3.079948,-1.23554195350513,-9.61484630137585,-0.661067407010264,-0.048258353,0.021685716,0.01282817,236.93468,98.92599,-8.0933695,STD
9186371967000,3.085209,-1.23676452866225,-9.61240122765766,-0.663512557324501,-0.036651913,0.015882496,0.009162978,236.92514,98.919815,-8.093233,STD
9186376943000,3.090185,-1.23792087422048,-9.61008860898789,-0.66582524844095,-0.029932396,0.010995574,0.009162978,236.91492,98.917305,-8.096147,STD
9186382812000,3.096054,-1.23928473918857,-9.60736096449977,-0.668552978377132,-0.026267206,0.008857546,0.005497787,236.90402,98.911964,-8.0969,STD
9186386720000,3.099962,-1.24019289803936,-9.60554470369562,-0.670369296078717,-0.033292156,0.0015271631,0.01038471,236.89012,98.91118,-8.103007,STD
9186391709000,3.104951,-1.24135226459683,-9.60322604321662,-0.672688029193662,-0.021685716,0.006414085,0.007941248,236.87936,98.90498,-8.10558,STD
9186396779000,3.110021,-1.24253045430346,-9.6008697376186,-0.675044408606925,-0.029321533,0.002443461,0.009162978,236.8645,98.9042,-8.11068,STD
9186401714000,3.114956,-1.24367727209483,-9.59857617388561,-0.677338044189658,-0.028710667,-0.003970624,0.004581489,236.85062,98.898994,-8.11316,STD
9186406683000,3.119925,-1.24483199096115,-9.59626680849773,-0.679647481922302,-0.028710667,-0.007941248,0.013439035,236.83397,98.89349,-8.1128,STD
9186411762000,3.125004,-1.25415713414211,-9.60513294681543,-0.689125534142114,-0.029626964,0.005497787,0.010079277,236.82071,98.883934,-8.107545,STD
9186416943000,3.130185,-1.26431004415182,-9.61562864320294,-0.69944998830364,-0.029932396,-0.0036651916,0.005497787,236.80045,98.876526,-8.104979,STD
9186421741000,3.134983,-1.26653455453137,-9.6223023137103,-0.703899009062742,-0.025961773,-0.0015271631,0.0106901415,236.78717,98.872505,-8.105036,STD
9186426769000,3.140011,-1.26886570046476,-9.62929589756003,-0.708561300929512,-0.036651913,0.0009162979,0.0143553335,236.77606,98.87184,-8.104889,STD
9186431748000,3.14499,-1.27117412838885,-9.63622132595856,-0.713178156777692,-0.031154128,0.0009162979,0.015271631,236.76523,98.86956,-8.105427,STD
9186436649000,3.149891,-1.2734463929512,-9.6430382620062,-0.717722685902401,-0.033292156,0.009468411,0.008857546,236.75772,98.86848,-8.104683,STD
9186441717000,3.154959,-1.27994199905351,-9.64592038574464,-0.730713876434228,-0.03604105,0.004581489,0.0030543262,236.74664,98.867256,-8.104568,STD
9186446733000,3.159975,-1.28690125093684,-9.64823993451806,-0.744632355978366,-0.03604105,0.008552114,0.008246681,236.74083,98.86723,-8.1054535,STD
9186451716000,3.164958,-1.2938147182683,-9.65054422310218,-0.758459266578134,-0.043066,-0.0036651916,0.01038471,236.73578,98.87247,-8.110347,STD
9186456726000,3.169968,-1.30076564568766,-9.65286099729573,-0.772361097223295,-0.043982297,0.0015271631,0.007941248,236.73688,98.87697,-8.1148205,STD
9186461760000,3.175002,-1.3060772328903,-9.66068401745685,-0.768458496300337,-0.032070424,-0.009773844,0.0106901415,236.73462,98.885796,-8.125102,STD
9186466719000,3.179961,-1.31078774183694,-9.67010523209681,-0.759037429220393,-0.040927973,-0.009773844,0.015577064,236.734674636418,98.8903695649039,-8.12919749624399,STD
9186471744000,3.184986,-1.30173504016149,-9.66571653128905,-0.766855213289436,-0.03756821,-0.01740966,0.01038471,236.73473,98.895004,-8.1333475,STD
9186476782000,3.190024,-1.28782128808997,-9.65644056743247,-0.780768902404114,-0.0290161,-0.008552114,0.01160644,236.73096,98.90339,-8.141249,STD
9186481803000,3.195045,-1.28004274533869,-9.63717455704967,-0.795046032377321,-0.035124753,0.00580322,0.017715093,236.72708,98.91452,-8.150345,STD
9186486717000,3.199959,-1.2753202261415,-9.61356171450075,-0.809213732975414,-0.038179077,0.0036651916,0.017715093,236.72101,98.92283,-8.157945,STD
9186491711000,3.204953,-1.28617820155623,-9.61488434697074,-0.807797128742292,-0.043066,-0.002443461,0.006414085,236.71762,98.93019,-8.162466,STD
9186496723000,3.209965,-1.30497003747675,-9.62897848145248,-0.798401240215327,-0.035124753,0.014660766,0.014966198,236.72067,98.94137,-8.172052,STD
9186501719000,3.214961,-1.32114917515807,-9.62514123424434,-0.779663989166837,-0.055588737,0.020463986,0.02076942,236.71463,98.95392,-8.1790905,STD
9186506705000,3.219947,-1.3357575551703,-9.61053254915358,-0.755316653553947,-0.054061573,0.028099801,0.014049901,236.71397,98.96171,-8.184426,STD
9186511709000,3.224951,-1.33922436330559,-9.60247982238243,-0.733233169750339,-0.04184427,0.022907447,0.02076942,236.71133,98.97657,-8.196958,STD
9186516716000,3.229958,-1.33690430149023,-9.59783984410683,-0.712352613412038,-0.056199603,0.029626964,0.013439035,236.71379,98.98861,-8.20296,STD
9186521765000,3.235007,-1.33456477840139,-9.59316094450358,-0.691296905612541,-0.048563786,0.027488936,0.010995574,236.71269,98.999245,-8.213498,STD
9186526788000,3.24003,-1.33223730276756,-9.58850613905554,-0.67034962490807,-0.04917465,0.029626964,0.01038471,236.71452,99.01076,-8.221996,STD
9186531818000,3.24506,-1.32856689934868,-9.58899321891314,-0.66601830130264,-0.04153884,0.026572637,0.011301007,236.71333,99.01613,-8.224656,STD
9186536715000,3.249957,-1.32390348865908,-9.59365648351812,-0.675345122681848,-0.040317107,0.019547688,0.009468411,236.71146,99.02132,-8.22635,STD
9186541704000,3.254946,-1.31915246641476,-9.59840735693333,-0.684847167170487,-0.032986723,0.015577064,0.008552114,236.71152,99.020485,-8.226473,STD
9186546723000,3.259965,-1.3143728751852,-9.60318679843882,-0.694406349629593,-0.03481932,0.016798794,0.010079277,236.71112,99.02074,-8.226784,STD
9186551716000,3.264958,-1.3073001275852,-9.60317596103896,-0.687300718962992,-0.021685716,0.032986723,0.013133603,236.71399,99.01858,-8.227056,STD
9186557248000,3.27049,-1.29695370485304,-9.59800318181818,-0.661434662132604,-0.02687807,0.027794369,0.020158553,236.71115,99.02022,-8.229246,STD
9186561733000,3.274975,-1.28840775253568,-9.58703836532038,-0.657914736258731,-0.02565634,0.034513887,0.015577064,236.7189,99.01844,-8.227796,STD
9186566716000,3.279958,-1.2787465634376,-9.56771568448224,-0.672406444245369,-0.03390302,0.03726278,0.0106901415,236.72403,99.02003,-8.228328,STD
9186571758000,3.285,-1.27840408590436,-9.56234185934374,-0.67526453857543,-0.037873644,0.042760566,0.009468411,236.73132,99.01725,-8.227163,STD
9186576723000,3.289965,-1.28791770340136,-9.57185562585034,-0.665750970748299,-0.032375857,0.037873644,0.015577064,236.73634,99.014984,-8.22684,STD
9186582929000,3.296171,-1.28719927938869,-9.57397209529258,-0.663634545505067,-0.026572637,0.044898596,0.009468411,236.73999,99.006,-8.217313,STD
9186586712000,3.299954,-1.28127753640896,-9.57101117742726,-0.66659540153645,-0.025961773,0.037873644,0.014660766,236.7385,99.00167,-8.213263,STD
9186591919000,3.305161,-1.27353058281523,-9.56723,-0.669637629910742,-0.030543262,0.03481932,0.016493361,236.74014,98.99505,-8.207172,STD
9186596713000,3.309955,-1.27117543870935,-9.56723,-0.660217036272699,-0.028710667,0.035430185,0.01282817,236.74088,98.987656,-8.201161,STD
9186601717000,3.314959,-1.26871712809069,-9.56723,-0.650383775829486,-0.033292156,0.028710667,0.018325957,236.73145,98.98277,-8.198312,STD
9186606692000,3.319934,-1.26627306427619,-9.56723,-0.640607502706987,-0.029626964,0.0290161,0.014049901,236.72424,98.97343,-8.191623,STD
9186611749000,3.324991,-1.26693247639828,-9.5686270137267,-0.628576769348494,-0.027488936,0.028099801,0.0143553335,236.71518,98.96762,-8.1880665,STD
9186616761000,3.330003,-1.28660018666257,-9.57846104855562,-0.603992200829748,-0.03390302,0.021991149,0.008246681,236.7048,98.95979,-8.181673,STD
9186621791000,3.335033,-1.30432349257832,-9.58732281687914,-0.591226590109695,-0.028099801,0.023518313,0.004581489,236.69446,98.94919,-8.176536,STD
9186627428000,3.34067,-1.3149934049412,-9.59265760593932,-0.631238778182627,-0.022907447,0.022602014,0.011301007,236.68213,98.94082,-8.17293,STD
9186631735000,3.344977,-1.32314584640775,-9.59673369898211,-0.66181044645123,-0.025045475,0.021685716,0.014660766,236.6715,98.93372,-8.172677,STD
9186636757000,3.349999,-1.33265166508548,-9.60148645943275,-0.697457281381559,-0.02076942,0.014049901,0.011301007,236.65904,98.92545,-8.172458,STD
9186641724000,3.354966,-1.33888618324979,-9.60615928307954,-0.728459570084177,-0.02565634,0.015882496,0.011301007,236.64957,98.9204,-8.173892,STD
9186646748000,3.35999,-1.32523423659321,-9.6107100111605,-0.733010203130616,-0.026572637,0.021991149,0.01282817,236.6395,98.91411,-8.1747675,STD
9186651817000,3.365059,-1.31146000936347,-9.61530150014187,-0.737601596226237,-0.02076942,0.026572637,0.014660766,236.6261,98.9174,-8.180677,STD
9186656736000,3.369978,-1.29809338404426,-9.61975711945522,-0.742057122491251,-0.038179077,0.03145956,0.01282817,236.6148,98.92282,-8.185694,STD
9186661769000,3.375011,-1.28441698127305,-9.62431599971626,-0.746615907547527,-0.03268129,0.032375857,0.016187929,236.6041,98.926765,-8.192526,STD
9186666756000,3.379998,-1.28111945068459,-9.62251838262724,-0.727437751989285,-0.04337143,0.040927973,0.015882496,236.5971,98.932976,-8.197417,STD
9186671871000,3.385113,-1.27868940700466,-9.62008826282369,-0.705567130499057,-0.021380283,0.042760566,0.017715093,236.58871,98.93621,-8.20381,STD
9186676777000,3.390019,-1.27635865543209,-9.61775743823792,-0.68459014730628,-0.031154128,0.040317107,0.011911872,236.5823,98.93884,-8.20411,STD
9186681741000,3.394983,-1.27400034911202,-9.61539905804147,-0.663365168796508,-0.02565634,0.04153884,0.016493361,236.57787,98.940445,-8.2077,STD
9186686761000,3.400003,-1.28592693669584,-9.60697319223002,-0.66487023139725,-0.024129177,0.042455133,0.01282817,236.57248,98.939896,-8.207286,STD
9186691714000,3.404956,-1.29961115311088,-9.5978506988172,-0.669431620992403,-0.03268129,0.035430185,0.018325957,236.56555,98.94344,-8.210837,STD
9186697065000,3.410307,-1.31094999053485,-9.6044649241351,-0.683132785802279,-0.03145956,0.034208454,0.017715093,236.56252,98.93832,-8.209256,STD
9186701652000,3.414894,-1.31996934821887,-9.61348399928139,-0.696661822328303,-0.028405234,0.029626964,0.019242255,236.5568,98.936005,-8.209993,STD
9186706755000,3.419997,-1.31049187131615,-9.61881658688376,-0.691701880877431,-0.030543262,0.032986723,0.02076942,236.5523,98.9367,-8.212643,STD
9186711721000,3.424963,-1.29758593134328,-9.62311865671642,-0.683097920895522,-0.03481932,0.03268129,0.02687807,236.54572,98.93889,-8.217071,STD
9186716764000,3.430006,-1.28684756022594,-9.62770176704324,-0.68296400416829,-0.03359759,0.025961773,0.017715093,236.53726,98.93954,-8.219083,STD
9186721831000,3.435073,-1.27739569054344,-9.63242777590573,-0.687689914335801,-0.034513887,0.02565634,0.020158553,236.531,98.94544,-8.225859,STD
9186726840000,3.440082,-1.26785691499093,-9.64012620149103,-0.683671714990933,-0.038179077,0.025350908,0.016798794,236.52376,98.94451,-8.226023,STD
9186731785000,3.445027,-1.25831484849889,-9.64966796907113,-0.674129648498892,-0.03390302,0.025961773,0.01985312,236.51703,98.94513,-8.228637,STD
9186736743000,3.449985,-1.2474055821487,-9.6605771178513,-0.667514052859481,-0.036957346,0.019547688,0.0143553335,236.5199,98.94509,-8.22662,STD
9186741782000,3.455024,-1.23543755099945,-9.67254514900054,-0.662726840399782,-0.028405234,0.028099801,0.012217305,236.52725,98.944885,-8.226108,STD
9186746761000,3.460003,-1.22361202468628,-9.68437067531372,-0.65799662987451,-0.045814894,0.03848451,0.01740966,236.53412,98.94589,-8.224392,STD
9186751742000,3.464984,-1.21178174821189,-9.69620095178811,-0.653264519284758,-0.04642576,0.027183503,0.014660766,236.53687,98.94144,-8.220069,STD
9186756693000,3.469935,-1.2053176982971,-9.6972250516953,-0.653942903405808,-0.034513887,0.038179077,0.01160644,236.5581,98.93844,-8.213444,STD
9186761686000,3.474928,-1.20289425486291,-9.68995482261416,-0.658789790274188,-0.03756821,0.0421497,0.008246681,236.57361,98.936386,-8.206411,STD
9186766638000,3.47988,-1.20049071152501,-9.68274429299073,-0.663596876949977,-0.043982297,0.040317107,0.013133603,236.59183,98.92993,-8.196922,STD
9186771695000,3.484937,-1.19803620452587,-9.67538087451219,-0.668505890948254,-0.040927973,0.030848695,0.014660766,236.60843,98.92111,-8.185852,STD
9186776697000,3.489939,-1.20582815279067,-9.6667567099674,-0.667467415736442,-0.0290161,0.038179077,0.010995574,236.6381,98.91172,-8.171497,STD
9186782514000,3.495756,-1.22233756075274,-9.65575020813988,-0.661964279749086,-0.029932396,0.028099801,0.013133603,236.65955,98.905464,-8.16003,STD
9186786632000,3.499874,-1.2244546022158,-9.64929096414878,-0.658046290056266,-0.033292156,0.022602014,0.011301007,236.68222,98.895355,-8.14452,STD
9186791658000,3.5049,-1.22205789869541,-9.64210095369218,-0.653252857989344,-0.032375857,0.022602014,0.0125227375,236.70313,98.88639,-8.130939,STD
9186796622000,3.509864,-1.21969076055868,-9.63499963815167,-0.648518556998456,-0.035430185,0.022907447,0.009468411,236.72157,98.878555,-8.117978,STD
9186801674000,3.514916,-1.2172816586516,-9.62777243305283,-0.643700328028681,-0.030543262,0.016493361,0.011911872,236.73775,98.87158,-8.10736,STD
9186806625000,3.519867,-1.20315349755453,-9.61421025276338,-0.665227831761714,-0.039095376,0.009468411,0.014966198,236.76079,98.86774,-8.096675,STD
9186811617000,3.524859,-1.17977122933581,-9.59550453585053,-0.707315963386482,-0.0421497,0.011301007,0.021685716,236.78409,98.86435,-8.087958,STD
9186816610000,3.529852,-1.17324461121718,-9.58394689349642,-0.72174466097852,-0.040011674,0.015882496,0.020158553,236.8084,98.8551,-8.071094,STD
9186821648000,3.53489,-1.18284045815434,-9.57914886982896,-0.70974985230708,-0.030543262,0.011301007,0.015271631,236.83003,98.84636,-8.055735,STD
9186826643000,3.539885,-1.19235440326173,-9.57439179793158,-0.697857420922832,-0.038789943,0.0067195175,0.01038471,236.85123,98.840904,-8.039169,STD
9186831609000,3.544851,-1.20181311225139,-9.56966234466985,-0.68603403468576,-0.040927973,0.01038471,0.01038471,236.87292,98.83382,-8.0230255,STD
9186836617000,3.549859,-1.21484644077164,-9.570730962014,-0.668283663015045,-0.040317107,0.01160644,0.008552114,236.89192,98.82588,-8.005615,STD
9186841614000,3.554856,-1.23148018063956,-9.577859856547,-0.644521162601917,-0.046120327,0.01160644,0.015577064,236.900333469633,98.8225546762878,-7.99795924343556,STD
9186846595000,3.559837,-1.24806066058394,-9.58496592492179,-0.620834747841502,-0.035124753,0.0030543262,0.011911872,236.90872,98.81924,-7.990328,STD
9186851604000,3.564846,-1.26473434539451,-9.59211193907344,-0.597015183188838,-0.04062254,0.009162978,0.008246681,236.92966,98.81206,-7.974502,STD
9186856624000,3.569866,-1.27591961179619,-9.59816515067407,-0.58638957481364,-0.045814894,0.0030543262,0.009162978,236.9506,98.802376,-7.9533286,STD
9186861606000,3.574848,-1.28064910420301,-9.60289429738303,-0.591119116605868,-0.038789943,0.0033597588,0.01160644,236.9745,98.79167,-7.932017,STD
9186866591000,3.579833,-1.29164494109372,-9.61180180394294,-0.597938488741827,-0.038179077,-0.0106901415,0.01282817,236.99207,98.77804,-7.9084644,STD
9186871617000,3.584859,-1.31071894469982,-9.62610753071131,-0.607475440752923,-0.034208454,-0.018936822,0.0143553335,237.01094,98.764244,-7.8863077,STD
9186876646000,3.589888,-1.31554057003512,-9.63628765216543,-0.618974461529458,-0.044898596,-0.02107485,0.010079277,237.02664,98.75246,-7.8644032,STD
9186881813000,3.595055,-1.30106047085447,-9.64111445269216,-0.633454540550137,-0.04184427,-0.025045475,0.01282817,237.03926,98.74104,-7.845787,STD
9186886593000,3.599835,-1.28409882802051,-9.64209093263635,-0.655678264177927,-0.036957346,-0.02565634,0.017104227,237.06131,98.729744,-7.819723,STD
9186891651000,3.604893,-1.26021108980176,-9.63731329519677,-0.693898615395996,-0.0421497,-0.016187929,0.014966198,237.08444,98.7189,-7.793407,STD
9186896597000,3.609839,-1.24581070118177,-9.63261636314472,-0.710828283327992,-0.042455133,-0.014966198,0.01282817,237.10449,98.70787,-7.7679024,STD
9186901637000,3.614879,-1.24822768025038,-9.62778230405609,-0.689075454044066,-0.046731193,-0.0027488936,0.012217305,237.12979,98.698326,-7.7426944,STD
9186906606000,3.619848,-1.25061061060591,-9.62301634381572,-0.66762906342664,-0.04795292,-0.0009162979,0.007941248,237.1546,98.6871,-7.711597,STD
9186911644000,3.624886,-1.25302663055583,-9.61818420300451,-0.645884866217827,-0.043676864,0.004276057,0.009468411,237.1832,98.677574,-7.682707,STD
9186916641000,3.629883,-1.25540281363881,-9.61259069421487,-0.63206923,-0.04734206,0.010079277,0.008552114,237.21155,98.66808,-7.6528788,STD
9186921620000,3.634862,-1.25773460918871,-9.60559540495868,-0.63206923,-0.0571159,0.01160644,0.009162978,237.23941,98.66011,-7.6248846,STD
9186926620000,3.639862,-1.26007623958629,-9.59857061157025,-0.63206923,-0.047036625,0.009162978,0.010079277,237.26874,98.6463,-7.596845,STD
9186931644000,3.644886,-1.26242910980977,-9.59151209917355,-0.63206923,-0.048258353,0.0036651916,0.01160644,237.29681,98.636055,-7.5700903,STD
9186936632000,3.649874,-1.26284913006641,-9.59154145280741,-0.634647979291608,-0.039095376,-0.005192355,0.00580322,237.31961,98.62742,-7.5532956,STD
9186941652000,3.654894,-1.25801158367881,-9.61089153733145,-0.644323107426041,-0.03145956,-0.0033597588,0.010995574,237.34357,98.62239,-7.54041,STD
9186946640000,3.659882,-1.25522764895298,-9.62202721809562,-0.650556944093244,-0.03848451,-0.012217305,0.01038471,237.36081,98.61641,-7.5260053,STD
9186951894000,3.665136,-1.25771266017384,-9.61208722510865,-0.648071906924141,-0.02565634,-0.015577064,0.010995574,237.37982,98.608315,-7.5136538,STD
9186956623000,3.669865,-1.25994935946266,-9.60314047466417,-0.645835184279929,-0.035124753,-0.019242255,0.01282817,237.3967,98.60497,-7.501745,STD
9186961644000,3.674886,-1.26232416748321,-9.59364129217701,-0.643460351461873,-0.036651913,-0.015577064,0.015577064,237.41435,98.59924,-7.490549,STD
9186966629000,3.679871,-1.26735378630564,-9.58852744959579,-0.647004803048602,-0.036651913,-0.01740966,0.022296581,237.41772,98.59453,-7.4834404,STD
9186971623000,3.684865,-1.28132866864712,-9.59784371354826,-0.670296241190221,-0.048563786,-0.021685716,0.016493361,237.42111,98.58942,-7.4737797,STD
9186976647000,3.689889,-1.28848668456376,-9.60816643868212,-0.686024254972544,-0.04550946,-0.022296581,0.023518313,237.4248,98.5902,-7.4751606,STD
9186982409000,3.695651,-1.26043012729306,-9.62500068944478,-0.6635790560301,-0.049785517,-0.03145956,0.019547688,237.42435,98.58953,-7.4721007,STD
9186986630000,3.699872,-1.24598361390794,-9.63826283477483,-0.658213897355602,-0.054061573,-0.0290161,0.017104227,237.42303,98.597,-7.4785547,STD
9186991649000,3.704891,-1.25076201724824,-9.65737634834477,-0.691662720737648,-0.05955936,-0.027794369,0.01863139,237.4188,98.60511,-7.485077,STD
9186996633000,3.709875,-1.25272219859278,-9.6716552300885,-0.717800624648194,-0.06536258,-0.023823744,0.017715093,237.41795,98.606804,-7.48589,STD
9187001637000,3.714879,-1.24345244527782,-9.66702025663717,-0.715483186319455,-0.06658431,-0.0106901415,0.02076942,237.42023,98.60996,-7.488022,STD
9187006733000,3.719975,-1.23401226484356,-9.66230006784661,-0.71312314121089,-0.049785517,0.004276057,0.018325957,237.4278,98.61527,-7.4901624,STD
9187011733000,3.724975,-1.22474992140336,-9.65766879941003,-0.710807555350839,-0.0580322,-0.005497787,0.019547688,237.43187,98.62574,-7.4943857,STD
9187016693000,3.729935,-1.21661051840863,-9.65324300566572,-0.707437633711048,-0.048258353,0.0015271631,0.020158553,237.43912,98.63161,-7.501611,STD
9187022197000,3.735439,-1.2218498909249,-9.65062353824363,-0.689099802549575,-0.049785517,0.002443461,0.009773844,237.44144,98.63756,-7.506147,STD
9187026790000,3.740032,-1.2262220635207,-9.64843763456091,-0.673797175637394,-0.04886922,0.0021380284,0.015577064,237.44658,98.64293,-7.5126333,STD
9187031745000,3.744987,-1.23093883147458,-9.64607944759207,-0.657288463172805,-0.03481932,-0.004276057,0.016798794,237.44977,98.64282,-7.514858,STD
9187036809000,3.750051,-1.2357575353011,-9.64349555740137,-0.642344874250964,-0.038179077,-0.0106901415,0.009773844,237.45612,98.65088,-7.526275,STD
9187041737000,3.754979,-1.24042424848215,-9.63882874676159,-0.651678349342431,-0.044593163,-0.020158553,0.016187929,237.45993,98.66071,-7.54154,STD
9187046919000,3.760161,-1.2448102210007,-9.63374396117811,-0.661323736997907,-0.032986723,-0.017715093,0.015882496,237.4661,98.66237,-7.5523915,STD
9187051763000,3.765005,-1.24249834921758,-9.62680832168843,-0.668259352347254,-0.03726278,-0.025045475,0.018936822,237.46692,98.66936,-7.565939,STD
9187056738000,3.76998,-1.24012395571614,-9.61968511639091,-0.67538253285159,-0.03573562,-0.023823744,0.01863139,237.46078,98.67334,-7.580381,STD
9187061759000,3.775001,-1.23772760802352,-9.61249604829064,-0.682571575929433,-0.037873644,-0.018020526,0.02076942,237.45422,98.67964,-7.595886,STD
9187066708000,3.77995,-1.23536562341274,-9.60541006979468,-0.689657529761786,-0.037873644,-0.028405234,0.021380283,237.44357,98.68483,-7.610644,STD
9187071751000,3.784993,-1.23295877588956,-9.59818950209309,-0.696878072331307,-0.0421497,-0.016187929,0.016493361,237.4321,98.68959,-7.6264944,STD
9187076789000,3.790031,-1.23055431469152,-9.59097609339181,-0.704091455925446,-0.035430185,-0.0036651916,0.014049901,237.41827,98.69353,-7.64281,STD
9187081647000,3.794889,-1.22823576119805,-9.58402040870129,-0.711047116405861,-0.045814894,-0.004886922,0.014660766,237.40436,98.69981,-7.6580744,STD
9187086911000,3.800153,-1.226027934578,-9.57641372263105,-0.717277327110021,-0.039095376,-0.010995574,0.014660766,237.39291,98.70199,-7.6717668,STD
9187091633000,3.804875,-1.2301363791678,-9.56819666185155,-0.696735104160988,-0.03573562,-0.018020526,0.016493361,237.37402,98.70108,-7.679375,STD
9187096587000,3.809829,-1.23444667872263,-9.559575882711,-0.675183606386845,-0.040927973,-0.025961773,0.016187929,237.35284,98.70008,-7.6822243,STD
9187101668000,3.81491,-1.23417558375736,-9.56258316792905,-0.677771597455817,-0.03604105,-0.030848695,0.016798794,237.33112,98.69812,-7.685855,STD
9187106665000,3.819907,-1.23262656875121,-9.56877935735094,-0.687065687492717,-0.042760566,-0.03848451,0.0125227375,237.30676,98.69724,-7.6881547,STD
9187111651000,3.824893,-1.231080963624,-9.57496190697223,-0.696339318255972,-0.04062254,-0.04062254,0.01985312,237.28741,98.69622,-7.692917,STD
9187116661000,3.829903,-1.22952791876092,-9.58117421615848,-0.705657587434453,-0.037873644,-0.022907447,0.019242255,237.27185,98.69309,-7.6939244,STD
9187121649000,3.834891,-1.22798169365573,-9.58735924574351,-0.714934938065644,-0.030543262,-0.0070249503,0.021685716,237.25299,98.692665,-7.70035,STD
9187126709000,3.839951,-1.22641314934291,-9.59363355402344,-0.724346203942513,-0.03756821,-0.013744468,0.014660766,237.233,98.69131,-7.7038207,STD
9187131665000,3.844907,-1.23598123500688,-9.595961,-0.719137368686074,-0.04153884,-0.004581489,0.009773844,237.22266,98.68978,-7.7077503,STD
9187136661000,3.849903,-1.25245056767801,-9.595961,-0.70502081888277,-0.027183503,-0.005497787,0.007941248,237.20776,98.68587,-7.710769,STD
9187141652000,3.854894,-1.26890341783045,-9.595961,-0.69091839693155,-0.025961773,-0.0021380284,0.010079277,237.20317,98.68591,-7.7103233,STD
9187146669000,3.859911,-1.28544197708006,-9.595961,-0.676742510149489,-0.03176499,-0.01038471,0.014049901,237.19513,98.68508,-7.710164,STD
9187151693000,3.864935,-1.30079295126904,-9.59331962774958,-0.686224402538071,-0.03481932,-0.018325957,0.010079277,237.18816,98.68233,-7.708291,STD
9187156682000,3.869924,-1.31505949507316,-9.58856401383498,-0.714757490146312,-0.024129177,-0.022296581,0.010079277,237.18028,98.68059,-7.708754,STD
9187161664000,3.874906,-1.32887992919605,-9.59366442783263,-0.7326909861307,-0.027488936,-0.0290161,0.01740966,237.16962,98.68334,-7.713682,STD
9187166698000,3.87994,-1.34247925534556,-9.60726356464504,-0.741757203563705,-0.02321288,-0.02687807,0.016798794,237.16049,98.68172,-7.7161474,STD
9187171670000,3.884912,-1.34835380191751,-9.62301795106362,-0.752918914880655,-0.035124753,-0.030848695,0.008552114,237.14357,98.68952,-7.725453,STD
9187176751000,3.889993,-1.3434941473884,-9.642456467692,-0.767497929212024,-0.04184427,-0.0290161,0.01160644,237.12949,98.69867,-7.7373214,STD
9187182838000,3.89608,-1.33447976133092,-9.65132995198283,-0.776418423526607,-0.03481932,-0.021991149,0.012217305,237.11804,98.70811,-7.7479324,STD
9187186693000,3.899935,-1.32697174050842,-9.64882731612247,-0.777252644481301,-0.028099801,-0.018325957,0.013133603,237.10646,98.71911,-7.759249,STD
9187191759000,3.905001,-1.31710516891651,-9.64553850853011,-0.778348925507626,-0.03268129,-0.01863139,0.008246681,237.09552,98.729546,-7.768261,STD
9187196696000,3.909938,-1.30748983848831,-9.64233344672918,-0.77941729096893,-0.029626964,-0.019547688,0.01160644,237.08578,98.74024,-7.7795405,STD
9187202150000,3.915392,-1.29686759579934,-9.63879275257033,-0.780597535090046,-0.026572637,-0.018325957,0.0067195175,237.07648,98.74799,-7.786804,STD
9187207373000,3.920615,-1.28669525007796,-9.63540202180545,-0.7817277908738,-0.02565634,-0.006414085,0.019547688,237.07059,98.76081,-7.79964,STD
9187211733000,3.924975,-1.27820368826573,-9.63257154389335,-0.78267129369156,-0.03604105,-0.010079277,0.0030543262,237.06003,98.765816,-7.8027825,STD
9187216719000,3.929961,-1.26849292514744,-9.62933467167552,-0.783750262739577,-0.03023783,-0.013133603,0.0030543262,237.05374,98.77582,-7.8137264,STD
9187221745000,3.934987,-1.25870425779234,-9.62607183177042,-0.784837887776748,-0.046120327,-0.006414085,0.008246681,237.04904,98.78695,-7.8211694,STD
9187226823000,3.940065,-1.27276927177064,-9.62165634661226,-0.773159787763342,-0.04795292,0.005192355,0.0076358155,237.04099,98.79019,-7.822164,STD
9187231806000,3.945048,-1.3035142159025,-9.61653209116289,-0.752663156558574,-0.038789943,-0.0009162979,0.004886922,237.02995,98.794785,-7.824244,STD
9187236713000,3.949955,-1.33248713688674,-9.60232366444579,-0.739316698667474,-0.03940081,0.0018325958,0.009773844,237.02634,98.797806,-7.822853,STD
9187241818000,3.95506,-1.36209922895215,-9.58381610690491,-0.728212164142944,-0.043066,0.008246681,0.006414085,237.02191,98.7973,-7.8185053,STD
9187246770000,3.960012,-1.38773668240985,-9.56813031759015,-0.719160817590145,-0.04917465,0.0030543262,0.015577064,237.01875,98.80676,-7.8264623,STD
9187251718000,3.96496,-1.37592031255299,-9.57994668744701,-0.73097718744701,-0.046120327,0.0012217305,0.008857546,237.01794,98.81046,-7.828612,STD
9187256850000,3.970092,-1.36366453039749,-9.59220246960251,-0.743232969602514,-0.042760566,0.004581489,0.010079277,237.02008,98.82647,-7.844323,STD
9187261750000,3.974992,-1.35196278983592,-9.60390421016408,-0.754934710164082,-0.053145275,-0.00030543262,0.010995574,237.01904,98.8417,-7.8578353,STD
9187266808000,3.98005,-1.33870776298718,-9.61540618238203,-0.767313206951639,-0.03726278,-0.002443461,0.014049901,237.0133,98.85214,-7.871863,STD
9187271734000,3.984976,-1.31102963791803,-9.61936027692566,-0.783129279599363,-0.049785517,0.0012217305,0.013439035,237.00786,98.866646,-7.884712,STD
9187276782000,3.990024,-1.28266602132261,-9.62341230072919,-0.799337061719889,-0.04795292,-0.00030543262,0.012217305,237.00052,98.87633,-7.8953094,STD
9187281808000,3.99505,-1.26381850457556,-9.63128900140478,-0.801152831636564,-0.03848451,-0.0061086523,0.018020526,236.99316,98.88802,-7.9074626,STD
9187286688000,3.99993,-1.24975023726671,-9.64066804214329,-0.79646341409693,-0.03848451,-0.004886922,0.008857546,236.98712,98.89634,-7.914598,STD
9187291704000,4.004946,-1.24604986853383,-9.63852015733086,-0.785290245411348,-0.03634648,0.0030543262,0.0143553335,236.97461,98.901726,-7.9200444,STD
9187296732000,4.009974,-1.24764209624363,-9.63055901878183,-0.770960184384961,-0.03359759,0.008552114,0.0125227375,236.96172,98.902885,-7.9208155,STD
9187301720000,4.014962,-1.24922165706633,-9.62266121466834,-0.756744125435156,-0.040927973,0.007330383,0.010079277,236.95041,98.903625,-7.920664,STD
9187306705000,4.019947,-1.2508002678725,-9.61476816063752,-0.742536616641095,-0.044593163,0.013133603,0.009468411,236.94292,98.9036,-7.920274,STD
9187311758000,4.025,-1.25240041238675,-9.60676743806627,-0.728135304316844,-0.04795292,0.016798794,0.008246681,236.93115,98.90564,-7.9234676,STD
9187316716000,4.029958,-1.25397047304411,-9.59891713477945,-0.714004746924476,-0.046731193,0.021685716,0.0061086523,236.92163,98.90716,-7.925989,STD
9187321730000,4.034972,-1.25758034879808,-9.60199810847356,-0.696609104807692,-0.0421497,0.034513887,0.008857546,236.91574,98.90961,-7.9292407,STD
9187326822000,4.040064,-1.26246467027244,-9.61176644541266,-0.677071818910256,-0.046731193,0.029626964,0.007330383,236.90622,98.911446,-7.93086,STD
