timestamp,rel_time,acc_x,acc_y,acc_z,gyro_x,gyro_y,gyro_z,azimuth,pitch,roll,label
16567757851000,0,-0.52912758691572,9.80948697230851,-0.501029669050656,-0.03481932,0.076052725,0.028710667,190.13733,-88.55602,-0.97251016,STD
16567762857000,0.005006,-0.531765464231506,9.81164522871492,-0.49767237101297,-0.029321533,0.06872234,0.018020526,190.15237,-88.56716,-1.0263038,STD
16567767855000,0.010004,-0.534399126002241,9.81380003604996,-0.494320438213859,-0.031154128,0.07941248,0.01863139,190.16292,-88.57352,-1.0730256,STD
16567772789000,0.014938,-0.536999063412566,9.81592725081409,-0.491011427323339,-0.030543262,0.08307768,0.014966198,190.17703,-88.57387,-1.1223736,STD
16567777845000,0.019994,-0.539663287884922,9.81810706391652,-0.487620596544566,-0.035124753,0.070554934,0.010079277,190.19221,-88.56879,-1.1703742,STD
16567783252000,0.025401,-0.5425124693964,9.82043820502508,-0.483994365923358,-0.043676864,0.063224554,0.005192355,190.20436,-88.558754,-1.2179949,STD
16567787864000,0.030013,-0.544942731118414,9.82242659466679,-0.480901305885442,-0.040927973,0.061391957,0.004581489,190.21797,-88.54649,-1.2642734,STD
16567792831000,0.03498,-0.547560057652076,9.82456803685029,-0.477570163385805,-0.03023783,0.058948494,-0.0027488936,190.23329,-88.52848,-1.312361,STD
16567797865000,0.040014,-0.550212689375541,9.82673836500648,-0.47419408701311,-0.032986723,0.054061573,-0.005192355,190.24922,-88.50786,-1.3577615,STD
16567802846000,0.044995,-0.552837393113042,9.82888584306487,-0.470853555345969,-0.03634648,0.053145275,-0.00061086525,190.26413,-88.48646,-1.4017862,STD
16567807856000,0.050005,-0.555477378201354,9.83104582400696,-0.467493574688996,-0.03481932,0.050701816,0.0012217305,190.28029,-88.46222,-1.4458302,STD
16567812873000,0.055022,-0.558121051891585,9.8332088228865,-0.464128899448271,-0.03573562,0.05131268,0.0018325958,190.29523,-88.436966,-1.48755,STD
16567817926000,0.060075,-0.560783695534547,9.83538734258717,-0.460740080633963,-0.039095376,0.040927973,-0.0015271631,190.31346,-88.41001,-1.5285351,STD
16567822846000,0.064995,-0.563376255741033,9.83750852147641,-0.457440458910948,-0.04337143,0.035430185,0.0015271631,190.32956,-88.38407,-1.5662582,STD
16567827976000,0.070125,-0.566079474005112,9.83972023848897,-0.453999999675365,-0.044593163,0.029932396,0.0076358155,190.34804,-88.35755,-1.6027749,STD
16567832940000,0.075089,-0.568695219709379,9.84186038727072,-0.450670869140193,-0.03390302,0.032070424,0.0076358155,190.36533,-88.33028,-1.6389493,STD
16567837849000,0.079998,-0.57128198354142,9.84397682368683,-0.447378624620217,-0.028405234,0.03268129,0.015882496,190.38403,-88.30644,-1.6698513,STD
16567842794000,0.084943,-0.57388771732619,9.84610878092408,-0.444062236526659,-0.029626964,0.024740042,0.012217305,190.40404,-88.279305,-1.703049,STD
16567847818000,0.089967,-0.576535079618342,9.84827479774106,-0.440692866702181,-0.025350908,0.03390302,0.018936822,190.41844,-88.25772,-1.7299163,STD
16567853153000,0.095302,-0.579346321224358,9.85057489720734,-0.43711492322814,-0.025045475,0.038789943,0.0290161,190.43584,-88.23583,-1.7558306,STD
16567857798000,0.099947,-0.581793972069709,9.85257751426842,-0.433999731581106,-0.023518313,0.026267206,0.01863139,190.45514,-88.21014,-1.7847576,STD
16567862813000,0.104962,-0.58438993925376,9.85464772172848,-0.432207239963256,-0.02107485,0.021685716,0.028405234,190.47037,-88.19302,-1.8042338,STD
16567867807000,0.109956,-0.586533058904241,9.8558383429277,-0.445304083100569,-0.015882496,0.014660766,0.030543262,190.48944,-88.1709,-1.8279802,STD
16567872783000,0.114932,-0.588668454054579,9.85702467274094,-0.45835372095625,-0.02076942,0.029626964,0.030848695,190.53697,-88.1163,-1.8833113,STD
16567877827000,0.119976,-0.590833030649898,9.85822721445677,-0.471581689875876,-0.032375857,0.025961773,0.031154128,190.59062,-88.063995,-1.9359564,STD
16567882811000,0.12496,-0.59297185891141,9.85941545155267,-0.484652307856727,-0.025350908,0.03268129,0.022602014,190.6359,-91.98914,-1.9891002,STD
16567887809000,0.129958,-0.595116695117478,9.86060702639322,-0.497759641056625,-0.03573562,0.032375857,0.02076942,190.68309,-92.0386,-2.0383458,STD
16567892807000,0.134956,-0.597261531323545,9.86179860123377,-0.510866974256524,-0.031154128,0.03604105,0.021685716,190.72612,-92.08814,-2.0873902,STD
16567897819000,0.139968,-0.599412375474167,9.86299351381898,-0.524011022675469,-0.036651913,0.039095376,0.014966198,190.76834,-92.13861,-2.1373389,STD
16567902814000,0.144963,-0.601555924263544,9.86418437342853,-0.537110488328429,-0.045814894,0.025350908,0.011911872,190.81328,-92.186134,-2.1842487,STD
16567907803000,0.149952,-0.60369689821954,9.86537380257609,-0.550194218887511,-0.041233405,0.028099801,0.0061086523,190.85161,-92.234856,-2.232151,STD
16567912821000,0.15497,-0.605850317203543,9.86657014562329,-0.563354002400335,-0.03970624,0.015577064,-0.0036651916,190.89717,-92.28379,-2.2803764,STD
16567917814000,0.159963,-0.607993007715127,9.86776052841218,-0.576448223022002,-0.022907447,0.016493361,-0.0027488936,190.93704,-92.33003,-2.325504,STD
16567922919000,0.165068,-0.610183761783148,9.86897761315828,-0.589836165396048,-0.027183503,0.020158553,-0.004581489,190.9786,-92.37783,-2.372486,STD
16567927835000,0.169984,-0.61229340859968,9.87014963835158,-0.602728452312955,-0.027183503,0.02565634,-0.0067195175,191.01831,-92.42422,-2.41761,STD
16567932812000,0.174961,-0.614429232888915,9.87133620657515,-0.615780712684282,-0.021991149,0.026572637,-0.0036651916,191.05728,-92.46812,-2.4601448,STD
16567937809000,0.179958,-0.616573639956086,9.87252754300537,-0.628885423368534,-0.031154128,0.018020526,-0.004276057,191.0964,-92.5118,-2.502776,STD
16567942782000,0.184931,-0.618707747689734,9.87371315758762,-0.641927193677277,-0.0143553335,0.02443461,0.0018325958,191.13007,-92.552025,-2.5410962,STD
16567947802000,0.189951,-0.62086202495153,9.87490997745548,-0.655092222221392,-0.023823744,0.02443461,0.0070249503,191.16705,-92.59033,-2.5784032,STD
16567952815000,0.194964,-0.623013298241049,9.87610512845101,-0.668238893155984,-0.011301007,0.030848695,0.004581489,191.19951,-92.62881,-2.6147666,STD
16567957787000,0.199936,-0.6251469768358,9.87729050462292,-0.681278040949081,-0.01282817,0.028099801,-0.003970624,191.23373,-92.665634,-2.6501348,STD
16567962816000,0.204965,-0.627305116347668,9.87848947018377,-0.694466672134012,-0.0067195175,0.03023783,-0.0015271631,191.26396,-92.69943,-2.6818,STD
16567967843000,0.209992,-0.629462397581741,9.87968795892396,-0.707650058287652,-0.004276057,0.028710667,0.011301007,191.29524,-92.731316,-2.7116835,STD
16567972823000,0.214972,-0.631599509287667,9.88087524237853,-0.720710186205918,-0.005192355,0.02076942,0.005192355,191.32698,-92.76681,-2.7450976,STD
16567977835000,0.219984,-0.633750353438289,9.88207015496373,-0.733854234624864,-0.00030543262,0.024129177,0.01160644,191.35524,-92.79435,-2.7701643,STD
16567982828000,0.224977,-0.635893043949872,9.88326053775262,-0.746948455246531,-0.002443461,0.023823744,0.004886922,191.38606,-92.82598,-2.7996638,STD
16567987809000,0.229958,-0.638030584794695,9.88444805961752,-0.760011205680443,0.004276057,0.022602014,0.008857546,191.41553,-92.8523,-2.8232517,STD
16567992802000,0.234951,-0.640173275306278,9.88563844240641,-0.773105426302111,0.0015271631,0.029321533,0.008857546,191.4421,-92.88018,-2.8488667,STD
16567997824000,0.239973,-0.642328410845868,9.88683573909493,-0.786275699877519,0.00061086525,0.023823744,-0.00030543262,191.47186,-92.90893,-2.8750331,STD
16568002813000,0.244962,-0.644469384801864,9.88802516824249,-0.799359430436601,-0.0015271631,0.027794369,0.0012217305,191.49638,-92.93356,-2.897191,STD
16568007787000,0.249936,-0.646603921674409,9.88921102123507,-0.81240382326099,-0.002443461,0.015882496,0.00030543262,191.52638,-92.96052,-2.921762,STD
16568012823000,0.254972,-0.648765065158554,9.89041165566825,-0.825610812055445,-0.0106901415,0.012217305,-0.0033597588,191.55225,-92.986465,-2.9457507,STD
16568017818000,0.259967,-0.650908613947931,9.8916025152778,-0.838710277708405,-0.011301007,0.015577064,0.0018325958,191.57889,-93.009544,-2.966563,STD
16568022799000,0.264948,-0.653046154792753,9.8927900371427,-0.851773028142317,-0.010079277,0.013133603,0.0033597588,191.60756,-93.033455,-2.9885845,STD
16568027809000,0.269958,-0.655196140665581,9.89398447290724,-0.864911831529971,-0.018325957,0.0067195175,-0.0015271631,191.63579,-93.056366,-3.0101283,STD
16568032821000,0.27497,-0.657346984816203,9.89517938549244,-0.878055879948916,-0.005497787,0.005497787,-0.011911872,191.66258,-93.08068,-3.0320015,STD
16568038451000,0.2806,-0.659763036805031,9.89652163566297,-0.892820643037237,-0.004886922,0.015271631,-0.006414085,191.68745,-93.100044,-3.0498903,STD
16568042809000,0.284958,-0.661633224117164,9.89756062789088,-0.904249566223543,-0.010995574,0.017715093,-0.007330383,191.71408,-93.12353,-3.071733,STD
16568047826000,0.289975,-0.66378621396227,9.89875673252775,-0.91740672722072,-0.007941248,0.010995574,-0.006414085,191.73997,-93.144646,-3.0906906,STD
16568052808000,0.294957,-0.665924183945989,9.89994449280298,-0.930472100170279,-0.018020526,0.005192355,-0.01282817,191.76433,-93.1663,-3.1112487,STD
16568057791000,0.29994,-0.668062583068604,9.90113249148855,-0.943540095635484,-0.020463986,0.015577064,-0.009162978,191.78543,-93.18465,-3.1278908,STD
16568062751000,0.3049,-0.670191111996594,9.90231500673647,-0.956547773240825,-0.018936822,0.018325957,-0.011301007,191.80975,-93.20532,-3.1472979,STD
16568067811000,0.30996,-0.670598961403791,9.90308539814889,-0.957903161403791,-0.006414085,0.02565634,-0.007941248,191.82928,-93.22319,-3.163348,STD
16568072799000,0.314948,-0.670838727497591,9.90380471145198,-0.958142927497591,-0.019547688,0.01985312,-0.014660766,191.85124,-93.242485,-3.1822565,STD
16568077911000,0.32006,-0.671084454095728,9.9045419066415,-0.958388654095728,-0.01038471,0.027183503,-0.011911872,191.91335,-93.28901,-3.2234185,STD
16568082832000,0.324981,-0.671320999594443,9.90525155795756,-0.958625199594443,-0.013439035,0.02076942,-0.0015271631,191.97969,-93.331894,-3.2624302,STD
16568087813000,0.329962,-0.671560429208159,9.90596986179931,-0.958864629208159,-0.0070249503,0.027488936,0.0018325958,192.03888,-93.37519,-3.300754,STD
16568092847000,0.334996,-0.671802406456794,9.90669580870543,-0.959106606456794,-0.0067195175,0.021380283,0.0067195175,192.10239,-93.41287,-3.3340232,STD
16568097819000,0.339968,-0.672041403453261,9.90741281466833,-0.959345603453261,-0.008857546,0.017104227,0.0076358155,192.16226,-93.44933,-3.3658333,STD
16568102807000,0.344956,-0.672281169547061,9.90813212797141,-0.959585369547061,-0.005497787,0.016798794,0.009162978,192.2216,-93.48311,-3.3945775,STD
16568108546000,0.350695,-0.672557035146964,9.90895974205449,-0.959861235146964,-0.013439035,0.018936822,0.009162978,192.2803,-93.51475,-3.42206,STD
16568112803000,0.354952,-0.672761663106328,9.90957363875281,-0.960065863106328,0.0067195175,0.014660766,0.0143553335,192.33983,-93.5452,-3.4462686,STD
16568117813000,0.359962,-0.673002486708962,9.91029612464865,-0.960306686708962,-0.0036651916,0.016493361,0.011301007,192.39584,-93.574066,-3.471496,STD
16568122781000,0.36493,-0.673241291431095,9.9110125537765,-0.960545491431095,-0.0067195175,0.0076358155,0.011911872,192.45514,-93.60105,-3.493003,STD
16568127899000,0.370048,-0.673487306440733,9.9117506142186,-0.960791506440733,-0.01282817,0.004276057,0.007941248,192.51125,-93.628006,-3.5154598,STD
16568132858000,0.375007,-0.673725678545615,9.9124657454676,-0.961029878545615,-0.0076358155,0.013133603,0.007330383,192.56532,-93.65326,-3.5355835,STD
16568137807000,0.379956,-0.673963569964664,9.91317943462898,-0.961267769964664,-0.011301007,-0.005192355,0.011301007,192.6271,-93.67609,-3.5545032,STD
16568142801000,0.38495,-0.674203624469965,9.91389961318463,-0.961507824469965,-0.017715093,-0.0036651916,0.012217305,192.67963,-93.69898,-3.5732355,STD
16568147822000,0.389971,-0.674444976827016,9.91462368537685,-0.961749176827016,-0.016187929,-0.0125227375,0.00580322,192.73929,-93.722015,-3.5919838,STD
16568152808000,0.394957,-0.674684646783649,9.91534271026241,-0.961988846783649,-0.016493361,-0.008246681,0.0106901415,192.79376,-93.740036,-3.606136,STD
16568157798000,0.399947,-0.674924509014616,9.91606231198302,-0.962228709014616,-0.021991149,-0.004581489,0.007330383,192.84982,-93.76076,-3.6234736,STD
16568162816000,0.404965,-0.675165717165917,9.91678595154895,-0.962469917165917,-0.023823744,-0.009162978,0.00580322,192.90602,-93.7789,-3.6379387,STD
16568167813000,0.409962,-0.675405915876968,9.91750656273089,-0.962710115876968,-0.024740042,0.0061086523,0.01160644,192.95451,-93.79465,-3.6502032,STD
16568172785000,0.414934,-0.675644912873434,9.91822356869378,-0.962949112873434,-0.02565634,0.015882496,0.006414085,193.00484,-93.81279,-3.665178,STD
16568178189000,0.420338,-0.675904675497912,9.91900287284171,-0.963208875497912,-0.029626964,0.017715093,0.009162978,193.05225,-93.82602,-3.6753716,STD
16568182855000,0.425004,-0.67612896350787,9.91967575092355,-0.96343316350787,-0.024740042,0.022602014,0.008246681,193.09511,-93.84154,-3.6872525,STD
16568187804000,0.429953,-0.676366854926919,9.92038944008493,-0.963671054926919,-0.02443461,0.018936822,0.00580322,193.13911,-93.85531,-3.6980944,STD
16568192797000,0.434946,-0.676606861363636,9.92110947443182,-0.963911061363636,-0.028710667,0.02687807,0.009773844,193.17767,-93.8669,-3.706579,STD
16568197816000,0.439965,-0.676848117583521,9.92183325820651,-0.964152317583521,-0.023823744,0.03023783,0.005497787,193.21777,-93.8815,-3.7174773,STD
16568202821000,0.44497,-0.677088700843238,9.92255502305854,-0.964392900843238,-0.028710667,0.027183503,0.0125227375,193.25684,-93.890144,-3.7233806,STD
16568207795000,0.449944,-0.677327793976871,9.92327231743896,-0.964631993976871,-0.020463986,0.02687807,0.008552114,193.2934,-93.90385,-3.7330105,STD
16568212809000,0.454958,-0.677568809853839,9.92399538016985,-0.964873009853839,-0.0143553335,0.029932396,0.013439035,193.32932,-93.91209,-3.7375495,STD
16568217811000,0.45996,-0.677809248907806,9.9247167123956,-0.965113448907806,-0.012217305,0.027183503,0.010995574,193.36629,-93.92321,-3.7448013,STD
16568222801000,0.46495,-0.678049111138773,9.92543631411621,-0.965353311138773,-0.01282817,0.026267206,0.008246681,193.40128,-93.93285,-3.7502205,STD
16568227817000,0.469966,-0.678290223152907,9.92615966526462,-0.965594423152907,-0.01282817,0.024129177,0.0070249503,193.43683,-93.94246,-3.7554262,STD
16568232818000,0.474967,-0.678530614138291,9.9268808532816,-0.965834814138291,-0.01740966,0.023823744,0.0076358155,193.47151,-93.95134,-3.7603853,STD
16568237805000,0.479954,-0.678770332163508,9.92760002237592,-0.966074532163508,-0.014660766,0.01740966,0.005497787,193.50795,-93.96143,-3.7660353,STD
16568242797000,0.484946,-0.679010290531642,9.92831991251405,-0.966314490531641,-0.01282817,0.018936822,0.014660766,193.54167,-93.967316,-3.7677567,STD
16568247914000,0.490063,-0.679256257472695,9.92905782874739,-0.966560457472695,-0.007941248,0.025045475,0.004276057,193.5752,-93.979126,-3.7752118,STD
16568252809000,0.494958,-0.679491553188243,9.92976373063564,-0.966795753188243,-0.009468411,0.02076942,0.005497787,193.61082,-93.98447,-3.7763784,STD
16568257794000,0.499943,-0.679731175076293,9.93048261131244,-0.967035375076293,-0.015882496,0.01282817,0.011911872,193.64517,-93.99074,-3.7785757,STD
16568262775000,0.504924,-0.679918778642235,9.93118352027636,-0.96701585031541,-0.014966198,0.013133603,0.0018325958,193.67773,-94.00124,-3.7846963,STD
16568267815000,0.509964,-0.679435479633524,9.93166680414539,-0.96363275473115,-0.017715093,-0.0061086523,0.008246681,193.71779,-94.00422,-3.7840557,STD
16568272819000,0.514968,-0.678955632760589,9.93214663598678,-0.96027382411535,-0.02076942,0.008552114,0.010079277,193.7928,-94.03246,-3.810953,STD
16568277904000,0.520053,-0.678468018582157,9.93263423489036,-0.956860522320517,-0.026572637,-0.0012217305,0.006414085,193.87875,-94.05856,-3.83639,STD
16568282913000,0.525062,-0.67798769224592,9.93311454618003,-0.953498235459097,-0.021380283,-0.012217305,0.0061086523,193.9594,-94.082726,-3.8588812,STD
16568287801000,0.52995,-0.677518968921598,9.93358325482127,-0.950217169741664,-0.025350908,-0.009468411,0.009162978,194.03735,-94.10431,-3.8800592,STD
16568292799000,0.534948,-0.677039697404626,9.93406251132472,-0.946862266620607,-0.025045475,-0.0030543262,0.004886922,194.11581,-94.12759,-3.9021156,STD
16568297823000,0.539972,-0.676557932678482,9.93454426095925,-0.943489911022329,-0.025045475,-0.0009162979,0.010995574,194.19331,-94.14566,-3.9190576,STD
16568302809000,0.544958,-0.676079811873435,9.93502236678682,-0.940143062890758,-0.018020526,-0.01160644,0.008552114,194.27115,-94.166756,-3.9384787,STD
16568307790000,0.549939,-0.675602170531691,9.93549999316611,-0.936799571004806,-0.021685716,-0.008857546,0.0012217305,194.34312,-94.18547,-3.9563024,STD
16568312821000,0.55497,-0.675119734556924,9.93598241402823,-0.933422516662661,-0.015577064,-0.008246681,0.014660766,194.41751,-94.19972,-3.9678137,STD
16568317828000,0.559977,-0.674639600006008,9.9364625335386,-0.930061572299489,-0.025961773,-0.0125227375,0.0067195175,194.49095,-94.21878,-3.9864082,STD
16568322853000,0.565002,-0.674157739387203,9.93694437906278,-0.926688545452088,-0.013744468,-0.008857546,0.003970624,194.56078,-94.23455,-3.998597,STD
16568327888000,0.570037,-0.673674919841794,9.93742718348353,-0.923308806113447,-0.012217305,-0.006414085,0.002443461,194.6308,-94.249214,-4.0117135,STD
16568332850000,0.574999,-0.673199100460599,9.93790298795935,-0.919978067960849,-0.007941248,0.006414085,0.007941248,194.69556,-94.263176,-4.0224924,STD
16568337812000,0.579961,-0.672723281079403,9.93837879243517,-0.916647329808251,-0.01160644,-0.00030543262,0.0033597588,194.76392,-94.27873,-4.0357323,STD
16568342802000,0.584951,-0.672244776703715,9.93885728182137,-0.913297796680184,-0.0021380284,-0.0009162979,-0.0021380284,194.82578,-94.29388,-4.04666,STD
16568347820000,0.589969,-0.671763587333534,9.93933845611795,-0.90992946857665,-0.011911872,-0.0027488936,0.010079277,194.88885,-94.302444,-4.052999,STD
16568352809000,0.594958,-0.671285178850506,9.9398168496145,-0.906580606697707,-0.0027488936,-0.0021380284,0.0067195175,194.95016,-94.31854,-4.0644584,STD
16568357793000,0.599942,-0.67080724983078,9.94029476366276,-0.903235101064384,-0.007330383,-0.006414085,0.013439035,195.01247,-94.32564,-4.0688124,STD
16568363530000,0.605679,-0.670257113637729,9.94084488262241,-0.899384144840793,-0.0030543262,0.004886922,0.017715093,195.06903,-94.33531,-4.073941,STD
16568367817000,0.609966,-0.669846021802343,9.94125596158005,-0.896506499846801,-0.005192355,-0.007330383,0.0070249503,195.13248,-94.34546,-4.0809374,STD
16568372838000,0.614987,-0.669364544754181,9.94173742354561,-0.893136157995895,-0.010079277,-0.0027488936,0.0143553335,195.18709,-94.34918,-4.080739,STD
16568377897000,0.620046,-0.66887942378492,9.94222252931811,-0.889740308678282,-0.018936822,-0.0125227375,0.010079277,195.24814,-94.35762,-4.0864267,STD
16568382898000,0.625047,-0.668399864589967,9.94270207349054,-0.886383391809853,-0.01160644,-0.015882496,0.014049901,195.3052,-94.36245,-4.0869813,STD
16568387788000,0.629937,-0.667930949480324,9.94317097391108,-0.883100983594172,-0.016187929,-0.012217305,0.016493361,195.362,-94.36621,-4.088596,STD
16568392804000,0.634953,-0.667449951895464,9.94365195642836,-0.879733997988886,-0.028405234,-0.009773844,0.02076942,195.41919,-94.36784,-4.088003,STD
16568397820000,0.639969,-0.666968954310604,9.94413293894563,-0.876367012383599,-0.0421497,-0.013133603,0.017715093,195.476,-94.3697,-4.088304,STD
16568402810000,0.644959,-0.666490449934915,9.94461142833183,-0.873017479255532,-0.03023783,-0.011911872,0.018325957,195.52994,-94.37042,-4.085827,STD
16568407797000,0.649946,-0.666012233237208,9.94508963004906,-0.869669959874837,-0.046120327,-0.012217305,0.018325957,195.58432,-94.36759,-4.0839825,STD
16568412881000,0.65503,-0.665524714951437,9.94557713306298,-0.866257329329128,-0.045814894,-0.01160644,0.019547688,195.6372,-94.366776,-4.081164,STD
16568417814000,0.659963,-0.665051676457395,9.94605015673876,-0.862946057401121,-0.048258353,-0.0067195175,0.018325957,195.68805,-94.36444,-4.078612,STD
16568422845000,0.664994,-0.664569240482627,9.94653257760088,-0.859569003058977,-0.04428773,-0.015271631,0.021991149,195.74174,-94.36091,-4.074037,STD
16568427917000,0.670066,-0.664082872908781,9.94701892993892,-0.856164427502754,-0.04550946,-0.007941248,0.021380283,195.7886,-94.35785,-4.070527,STD
16568433253000,0.675402,-0.663571189672574,9.94753059714629,-0.852582642177831,-0.057421334,-0.015882496,0.021991149,195.8415,-94.35258,-4.065472,STD
16568437816000,0.679965,-0.663133631462902,9.94796814164915,-0.849519732425653,-0.048563786,-0.023518313,0.023518313,195.89145,-94.34903,-4.0599737,STD
16568442803000,0.684952,-0.662655414765195,9.94844634336638,-0.846172213044958,-0.043676864,-0.0125227375,0.023518313,195.93747,-94.34396,-4.054361,STD
16568447823000,0.689972,-0.662174033609693,9.94892770944228,-0.842802542443176,-0.032070424,-0.012217305,0.03023783,195.98798,-94.33811,-4.0462327,STD
16568452812000,0.694961,-0.661695625126665,9.94940610293882,-0.839453680564233,-0.037873644,-0.0076358155,0.02687807,196.0333,-94.33351,-4.040626,STD
16568457794000,0.699943,-0.66121788789226,9.94988382520777,-0.836109517429158,-0.02687807,-0.016187929,0.032375857,196.08171,-94.32756,-4.0304637,STD
16568462848000,0.704997,-0.6604018066663,9.94977147532425,-0.833513777662673,-0.027488936,-0.01740966,0.02565634,196.1259,-94.323845,-4.02448,STD
16568467866000,0.710015,-0.657520668501069,9.94592995609924,-0.835914725298017,-0.014660766,-0.0021380284,0.03756821,196.16731,-94.31613,-4.011353,STD
16568472833000,0.714982,-0.654668812529227,9.94212747981574,-0.838291271114031,-0.014966198,0.006414085,0.029932396,196.25099,-94.33239,-4.027893,STD
16568477936000,0.720085,-0.651738870708347,9.93822088902156,-0.84073288844826,-0.008552114,0.007941248,0.03604105,196.33098,-94.34298,-4.036008,STD
16568482842000,0.724991,-0.648922038536441,9.9344651111583,-0.843080247774486,-0.009773844,0.003970624,0.031154128,196.4085,-94.35681,-4.048432,STD
16568487813000,0.729962,-0.646067885921981,9.93065957268331,-0.845458707458682,-0.01160644,0.0012217305,0.032986723,196.48395,-94.36699,-4.0562363,STD
16568492795000,0.734944,-0.643207417540319,9.92684561318172,-0.847842430280381,-0.01740966,0.01160644,0.027488936,196.55528,-94.37903,-4.0665326,STD
16568497796000,0.739945,-0.640336040106217,9.92301710827055,-0.850235243975949,-0.01740966,0.022602014,0.03726278,196.626,-94.38615,-4.071059,STD
16568503381000,0.74553,-0.637129352849777,9.91874152340175,-0.852907482426208,-0.025350908,0.026572637,0.032375857,196.69429,-94.39639,-4.080466,STD
16568507791000,0.74994,-0.634597304362597,9.91536545728332,-0.855017522097764,-0.030543262,0.034208454,0.032986723,196.7573,-94.402245,-4.0846624,STD
16568512779000,0.754928,-0.631733391017007,9.9115469044945,-0.857404115721737,-0.03573562,0.036651913,0.03940081,196.8195,-94.406395,-4.087892,STD
16568517785000,0.759934,-0.628859142779632,9.90771457184396,-0.859799321752533,-0.040317107,0.042760566,0.03390302,196.87726,-94.41254,-4.0936146,STD
16568522774000,0.764923,-0.625994655273387,9.90389525350726,-0.862186393843552,-0.04520403,0.04337143,0.040317107,196.93498,-94.41277,-4.0935483,STD
16568527788000,0.769937,-0.623115813750774,9.90005679647375,-0.864585427610714,-0.05681047,0.051618114,0.04550946,196.98769,-94.413155,-4.094731,STD
16568532774000,0.774923,-0.620253048726493,9.89623977478067,-0.866971064300595,-0.0580322,0.057421334,0.04795292,197.03996,-94.41281,-4.0943956,STD
16568537780000,0.779929,-0.617378800489119,9.89240744213014,-0.869366270331392,-0.058337633,0.050396383,0.043066,197.09259,-94.411674,-4.0943203,STD
16568542798000,0.784947,-0.614497662323887,9.88856592290514,-0.871767217966736,-0.06811147,0.048563786,0.04734206,197.1413,-94.406136,-4.090494,STD
16568547789000,0.789938,-0.611632026496333,9.88474507347269,-0.874155246991846,-0.076358154,0.026572637,0.054367006,197.1969,-94.401085,-4.0871253,STD
16568552729000,0.794878,-0.608795672862168,9.88096326698176,-0.876518874197626,-0.06994407,-0.004581489,0.054367006,197.25473,-94.39715,-4.0843062,STD
16568557721000,0.79987,-0.605929462873958,9.87714165200144,-0.878907381689782,-0.056199603,-0.026267206,0.064751714,197.31534,-94.3884,-4.07629,STD
16568562735000,0.804884,-0.603050621351346,9.87330319496792,-0.881306415456944,-0.06780604,-0.064751714,0.07391469,197.38858,-94.37779,-4.0686207,STD
16568567728000,0.809877,-0.600183837202482,9.86948081443974,-0.883695401416145,-0.06963864,-0.0852157,0.07452556,197.46175,-94.368996,-4.060089,STD
16568572734000,0.814883,-0.597309588965107,9.8656484817892,-0.886090607446941,-0.07269296,-0.111177474,0.08002335,197.54634,-94.35497,-4.0475116,STD
16568577766000,0.819915,-0.59442041255071,9.86179624489398,-0.888498253620926,-0.0720821,-0.12644911,0.098043874,197.63246,-94.33748,-4.030839,STD
16568582731000,0.82488,-0.591569704900178,9.85799529970623,-0.890873842502848,-0.06688975,-0.1133155,0.105068825,197.71635,-94.32146,-4.0153046,STD
16568587728000,0.829877,-0.588700624108695,9.85416985698655,-0.893264742330232,-0.069027774,-0.08582657,0.11056661,197.79915,-94.30031,-3.9947522,STD
16568592748000,0.834897,-0.585818337622155,9.8503268066658,-0.895666646899668,-0.074830994,-0.057726767,0.116980694,197.87671,-94.27725,-3.9716272,STD
16568597735000,0.839884,-0.582954998437219,9.84650901942485,-0.898052762056596,-0.089186326,-0.03023783,0.13683382,197.94553,-94.24817,-3.9428103,STD
16568602804000,0.844953,-0.580044578078599,9.84262845725834,-0.900478111511271,-0.10354166,-0.033292156,0.1554652,198.01408,-94.21737,-3.912614,STD
16568607787000,0.849936,-0.577183535536282,9.83881373220888,-0.902862312800016,-0.14172074,-0.041233405,0.17592919,198.0755,-94.177284,-3.876366,STD
16568612794000,0.854943,-0.574308713138252,9.83498063401047,-0.905257997297858,-0.16065755,-0.064751714,0.18906279,198.14159,-94.13545,-3.837508,STD
16568617814000,0.859963,-0.571426426651712,9.83113758368972,-0.907659901867294,-0.19730948,-0.09712757,0.2312125,198.21204,-94.07551,-3.7852373,STD
16568622834000,0.864983,-0.568544140165171,9.82729453336897,-0.910061806436729,-0.21502456,-0.13805555,0.27000242,198.29082,-94.01409,-3.7310731,STD
16568627837000,0.869986,-0.56567161440976,9.82346449736206,-0.912455577066388,-0.22235495,-0.15943582,0.31978795,198.37263,-93.93725,-3.6626904,STD
16568632819000,0.874968,-0.562811146028098,9.81965053786047,-0.914839299888087,-0.25717425,-0.18967366,0.35735616,198.46774,-93.85033,-3.588133,STD
16568637811000,0.87996,-0.559944936039889,9.81582892288015,-0.917227807380243,-0.29168814,-0.23090707,0.39095375,198.57132,-93.75253,-3.502052,STD
16568642815000,0.884964,-0.557071836123823,9.81199812132537,-0.919622056476948,-0.33505958,-0.2828306,0.43890667,198.68573,-93.63876,-3.4029326,STD
16568647828000,0.889977,-0.554193568761866,9.80816042983973,-0.922020611777064,-0.39645153,-0.35827246,0.46609017,198.81735,-93.51897,-3.302217,STD
16568652812000,0.894961,-0.551331952058894,9.80434493924239,-0.924405291532854,-0.4474588,-0.4269948,0.4868596,198.96056,-93.387955,-3.1917326,STD
16568657806000,0.899955,-0.548464593749376,9.80052179316633,-0.926794755959102,-0.47128254,-0.49174652,0.4972443,199.12231,-93.25265,-3.0786746,STD
16568662794000,0.904943,-0.546386325091786,9.79781238256582,-0.928210867868457,-0.48563787,-0.4868596,0.5225952,199.28159,-93.1076,-2.957134,STD
16568667818000,0.909967,-0.551673747992687,9.80550318590061,-0.920520069050916,-0.47952923,-0.40011674,0.5290093,199.43323,-92.96843,-2.8396642,STD
16568672827000,0.914976,-0.556945384400054,9.8131710270439,-0.912852232411373,-0.46303585,-0.24037547,0.52839845,199.61668,-92.83894,-2.7321837,STD
16568677833000,0.919982,-0.562213863508714,9.8208342757489,-0.90518898820743,-0.46517387,-0.067500606,0.50671273,199.7682,-92.71631,-2.6298501,STD
16568682818000,0.924967,-0.567460241526427,9.82846537738582,-0.897557891052684,-0.49602258,0.08032878,0.4718934,199.87877,-92.60072,-2.5327399,STD
16568688564000,0.930713,-0.573507520982752,9.83726142753743,-0.888761846067495,-0.54367006,0.17165314,0.42638394,199.95447,-92.49739,-2.4465816,STD
16568692797000,0.934946,-0.577962469457973,9.84374135797455,-0.882281919436394,-0.57726765,0.19150625,0.3930918,200.00749,-92.40425,-2.3688376,STD
16568697819000,0.939968,-0.583247787493069,9.8514290996838,-0.874594182242586,-0.5726862,0.1572978,0.3830125,200.04933,-92.32191,-2.2994232,STD
16568702810000,0.944959,-0.588500480108196,9.85906938619732,-0.866953900216641,-0.5503896,0.073303826,0.37812558,200.09923,-92.251915,-2.2398994,STD
16568707787000,0.949936,-0.59373843866269,9.86668824133211,-0.859335049556828,-0.5332854,0.0290161,0.38056904,200.14691,-92.18757,-2.1827075,STD
16568712839000,0.954988,-0.599055329684854,9.87442190742433,-0.851601388007023,-0.5122105,-0.03573562,0.3726278,200.22356,-92.13234,-2.1312292,STD
16568717813000,0.959962,-0.604290130940642,9.88203617012083,-0.84398712978281,-0.46700647,-0.052534413,0.3811799,200.29805,-92.07539,-2.0753808,STD
16568722800000,0.964949,-0.60953861382416,9.88967033338329,-0.836352971004331,-0.4089743,-0.04428773,0.3631594,200.3825,-87.969315,-2.0302305,STD
16568727859000,0.970008,-0.614862871876639,9.89741471516487,-0.82860859377146,-0.33933565,-0.021685716,0.3295618,200.46638,-88.010765,-1.9878507,STD
16568732889000,0.975038,-0.620156609374953,9.90511470337624,-0.82090861008272,-0.24556783,0.02687807,0.29932398,200.53929,-88.04812,-1.9502491,STD
16568737818000,0.979967,-0.62534405115014,9.91266007949828,-0.813363238392501,-0.18081611,0.07880162,0.26358834,200.60376,-88.074486,-1.9241502,STD
16568742802000,0.984951,-0.630589376734951,9.92028965032244,-0.805733672049622,-0.098043874,0.15699236,0.2125811,200.64615,-88.08853,-1.9111935,STD
16568747820000,0.989969,-0.635870485038438,9.92797126878063,-0.79805205810328,-0.050701816,0.2302962,0.17470746,200.67467,-91.90464,-1.9045794,STD
16568752807000,0.994956,-0.641118967921955,9.93560543204308,-0.790417899324802,0.004276057,0.27550024,0.1572978,200.68884,-91.90832,-1.9062809,STD
16568758691000,1.00084,-0.64731148311879,9.94461273435635,-0.781410602302029,0.026267206,0.2864958,0.1423316,200.69211,-91.924484,-1.917551,STD
16568762801000,1.00495,-0.651636982347035,9.9509043748233,-0.775118965530513,0.07086037,0.26267207,0.14813483,200.69298,-91.94439,-1.9272152,STD
16568767809000,1.009958,-0.6569075663215,9.95857068515383,-0.767452659702837,0.102319926,0.2321288,0.13805555,200.69315,-91.976654,-1.9450076,STD
16568772800000,1.014949,-0.662160258936626,9.96621097166734,-0.759812377676892,0.13255776,0.20463985,0.15027285,200.69983,-92.006485,-1.9540391,STD
16568777885000,1.020034,-0.667511880244564,9.97399515458083,-0.752028199335491,0.14049901,0.1704314,0.15210545,200.71751,-92.04577,-1.9681354,STD
16568782840000,1.024989,-0.672726685275209,9.98158033183478,-0.744443026536742,0.14508049,0.16340645,0.14569137,200.73555,-92.08892,-1.980254,STD
16568787805000,1.029954,-0.677952014634877,9.98918081721639,-0.736842545619327,0.14202617,0.15790866,0.14813483,200.76308,-92.13175,-1.9885381,STD
16568792798000,1.034947,-0.683206812115808,9.99682416535543,-0.729199201969649,0.13133603,0.14263703,0.14905111,200.79543,-92.17827,-1.9982697,STD
16568797817000,1.039966,-0.688488972852198,10.0045073146264,-0.721516057211441,0.12095132,0.119729586,0.14263703,200.83148,-92.22706,-2.0086207,STD
16568802806000,1.044955,-0.693739560601519,10.0121445395144,-0.713878836809229,0.106595986,0.09682214,0.13561209,200.8718,-92.274704,-2.0181446,STD
16568807793000,1.049942,-0.698988043485037,10.0197787027768,-0.70624467803075,0.106901415,0.04337143,0.13194689,200.92712,-92.324,-2.0279608,STD
16568812823000,1.054972,-0.704281780983351,10.0274786909882,-0.69854469434201,0.118202426,0.004886922,0.121256754,200.9842,-92.37632,-2.040936,STD
16568817810000,1.059959,-0.709530263866868,10.0351128542506,-0.690910535563531,0.12308934,-0.044593163,0.093462385,201.0589,-92.43232,-2.0592055,STD
16568822812000,1.064961,-0.71479453324392,10.0427699797046,-0.683253414607054,0.12736541,-0.07391469,0.07819075,201.13791,-92.4886,-2.0758924,STD
16568828740000,1.070889,-0.721033355488454,10.0518446377795,-0.674178761862153,0.12034045,-0.089186326,0.04917465,201.22554,-92.55238,-2.1032324,STD
16568832812000,1.074961,-0.725318862266413,10.0580781073614,-0.667945295941566,0.124311075,-0.092240654,0.038789943,201.3167,-92.61614,-2.1281168,STD
16568837808000,1.079957,-0.73057681704605,10.0657260479387,-0.660297359856289,0.12095132,-0.08582657,0.025045475,201.40773,-92.68307,-2.160497,STD
16568842801000,1.08495,-0.735831614526981,10.0733693960778,-0.652654016206611,0.105068825,-0.105068825,0.004886922,201.5053,-92.750175,-2.196082,STD
16568847818000,1.089967,-0.741111670397566,10.0810494837232,-0.644973933072135,0.09773844,-0.11026118,-0.002443461,201.59546,-92.81607,-2.2299144,STD
16568852819000,1.094968,-0.746374887341715,10.0887050783644,-0.637318342927525,0.10262536,-0.11453723,-0.0030543262,201.6891,-92.882034,-2.2657676,STD
16568857797000,1.099946,-0.751613898329112,10.0963254643119,-0.629697961455845,0.1142318,-0.1142318,-0.012217305,201.78108,-92.94913,-2.3041928,STD
16568862934000,1.105083,-0.753035398511378,10.103305096728,-0.624217507693109,0.1142318,-0.12797627,-0.017715093,201.8767,-93.012,-2.3399916,STD
16568867811000,1.10996,-0.712972527906703,10.1007429333387,-0.643783098179841,0.13072516,-0.13897185,-0.011301007,201.96983,-93.07699,-2.3730507,STD
16568872789000,1.114938,-0.672079977184933,10.0981277089482,-0.663753881334025,0.13744467,-0.15118915,-0.023518313,202.04787,-93.14618,-2.4329762,STD
16568877817000,1.119966,-0.630776693731928,10.0954862167354,-0.683925254917639,0.13439035,-0.16768251,-0.016493361,202.129,-93.208336,-2.4833305,STD
16568882816000,1.124965,-0.58971163526304,10.0928599598596,-0.703980286052184,0.13255776,-0.1731803,-0.010995574,202.20876,-93.272354,-2.5352023,STD
16568887805000,1.129954,-0.548728723340398,10.0902389565482,-0.723995199100842,0.14569137,-0.17287487,-0.01160644,202.28998,-93.33584,-2.5845985,STD
16568892800000,1.134949,-0.507696523490009,10.0876148010981,-0.744034183001032,0.14172074,-0.16676621,-0.019242255,202.36948,-93.39387,-2.632215,STD
16568898165000,1.140314,-0.463624901428479,10.0847962637629,-0.765557536079014,0.13652839,-0.16890424,-0.016493361,202.4498,-93.44953,-2.6749802,STD
16568902807000,1.144956,-0.425492474660609,10.0823575591384,-0.784180351547419,0.15057829,-0.16584991,-0.017104227,202.52527,-93.508125,-2.7186825,STD
16568907785000,1.149934,-0.384599923938839,10.079742334748,-0.804151134701602,0.16187929,-0.18906279,-0.017715093,202.6074,-93.56253,-2.7599144,STD
16568912864000,1.155013,-0.342877693099975,10.0770740493564,-0.824527110523237,0.1695151,-0.20952678,-0.0076358155,202.68658,-93.61442,-2.7962756,STD
16568917815000,1.159964,-0.302206938053072,10.07447300959,-0.844389574845527,0.1881465,-0.24587326,-0.005192355,202.77538,-93.67001,-2.8335154,STD
16568922808000,1.164957,-0.261191167511931,10.0718499048529,-0.86442053512854,0.20922135,-0.2669481,0.0033597588,202.86432,-93.721794,-2.8643494,STD
16568927904000,1.170053,-0.219329287544447,10.0691726884017,-0.884864711696181,0.22235495,-0.28985557,0.01282817,202.96257,-93.772675,-2.8928046,STD
16568932888000,1.175037,-0.178387448894929,10.0665543118726,-0.904859565701897,0.2302962,-0.30085114,0.020158553,203.06187,-93.82297,-2.9177496,STD
16568937810000,1.179959,-0.137954918832142,10.0639685074431,-0.924605687575117,0.24617869,-0.29168814,0.02321288,203.16031,-93.87399,-2.9395132,STD
16568942797000,1.184946,-0.0969884362187501,10.0613485548446,-0.944612577006598,0.2666427,-0.27488935,0.019242255,203.258,-93.9254,-2.9595947,STD
16568947822000,1.189971,-0.0557097967296193,10.0587086387012,-0.964771915164447,0.27030787,-0.23273966,0.010995574,203.34418,-93.975006,-2.9780445,STD
16568952812000,1.194961,-0.0147186701523531,10.0560871100334,-0.984790840021693,0.25442538,-0.20250183,-0.0033597588,203.42735,-94.02497,-2.997837,STD
16568957781000,1.19993,0.0260999486777945,10.0534766138509,-1.00472551689858,0.26328292,-0.19120082,-0.016187929,203.50256,-94.07989,-3.0178833,STD
16568962839000,1.204988,0.0676496717695405,10.0508193609447,-1.02501724473985,0.24617869,-0.1881465,-0.03145956,203.57013,-94.12845,-3.041105,STD
16568967875000,1.210024,0.109018672459543,10.0481736658804,-1.04522071279218,0.23426682,-0.19028452,-0.04734206,203.6347,-94.1806,-3.0667353,STD
16568972842000,1.214991,0.149820861980441,10.0455642204108,-1.06514736605188,0.21166481,-0.20250183,-0.056199603,203.70012,-94.22715,-3.093416,STD
16568977958000,1.220107,0.19184703504042,10.0428764968308,-1.0856717787913,0.18509217,-0.21594086,-0.06963864,203.76509,-94.27299,-3.124525,STD
16568982851000,1.225,0.23204134011909,10.0403059277382,-1.10530155821545,0.1600467,-0.21960606,-0.07086037,203.82962,-94.312225,-3.153196,STD
16568987845000,1.229994,0.273065325314855,10.0376822976446,-1.12533653030705,0.1328632,-0.226631,-0.07574729,203.89743,-94.34782,-3.1854196,STD
16568992849000,1.234998,0.314171457056867,10.0350534139866,-1.14541162048454,0.112399206,-0.2098322,-0.07574729,203.95818,-94.3777,-3.2147744,STD
16568997837000,1.239986,0.355146154324884,10.0324329360316,-1.16542252172461,0.09590584,-0.19364429,-0.076358154,204.01968,-94.40307,-3.2443013,STD
16569002843000,1.244992,0.396268715376145,10.0298030016607,-1.18550563551927,0.080634214,-0.17867808,-0.08124508,204.07538,-94.424675,-3.27343,STD
16569007833000,1.249982,0.437259841953411,10.0271814729929,-1.20552456037652,0.06719518,-0.16279559,-0.079107046,204.12509,-94.44135,-3.2991908,STD
16569013735000,1.255884,0.485742733548406,10.0240808192459,-1.22920225466659,0.05681047,-0.13408493,-0.08032878,204.16562,-94.45682,-3.325684,STD
16569017940000,1.260089,0.520285356245281,10.0218716953885,-1.24607190978177,0.047647487,-0.1301143,-0.07971791,204.20773,-94.46865,-3.3500779,STD
16569022867000,1.265016,0.560758959581191,10.0192832641768,-1.26583809069793,0.046120327,-0.12736541,-0.08307768,204.24104,-94.48074,-3.3745835,STD
16569027880000,1.270029,0.601939023214826,10.0166496523107,-1.28594928715272,0.05375614,-0.12644911,-0.07788532,204.27307,-94.49059,-3.3955255,STD
16569032926000,1.275075,0.643390170451075,10.0139987036819,-1.30619287329093,0.051618114,-0.12492194,-0.07666359,204.30322,-94.49965,-3.417621,STD
16569037845000,1.279994,0.683798056549987,10.0114144753218,-1.32592695973838,0.07880162,-0.12064589,-0.070554934,204.33174,-94.513084,-3.4359577,STD
16569042863000,1.285012,0.725019193456745,10.0087782366735,-1.34605821523611,0.09590584,-0.121256754,-0.06505715,204.36053,-94.52383,-3.4533877,STD
16569047852000,1.290001,0.766002105379387,10.0061572333621,-1.36607312828477,0.10323623,-0.13041973,-0.06169739,204.38997,-94.53647,-3.4690254,STD
16569052848000,1.294997,0.807042519884401,10.0035325525556,-1.38611612399355,0.112399206,-0.13958271,-0.049785517,204.41922,-94.549,-3.4799929,STD
16569057841000,1.29999,0.848058290425541,10.0009094478184,-1.40614708427656,0.13408493,-0.15821409,-0.04428773,204.45317,-94.565315,-3.4914575,STD
16569063167000,1.305316,0.888824628039498,9.99706697222794,-1.43058116070767,0.14355333,-0.1740966,-0.034513887,204.48863,-94.57698,-3.497816,STD
16569067850000,1.309999,0.828854790919564,9.96016269718165,-1.55052072897552,0.15485434,-0.18478674,-0.025350908,204.52737,-94.59132,-3.502409,STD
16569073142000,1.315291,0.759272532536571,9.91723179634764,-1.67702624713644,0.17959438,-0.1704314,-0.017104227,204.75566,-94.56738,-3.4047365,STD
16569077886000,1.320035,0.676739333431494,9.86510540108997,-1.69005780059279,0.19333886,-0.1414153,-0.014660766,204.97986,-94.54605,-3.306719,STD
16569083421000,1.32557,0.579317116002364,9.80624433602601,-1.7038602466358,0.20891592,-0.09865474,-0.015577064,205.23242,-94.55422,-3.2333627,STD
16569087853000,1.330002,0.478965834339474,9.79788199773421,-1.68713504612353,0.21624629,-0.05222898,-0.017715093,205.4723,-94.56525,-3.1589098,STD
16569092770000,1.334919,0.367632970635405,9.78860455698946,-1.6685795833711,0.22632557,0.00030543262,-0.033292156,205.73296,-94.610306,-3.1275802,STD
16569097856000,1.340005,0.272042164548105,9.78316534995476,-1.62304875891223,0.22479841,0.047036625,-0.055283304,205.97803,-94.6559,-3.0966785,STD
16569102746000,1.344895,0.182589950553936,9.77845724399316,-1.57596863334674,0.20189096,0.065973446,-0.06841691,206.21245,-94.69994,-3.0660212,STD
16569107847000,1.349996,0.14712910062107,9.78633753690626,-1.52008945245236,0.20280726,0.09896017,-0.09285152,206.45709,-94.776566,-3.085177,STD
16569112837000,1.354986,0.119390918208378,9.7955833016349,-1.46461307797233,0.18600847,0.12583824,-0.121256754,206.69354,-94.84528,-3.106403,STD
16569117849000,1.359998,0.118962511894114,9.84152218880979,-1.41526632325278,0.16890424,0.13652839,-0.13683382,206.96213,-94.930405,-3.170299,STD
16569122809000,1.364958,0.123725469640028,9.89391476877569,-1.36763679552793,0.1685988,0.13897185,-0.16065755,207.21954,-95.01933,-3.2403786,STD
16569127864000,1.370013,0.12044415764618,9.93485266729754,-1.33558063127802,0.15699236,0.12461651,-0.17684549,207.51166,-95.11331,-3.3389702,STD
16569132754000,1.374903,0.115779290537902,9.97217161390577,-1.30759145785437,0.14721853,0.110872045,-0.18570304,207.79637,-95.207794,-3.4373426,STD
16569137844000,1.379993,0.126584716635025,9.9945833264723,-1.27523202620108,0.13713925,0.10048734,-0.19761491,208.12294,-95.29869,-3.5560188,STD
16569142821000,1.38497,0.140435094428516,10.0130506286323,-1.24291445230531,0.1337795,0.082161374,-0.19975294,208.44824,-95.38661,-3.669301,STD
16569147858000,1.390007,0.167179327857039,10.0101008020889,-1.21550044275211,0.13713925,0.061391957,-0.19822577,208.81456,-95.48667,-3.806311,STD
16569153119000,1.395268,0.199072331143789,10.000287501339,-1.18851405141452,0.15577064,0.056505036,-0.20158553,209.17276,-95.588455,-3.9391725,STD
16569157835000,1.399984,0.227661459351415,9.99149078468131,-1.16432324709062,0.15577064,0.04886922,-0.1994475,209.57751,-95.696884,-4.089778,STD
16569162901000,1.40505,0.25837234219701,9.98204121585431,-1.13833711165701,0.160963,0.026572637,-0.19303341,209.97809,-95.80742,-4.233818,STD
16569167846000,1.409995,0.293681084456446,9.97264991554155,-1.11729796443644,0.16493362,0.02687807,-0.19120082,210.36478,-95.91555,-4.371791,STD
16569172868000,1.415017,0.332160704186419,9.96303006585659,-1.09805816461646,0.16432275,0.027794369,-0.19058995,210.74844,-96.01988,-4.502437,STD
16569177893000,1.420042,0.378308679020254,9.95378003438531,-1.09480541912388,0.15974127,0.028099801,-0.1777618,211.1223,-96.10625,-4.612375,STD
16569182848000,1.424997,0.427482859891663,9.94483909514838,-1.09927579538389,0.14049901,0.013744468,-0.16920967,211.4913,-96.18783,-4.7181706,STD
16569187842000,1.429991,0.447404453095659,9.94343052492974,-1.15814769351515,0.124311075,-0.013744468,-0.14935656,211.85373,-96.25592,-4.805231,STD
16569192843000,1.434992,0.442419158328302,9.94841590819194,-1.26283865978974,0.118202426,-0.020463986,-0.13133603,212.20625,-96.31849,-4.8855896,STD
16569197830000,1.439979,0.419127807954194,9.94112843660373,-1.35443004966471,0.09040806,-0.013439035,-0.11636983,212.56255,-96.366905,-4.95215,STD
16569202862000,1.445011,0.384326053649025,9.92621361559889,-1.4389485454039,0.09101892,0.01282817,-0.11911872,212.90714,-96.41733,-5.0144057,STD
16569207858000,1.450007,0.332903271720532,9.89034726235741,-1.43090418859316,0.07422013,0.04886922,-0.1142318,213.24377,-96.458786,-5.063686,STD
16569212863000,1.455012,0.273671813312738,9.84478463498099,-1.38078529847909,0.0720821,0.08460484,-0.11148291,213.56548,-96.50212,-5.1102657,STD
16569217798000,1.459947,0.218798531104406,9.80933207785154,-1.34618004598672,0.05589417,0.111177474,-0.106595986,213.87004,-96.54699,-5.1536303,STD
16569223224000,1.465373,0.161304941824583,9.77797184992959,-1.32004661367934,0.055283304,0.12370021,-0.096516706,214.16219,-96.590515,-5.191139,STD
16569227817000,1.469966,0.132497580208914,9.75439985754079,-1.32875437095105,0.03390302,0.14049901,-0.08155051,214.43327,-96.63404,-5.2377067,STD
16569232859000,1.475008,0.113282995724234,9.73038163947473,-1.35757623263032,0.013439035,0.15577064,-0.08307768,214.69516,-96.67725,-5.2828317,STD
16569237843000,1.479992,0.0880365646428444,9.72540433232467,-1.39173693072268,0.006414085,0.1731803,-0.07941248,214.93625,-96.72404,-5.3300467,STD
16569242860000,1.485009,0.0581035008211107,9.73395680811677,-1.43022226806693,0.00061086525,0.19364429,-0.07391469,215.16664,-96.76568,-5.3739114,STD
16569247849000,1.489998,0.0260471954648134,9.72910437233227,-1.4434145770603,-0.0027488936,0.22235495,-0.062308256,215.38864,-96.8118,-5.418447,STD
16569252844000,1.494993,-0.0106008341690927,9.69769168819087,-1.40676657312028,-0.014966198,0.22510384,-0.06658431,215.60696,-96.85598,-5.4632974,STD
16569257831000,1.49998,-0.0545408901606778,9.69623047658,-1.36986576322914,-0.02321288,0.22632557,-0.051923547,215.81264,-96.89658,-5.4992223,STD
16569262843000,1.504992,-0.10595665981303,9.72427551816146,-1.3324725046061,-0.03359759,0.22296582,-0.040927973,216.01424,-96.93482,-5.534895,STD
16569267801000,1.50995,-0.171977912996132,9.74593000981851,-1.3035997809878,-0.03390302,0.22602014,-0.029932396,216.2055,-96.97026,-5.570008,STD
16569272864000,1.515013,-0.258536744570068,9.76035627085193,-1.28436444825945,-0.047647487,0.22479841,-0.019242255,216.39496,-96.99786,-5.5999584,STD
16569277827000,1.519976,-0.341169132999704,9.76221756322179,-1.265547937252,-0.04550946,0.22540927,-0.016493361,216.56895,-97.026405,-5.632149,STD
16569282858000,1.525007,-0.422017566194847,9.74795040005922,-1.24652478818478,-0.06169739,0.22357668,-0.009162978,216.74046,-97.04501,-5.6580496,STD
16569287793000,1.529942,-0.495002575369515,9.73593591859122,-1.23173109538106,-0.053450707,0.23945917,0.0061086523,216.9007,-97.06929,-5.691342,STD
16569292940000,1.535089,-0.56140804804465,9.72644923287144,-1.22224460777521,-0.073303826,0.24373524,0.0070249503,217.06094,-97.08688,-5.7248206,STD
16569297751000,1.5399,-0.616976034086763,9.71742845124671,-1.20564778504967,-0.06261369,0.24129178,0.015577064,217.20428,-97.11411,-5.761717,STD
16569302845000,1.544994,-0.661478190831137,9.70753888343807,-1.17103496893371,-0.06047566,0.24617869,0.0125227375,217.34087,-97.13823,-5.799394,STD
16569307764000,1.549913,-0.691016440245343,9.69684604134484,-1.14773045975466,-0.06719518,0.25381452,0.009773844,217.46918,-97.16578,-5.8424435,STD
16569312875000,1.555024,-0.695464148087233,9.68350310358928,-1.14328275191277,-0.081855945,0.25259277,0.0106901415,217.59569,-97.19129,-5.8833065,STD
16569317877000,1.560026,-0.694901847912183,9.67593902410676,-1.14048101041756,-0.087659165,0.23609942,0.0061086523,217.7124,-97.22026,-5.9301243,STD
16569322891000,1.56504,-0.669063451872579,9.69660963301765,-1.14564868962548,-0.09040806,0.23976462,0.003970624,217.821,-97.24578,-5.9735775,STD
16569327804000,1.569953,-0.655156083356921,9.72268152269082,-1.15708318040381,-0.09896017,0.24098633,0.005192355,217.93199,-97.27436,-6.020009,STD
16569332853000,1.575002,-0.668842260317011,9.76373995829795,-1.18445558196056,-0.09315695,0.25167647,-0.008552114,218.03618,-97.30794,-6.068977,STD
16569337807000,1.579956,-0.680648567385582,9.80193990073873,-1.21432564850132,-0.096516706,0.25625798,-0.03634648,218.1485,-97.33669,-6.117375,STD
16569342836000,1.584985,-0.684738040697971,9.83056638473295,-1.25930989763947,-0.093462385,0.2648101,-0.05009095,218.25397,-97.3665,-6.163381,STD
16569347758000,1.589907,-0.688740503939883,9.85858379459964,-1.30333703509383,-0.09743301,0.26542094,-0.07269296,218.35774,-97.404564,-6.2182364,STD
16569352841000,1.59499,-0.70933686068806,9.83638136958053,-1.30806124786239,-0.092240654,0.269697,-0.08827003,218.45544,-97.444954,-6.272523,STD
16569357802000,1.599951,-0.733233100905341,9.80292643365858,-1.30328199981893,-0.09010262,0.2751948,-0.10354166,218.5498,-97.488335,-6.3308015,STD
16569362864000,1.605013,-0.753395480304387,9.78508716293644,-1.29845046535363,-0.08002335,0.2910773,-0.11301007,218.63902,-97.538284,-6.388151,STD
16569367750000,1.609899,-0.772013750253656,9.77112369133592,-1.29379591001691,-0.09407325,0.3032946,-0.12797627,218.7251,-97.58821,-6.448908,STD
16569372871000,1.61502,-0.795484849361194,9.75648508557214,-1.25334202698507,-0.09987647,0.3115413,-0.1337795,218.80365,-97.64183,-6.5109897,STD
16569377803000,1.619952,-0.818983724059702,9.74238594527363,-1.20634418925373,-0.094989546,0.32803464,-0.14080444,218.87404,-97.69707,-6.574756,STD
16569382852000,1.625001,-0.839439899112282,9.75544743990677,-1.15355592157479,-0.0870483,0.33444872,-0.1459968,218.94302,-97.752594,-6.640496,STD
16569387740000,1.629889,-0.858414948678557,9.77442237059181,-1.10137454022092,-0.0842994,0.3390302,-0.13836098,219.00613,-97.80485,-6.7018013,STD
16569392831000,1.63498,-0.838489998618543,9.77011230859033,-1.08394847164121,-0.080634214,0.31490102,-0.13622294,219.06958,-97.86,-6.769418,STD
16569397758000,1.639907,-0.8109474790466,9.76093128339333,-1.07476763817492,-0.07574729,0.30909783,-0.13439035,219.12505,-97.91225,-6.8321285,STD
16569402840000,1.644989,-0.82817152091373,9.75511692296476,-1.05800561555286,-0.06414085,0.2883284,-0.11942416,219.18608,-97.95815,-6.891702,STD
16569408522000,1.650671,-0.862553072319806,9.74982762303767,-1.0368477254435,-0.050396383,0.24617869,-0.10873401,219.25333,-98.00421,-6.950292,STD
16569412825000,1.654974,-0.888590350690158,9.7458220162819,-1.02082477557716,-0.03970624,0.21899518,-0.09407325,219.32253,-98.042175,-6.9979725,STD
16569417844000,1.659993,-0.918960116002916,9.74114989443499,-1.00213567834751,-0.030543262,0.19608775,-0.07941248,219.40112,-98.077835,-7.04138,STD
16569422925000,1.665074,-0.942130495511084,9.73631787410974,-0.953152123593139,-0.0143553335,0.1872302,-0.08155051,219.47716,-98.11858,-7.0847197,STD
16569427880000,1.670029,-0.961170762714415,9.73155771411375,-0.891271286247367,-0.006414085,0.16340645,-0.07666359,219.56284,-98.15267,-7.1208525,STD
16569432848000,1.674997,-0.973707473370485,9.71068601253856,-0.852139466418549,0.0036651916,0.15607607,-0.07452556,219.63544,-98.19913,-7.169019,STD
16569437851000,1.68,-0.983243293929744,9.68207845128869,-0.823531984826351,0.0012217305,0.13591751,-0.071776666,219.71701,-98.24188,-7.2143292,STD
16569442835000,1.684984,-0.942163320683489,9.66309347208424,-0.795065220349692,0.0015271631,0.14019357,-0.06658431,219.7875,-98.28353,-7.260997,STD
16569447858000,1.690007,-0.875258866888536,9.64875701370952,-0.7663918744546,-0.0030543262,0.1255328,-0.067500606,219.86742,-98.3235,-7.307426,STD
16569452840000,1.694989,-0.824024979159952,9.64699038033844,-0.766004652323731,-0.009773844,0.11942416,-0.062308256,219.93526,-98.36711,-7.355236,STD
16569457796000,1.699945,-0.780998782262289,9.65177066398066,-0.780346736260072,-0.023823744,0.105068825,-0.063224554,220.00793,-98.40926,-7.40356,STD
16569462834000,1.704983,-0.740924740546156,9.66918334965865,-0.813670409260908,-0.032375857,0.09773844,-0.06078109,220.08234,-98.446495,-7.4442163,STD
16569467814000,1.709963,-0.703174694835263,9.69277712822796,-0.856139225467498,-0.03573562,0.1020145,-0.04917465,220.15591,-98.479034,-7.4808273,STD
16569472890000,1.715039,-0.6633854178,9.73616467333333,-0.8802043062,-0.05467244,0.10598512,-0.05589417,220.23338,-98.50691,-7.5138903,STD
16569478341000,1.72049,-0.619882773516667,9.79416836055556,-0.894705207816667,-0.05467244,0.1151481,-0.05681047,220.30676,-98.53141,-7.5404215,STD
16569482864000,1.725013,-0.573911776820652,9.84074953344481,-0.902672113344482,-0.06261369,0.12950343,-0.049785517,220.38084,-98.54795,-7.5578213,STD
16569487810000,1.729959,-0.514505142336957,9.89025502341137,-0.907622662341137,-0.06261369,0.12095132,-0.04520403,220.45728,-98.56551,-7.5753207,STD
16569492784000,1.734933,-0.466715396568945,9.92555858350182,-0.863680430772341,-0.067500606,0.13133603,-0.036957346,220.52689,-98.57284,-7.5806875,STD
16569497778000,1.739927,-0.428036397056207,9.94973293610999,-0.781487551128184,-0.0693332,0.12034045,-0.034513887,220.60365,-98.58025,-7.586197,STD
16569502819000,1.744968,-0.403612660940858,9.9653389803988,-0.722420859926435,-0.073303826,0.11056661,-0.031154128,220.66956,-98.58437,-7.581171,STD
16569507836000,1.749985,-0.389660428132804,9.97464041389991,-0.680564190639822,-0.07727446,0.10476339,-0.022907447,220.73648,-98.58594,-7.5737557,STD
16569512797000,1.754946,-0.385532674058876,9.98641375245317,-0.638655994023194,-0.0720821,0.095294975,-0.0076358155,220.80495,-98.57812,-7.560516,STD
16569517820000,1.759969,-0.390300675531767,10.0007177767866,-0.59574402059669,-0.076358154,0.086132,-0.012217305,220.87352,-98.57139,-7.5505514,STD
16569522816000,1.764965,-0.402134677333333,10.005391552381,-0.55800859847619,-0.087659165,0.073303826,-0.0027488936,220.93927,-98.55199,-7.5289974,STD
16569527826000,1.769975,-0.420977993209622,10.0006806274914,-0.525032783395189,-0.08582657,0.06291912,0.0012217305,221.00557,-98.53657,-7.510532,STD
16569532809000,1.774958,-0.441988618451498,10.0180441063977,-0.496538430764363,-0.08735373,0.054061573,0.0009162979,221.07164,-98.51703,-7.4929423,STD
16569537831000,1.77998,-0.465767289380006,10.0608455700583,-0.472759779699397,-0.092240654,0.034513887,0.00061086525,221.14261,-98.4967,-7.474778,STD
16569542800000,1.784949,-0.476953525636656,10.0655088154725,-0.47289447296065,-0.09101892,0.027183503,-0.008246681,221.202093299391,-98.4807195673772,-7.46191477788352,STD
16569548339000,1.790488,-0.472220228467922,10.0181759920585,-0.506027483947533,-0.08979719,0.0106901415,-0.018020526,221.2684,-98.462906,-7.447576,STD
16569552713000,1.794862,-0.465797249424809,9.98340966924067,-0.540589484110484,-0.07696902,-0.00580322,-0.019547688,221.33311,-98.44927,-7.4382863,STD
16569557731000,1.79988,-0.446766893028413,9.95486454697555,-0.61671091963172,-0.06414085,-0.0061086523,-0.02443461,221.39635,-98.43934,-7.4325643,STD
16569562711000,1.80486,-0.431848931283761,9.9249005437306,-0.691557512281347,-0.056505036,-0.016187929,-0.04184427,221.45494,-98.43408,-7.4253087,STD
16569567710000,1.809859,-0.43735110611424,9.88638509010459,-0.763085819549477,-0.05222898,0.0027488936,-0.039095376,221.5046,-98.42615,-7.412916,STD
16569572745000,1.814894,-0.442565841661222,9.84175086931987,-0.820713650838531,-0.050701816,0.011301007,-0.04642576,221.5588,-98.428375,-7.4033885,STD
16569577754000,1.819903,-0.44731491021582,9.78951117968518,-0.85870610009702,-0.055283304,0.040317107,-0.044593163,221.60118,-98.42703,-7.3894615,STD
16569582679000,1.824828,-0.44766360164384,9.76121231239098,-0.873115636833775,-0.055588737,0.07788532,-0.046731193,221.64024,-98.43212,-7.3771176,STD
16569587729000,1.829878,-0.441414760875703,9.76746111237806,-0.852806914532593,-0.053145275,0.1001819,-0.050396383,221.6749,-98.43656,-7.3642774,STD
16569592746000,1.834895,-0.435206754116545,9.77366907862265,-0.832630902693972,-0.049785517,0.11056661,-0.052839845,221.7046,-98.44431,-7.3520885,STD
16569597733000,1.839882,-0.429035869183733,9.77983992328316,-0.812575536730409,-0.05131268,0.13836098,-0.053145275,221.72272,-98.45175,-7.339449,STD
16569602717000,1.844866,-0.422868696433555,9.78600705578526,-0.792532235354351,-0.04886922,0.16462818,-0.04917465,221.73828,-98.45969,-7.3262405,STD
16569607722000,1.849871,-0.416675538404936,9.79220017339621,-0.772404481865754,-0.036651913,0.1853976,-0.048563786,221.74742,-98.46938,-7.3136086,STD
16569612730000,1.854879,-0.404475787783453,9.80439993156282,-0.747147415628192,-0.046731193,0.183565,-0.033292156,221.75615,-98.47134,-7.29569,STD
16569617730000,1.859879,-0.370237973687436,9.83863792951992,-0.703127395199183,-0.047036625,0.17959438,-0.022907447,221.75978,-98.477234,-7.278728,STD
16569622726000,1.864875,-0.339956381591736,9.87252619803246,-0.666769995523856,-0.04184427,0.16982053,-0.01038471,221.76471,-98.473366,-7.2565136,STD
16569627757000,1.869906,-0.32099685145696,9.90570555641908,-0.652550305853419,-0.047036625,0.17348573,0.005497787,221.76749,-98.464615,-7.230577,STD
16569632732000,1.874881,-0.307530982680578,9.93866107152889,-0.639499678000602,-0.044898596,0.16554448,0.013744468,221.77252,-98.449905,-7.198266,STD
16569637728000,1.879877,-0.312330911733547,9.97226027417737,-0.629899834930779,-0.047647487,0.13561209,0.016493361,221.78342,-98.431625,-7.1641955,STD
16569642744000,1.884893,-0.325746193453028,10.0025022293284,-0.625729626784744,-0.04337143,0.10170906,0.023518313,221.79906,-98.409164,-7.1250067,STD
16569647795000,1.889944,-0.36799697511646,10.0212802434006,-0.639813245182453,-0.041233405,0.08735373,0.027183503,221.81776,-98.38671,-7.0870504,STD
16569652743000,1.894892,-0.409211778858088,10.0336164812773,-0.657797861359467,-0.03390302,0.07849618,0.027183503,221.84111,-98.35994,-7.0454636,STD
16569657740000,1.899889,-0.449992779551857,10.0168244671913,-0.696179966398316,-0.034208454,0.062308256,0.01985312,221.87053,-98.33409,-7.0064054,STD
16569662741000,1.90489,-0.490806424632814,10.0000190114291,-0.734592795555667,-0.041233405,0.040011674,0.011911872,221.90514,-98.306915,-6.9701576,STD
16569667752000,1.909901,-0.531701680681738,9.98317995147626,-0.773082435009274,-0.042760566,0.032070424,0.0027488936,221.93977,-98.283394,-6.9372005,STD
16569672722000,1.914871,-0.5650316,9.96164554149508,-0.806507147793227,-0.053145275,0.03023783,0.0021380284,221.97864,-98.25795,-6.9050975,STD
16569677831000,1.91998,-0.5650316,9.91660758156097,-0.818359265440628,-0.058643065,0.032070424,-0.0070249503,222.01782,-98.237885,-6.8786874,STD
16569682816000,1.924965,-0.5650316,9.87266273320091,-0.829923721591008,-0.056505036,0.03634648,-0.006414085,222.05476,-98.22762,-6.8591957,STD
16569687810000,1.929959,-0.5650316,9.82863854609757,-0.84150905639843,-0.0580322,0.040011674,-0.01740966,222.09041,-98.22104,-6.8457446,STD
16569692863000,1.935012,-0.563566421720174,9.78859586841062,-0.851969505430044,-0.062308256,0.04520403,-0.017715093,222.12405,-98.22062,-6.835319,STD
16569697819000,1.939968,-0.54475444359889,9.80270465556877,-0.847266510899723,-0.06383542,0.05681047,-0.021380283,222.15404,-98.22361,-6.8286257,STD
16569702941000,1.94509,-0.525341815639856,9.81795522819443,-0.841376416000776,-0.06963864,0.04734206,-0.014966198,222.18456,-98.22732,-6.819662,STD
16569707789000,1.949938,-0.507323619462501,9.84047794401863,-0.82335822452702,-0.065973446,0.05375614,-0.007941248,222.20688,-98.232704,-6.810807,STD
16569713259000,1.955408,-0.487220383898108,9.8644529400578,-0.803767893094994,-0.071776666,0.04795292,-0.004581489,222.23766,-98.2405,-6.805102,STD
16569717811000,1.95996,-0.472996678164911,9.86851693782045,-0.7956400545791,-0.061391957,0.048563786,0.0009162979,222.26471,-98.24892,-6.7963037,STD
16569722783000,1.964932,-0.457460591850005,9.87295590901464,-0.786762283686958,-0.059864793,0.04520403,0.011301007,222.29488,-98.24956,-6.7829113,STD
16569727817000,1.969966,-0.441730773163513,9.87745023342966,-0.777773808491657,-0.065973446,0.0421497,0.02107485,222.32465,-98.24919,-6.768034,STD
16569732849000,1.974998,-0.426007203908362,9.88194277225692,-0.768788904402909,-0.06841691,0.03359759,0.02321288,222.35675,-98.24884,-6.7526093,STD
16569737808000,1.979957,-0.436368305828458,9.88026717748178,-0.775137801652417,-0.06627888,0.023518313,0.02687807,222.39015,-98.24551,-6.7341795,STD
16569742826000,1.984975,-0.457993903196832,9.87594196948969,-0.788113186267663,-0.057726767,0.0290161,0.034208454,222.42137,-98.24143,-6.7140293,STD
16569747817000,1.989966,-0.474095139585943,9.87127214353965,-0.79729077348657,-0.062308256,0.027794369,0.025961773,222.45975,-98.230286,-6.691615,STD
16569752809000,1.994958,-0.484246421140248,9.86619640471388,-0.802366401013908,-0.058643065,0.018020526,0.03604105,222.49927,-98.2162,-6.6623135,STD
16569757788000,1.999937,-0.498599957807535,9.85901949641398,-0.809543157258284,-0.05955936,0.021380283,0.02565634,222.53342,-98.21047,-6.644078,STD
16569762859000,2.005008,-0.516235551520654,9.85020152691784,-0.818360942605538,-0.06261369,0.022296581,0.01863139,222.571,-98.20202,-6.62256,STD
16569768324000,2.010473,-0.524427716672542,9.83577037220917,-0.828198707469644,-0.04795292,0.017104227,0.0106901415,222.60551,-98.19122,-6.598211,STD
16569772826000,2.014975,-0.520205720616921,9.8188825819624,-0.836642664312574,-0.059253927,0.018325957,0.007941248,222.63757,-98.176254,-6.574569,STD
16569777822000,2.019971,-0.512298116257418,9.80018413318416,-0.834676619218796,-0.060170226,0.010995574,0.0018325958,222.67215,-98.17067,-6.557182,STD
16569782818000,2.024967,-0.498334011924312,9.78156541813406,-0.811403089315109,-0.058337633,0.010079277,-0.00030543262,222.70424,-98.16347,-6.5394397,STD
16569787792000,2.029941,-0.479531966534994,9.7670736625151,-0.799952217883632,-0.055283304,0.0125227375,0.0012217305,222.73528,-98.14363,-6.5111094,STD
16569792800000,2.034949,-0.448327900060415,9.76261584896366,-0.817783113676922,-0.05497787,0.011911872,0.00030543262,222.76704,-98.125206,-6.4846654,STD
16569797801000,2.03995,-0.420817234035088,9.7576415056453,-0.831495403279486,-0.05497787,0.01282817,0.003970624,222.797,-98.10708,-6.4580417,STD
16569802860000,2.045009,-0.416609388596491,9.74922609597012,-0.818871875751259,-0.051618114,0.02443461,-0.0012217305,222.82355,-98.09231,-6.4344144,STD
16569807789000,2.049938,-0.41250967122807,9.74102693520931,-0.806572732207747,-0.051618114,0.028405234,0.00030543262,222.84741,-98.0751,-6.4016023,STD
16569812917000,2.055066,-0.397883006946561,9.75353254016405,-0.792520606329175,-0.056199603,0.03970624,-0.004276057,222.86551,-98.06075,-6.372197,STD
16569817769000,2.059918,-0.382095663876135,9.76931973251468,-0.778988591927389,-0.046120327,0.040927973,0.006414085,222.8858,-98.045654,-6.338798,STD
16569822803000,2.064952,-0.365716132751541,9.78569910726593,-0.764948987537737,-0.04337143,0.039095376,0.01038471,222.90303,-98.0304,-6.3090105,STD
16569827924000,2.070073,-0.349053522721934,9.80236155821968,-0.750666743978062,-0.042455133,0.051618114,0.014660766,222.91612,-98.01466,-6.276411,STD
16569832814000,2.074963,-0.353757772232737,9.82463551454609,-0.74399332467578,-0.04550946,0.051618114,0.017715093,222.94061,-98.010765,-6.2555976,STD
16569838426000,2.080575,-0.367886331384508,9.85289271153172,-0.739283808236944,-0.03390302,0.054061573,0.01740966,222.96077,-98.00954,-6.2344875,STD
16569842787000,2.084936,-0.377756701213038,9.86517633199479,-0.747001894397914,-0.042455133,0.05009095,0.017715093,222.98674,-97.996956,-6.2089806,STD
16569847823000,2.089972,-0.387817465746023,9.86769157434159,-0.769638618536636,-0.040317107,0.05009095,0.016798794,223.01071,-97.988914,-6.1841626,STD
16569852810000,2.094959,-0.397780339599478,9.87018234352021,-0.792055088608083,-0.045814894,0.055588737,0.009162978,223.03716,-97.982635,-6.166896,STD
16569857782000,2.099931,-0.407713246918383,9.87266562091265,-0.814404133965059,-0.041233405,0.05467244,0.014049901,223.06546,-97.97608,-6.146692,STD
16569862850000,2.104999,-0.417420455341748,9.86807011320388,-0.829223141207767,-0.048258353,0.05100725,0.010079277,223.09227,-97.970085,-6.1312866,STD
16569867812000,2.109961,-0.426647665287379,9.85884272019417,-0.83845036078835,-0.045814894,0.054367006,0.011301007,223.11734,-97.96449,-6.1130466,STD
16569872807000,2.114956,-0.432167362492327,9.84363446286065,-0.842759,-0.048563786,0.055588737,0.014049901,223.1448,-97.96215,-6.097464,STD
16569877838000,2.119987,-0.434442513873542,9.82315814794352,-0.842759,-0.045814894,0.05681047,0.010079277,223.1709,-97.96238,-6.0834537,STD
16569882810000,2.124959,-0.436690983892903,9.80292196472588,-0.842759,-0.038789943,0.058643065,0.004581489,223.19609,-97.96408,-6.0702543,STD
16569887807000,2.129956,-0.438950759574066,9.78258403078812,-0.842759,-0.040927973,0.053450707,0.0027488936,223.22273,-97.96453,-6.05735,STD
16569892783000,2.134932,-0.442031032638992,9.76085336026686,-0.838265209903632,-0.04734206,0.05497787,0.007941248,223.25125,-97.96175,-6.0433416,STD
16569897825000,2.139974,-0.447144489894101,9.73528615408239,-0.822924864835328,-0.04337143,0.05100725,0.008857546,223.2823,-97.96171,-6.0313416,STD
16569902810000,2.144959,-0.45506618578646,9.72244154288871,-0.811054808805243,-0.038179077,0.0421497,-0.0027488936,223.3134,-97.96328,-6.02272,STD
16569907877000,2.150026,-0.467251216388108,9.72731565488148,-0.803743796042587,-0.042455133,0.040927973,-0.0027488936,223.34344,-97.961044,-6.01045,STD
16569912834000,2.154983,-0.479171720965247,9.73208395429891,-0.796591498773102,-0.044593163,0.046731193,0.0009162979,223.37231,-97.96156,-6.001835,STD
16569917819000,2.159968,-0.491159559439534,9.73687918782644,-0.789398801196264,-0.03970624,0.048258353,0.004581489,223.40236,-97.96252,-5.993285,STD
16569922784000,2.164933,-0.488184261077391,9.75236554530541,-0.778431385603107,-0.044898596,0.04734206,0.006414085,223.43489,-97.9733,-5.9946766,STD
16569927833000,2.169982,-0.464854482758854,9.78269413750844,-0.762100535664383,-0.029321533,0.051618114,0.0067195175,223.46513,-97.988,-5.9949174,STD
16569932786000,2.174935,-0.44196828905481,9.81244607198688,-0.746080195053073,-0.032986723,0.04795292,0.0061086523,223.49509,-98.00188,-6.000989,STD
16569937807000,2.179956,-0.418767889582167,9.84260647235357,-0.729839910334845,-0.042455133,0.042455133,0.009773844,223.52406,-98.01594,-6.0051765,STD
16569942754000,2.184903,-0.407496737548062,9.87201730971313,-0.728802219223956,-0.03848451,0.040011674,0.008246681,223.55267,-98.03245,-6.0105367,STD
16569947822000,2.189971,-0.427037853900352,9.90132907096125,-0.767884467232008,-0.03940081,0.024740042,0.0125227375,223.58636,-98.04368,-6.0132303,STD
16569952743000,2.194892,-0.445858860908913,9.91757760111535,-0.792212097192056,-0.0290161,0.02076942,0.015882496,223.61975,-98.05521,-6.0134263,STD
16569957793000,2.199942,-0.464785738171412,9.90338216524802,-0.782748685735251,-0.023823744,0.029932396,0.017104227,223.65324,-98.06462,-6.0126305,STD
16569962816000,2.204965,-0.488100717912078,9.89631370822256,-0.786139307102165,-0.027488936,0.032986723,0.021380283,223.68423,-98.07258,-6.0059056,STD
16569967815000,2.209964,-0.524465666217243,9.90995083972655,-0.827049847246487,-0.028099801,0.03176499,0.02107485,223.71342,-98.08241,-5.999826,STD
16569972796000,2.214945,-0.557212065629454,9.91981470011876,-0.863084108788599,-0.029321533,0.044898596,0.016187929,223.73557,-98.092224,-5.9963818,STD
16569977889000,2.220038,-0.569625039070241,9.90740148473023,-0.871359412894469,-0.028099801,0.045814894,0.0125227375,223.76129,-98.10174,-5.992793,STD
16569982751000,2.2249,-0.581475005076349,9.89555128775025,-0.879259379233118,-0.036957346,0.040011674,0.01863139,223.78487,-98.1132,-5.9909782,STD
16569987807000,2.229956,-0.59148819808198,9.88553827068832,-0.855505831461717,-0.036957346,0.042760566,0.015882496,223.80516,-98.12864,-5.992134,STD
16569992782000,2.234931,-0.600700220510441,9.87632653683295,-0.823263733723898,-0.03268129,0.034513887,0.0106901415,223.83014,-98.14194,-5.9924297,STD
16569997821000,2.23997,-0.599957912462636,9.86354500556804,-0.803885780918238,-0.036957346,0.028405234,0.010079277,223.859,-98.15641,-5.9973555,STD
16570002835000,2.244984,-0.595267273095634,9.84947279359187,-0.789813867715151,-0.028710667,0.029626964,0.011301007,223.88759,-98.17414,-6.0026903,STD
16570007785000,2.249934,-0.596934996049187,9.83226524206664,-0.788471126049187,-0.03726278,0.030543262,0.010995574,223.91519,-98.18619,-6.0108624,STD
16570012851000,2.255,-0.601746188909163,9.81302057110274,-0.793282318909163,-0.0421497,0.02107485,0.010079277,223.94502,-98.199776,-6.018537,STD
16570017815000,2.259964,-0.598547274913999,9.79387257760414,-0.788486213772388,-0.033292156,0.010995574,0.0143553335,223.96973,-98.2071,-6.019163,STD
16570022803000,2.264952,-0.591276107694962,9.77448292658177,-0.778791319928966,-0.043982297,0.00030543262,0.008246681,223.9966,-98.211716,-6.022941,STD
16570027829000,2.269978,-0.583949546659902,9.75494555969354,-0.769022567632046,-0.038179077,0.00030543262,0.011301007,224.011082033595,-98.2162664258026,-6.02323049080608,STD
16570032864000,2.275013,-0.576609866036836,9.73537320746867,-0.759236322543508,-0.032986723,-0.0027488936,0.018020526,224.02559,-98.220825,-6.0235205,STD
16570037808000,2.279957,-0.552858777360697,9.73505507098479,-0.768279039164425,-0.040011674,-0.0061086523,0.012217305,224.05658,-98.22849,-6.0300975,STD
16570042811000,2.28496,-0.522387379414901,9.74208683019422,-0.78468672044127,-0.049480084,-0.004276057,0.016187929,224.08867,-98.23027,-6.029125,STD
16570047816000,2.289965,-0.491903800218678,9.74912140042072,-0.801100960855144,-0.051923547,-0.0030543262,0.021991149,224.1211,-98.23078,-6.028127,STD
16570052807000,2.294956,-0.461505489775451,9.75613629352771,-0.817469287309818,-0.047036625,-0.0067195175,0.03145956,224.15405,-98.22922,-6.024794,STD
16570057919000,2.300068,-0.441535774969613,9.77877246022099,-0.829321469322284,-0.04734206,0.0106901415,0.027488936,224.17989,-98.2278,-6.0228324,STD
16570062845000,2.304994,-0.428503905892265,9.80918030441989,-0.838009391112339,-0.051923547,0.017715093,0.03573562,224.20984,-98.22199,-6.014971,STD
16570067811000,2.30996,-0.414610817924959,9.83031631021974,-0.845015225787728,-0.04550946,0.019242255,0.037873644,224.23706,-98.21383,-5.9949875,STD
16570072817000,2.314966,-0.399703636900912,9.84025411266584,-0.849984282669983,-0.046731193,0.022602014,0.034513887,224.2616,-98.20304,-5.9743476,STD
16570077875000,2.320024,-0.382054807185025,9.83966003229456,-0.84703866635812,-0.04184427,0.025350908,0.028099801,224.28705,-98.194305,-5.951655,STD
16570082894000,2.325043,-0.362280669863211,9.82977327851486,-0.8371516028592,-0.050396383,0.029321533,0.03176499,224.31117,-98.181564,-5.927312,STD
16570087806000,2.329955,-0.352977242050071,9.81898092449953,-0.840005275500467,-0.038789943,0.028099801,0.037873644,224.33405,-98.17053,-5.8985896,STD
16570093441000,2.33559,-0.350322902337317,9.80570925365206,-0.853276946347941,-0.03970624,0.021991149,0.035430185,224.35695,-98.15679,-5.871855,STD
16570097810000,2.339959,-0.34826490585018,9.79541929270572,-0.86356690729428,-0.040011674,0.018020526,0.030543262,224.3803,-98.14315,-5.8424397,STD
16570102808000,2.344957,-0.345910621931041,9.78364789769318,-0.875338302306822,-0.038179077,0.019547688,0.028710667,224.40369,-98.13006,-5.8134594,STD
16570107786000,2.349935,-0.32056199613533,9.75775081081975,-0.877032362163951,-0.030543262,0.008857546,0.029626964,224.4315,-98.118904,-5.7860656,STD
16570112863000,2.355012,-0.272298502929936,9.7175312611465,-0.868988452229299,-0.043982297,0.004581489,0.01863139,224.45647,-98.10703,-5.762863,STD
16570117797000,2.359946,-0.227072736352771,9.6798431485679,-0.864683224129405,-0.042760566,-0.016493361,0.02321288,224.49347,-98.10851,-5.7433996,STD
16570122827000,2.364976,-0.197294452281063,9.65502792911601,-0.894461513383474,-0.032375857,-0.0009162979,0.024740042,224.52046,-98.111885,-5.7270722,STD
16570127953000,2.370102,-0.167007642160179,9.62530987650296,-0.921165074699409,-0.044898596,0.0143553335,0.024129177,224.56041,-98.11206,-5.7097673,STD
16570132815000,2.374964,-0.138540696564092,9.57786500020379,-0.930654049959242,-0.052534413,0.015577064,0.011911872,224.59921,-98.11726,-5.6954045,STD
16570137813000,2.379962,-0.106900792400811,9.53582631682595,-0.947439145781446,-0.050396383,0.028099801,0.013133603,224.63681,-98.11804,-5.672202,STD
16570142797000,2.384946,-0.0654318050622647,9.52200304199247,-0.993515790361039,-0.057726767,0.040927973,0.016493361,224.67325,-98.117386,-5.651986,STD
16570147792000,2.389941,-0.0251632231117995,9.51537460182232,-1.03276630240547,-0.067500606,0.017104227,0.02076942,224.71866,-98.11351,-5.6267166,STD
16570152813000,2.394962,0.00550611862733485,9.56356933940775,-1.01962230801822,-0.07422013,0.05497787,0.017715093,224.74232,-98.10977,-5.600808,STD
16570157766000,2.399915,0.0357601018246925,9.61111136993166,-1.0066563243098,-0.08857546,0.086437434,0.017104227,224.77962,-98.10229,-5.566723,STD
16570163478000,2.405627,0.0462437665338585,9.69447933180301,-0.992337144699499,-0.089491755,0.105068825,0.01863139,224.8095,-98.09679,-5.532774,STD
16570167999000,2.410148,0.0530201773426544,9.76224338564274,-0.98104313572621,-0.087964594,0.106901415,0.021685716,224.83513,-98.08909,-5.498826,STD
16570172804000,2.414953,0.0602222684588377,9.83426423914858,-0.969039660141903,-0.08979719,0.09865474,0.018020526,224.85835,-98.073555,-5.458566,STD
16570177850000,2.419999,0.0675068983499607,9.90804899744698,-0.958619196307934,-0.10476339,0.08399397,0.024740042,224.88333,-98.05368,-5.415621,STD
16570182818000,2.424967,0.0721786935455617,9.96411071150825,-0.967962782796544,-0.108123146,0.06169739,0.02565634,224.91257,-98.03838,-5.376782,STD
16570187893000,2.430042,0.07431939063326,10.0186514570144,-0.980768695008129,-0.13041973,0.025045475,0.03176499,224.95288,-98.00947,-5.335393,STD
16570192791000,2.43494,0.0429193337330018,10.0365942404131,-1.03459737308023,-0.13316862,-0.020463986,0.032375857,225.0016,-97.985825,-5.2971945,STD
16570198189000,2.440338,0.0086111856776538,10.0542951230423,-1.09561848254683,-0.13255776,-0.050396383,0.039095376,225.05688,-97.956505,-5.2555175,STD
16570202847000,2.444996,-0.014220611883202,10.0223304384277,-1.18694560794349,-0.14660765,-0.08307768,0.03756821,225.12485,-97.92603,-5.218285,STD
16570208153000,2.450302,-0.0384807310698803,9.98600644031058,-1.29300823189906,-0.14446963,-0.09254608,0.039095376,225.19502,-97.90508,-5.181726,STD
16570212872000,2.455021,-0.0405694190947913,9.95467613629431,-1.40997480927578,-0.13041973,-0.093462385,0.03634648,225.27072,-97.88575,-5.1480823,STD
16570217817000,2.459966,-0.0427581375273374,9.9218453769469,-1.53254309177797,-0.12064589,-0.074830994,0.046120327,225.3526,-97.87078,-5.111368,STD
16570222855000,2.465004,-0.0449880189152378,9.88839717359153,-1.65741650072561,-0.101098195,-0.029932396,0.05100725,225.42575,-97.8631,-5.0763946,STD
16570227820000,2.469969,-0.0471855895962472,9.8554336305865,-1.7804805093451,-0.08032878,0.0070249503,0.058643065,225.49513,-97.856186,-5.037981,STD
16570232796000,2.474945,-0.0412149087726202,9.81828066308023,-1.81625874047546,-0.047647487,0.069027774,0.06383542,225.54384,-97.856346,-4.997344,STD
16570237782000,2.479931,-0.0314290793400963,9.77913757423917,-1.81136582882467,-0.033292156,0.12797627,0.06658431,225.58249,-97.85664,-4.954901,STD
16570242849000,2.484998,-0.000982670658818914,9.76140592250343,-1.73024170235433,-0.021380283,0.16523905,0.06811147,225.62529,-97.88818,-4.9036016,STD
16570247837000,2.489986,0.0365053503904257,9.75203372787914,-1.62246361712772,-0.0076358155,0.18173242,0.07391469,225.65788,-97.922226,-4.85004,STD
16570252848000,2.494997,0.0777740423328044,9.76579454819516,-1.5166854185839,-0.029321533,0.18967366,0.08246681,225.68352,-97.94985,-4.7945085,STD
16570257843000,2.499992,0.120467951858786,9.78951336810789,-1.41232251190004,-0.03970624,0.17898351,0.08582657,225.71059,-97.983055,-4.7399225,STD
16570262818000,2.504967,0.130856388104322,9.84535662801788,-1.32111974637854,-0.05131268,0.16462818,0.09285152,225.73721,-97.99375,-4.6808662,STD
16570267857000,2.510006,0.126061798378539,9.91727539880775,-1.2348172214307,-0.054367006,0.15210545,0.099265605,225.76697,-98.00404,-4.622552,STD
16570272824000,2.514973,0.0987109330052205,9.97797384572457,-1.14937199983798,-0.07513642,0.14355333,0.0983493,225.7968,-97.995636,-4.5636263,STD
16570277878000,2.520027,0.0595020542291629,10.0346091243924,-1.06224113081908,-0.09010262,0.13683382,0.08827003,225.82974,-97.98915,-4.507263,STD
16570282847000,2.524996,0.00932365790654594,10.0808303866167,-0.99507595454782,-0.09590584,0.13103059,0.07513642,225.86461,-97.96389,-4.453336,STD
16570287845000,2.529994,-0.055432657841815,10.1156988355708,-0.950244664351129,-0.096516706,0.12889257,0.06688975,225.8999,-97.93848,-4.4024124,STD
16570292832000,2.534981,-0.118618946839115,10.1172944642644,-0.908994751809211,-0.099265605,0.12614368,0.054367006,225.92407,-97.901535,-4.360576,STD
16570297853000,2.540002,-0.18093024252193,10.0885355756579,-0.870649341776316,-0.11484267,0.122783914,0.026572637,225.94792,-97.86654,-4.3267784,STD
16570302902000,2.545051,-0.220964177379603,10.0491144449616,-0.82151250713274,-0.11056661,0.12217305,0.0067195175,225.95938,-97.83316,-4.300067,STD
16570307828000,2.549977,-0.240055776501416,10.0013854720761,-0.764237689832052,-0.13225232,0.10415252,-0.032070424,225.97493,-97.798515,-4.288144,STD
16570312866000,2.555015,-0.218749178869507,9.94374335288165,-0.724810861372398,-0.13408493,0.08857546,-0.06078109,225.98038,-97.77377,-4.2892485,STD
16570317858000,2.560007,-0.163459184975906,9.87923825496338,-0.701773377949113,-0.15607607,0.05955936,-0.0852157,225.99329,-97.74549,-4.301175,STD
16570322853000,2.565002,-0.104897328359251,9.81802364845392,-0.691774557680376,-0.16218472,0.040927973,-0.10995574,226.00198,-97.72213,-4.326106,STD
16570327867000,2.570016,-0.0424300568790153,9.76036189582708,-0.696579728820174,-0.18142697,0.018936822,-0.13469578,226.01845,-97.69555,-4.358365,STD
16570332846000,2.574995,0.0347578078304013,9.71451880332081,-0.721274207762404,-0.18112154,0.01985312,-0.14935656,226.04259,-97.66497,-4.3865294,STD
16570337849000,2.579998,0.129465783063748,9.68137083791263,-0.768628196120775,-0.18448131,0.0290161,-0.17531833,226.06836,-97.63637,-4.424368,STD
16570342830000,2.584979,0.241727565789474,9.66505901520468,-0.803118865111111,-0.2003638,0.04520403,-0.18570304,226.09212,-97.602844,-4.4498286,STD
16570347838000,2.589987,0.377288854210526,9.66973363664717,-0.821816975037037,-0.20311269,0.07849618,-0.19639318,226.10654,-97.57726,-4.4810743,STD
16570352801000,2.59495,0.503116173386176,9.68162279401339,-0.834991758802678,-0.19639318,0.10934488,-0.19883664,226.12456,-97.55163,-4.4971986,STD
16570357826000,2.599975,0.616838400074833,9.70531490705002,-0.839730181410004,-0.1853976,0.14752395,-0.20952678,226.12967,-97.53058,-4.516975,STD
16570362842000,2.604991,0.749524274813604,9.73633976437545,-0.837465392221428,-0.18906279,0.17928895,-0.20769419,226.13129,-97.50015,-4.5094657,STD
16570367848000,2.609997,0.91600478430191,9.78040800520887,-0.822775924073128,-0.1908954,0.19822577,-0.2098322,226.12506,-97.47597,-4.5055933,STD
16570372773000,2.614922,1.08626259432853,9.85041675404055,-0.799439617866588,-0.18753563,0.22602014,-0.20463985,226.11374,-97.44409,-4.480942,STD
16570377876000,2.620025,1.27295546694093,9.965304483397,-0.761143644766383,-0.1863139,0.25259277,-0.18967366,226.09767,-97.41083,-4.454299,STD
16570382747000,2.624896,1.47231329290139,10.0075282140399,-0.668220240405073,-0.17745635,0.2678644,-0.17256944,226.08493,-97.36729,-4.4019084,STD
16570387854000,2.630003,1.72236292885655,9.9209728238128,-0.461448420070789,-0.17654006,0.28313604,-0.15393804,226.06529,-97.32046,-4.3453875,STD
16570392759000,2.634908,1.89825221403826,9.86701631144493,-0.324158775176396,-0.18967366,0.27214047,-0.13897185,226.05391,-97.2529,-4.2568946,STD
16570397855000,2.640004,1.93646009554729,9.87656822571806,-0.31938278811763,-0.18600847,0.22999077,-0.13408493,226.04738,-97.18981,-4.168651,STD
16570402768000,2.644917,1.97329591223761,9.88577712580124,-0.31477830922836,-0.20891592,0.20738874,-0.112704635,226.04123,-97.079155,-4.042529,STD
16570407836000,2.649985,2.01129386033175,9.89527655702892,-0.31002856385673,-0.23182335,0.24831672,-0.099265605,226.02832,-96.97195,-3.918714,STD
16570412825000,2.654974,2.03769240443421,9.91542241865822,-0.298871930993378,-0.23151793,0.28405234,-0.09254608,226.02324,-96.86482,-3.7937272,STD
16570418503000,2.660652,2.02725434504271,9.97805099299357,-0.262338701324503,-0.24556783,0.29168814,-0.079107046,226.01468,-96.748245,-3.6650193,STD
16570422824000,2.664973,2.01349867278136,10.0245475272186,-0.235095659905801,-0.27000242,0.28985557,-0.070249505,225.9977,-96.62587,-3.5236702,STD
16570427867000,2.670016,1.96560992473971,10.0724362752603,-0.206362386078334,-0.30665436,0.29718593,-0.06505715,225.97586,-96.49862,-3.3818123,STD
16570432818000,2.674967,1.91888431207846,10.1158597646249,-0.17645579672746,-0.33536503,0.30665436,-0.055283304,225.95177,-96.36453,-3.2410233,STD
16570437850000,2.679999,1.87328077312457,10.1365886262904,-0.134998043093599,-0.344528,0.30757064,-0.057726767,225.92761,-96.23067,-3.105209,STD
16570442772000,2.684921,1.82867413188231,10.1568643530626,-0.0944465599088094,-0.37110063,0.3222314,-0.06688975,225.88734,-96.09194,-2.9791164,STD
16570447851000,2.69,1.80815109615122,10.1648057493406,-0.0213520594551138,-0.39278635,0.33964106,-0.06352998,225.84625,-95.9541,-2.8530116,STD
16570452769000,2.694918,1.79434860448374,10.1694061955651,0.0568621147611605,-0.4260785,0.35735616,-0.064446285,225.80055,-95.81194,-2.7332778,STD
16570457824000,2.699973,1.7599075536651,10.1905979434028,0.0802562568787274,-0.4560109,0.37812558,-0.06872234,225.74696,-95.663376,-2.6255827,STD
16570462813000,2.704962,1.7194050037399,10.2168054932682,0.0850212593864566,-0.4972443,0.40958515,-0.062002823,225.68568,-95.50566,-2.517203,STD
16570467841000,2.70999,1.6785858373691,10.2432179127356,0.089823510861474,-0.5390886,0.46028697,-0.048563786,225.60866,-95.333305,-2.4134574,STD
16570472852000,2.715001,1.6379046832951,10.2695410300688,0.0946095256071607,-0.59620446,0.5204572,-0.028710667,225.52057,-95.148636,-2.3079336,STD
16570477884000,2.720033,1.5991307140781,10.3518452161147,0.16085248367217,-0.63438356,0.5867361,0.009162978,225.41798,-94.95839,-2.1958456,STD
16570482873000,2.725022,1.56134235603559,10.4510402478497,0.245876356346812,-0.6927212,0.6267477,0.050396383,225.3068,-94.74972,-2.0797284,STD
16570488498000,2.730647,1.47433766983317,10.5338411167812,0.426418817585869,-0.71593404,0.7076874,0.10903945,225.16287,-94.54156,-1.9633139,STD
16570492842000,2.734991,1.39676836667321,10.5909973287537,0.58564001656526,-0.8023715,0.7305948,0.13897185,225.02525,-94.30562,-1.8478045,STD
16570497832000,2.739981,1.24912118867739,10.6566443518446,0.856346148802983,-0.8368854,0.74464476,0.22418754,224.8614,-94.06059,-1.7099319,STD
16570502817000,2.744966,1.07580933904042,10.7222216551217,1.16549699853807,-0.9111055,0.7284568,0.3231477,224.70148,-93.78376,-1.5644135,STD
16570507834000,2.749983,0.885329662368394,10.7356787116298,1.35603497836718,-1.0076222,0.71837753,0.43157628,224.52444,-93.463875,-1.4116133,STD
16570512811000,2.75496,0.687874431349904,10.7212309789835,1.48125045490553,-1.1301007,0.73975784,0.5448918,224.34541,-93.11324,-1.2344507,STD
16570517790000,2.759939,0.591746453605538,10.6409795511259,1.5702287267502,-1.2611313,0.77182823,0.66523224,224.14601,-92.690575,-1.0609818,STD
16570522880000,2.765029,0.544764460255849,10.5256600330325,1.64283728909139,-1.398576,0.8191703,0.79809546,223.9378,-92.229774,-0.85779613,STD
16570527753000,2.769902,0.529559973674574,10.4064499890737,1.6908376064967,-1.559539,0.8668178,0.9263771,223.70647,-91.71581,-0.66056216,STD
16570532813000,2.774962,0.562950146132493,10.2681190824884,1.70514765906093,-1.704925,0.9202685,1.0598512,223.4606,-91.16693,-0.43184963,STD
16570537753000,2.779902,0.595422713731586,10.1988741666559,1.7570578295931,-1.8616118,0.95630956,1.1997393,223.19962,-90.561134,-0.18216488,STD
16570542838000,2.784987,0.628606542956389,10.254180677948,1.88347243440197,-2.032654,0.97035944,1.3396275,222.92876,-89.88885,0.09537849,STD
16570547793000,2.789942,0.660942014698553,10.308073256798,2.00665520073983,-2.1792617,0.9419542,1.4828753,222.65585,-89.20223,0.4175503,STD
16570552847000,2.794996,0.693923543292881,10.3630425995847,2.13229913637485,-2.2852468,0.8546005,1.6194037,222.3931,-88.468346,0.76524794,STD
16570558297000,2.800446,0.729489299295866,10.422318998118,2.26778774919852,-2.3619106,0.7678576,1.7626517,222.13287,-87.68214,1.1566292,STD
16570562863000,2.805012,0.759286224416899,10.4719806560452,2.38129986041924,-2.3762658,0.6649268,1.8979583,221.8975,-86.885635,1.5718338,STD
16570567825000,2.809974,0.794682667718876,10.6204403807229,2.56109969429719,-2.3383923,0.56077427,2.0436497,221.68282,-86.077065,2.0186772,STD
16570572856000,2.815005,0.843057061185743,11.1622336198795,2.97711954983936,-2.307238,0.47586402,2.176513,221.48566,-85.26531,2.486753,STD
16570577861000,2.82001,0.917991592785494,11.7288355104167,3.40408546782407,-2.2800546,0.45998153,2.3139575,221.27434,-84.40125,2.9948816,STD
16570582849000,2.824998,1.09307130686728,12.3969027708333,3.87864373009259,-2.2565362,0.48533243,2.372906,221.06912,-83.556,3.503291,STD
16570587809000,2.829958,1.27459202109414,13.0617690227613,4.32303784765898,-2.261423,0.5757405,2.4840834,220.81918,-82.63959,4.05353,STD
16570592837000,2.834986,1.51013728195068,13.7395626975142,4.58261827365479,-2.32984,0.7021896,2.552806,220.54562,-81.73304,4.589294,STD
16570597820000,2.839969,1.70836971490488,14.3903927695627,4.7828665238282,-2.4104743,0.8445212,2.579684,220.21411,-80.75738,5.1490993,STD
16570602832000,2.844981,1.66130267066091,14.8987166114925,4.58518494783291,-2.4929411,1.0421361,2.5460863,219.82582,-79.78867,5.6852956,STD
16570607806000,2.849955,1.55858554531398,15.3725506255924,4.20059271862559,-2.5708263,1.2837334,2.4523184,219.38048,-78.79786,6.2124944,STD
16570612910000,2.855059,0.820172917494076,15.5125114976303,1.6764763221643,-2.6325238,1.6203201,2.3047945,218.8537,-77.832214,6.680682,STD
16570617892000,2.860041,0.0622837624705284,15.5404272714782,-0.65198391990162,-2.6569583,2.064419,2.071444,218.25363,-76.96923,7.0389233,STD
16570622842000,2.864991,-1.14787344255873,14.229758706471,-1.29927732181834,-2.6160305,2.443461,1.7916678,217.59015,-76.161766,7.3085546,STD
16570628030000,2.870179,-2.41621598391061,12.8560721377322,-1.97769311356458,-2.495079,2.7855456,1.5250251,216.9949,-75.92942,7.3020773,STD
16570632844000,2.874993,-2.48771239816901,11.727179750503,-1.76056303806841,-2.3170118,3.0671544,1.2748758,216.33072,-75.7551,7.2041044,STD
16570637775000,2.879924,-2.15040352338028,10.6249871529175,-1.22371941279678,-2.1239784,3.1789427,1.0372492,215.63947,-75.64352,7.027905,STD
16570642829000,2.884978,-1.17434570735704,9.81119311517276,-0.109004916034051,-1.9358319,3.0381384,0.788627,214.86499,-75.53537,6.7379985,STD
16570647782000,2.889931,0.0370364031126691,9.1413699313971,1.21163914424637,-1.7730364,2.6465738,0.5513059,214.14868,-75.49571,6.393548,STD
16570652847000,2.894996,1.19503511218944,9.04709900620644,2.08802271072281,-1.625207,2.1313088,0.37995818,213.4981,-75.40533,6.0669236,STD
16570657825000,2.899974,2.30117680929247,9.1882117358923,2.76172216831853,-1.4883732,1.6487253,0.30115658,212.96103,-75.36779,5.7234087,STD
16570662920000,2.905069,2.82429023892721,9.39991702718007,2.96603845014928,-1.3613132,1.3374895,0.29749137,212.54214,-75.22139,5.48205,STD
16570667849000,2.909998,2.98466654246886,9.64291170328426,2.88828036693092,-1.2449434,1.2388347,0.35430184,212.2016,-75.10951,5.25535,STD
16570672840000,2.914989,2.73520243812559,9.6192214918463,2.63337960281162,-1.1710287,1.3154984,0.41630468,211.85858,-74.7658,5.3137746,STD
16570677909000,2.920058,2.28933619106842,9.46908312764761,2.29215537839738,-1.1371256,1.3967434,0.4605924,211.54196,-74.44562,5.3851986,STD
16570682844000,2.924993,1.83841620390831,9.09819370729904,2.00322485551917,-1.0894781,1.59558,0.4801401,211.18088,-74.16391,5.479185,STD
16570687848000,2.929997,1.36764636421253,8.5413690747861,1.74506074135418,-1.0708468,1.772731,0.5027421,210.80309,-73.88521,5.57603,STD
16570692841000,2.93499,1.00292580474519,7.99676103568365,1.6097679011469,-1.0173961,1.8784106,0.50823987,210.40012,-73.71536,5.57254,STD
16570697859000,2.940008,0.691400207429939,7.45518556617134,1.53787733172434,-0.95172805,1.9104811,0.49418998,209.97389,-73.558365,5.5574794,STD
16570702843000,2.944992,0.476298275340449,7.04993996914715,1.46073320223342,-0.86926126,1.8781052,0.4783075,209.52736,-73.446686,5.4744396,STD
16570707836000,2.949985,0.310906929149125,6.71443178393122,1.38040032736436,-0.7464773,1.806634,0.47250426,209.08936,-73.36628,5.3877816,STD
16570712893000,2.955042,0.211711168660696,6.51737855851822,1.32857969757785,-0.63591075,1.7553213,0.46822822,208.62936,-73.27382,5.2727613,STD
16570717838000,2.959987,0.153876072166701,6.40652797409933,1.29484247785467,-0.5213735,1.7415768,0.48930305,208.1827,-73.215454,5.1630697,STD
16570722858000,2.965007,0.128061891135227,6.3234760120034,1.31035237442672,-0.4098906,1.7385225,0.5103779,207.72336,-73.15325,5.0593176,STD
16570727871000,2.97002,0.119001110059451,6.25552027219968,1.35112594130414,-0.3155119,1.7351627,0.54061574,207.27092,-73.11583,4.9617877,STD
16570732852000,2.975001,0.104081363812175,6.16801283714939,1.43994543569499,-0.20861048,1.7110336,0.58001655,206.80597,-73.08259,4.889003,STD
16570737849000,2.979998,0.0841955121269478,6.06361192710368,1.56920343583004,-0.12736541,1.6826283,0.61269784,206.34709,-73.06638,4.8193574,STD
16570742816000,2.984965,0.059201044253365,5.98898459566508,1.66491605730404,-0.03604105,1.6398678,0.6462954,205.878,-73.039185,4.7831807,STD
16570747852000,2.990001,0.030561615290578,5.93170592713777,1.74128786454869,0.043676864,1.5668694,0.6795876,205.42867,-73.02849,4.7556086,STD
16570752848000,2.994997,0.00778727364870497,5.93162254540042,1.80864980881215,0.13072516,1.5012014,0.70432764,204.96132,-73.00305,4.750841,STD
16570757828000,2.999977,-0.0111439554313784,5.9694847782078,1.87017630777017,0.21319197,1.4150693,0.7290677,204.52335,-72.99547,4.756826,STD
16570762937000,3.005086,-0.0332465430266667,6.03342004039216,1.90748206417647,0.3100141,1.3271047,0.7440339,204.08183,-72.98031,4.78161,STD
16570767848000,3.009997,-0.0563012980066667,6.11180634098039,1.92592590244118,0.40042216,1.2333369,0.7519751,203.6703,-72.98415,4.8122964,STD
16570772839000,3.014988,-0.0847865783853912,6.23959018799569,1.92183717699011,0.49388456,1.1713341,0.75777835,203.25476,-72.98922,4.859669,STD
16570777897000,3.020046,-0.117987051674337,6.41033545089592,1.89812252137472,0.5864306,1.058324,0.7476991,202.88551,-73.018105,4.910166,STD
16570782847000,3.024996,-0.180853151550633,6.5844031693038,1.87103829367089,0.63438356,0.95294976,0.7483099,202.51965,-73.04242,4.972278,STD
16570787833000,3.029982,-0.274184231115041,6.76662095727848,1.83992795547282,0.73426,0.8744536,0.73884153,202.18442,-73.10546,5.0299335,STD
16570792836000,3.034985,-0.366984652480169,6.98641265489159,1.83195856434691,0.81397796,0.8155051,0.7128797,201.8643,-73.17133,5.092964,STD
16570797852000,3.040001,-0.458435802136436,7.27600800634585,1.86752287969328,0.89644474,0.7693848,0.6872234,201.56773,-73.262375,5.1533194,STD
16570802846000,3.044995,-0.533734828464052,7.51227463398693,1.92587702472767,0.9954049,0.73761976,0.655153,201.2849,-73.394775,5.186799,STD
16570807849000,3.049998,-0.590672164081996,7.68783147950089,2.01128301081402,1.078788,0.73548174,0.6160576,201.01292,-73.54317,5.2089176,STD
16570813586000,3.055735,-0.578432376782362,7.83551149553187,2.17467104293117,1.1676689,0.743423,0.5748242,200.7181,-73.7269,5.2244325,STD
16570817846000,3.059995,-0.514611966477317,7.90730936393234,2.34219962466758,1.2599095,0.77824235,0.539394,200.42226,-73.93049,5.2259417,STD
16570822766000,3.064915,-0.4135983325,7.94216543125,2.5815479625,1.346347,0.81031275,0.49846604,200.12328,-74.14884,5.197796,STD
16570827879000,3.070028,-0.26324645522187,7.89851486499604,2.90650210479398,1.4230106,0.8527679,0.46120325,199.81726,-74.38495,5.1559134,STD
16570832744000,3.074893,-0.110834738049711,7.81557758391232,3.21433686241315,1.4886786,0.8897252,0.42302418,199.5066,-74.606,5.104501,STD
16570837846000,3.079995,0.0660761258997945,7.65301085890987,3.53468889116352,1.5415184,0.9334021,0.39187005,199.18802,-74.83964,5.0402594,STD
16570842760000,3.084909,0.226281428790972,7.48595013589794,3.83022082688911,1.5800029,0.95722586,0.3390302,198.83871,-75.038956,4.9905643,STD
16570847969000,3.090118,0.373147721794897,7.2852331037684,4.11416244563297,1.6044376,0.9798279,0.27183503,198.48521,-75.24676,4.923609,STD
16570852774000,3.094923,0.519773609210579,7.12729067969775,4.34517958906343,1.5851953,0.999681,0.204029,198.11836,-75.42545,4.8652864,STD
16570857818000,3.099967,0.702275679395506,7.03123673155697,4.50847073923245,1.5693128,0.9941832,0.13469578,197.7617,-75.61247,4.78706,STD
16570862828000,3.104977,0.88206849393512,6.98740835272214,4.65066743963329,1.5409076,0.97127575,0.053450707,197.39897,-75.800354,4.7067647,STD
16570867847000,3.109996,1.05833308392102,7.07780066070522,4.74105970042313,1.4978416,0.9242391,-0.01863139,197.05238,-75.97982,4.6122293,STD
16570872849000,3.114998,1.24531729850404,7.19994529380672,4.82679388604767,1.4465289,0.906524,-0.070249505,196.70839,-76.147125,4.5318966,STD
16570877875000,3.120024,1.49493506467538,7.49756649775606,4.88919823987234,1.3579534,0.83077675,-0.0888809,196.39967,-76.29079,4.4488964,STD
16570883455000,3.125604,1.78838409031817,7.85671683456959,4.95685275158111,1.31672,0.68019843,-0.13683382,196.1315,-76.43346,4.380926,STD
16570887853000,3.130002,2.05969398893227,8.2102416042358,5.00618182015421,1.1499538,0.6215554,-0.13347405,195.85977,-76.5104,4.322117,STD
16570892802000,3.134951,2.34534134196078,8.60091317078431,5.05827405941177,1.087951,0.54183745,-0.12064589,195.65077,-76.60179,4.3079247,STD
16570897814000,3.139963,2.4394568745098,8.92561165980392,5.07709706764706,0.9728029,0.5152648,-0.09743301,195.44513,-76.629234,4.2983766,STD
16570902901000,3.14505,2.51115488155965,9.24702286800215,5.11412338803434,0.8481864,0.5360342,-0.081855945,195.27072,-76.63341,4.3425403,STD
16570907797000,3.149946,2.27633725723484,9.4524884863173,5.37829328107673,0.7244862,0.6270532,-0.065973446,195.08484,-76.60296,4.389355,STD
16570912869000,3.155018,2.03307847648006,9.66534012359149,5.65195947746378,0.59864795,0.74281216,-0.044898596,194.88878,-76.54452,4.4539876,STD
16570917817000,3.159966,1.92906337227017,9.65412095634284,5.84368493523685,0.4868596,0.8720101,-0.03848451,194.66638,-76.45729,4.5100427,STD
16570922768000,3.164917,1.85292564807306,9.59701799859494,6.01975335722601,0.37140608,0.9654725,-0.033292156,194.42387,-76.335266,4.5639706,STD
16570927815000,3.169964,1.6925627888402,9.51713871078002,6.03330696438796,0.25595254,0.9804387,-0.018325957,194.13695,-76.18,4.565393,STD
16570932750000,3.174899,1.51767343403447,9.43429616476775,6.01029522614666,0.16401732,0.93859446,-0.0036651916,193.84453,-76.00362,4.564421,STD
16570937843000,3.179992,1.19762989097774,9.46204890500795,5.82725078994436,0.12614368,0.86376345,0.014966198,193.5434,-75.80284,4.555651,STD
16570942765000,3.184914,0.8463502625,9.522937625,5.6024318375,0.11575896,0.763887,0.011301007,193.26662,-75.590294,4.5481734,STD
16570947852000,3.190001,0.451991218915395,9.74745341887193,5.26518570373769,0.13744467,0.6423248,0.002443461,193.00545,-75.39412,4.524141,STD
16570953015000,3.195164,0.0413021690747538,10.0292049209967,4.88792493471122,0.1695151,0.52290064,-0.040317107,192.77867,-75.20568,4.496061,STD
16570957834000,3.199983,-0.262937194984965,10.5338679774954,4.42871906479775,0.21135938,0.41508293,-0.10751228,192.57063,-75.07804,4.4151306,STD
16570962931000,3.20508,-0.551771438776797,11.1683567175284,3.89840041677175,0.2648101,0.33444872,-0.17470746,192.39502,-74.968895,4.329861,STD
16570967850000,3.209999,-0.657166602471558,11.8950106233817,3.36215048571989,0.33292156,0.27458394,-0.25411993,192.2342,-74.95661,4.173071,STD
16570972889000,3.215038,-0.666632568575912,12.7043508241467,2.7989251565614,0.41813725,0.24862215,-0.31306845,192.09177,-74.96748,4.0098176,STD
16570977870000,3.220019,-0.581392595142943,13.3258541531748,2.25180040701174,0.5045747,0.18234327,-0.33322698,191.96133,-75.102646,3.8168838,STD
16570982851000,3.225,-0.433056306624536,13.8282836109941,1.71109069758251,0.5552765,0.10567969,-0.3472769,191.84407,-75.24887,3.6171007,STD
16570987846000,3.229995,-0.221969238873307,13.9859416181923,1.19092936925367,0.6600399,0.0076358155,-0.35979962,191.75931,-75.53197,3.4311957,STD
16570992841000,3.23499,0.0307431065450005,13.9124252552108,0.685504697608299,0.73731434,-0.099265605,-0.33628133,191.69435,-75.80714,3.2622585,STD
16570997832000,3.239981,0.312952400803083,13.594781234638,0.161016978716285,0.786489,-0.20372356,-0.28710666,191.68327,-76.17419,3.1308944,STD
16571002845000,3.244994,0.624506431696411,13.0446936938755,-0.384202599491989,0.82344633,-0.28191432,-0.20708331,191.6876,-76.54104,3.0232112,STD
16571007842000,3.249991,0.850999020853502,12.4269112642497,-0.773493396517831,0.84574294,-0.3191771,-0.099265605,191.7357,-76.95187,2.9864707,STD
16571012901000,3.25505,1.00893832217722,11.7425079750074,-1.0367255004228,0.88361657,-0.30695978,0.005192355,191.78403,-77.35826,2.973128,STD
16571017866000,3.260015,1.07974763051866,11.0749845376636,-1.1077306155017,0.91415983,-0.24037547,0.11728613,191.85518,-77.792534,3.0408745,STD
16571022886000,3.265035,1.07508689023752,10.403837061173,-1.00985502093068,0.9334021,-0.18936823,0.19486602,191.92175,-78.21456,3.126124,STD
16571027854000,3.270003,1.00117658071995,9.74920658938377,-0.872862562037828,0.95478237,-0.15302174,0.2507602,191.98314,-78.63953,3.260745,STD
16571032834000,3.274983,0.845984355582672,9.10418923123856,-0.68857184342892,0.9682214,-0.14080444,0.2782491,192.0347,-79.04755,3.4044359,STD
16571037845000,3.279994,0.650262949632963,8.56749293047468,-0.515128120172931,0.97341377,-0.13744467,0.28710666,192.06985,-79.41674,3.5585375,STD
16571042830000,3.284979,0.414383191127581,8.15049112705135,-0.355066833795659,0.98899084,-0.1337795,0.27305678,192.1026,-79.77587,3.7103286,STD
16571047743000,3.289892,0.136400053152597,7.75495598950216,-0.211994638762987,0.9798279,-0.080634214,0.24404067,192.09845,-80.09466,3.838546,STD
16571052844000,3.294993,-0.334137269876623,7.40601833051948,-0.122116724616883,0.9663888,0.022907447,0.20219639,192.08157,-80.405174,3.9547095,STD
16571057774000,3.299923,-0.743563912617579,7.19985553919953,-0.0815321227256576,0.9398162,0.19181168,0.14844026,192.0051,-80.688805,4.0166254,STD
16571062951000,3.3051,-1.09100685358831,7.22187655496225,-0.12312740282584,0.9166033,0.38515055,0.08307768,191.89575,-80.96582,4.057045,STD
16571067738000,3.309887,-1.41227580441445,7.24223865703993,-0.161589177181562,0.88208944,0.4804455,0.004886922,191.73184,-81.24621,4.014439,STD
16571072891000,3.31504,-1.75810803829936,7.26415758580664,-0.202991626159009,0.83016586,0.66706485,-0.07941248,191.49101,-81.51883,3.9400308,STD
16571077811000,3.31996,-2.02421968064835,7.38292487042894,-0.240298531721684,0.820392,0.81336707,-0.12064589,191.237,-81.79167,3.8538258,STD
16571082857000,3.325006,-2.15795045032615,7.71725169488041,-0.273731229128286,0.7984009,0.91874135,-0.22479841,190.94818,-82.06253,3.720729,STD
16571087787000,3.329936,-2.23515237872737,8.09117389055794,-0.30586273776824,0.77488256,0.95630956,-0.3381139,190.59196,-82.393005,3.4637206,STD
16571092836000,3.334985,-2.18101549139765,8.59194042811159,-0.337442607553648,0.7476991,0.93737274,-0.44318274,190.22534,-82.72138,3.1793342,STD
16571097804000,3.339953,-2.10117502367396,9.098962108181,-0.358293684662871,0.71959925,0.8533788,-0.5467244,189.86176,-83.06503,2.8422115,STD
16571102862000,3.345011,-1.86408229679353,9.69895175876536,-0.319584670710219,0.70463306,0.72173727,-0.6301075,189.51894,-83.40152,2.4863653,STD
16571107831000,3.34998,-1.61474586669378,10.2667472083254,-0.262527305737799,0.68691796,0.5555819,-0.68569624,189.21788,-83.7339,2.1220007,STD
16571112895000,3.355044,-1.26668161547847,10.7215511057416,-0.095456476784689,0.66920286,0.38148534,-0.70249504,188.95593,-84.048,1.7543507,STD
16571117909000,3.360058,-0.91713511325546,11.1566284806501,0.0758946131274759,0.6401868,0.20250183,-0.6969972,188.75816,-84.33235,1.4235574,STD
16571122910000,3.365059,-0.508494869299137,11.4047319258507,0.319132870147283,0.5925393,0.025045475,-0.66614854,188.60695,-84.586685,1.106073,STD
16571127844000,3.369993,-0.10183979177854,11.6359268163645,0.551705733640372,0.54336464,-0.119729586,-0.6041457,188.5134,-84.78287,0.86793643,STD
16571132852000,3.375001,0.344633640146987,11.7393203011269,0.716195935071044,0.49205196,-0.25686884,-0.5158757,188.46468,-84.9492,0.6557858,STD
16571138402000,3.380551,0.830030176934175,11.8198968461677,0.867230354871055,0.42058071,-0.3726278,-0.40011674,188.46019,-85.08728,0.5415563,STD
16571142853000,3.385002,1.17596101395852,11.7276487674482,0.844168299069432,0.3747658,-0.46761733,-0.28008172,188.48506,-85.20897,0.4593949,STD
16571147813000,3.389962,1.56145123000902,11.6248515375113,0.818468951332732,0.34788775,-0.56505036,-0.1731803,188.5626,-85.28632,0.48669738,STD
16571152848000,3.394997,1.73529566823506,11.3965845763351,0.682959213108993,0.3371976,-0.6389651,-0.07727446,188.6576,-85.34948,0.54598117,STD
16571157764000,3.399913,1.86147680788168,11.1488955713718,0.528737837016081,0.3436117,-0.70554936,-0.013133603,188.77612,-85.40463,0.62740034,STD
16571162872000,3.405021,1.7828695820109,10.8680515887341,0.302443793343428,0.37140608,-0.73273283,0.040011674,188.92549,-85.45704,0.80313957,STD
16571167746000,3.409895,1.66035682428831,10.5947540687462,0.0715543884151019,0.40744713,-0.7330383,0.06383542,189.0857,-85.50314,0.98564,STD
16571172963000,3.415112,1.36614719453521,10.315239803662,-0.285418505179343,0.42760566,-0.7144069,0.079107046,189.26657,-85.564255,1.1937968,STD
16571177799000,3.419948,1.06173965740845,10.0586675264789,-0.637661538373709,0.50946164,-0.6966918,0.0842994,189.44759,-85.63733,1.4016775,STD
16571182837000,3.424986,0.936310527296721,9.93776995350726,-0.84670887927114,0.52931476,-0.6600399,0.07819075,189.62508,-85.73064,1.580672,STD
16571187793000,3.429942,0.892948017622576,9.87995339133083,-0.986432460064968,0.57757306,-0.63621616,0.07452556,189.80054,-85.83685,1.7586902,STD
16571192837000,3.434986,0.983574906393631,9.87294795108396,-0.992905257642818,0.6209445,-0.61819565,0.06811147,189.96649,-86.005905,1.8714484,STD
16571197827000,3.439976,1.12234822297101,9.88491115941521,-0.9498376826666,0.66675943,-0.6389651,0.056505036,190.13599,-86.17346,1.9803468,STD
16571202843000,3.444992,1.26184460692935,9.89693670109648,-0.906545707500125,0.68019843,-0.6609562,0.04520403,190.30365,-86.354195,2.0761049,STD
16571208440000,3.450589,1.41749876582386,9.9103551534071,-0.858239251159065,0.67164636,-0.7348709,0.061391957,190.49084,-86.5182,2.1760802,STD
16571212979000,3.455128,1.46787700815356,9.9308086703754,-0.745725306794632,0.6753115,-0.83077675,0.09987647,190.69296,-86.67167,2.275288,STD
16571217880000,3.460029,1.50774102785799,9.95472716544929,-0.610187556548327,0.66859204,-0.8961393,0.13072516,190.90611,-86.79477,2.3761058,STD
16571222932000,3.465081,1.47038000578434,9.96238063518729,-0.516111424813621,0.6221663,-0.97005403,0.14477506,191.16396,-86.84339,2.5270188,STD
16571227893000,3.470042,1.31938171654938,9.94512356299659,-0.490225992217934,0.58032197,-1.0238101,0.14446963,191.43315,-86.85853,2.6807296,STD
16571232825000,3.474974,1.16926610225653,9.92796736867196,-0.464491875394325,0.5381723,-1.0665708,0.14538592,191.71489,-86.82257,2.8443813,STD
16571237845000,3.479994,1.01647202607037,9.91050506220204,-0.438298593469239,0.49296826,-1.0509937,0.1255328,191.99359,-86.76455,2.9997923,STD
16571243193000,3.485342,0.851321726077729,9.88898978333721,-0.412284083653712,0.45234573,-1.0012082,0.100792766,192.27269,-86.68596,3.1521494,STD
16571247840000,3.489989,0.669041018237747,9.82270606544101,-0.420569575427042,0.41691554,-0.93431836,0.06566802,192.54053,-86.5982,3.293897,STD
16571252822000,3.494971,0.473619781642355,9.75164398612986,-0.429452364326274,0.39187005,-0.8594874,0.03390302,192.76363,-86.56199,3.369541,STD
16571257862000,3.500011,0.275923468426623,9.67975460842448,-0.438438565862229,0.36102137,-0.7819075,-0.011911872,192.96474,-86.52846,3.4304748,STD
16571262920000,3.505069,0.0775210969494066,9.60760848294159,-0.447456860975099,0.31642818,-0.68600166,-0.06811147,193.13724,-86.498405,3.4788465,STD
16571267811000,3.50996,-0.0401786130832406,9.56001393375139,-0.46329486675129,0.28160888,-0.63529986,-0.11209377,193.29898,-86.475296,3.5148067,STD
16571272968000,3.515117,-0.1300923054336,9.52005200849601,-0.483275683332659,0.26816985,-0.5381723,-0.13958271,193.4183,-86.457726,3.5394275,STD
16571278214000,3.520363,-0.108477511383446,9.53587411943561,-0.477229300637917,0.24037547,-0.39278635,-0.20250183,193.47935,-86.529594,3.4702928,STD
16571282867000,3.525016,-0.0553445035337838,9.56686853656598,-0.463946049022258,0.19456059,-0.35002577,-0.21380283,193.54027,-93.41057,3.4097612,STD
16571287925000,3.530074,0.070171747046811,9.60820884485497,-0.476814979474212,0.18051068,-0.29626966,-0.23762658,193.5481,-93.318825,3.3138428,STD
16571292828000,3.534977,0.219322731273259,9.65138418005517,-0.500365121698571,0.1704314,-0.2779437,-0.24037547,193.55269,-93.23438,3.222732,STD
16571298285000,3.540434,0.40053381493413,9.69463909653493,-0.540040490190413,0.14996742,-0.26542094,-0.23793201,193.5511,-93.15532,3.135186,STD
16571302825000,3.544974,0.573813276065537,9.72351908546441,-0.592986997508026,0.13836098,-0.2724459,-0.22357668,193.54903,-93.08294,3.052168,STD
16571307824000,3.549973,0.746168746746946,9.75190345655376,-0.669606539099021,0.15393804,-0.2941316,-0.21502456,193.56488,-93.04238,2.9967475,STD
16571312879000,3.555028,0.901344853391666,9.77706678497791,-0.766067382151087,0.16768251,-0.30970868,-0.1994475,193.58041,-93.01104,2.94879,STD
16571317752000,3.559901,1.01878433011512,9.79746860597852,-0.839198616416755,0.19242255,-0.33841935,-0.19028452,193.62805,-93.01206,2.9263797,STD
16571322835000,3.564984,0.983465396947857,9.79982324905679,-0.818007246681823,0.20555615,-0.3643811,-0.18173242,193.67871,-93.02122,2.9090858,STD
16571327796000,3.569945,0.948994173764148,9.80212137699526,-0.797324503173068,0.21838433,-0.37018433,-0.17501289,193.75375,-93.06915,2.920516,STD
16571332812000,3.574961,0.914140786243591,9.80444498307052,-0.77641246095579,0.23426682,-0.37140608,-0.18051068,193.83403,-93.12149,2.931218,STD
16571337873000,3.580022,0.87953112297506,9.80613832404367,-0.75912616259874,0.25595254,-0.3549127,-0.18509217,193.91328,-93.18073,2.9415894,STD
16571342839000,3.584988,0.854204902025384,9.79769652072424,-0.801336545540073,0.25870144,-0.33444872,-0.20189096,193.99074,-93.2386,2.947395,STD
16571347828000,3.589977,0.828761382831277,9.78921561924203,-0.843742425623502,0.2648101,-0.2929099,-0.22540927,194.049,-93.28614,2.9384954,STD
16571352822000,3.594971,0.870245454588977,9.7910843972912,-0.895388201344996,0.25320363,-0.23884831,-0.23609942,194.09697,-93.33388,2.9294724,STD
16571357807000,3.599956,0.928618759014296,9.7955742731377,-0.949271259518435,0.24984388,-0.16401732,-0.26145032,194.12608,-93.37674,2.9108405,STD
16571362879000,3.605028,1.01714715951949,9.83981427047446,-1.03301301816259,0.24801129,-0.09162979,-0.27855456,194.13603,-93.42518,2.885051,STD
16571367856000,3.610005,1.11797713354488,9.90223308008462,-1.12904154336658,0.22143865,-0.058948494,-0.2941316,194.13554,-93.46664,2.8537247,STD
16571372805000,3.614954,1.14618275149712,9.93977619597359,-1.19520221371583,0.21074851,-0.0076358155,-0.2874121,194.1188,-93.52828,2.833604,STD
16571377864000,3.620013,1.14167754123117,9.9668073164404,-1.24926478395016,0.1695151,0.038179077,-0.28160888,194.09431,-93.5784,2.8099222,STD
16571382779000,3.624928,1.12141315512316,10.0597513028876,-1.24246925302215,0.14049901,0.07422013,-0.27091873,194.07672,-93.651764,2.803718,STD
16571387781000,3.62993,1.08670791032912,10.2134458030946,-1.18297449589112,0.13652839,0.095294975,-0.2660318,194.05086,-93.722626,2.7982476,STD
16571392788000,3.634937,0.988239488430123,10.3295987585495,-1.08976942777489,0.14966199,0.13133603,-0.24220806,194.01828,-93.80341,2.7964363,STD
16571397870000,3.640019,0.844079328175209,10.4213375026479,-0.971820253851539,0.160963,0.14385876,-0.21960606,193.98714,-93.88382,2.7960107,STD
16571402733000,3.644882,0.671679023697843,10.4548820649182,-0.848548480338138,0.18417588,0.13469578,-0.19914207,193.9472,-93.962166,2.7949984,STD
16571407744000,3.649893,0.432434278506557,10.392470214696,-0.702921211786063,0.21533,0.10354166,-0.18448131,193.91129,-94.04692,2.7986245,STD
16571412765000,3.654914,0.212140688618931,10.3469012323294,-0.604195259923171,0.24251351,0.057726767,-0.1685988,193.87779,-94.10555,2.7725554,STD
16571417754000,3.659903,0.0114721544880147,10.3175355347265,-0.55035738275968,0.2724459,0.014660766,-0.16035213,193.85321,-94.1726,2.7486897,STD
16571422746000,3.664895,-0.177246058272377,10.264921748643,-0.547909997639396,0.29138273,-0.015271631,-0.14202617,193.82072,-94.212074,2.6913767,STD
16571427907000,3.670056,-0.362599273707688,10.1917555458403,-0.58693172120004,0.30848694,-0.054061573,-0.1282817,193.80339,-94.25949,2.6358259,STD
16571432748000,3.674897,-0.52258877028965,10.1247909912256,-0.627472860969903,0.27763826,-0.08582657,-0.12095132,193.77571,-94.27653,2.5511317,STD
16571437742000,3.679891,-0.676009218596094,10.0571055409001,-0.672596522790829,0.25167647,-0.100792766,-0.112399206,193.75449,-94.30291,2.4724402,STD
16571442739000,3.684888,-0.813806551164254,9.98832838630166,-0.697034638787497,0.24129178,-0.099571034,-0.10842858,193.73125,-94.31554,2.3614113,STD
16571447774000,3.689923,-0.930131528193833,9.91752204845815,-0.691977035682819,0.2312125,-0.0888809,-0.124005646,193.70888,-94.323814,2.2498026,STD
16571452748000,3.694897,-0.979545667818473,9.85809170087562,-0.671222266511628,0.2098322,-0.056199603,-0.13591751,193.67125,-94.32546,2.1131742,STD
16571457740000,3.699889,-0.96604202816119,9.80857826146314,-0.635212532558139,0.183565,-0.03604105,-0.15485434,193.63316,-94.32505,1.9731613,STD
16571463365000,3.705514,-0.889197166397904,9.7534616133844,-0.6178073147692,0.16279559,-0.029626964,-0.17470746,193.58006,-94.31503,1.8143746,STD
16571467848000,3.709997,-0.768040228300746,9.71019131062286,-0.626461370803265,0.14508049,-0.018936822,-0.18448131,193.51933,-94.30385,1.6567974,STD
16571472748000,3.714897,-0.600050634071617,9.66910284300907,-0.654439093562299,0.1255328,-0.025045475,-0.1957823,193.46571,-94.29124,1.4950294,STD
16571477848000,3.719997,-0.371306134705825,9.63574409581422,-0.711625210939604,0.09621128,-0.030543262,-0.21044308,193.40797,-94.27575,1.3330692,STD
16571482752000,3.724901,-0.14603078081867,9.60735358140396,-0.765615920837192,0.080634214,-0.040011674,-0.21685717,193.35753,-94.27768,1.1984599,STD
16571487817000,3.729966,0.0965467697832932,9.58489271272458,-0.819522052574551,0.059253927,-0.055283304,-0.22174409,193.30951,-94.27274,1.0626724,STD
16571492761000,3.73491,0.333624732525952,9.57784513526266,-0.874457746115131,0.042455133,-0.06352998,-0.21105394,193.28564,-94.29098,0.9696236,STD
16571497881000,3.74003,0.580410504152249,9.63440027838943,-0.941295569329978,0.02321288,-0.08582657,-0.19242255,193.2696,-94.30405,0.8789966,STD
16571502774000,3.744923,0.775992335940793,9.69467134450577,-1.01679356288008,0.02107485,-0.08246681,-0.18020524,193.26779,-94.34092,0.83766115,STD
16571507791000,3.74994,0.877245087586553,9.77181634129453,-1.12286789570497,0.028405234,-0.06719518,-0.15699236,193.26921,-94.376076,0.80568653,STD
16571512781000,3.75493,0.95740485228424,9.86433666726079,-1.20507318172608,0.027794369,-0.04917465,-0.14019357,193.28918,-94.424515,0.81674063,STD
16571517782000,3.759931,0.988854691651032,9.99462866791745,-1.23203016679174,0.041233405,-0.029321533,-0.11209377,193.30505,-94.47941,0.83807653,STD
16571522797000,3.764946,1.01675226201027,10.1196386201027,-1.24489711952865,0.04550946,-0.010079277,-0.087964594,193.3277,-94.54716,0.8810379,STD
16571527780000,3.769929,1.02636474955182,10.2157634955182,-1.18722214409306,0.07269296,-0.004276057,-0.061391957,193.34952,-94.62521,0.9322004,STD
16571533414000,3.775563,1.01930769163475,10.3032421168613,-1.11920262042971,0.090713486,-0.012217305,-0.032375857,193.39267,-94.705605,0.98608655,STD
16571537805000,3.779954,0.976097113741242,10.3268120040168,-1.06027909206913,0.09162979,-0.024129177,-0.00580322,193.43599,-94.78845,1.0460433,STD
16571542971000,3.78512,0.901653621212121,10.3496556126613,-0.994192068541854,0.09285152,-0.05131268,0.014660766,193.487174204625,-94.8702092291521,1.11611078871759,STD
16571547794000,3.789943,0.550582579494949,10.312700020302,-0.971095281548155,0.08827003,-0.06078109,0.027488936,193.53496,-94.94654,1.1815261,STD
16571552962000,3.795111,0.18903436349573,10.2677422189822,-0.944906581129024,0.09193522,-0.07819075,0.034208454,193.5919,-95.01063,1.2428507,STD
16571557714000,3.799863,0.0326381903396169,10.1619450762117,-0.903507611987669,0.0870483,-0.08674286,0.036651913,193.64903,-95.07069,1.3054672,STD
16571562752000,3.804901,-0.133170715460151,10.0497805128114,-0.859617038222065,0.08368854,-0.08460484,0.021991149,193.67786,-95.11047,1.2993369,STD
16571567732000,3.809881,-0.297070745409107,9.93890724450397,-0.816231754904735,0.07544186,-0.073303826,0.009468411,193.7062,-95.1468,1.2948802,STD
16571572762000,3.814911,-0.457682554712644,9.82961137851764,-0.771754786642885,0.057726767,-0.06994407,-0.0012217305,193.73547,-95.177635,1.2870439,STD
16571577769000,3.819918,-0.557461849281609,9.7535890238803,-0.7194894364348,0.055283304,-0.051618114,-0.02107485,193.75629,-95.207985,1.2741346,STD
16571582846000,3.824995,-0.654352231095062,9.68006577200859,-0.669681093089986,0.040317107,-0.034208454,-0.040317107,193.74893,-95.20379,1.2019068,STD
16571587728000,3.829877,-0.695420495627562,9.6526868336912,-0.660554812082764,0.027488936,-0.03604105,-0.054367006,193.74088,-95.19928,1.1271186,STD
16571592951000,3.8351,-0.735284710345642,9.62391668104655,-0.6488999289902,0.015271631,-0.014966198,-0.060170226,193.71112,-95.180725,1.0342202,STD
16571597786000,3.839935,-0.69071501779664,9.60770961550578,-0.600278436209311,0.017104227,0.0018325958,-0.0842994,193.68163,-95.16253,0.9339339,STD
16571603092000,3.845241,-0.641803582705635,9.58992374378719,-0.546920496044802,0.014660766,0.009162978,-0.09193522,193.65181,-95.131584,0.8300829,STD
16571607791000,3.84994,-0.579404992560129,9.5723402844923,-0.497680744057563,0.009162978,-0.0012217305,-0.099265605,193.62102,-95.10165,0.7215752,STD
16571612809000,3.854958,-0.506863366572406,9.55299596266479,-0.444483530794002,0.01038471,-0.01985312,-0.11026118,193.58963,-95.07504,0.6119693,STD
16571617814000,3.859963,-0.437627473486299,9.54469095344648,-0.42079836540438,0.004276057,-0.03573562,-0.11789699,193.56671,-95.03756,0.51122636,STD
16571622746000,3.864895,-0.370452712272684,9.54021254593723,-0.4073634140969,0.003970624,-0.045814894,-0.1386664,193.54613,-95.004036,0.4053717,STD
16571627815000,3.869964,-0.31342491242122,9.54163391245566,-0.430431995311777,-0.0012217305,-0.06169739,-0.13622294,193.53645,-94.96595,0.3176028,STD
16571632772000,3.874921,-0.26461780830309,9.54651446666324,-0.474358389782553,0.0076358155,-0.059864793,-0.13408493,193.52338,-94.93371,0.22599232,STD
16571637813000,3.879962,-0.214983632015113,9.55147772544081,-0.519029149219144,0.019547688,-0.06078109,-0.14813483,193.53102,-94.907166,0.1379721,STD
16571642813000,3.884962,-0.1657531457148,9.55640061651159,-0.563336587660515,0.021685716,-0.06505715,-0.14202617,193.5389,-94.88246,0.05812534,STD
16571647825000,3.889974,-0.164168817432295,9.58682629464468,-0.640247836978212,0.01863139,-0.05681047,-0.14782938,193.54207,-94.86137,-0.026934851,STD
16571652814000,3.894963,-0.178762185929546,9.62574222164529,-0.727808037802891,0.021380283,-0.039095376,-0.15851954,193.54306,-94.84434,-0.10967327,STD
16571657792000,3.899941,-0.18919501405776,9.67406431709452,-0.812112079186114,0.026572637,-0.018325957,-0.16920967,193.5549,-94.84197,-0.1771045,STD
16571662880000,3.905029,-0.198671245843057,9.72618366365228,-0.89739819493874,0.03176499,-0.00580322,-0.17165314,193.56325,-94.84131,-0.24338211,STD
16571667803000,3.909952,-0.214114795936854,9.8078724008645,-0.916122992803984,0.03756821,0.030543262,-0.1740966,193.56776,-94.855865,-0.31692746,STD
16571672993000,3.915142,-0.23279686468333,9.90595276921631,-0.911452485371171,0.032986723,0.04734206,-0.17470746,193.57349,-94.86949,-0.3889647,STD
16571677826000,3.919975,-0.248560289168793,10.0107993123937,-0.891516435299745,0.03145956,0.06505715,-0.17470746,193.56783,-94.89679,-0.4593752,STD
16571682826000,3.924975,-0.263829432451105,10.1278629816114,-0.860978138105867,0.028405234,0.0693332,-0.1704314,193.56088,-94.92229,-0.52699405,STD
16571687807000,3.929956,-0.288112154353629,10.1975878795908,-0.792451143886995,0.022907447,0.069027774,-0.15974127,193.55246,-94.94801,-0.59716314,STD
16571692797000,3.934946,-0.316044895863614,10.2487974811495,-0.708652929079396,0.02107485,0.057421334,-0.13347405,193.54614,-94.973175,-0.66014075,STD
16571697824000,3.939973,-0.338230915373312,10.2726460308777,-0.651559468880064,0.0076358155,0.04062254,-0.113926366,193.5398,-94.98849,-0.7234194,STD
16571702812000,3.944961,-0.357201965150913,10.282131996525,-0.60887458954726,-0.0027488936,0.004276057,-0.09407325,193.54262,-95.00309,-0.7783956,STD
16571707814000,3.949963,-0.376226261660048,10.2916445867752,-0.566069905019857,-0.017715093,-0.027794369,-0.06566802,193.54326,-95.000374,-0.8291708,STD
16571712917000,3.955066,-0.395634695303813,10.3013492545175,-0.522400911588562,-0.018020526,-0.05955936,-0.043066,193.55412,-94.99868,-0.8755225,STD
16571717876000,3.960025,-0.433986863024299,10.287320475514,-0.496021292175701,-0.032375857,-0.09010262,-0.021685716,193.57396,-94.98795,-0.91372114,STD
16571722807000,3.964956,-0.482534106450467,10.2608396229907,-0.478367749949533,-0.022907447,-0.12583824,-0.005497787,193.60417,-94.98341,-0.946808,STD
16571727790000,3.969939,-0.537591128931713,10.2217811025793,-0.473882045269295,-0.03390302,-0.14752395,-0.005497787,193.622358821589,-94.9702913373313,-0.964590362188906,STD
16571732812000,3.974961,-0.599378995003459,10.1694990005929,-0.483387878835853,-0.03940081,-0.17165314,0.006414085,193.64069,-94.95707,-0.9825119,STD
16571737808000,3.979957,-0.64721178047127,10.1223690720425,-0.514375801174312,-0.026572637,-0.18661933,-0.004276057,193.67772,-94.94284,-1.0191443,STD
16571742815000,3.984964,-0.679626808350555,10.0806927478513,-0.569944405889908,-0.037873644,-0.20616703,-0.008552114,193.7327,-94.91497,-1.0640898,STD
16571747804000,3.989953,-0.712620893891264,10.024757830788,-0.616852845986561,-0.03268129,-0.20433442,-0.008552114,193.7797,-94.900375,-1.120408,STD
16571752812000,3.994961,-0.746801743086948,9.94663007350845,-0.651033725774791,-0.048258353,-0.20769419,-0.014049901,193.83228,-94.87874,-1.1783819,STD
16571757816000,3.999965,-0.750455791120128,9.88084598433519,-0.682143031659904,-0.05009095,-0.20708331,-0.019547688,193.88235,-94.87541,-1.2419033,STD
16571762827000,4.004976,-0.714227164301217,9.83103152788525,-0.709314501774087,-0.048563786,-0.19333886,-0.024129177,193.9282,-94.87006,-1.3046436,STD
16571767779000,4.009928,-0.673960244046187,9.7871649316815,-0.728545020221314,-0.04795292,-0.17989981,-0.035124753,193.97029,-94.87225,-1.3749275,STD
16571772804000,4.014953,-0.623023703572288,9.7547508409911,-0.730860315867212,-0.05009095,-0.16584991,-0.047036625,194.00682,-94.87549,-1.4445293,STD
16571777821000,4.01997,-0.572168256098148,9.72238835482319,-0.733171925470291,-0.044898596,-0.14905111,-0.052534413,194.04572,-94.89236,-1.5106193,STD
16571782817000,4.024966,-0.521525677748376,9.69016133052682,-0.73547385921097,-0.03390302,-0.116980694,-0.058337633,194.07469,-94.91161,-1.5776302,STD
16571788445000,4.030594,-0.463612742488311,9.65919115410511,-0.752641708836731,-0.042760566,-0.090713486,-0.070554934,194.09909,-94.928276,-1.6459526,STD
