timestamp,rel_time,acc_x,acc_y,acc_z,gyro_x,gyro_y,gyro_z,azimuth,pitch,roll,label
4142688405000,0,2.5305259388656,9.53483604291704,-0.897970821134404,-0.048563786,0.009162978,0.017715093,114.76548,-95.588974,5.5671973,STD
4142693447000,0.005042,2.52597642875112,9.53256124035427,-0.902520331248881,-0.051618114,0.0033597588,0.010079277,115.1488,-95.80879,5.7720256,STD
4142698413000,0.010008,2.52149549514769,9.53032072676308,-0.907001264852311,-0.05589417,0.0061086523,0.009162978,115.51482,-96.02358,5.9695587,STD
4142703451000,0.015046,2.52059012970498,9.53270303967447,-0.910741673865717,-0.049785517,0.0018325958,0.0143553335,115.894196,-96.25794,6.1825743,STD
4142708459000,0.020054,2.52546913422177,9.54246099776195,-0.913181173576806,-0.061391957,0.00580322,0.007330383,116.255035,-96.479645,6.3823433,STD
4142713445000,0.02504,2.530326705412,9.55217608942014,-0.915609956635809,-0.054367006,0.00030543262,0.01038471,116.62895,-96.72037,6.5961523,STD
4142718468000,0.030063,2.53522032356053,9.56196327461852,-0.918056763155137,-0.04795292,0.004581489,0.008552114,116.98426,-96.94888,6.7973123,STD
4142724266000,0.035861,2.53492699587756,9.57015676524315,-0.925226865884967,-0.06078109,0.00030543262,0.014660766,117.35993,-97.20022,7.01808,STD
4142728471000,0.040066,2.53095064988892,9.57413319427302,-0.933179568242409,-0.054061573,0.009468411,0.015271631,117.71623,-97.44226,7.227338,STD
4142733435000,0.04503,2.52625657581338,9.57882736637867,-0.942567728647248,-0.056199603,0.0027488936,0.0106901415,118.06497,-97.67534,7.428453,STD
4142738471000,0.050066,2.52149441686003,9.583589624784,-0.952092058985436,-0.051618114,0.0030543262,0.012217305,118.396454,-97.90282,7.6231046,STD
4142743384000,0.054979,2.51777043344571,9.58452462806148,-0.95582136203768,-0.044898596,0.0030543262,0.009162978,118.714325,-98.11647,7.8042927,STD
4142748457000,0.060052,2.51536175191869,9.57970716440258,-0.951003986408032,-0.05375614,0.0061086523,0.0070249503,119.01999,-98.32229,7.9788227,STD
4142753369000,0.064964,2.51302951386217,9.57504259087754,-0.946339498118493,-0.06261369,0.003970624,0.010995574,119.311745,-98.51718,8.141608,STD
4142758461000,0.070056,2.51061181105602,9.57020708428359,-0.94150407988349,-0.059864793,0.00061086525,0.014049901,119.59288,-98.70465,8.297162,STD
4142763347000,0.074942,2.51410961483794,9.56390589424125,-0.936864945054019,-0.052839845,0.01038471,0.0070249503,119.86118,-98.8835,8.445059,STD
4142768459000,0.080054,2.52866703428486,9.55420125195758,-0.932012471905045,-0.06291912,0.00030543262,0.009773844,120.12721,-99.058174,8.590542,STD
4142773400000,0.084995,2.54026688760408,9.54888133147223,-0.930559047335684,-0.056199603,-0.008857546,0.005192355,120.39003,-99.21814,8.720036,STD
4142778456000,0.090051,2.54738121794005,9.55125258507199,-0.935301950734646,-0.05467244,0.007330383,0.0070249503,120.63987,-99.37364,8.847557,STD
4142783362000,0.094957,2.55428448230483,9.55355348898031,-0.939904142996376,-0.057726767,0.0033597588,0.0061086523,120.88693,-99.51855,8.965902,STD
4142788428000,0.100023,2.56141288370555,9.55592943255951,-0.94465642713782,-0.05589417,-0.004886922,0.007330383,121.12286,-99.660164,9.08138,STD
4142793665000,0.10526,2.56266325854447,9.55569265315394,-0.946143475860563,-0.0571159,0.002443461,0.009162978,121.347984,-99.796295,9.192968,STD
4142798433000,0.110028,2.55069520780185,9.54970870068146,-0.940159440075135,-0.05467244,0.008246681,0.009162978,121.568695,-99.92818,9.3004265,STD
4142803415000,0.11501,2.53819000041936,9.54345617316093,-0.933906825502359,-0.061086524,-0.0009162979,0.01160644,121.79096,-100.05956,9.408132,STD
4142808468000,0.120063,2.52550657751616,9.53711453896558,-0.927565103014153,-0.057421334,0.0009162979,0.004276057,122.00136,-100.18512,9.5097275,STD
4142815432000,0.127027,2.50950142265992,9.52967926111312,-0.920129695319841,-0.053450707,0.004276057,0.0009162979,122.20087,-100.30999,9.612494,STD
4142818415000,0.13001,2.51208252081677,9.5348415652331,-0.925291891633538,-0.06780604,-0.0018325958,0.0061086523,122.396454,-100.42945,9.712097,STD
4142823447000,0.135042,2.51643655565595,9.54354981676906,-0.93399996131189,-0.062308256,0.0106901415,0.0067195175,122.57983,-100.548325,9.809185,STD
4142828415000,0.14001,2.52536485005425,9.55029839777098,-0.969629251716146,-0.06383542,0.004276057,0.007330383,122.76475,-100.66232,9.904055,STD
4142833408000,0.145003,2.53951327565835,9.55501414567512,-1.03565531173686,-0.06566802,-0.0021380284,0.004581489,122.94053,-100.77234,9.995288,STD
4142838415000,0.15001,2.54973789884594,9.57149744126293,-1.12798002048993,-0.054061573,0.004886922,0.008246681,123.10477,-100.88894,10.092106,STD
4142843429000,0.155024,2.55496577856287,9.60286482874251,-1.25344924287425,-0.05955936,0.0106901415,0.008552114,123.266075,-100.99801,10.183902,STD
4142848415000,0.16001,2.53366845690141,9.60344462414487,-1.06030478574648,-0.05222898,0.0067195175,0.005192355,123.42207,-101.108574,10.271097,STD
4142853400000,0.164995,2.49524569176056,9.58423331680081,-0.661667746098592,-0.054367006,0.011911872,0.0009162979,123.56912,-101.213646,10.355509,STD
4142858425000,0.17002,2.48475200237034,9.58116595685391,-0.606375207421519,-0.061391957,0.009468411,0.002443461,123.716774,-101.32249,10.435277,STD
4142863630000,0.175225,2.49207563288604,9.58848951089671,-0.772378194164259,-0.060170226,0.0061086523,0.0036651916,123.85866,-101.42718,10.511048,STD
4142868405000,0.18,2.49879423724962,9.59520804510505,-0.924667197372055,-0.0571159,0.012217305,0.006414085,124.00254,-101.51762,10.600688,STD
4142873450000,0.185045,2.50589274175523,9.60230647548852,-1.0855673065204,-0.062308256,0.0143553335,0.005497787,124.14429,-101.60369,10.686915,STD
4142878416000,0.190011,2.48996793142616,9.59356487901489,-0.97921166021163,-0.06627888,0.0061086523,0.0012217305,124.283226,-101.68724,10.770387,STD
4142883415000,0.19501,2.45410362899148,9.57114966073602,-0.642983151971158,-0.05589417,0.009773844,0.005497787,124.41441,-101.771126,10.853999,STD
4142888392000,0.199987,2.44647159662219,9.55964770129183,-0.550239463278272,-0.04795292,0.011911872,0.0033597588,124.536995,-101.8569,10.918238,STD
4142893467000,0.205062,2.48249608968657,9.56479417259636,-0.833289688818297,-0.060170226,0.011301007,0.0033597588,124.65578,-101.940315,10.982117,STD
4142898415000,0.21001,2.50911390545419,9.5744057039435,-1.01031084951933,-0.048258353,0.014660766,0.008246681,124.775986,-102.015236,11.058529,STD
4142903458000,0.215053,2.52806458326467,9.58861900912301,-1.09558894913675,-0.051618114,0.0067195175,0.005192355,124.89605,-102.08278,11.1303835,STD
4142908447000,0.220042,2.54240626055832,9.59368467218345,-1.14646886460618,-0.054061573,0.020158553,0.004276057,125.00705,-102.16706,11.199915,STD
4142913460000,0.225055,2.55197924129611,9.58889808185444,-1.16082838569292,-0.050701816,0.021685716,0.00580322,125.1204,-102.24863,11.2666445,STD
4142918463000,0.230058,2.55588351844828,9.58526019497945,-1.15376132809328,-0.05131268,0.02076942,0.005497787,125.22603,-102.329254,11.328623,STD
4142923526000,0.235121,2.55348279861861,9.58285942501362,-1.12255194523939,-0.054061573,0.016493361,0.006414085,125.329155,-102.407974,11.389292,STD
4142928495000,0.24009,2.55112665071545,9.58050322790514,-1.09192199789573,-0.055283304,0.015577064,0.0067195175,125.428566,-102.485275,11.448464,STD
4142933409000,0.245004,2.54879658213101,9.57817311066,-1.06163108196762,-0.057726767,0.01282817,0.0067195175,125.52683,-102.559715,11.505776,STD
4142938399000,0.249994,2.54339627134725,9.5687385426945,-1.01563222250474,-0.046120327,0.01038471,0.006414085,125.62162,-102.63944,11.566793,STD
4142943460000,0.255055,2.53371527029861,9.54937654059722,-0.94786479059223,-0.043676864,0.0125227375,0.004886922,125.71307,-102.714935,11.62557,STD
4142948370000,0.259965,2.52335524104923,9.53521877026355,-0.881906762277474,-0.046731193,0.014966198,0.005192355,125.80357,-102.787384,11.685519,STD
4142953410000,0.265005,2.51135443547986,9.52721809398309,-0.813902367250124,-0.05467244,0.007330383,0.003970624,125.89373,-102.85635,11.742577,STD
4142958571000,0.270166,2.49944970172129,9.51944280030023,-0.74466773969377,-0.056199603,0.013439035,0.006414085,125.97786,-102.9226,11.802066,STD
4142963420000,0.275015,2.49712606383287,9.52176648671504,-0.688900391550663,-0.042760566,0.009162978,0.0015271631,126.064575,-102.98534,11.856996,STD
4142968481000,0.280076,2.49470083567175,9.52419176552414,-0.630694875165374,-0.04886922,0.016493361,0.010079277,126.14473,-103.04763,11.920205,STD
4142973576000,0.285171,2.49225931473105,9.52663333745309,-0.572098331797848,-0.059253927,0.016798794,0.01160644,126.22565,-103.10595,11.978107,STD
4142979276000,0.290871,2.48847729577453,9.52444577174005,-0.510431717868672,-0.049480084,0.016187929,0.0030543262,126.30259,-103.163605,12.03414,STD
4142983454000,0.295049,2.48171453562917,9.50415742068791,-0.479999283091355,-0.052534413,0.014966198,0.0067195175,126.378,-103.2204,12.092532,STD
4142988377000,0.299972,2.4737458740218,9.48025135265782,-0.444140289216598,-0.05100725,0.013744468,0.0015271631,126.46449,-103.2676,12.146321,STD
4142993453000,0.305048,2.46612207866933,9.47928536888444,-0.42313292458029,-0.056199603,0.0070249503,0.0067195175,126.55114,-103.315994,12.202625,STD
4142998432000,0.310027,2.45896606758379,9.49121205402701,-0.411206229474737,-0.046120327,0.021991149,0.004886922,126.629326,-103.36181,12.254776,STD
4143003450000,0.315045,2.4517540041921,9.50323215967984,-0.39918611378089,-0.05497787,0.018936822,0.008246681,126.712234,-103.39691,12.302629,STD
4143008458000,0.320053,2.44455631318659,9.51522831135568,-0.387189952084042,-0.05589417,0.023823744,0.015271631,126.78661,-103.43369,12.350697,STD
4143014933000,0.326528,2.43298443897492,9.52844745109402,-0.410376062082126,-0.050701816,0.018325957,0.0125227375,126.856514,-103.46997,12.398408,STD
4143018427000,0.330022,2.42629818876012,9.53513384094315,-0.430434826689979,-0.04337143,0.01740966,0.008246681,126.9222,-103.506905,12.446871,STD
4143023472000,0.335067,2.42906528355096,9.53543334418242,-0.466599152506334,-0.043066,0.019547688,0.013439035,126.98704,-103.542046,12.49485,STD
4143028446000,0.340041,2.43834904952251,9.53079136425648,-0.506055191814461,-0.047036625,0.020158553,0.0125227375,127.05073,-103.573975,12.538861,STD
4143033413000,0.345008,2.4476197502826,9.5261559170727,-0.545455703926135,-0.043676864,0.007941248,0.004276057,127.10935,-103.60189,12.576489,STD
4143038453000,0.350048,2.45702670253362,9.52145234272072,-0.585435285372247,-0.0421497,0.003970624,0.0027488936,127.16427,-103.63,12.615163,STD
4143043418000,0.355013,2.46253057536347,9.51547222784306,-0.622707978542123,-0.040927973,0.0070249503,0.0067195175,127.22416,-103.660324,12.654373,STD
4143049220000,0.360815,2.46529718528182,9.5071725136427,-0.664207144650468,-0.0421497,0.015577064,0.0067195175,127.28199,-103.68837,12.691289,STD
4143053395000,0.36499,2.46728798094005,9.50120020981876,-0.694069091996614,-0.040317107,0.018936822,0.004581489,127.33531,-103.71652,12.723995,STD
4143058423000,0.370018,2.46968551880104,9.49400769637522,-0.730032174932284,-0.03390302,0.019242255,0.01160644,127.38604,-103.74672,12.758752,STD
4143063454000,0.375049,2.46587635053326,9.48814607368625,-0.786508936998255,-0.035124753,0.0018325958,0.0036651916,127.438515,-103.76653,12.783853,STD
4143068404000,0.379999,2.4566839596083,9.48354978223774,-0.860048141186736,-0.03756821,0.008857546,0.01160644,127.48326,-103.79238,12.815536,STD
4143073519000,0.385114,2.45592297878956,9.49382048085617,-0.927912981029615,-0.040927973,0.013133603,0.01160644,127.53146,-103.81502,12.839047,STD
4143078534000,0.390129,2.46478498672387,9.52040659719531,-0.985516051109881,-0.038179077,0.004276057,0.013133603,127.58055,-103.8399,12.864569,STD
4143083348000,0.394943,2.46948583063653,9.53983029714456,-1.0420118156157,-0.027794369,0.0033597588,0.016187929,127.6211,-103.8678,12.8878975,STD
4143088428000,0.400023,2.46466229861194,9.54465392990284,-1.1047177823022,-0.036957346,0.004581489,0.014049901,127.6624,-103.89215,12.909441,STD
4143093380000,0.404975,2.45994243163768,9.55196755091987,-1.15959176044033,-0.025961773,0.008552114,0.007941248,127.701294,-103.919685,12.927526,STD
4143098423000,0.410018,2.45508711823665,9.56653328832814,-1.19843431834724,-0.029932396,0.008246681,0.011301007,127.74019,-103.94585,12.947117,STD
4143103413000,0.415008,2.45684315473764,9.57551180926765,-1.24137327773688,-0.029626964,0.01160644,0.01160644,127.77455,-103.97057,12.95986,STD
4143108428000,0.420023,2.47497363869385,9.57097909362023,-1.29576477693469,-0.03023783,0.005497787,0.014660766,127.81088,-103.99567,12.973665,STD
4143113388000,0.424983,2.49034702842933,9.56723,-1.33848902154399,-0.02565634,0.01038471,0.013439035,127.84817,-104.017525,12.98109,STD
4143119180000,0.430775,2.49303851397448,9.56723,-1.32234005206463,-0.025961773,0.0067195175,0.013133603,127.88861,-104.03918,12.988954,STD
4143123494000,0.435089,2.49504318742782,9.56723,-1.31031196947935,-0.022296581,0.0106901415,0.010079277,127.9239,-104.06301,12.995499,STD
4143128479000,0.440074,2.49735966799457,9.56723,-1.29641303770197,-0.026267206,0.0106901415,0.0070249503,127.96018,-104.085175,13.001422,STD
4143133560000,0.445155,2.49849209600705,9.56863586465062,-1.28188613167939,-0.03145956,0.014660766,0.015882496,127.985504,-104.10675,13.008618,STD
4143138462000,0.450057,2.48470892701116,9.58701332736348,-1.26350862099237,-0.026572637,0.015271631,0.01282817,128.01048,-104.12447,13.011234,STD
4143143791000,0.455386,2.46961179636077,9.60519292351144,-1.24102789283267,-0.015271631,0.022296581,0.005192355,128.03226,-104.14293,13.017196,STD
4143148445000,0.46004,2.45516636044078,9.60106577923882,-1.19356420376887,-0.032375857,0.02076942,0.02107485,128.05618,-104.1636,13.0285,STD
4143153422000,0.465017,2.43971837277989,9.59665220015742,-1.14280640822298,-0.02687807,0.018020526,0.010995574,128.0695,-104.17795,13.030897,STD
4143158462000,0.470057,2.42407484097139,9.59218275298639,-1.09140610893601,-0.032070424,0.015577064,0.0070249503,128.08336,-104.1944,13.039163,STD
4143163401000,0.474996,2.40874480057413,9.58780287211779,-1.0410358553292,-0.032070424,0.011301007,0.008857546,128.09795,-104.21041,13.045807,STD
4143168433000,0.480028,2.4070288466559,9.57880004588456,-0.971630904014899,-0.02687807,0.01038471,0.01282817,128.11174,-104.22552,13.051746,STD
4143173458000,0.485053,2.41178773052708,9.56769591726275,-0.89390241776049,-0.0290161,0.006414085,0.007941248,128.12698,-104.23753,13.055269,STD
4143178419000,0.490014,2.41648600373801,9.5567332143587,-0.817163906256387,-0.030848695,0.003970624,0.0061086523,128.1455,-104.249794,13.064413,STD
4143183440000,0.495035,2.42124109944292,9.54563792484425,-0.739497293423872,-0.032375857,0.009773844,0.005192355,128.16211,-104.26045,13.072333,STD
4143188482000,0.500077,2.42601608302073,9.53449623001615,-0.661505845126413,-0.03145956,0.00030543262,0.009162978,128.18924,-104.26689,13.075741,STD
4143193427000,0.505022,2.4306992035666,9.52356888354155,-0.585014827309886,-0.04153884,0.007330383,0.0076358155,128.20905,-104.27011,13.077972,STD
4143198417000,0.510012,2.43968833560577,9.52078189710752,-0.541096118293241,-0.045814894,0.007330383,0.014660766,128.23651,-104.27516,13.08117,STD
4143203409000,0.515004,2.45132823276198,9.52310992515582,-0.517816306964842,-0.043676864,0.0070249503,0.009773844,128.26096,-104.27626,13.080826,STD
4143208423000,0.520018,2.46301942754188,9.52544821294313,-0.494433900314083,-0.03604105,-0.0027488936,0.0143553335,128.29184,-104.27999,13.099682,STD
4143213459000,0.525054,2.47476191994546,9.52779676046942,-0.470948898340962,-0.03145956,-0.004276057,0.008552114,128.31944,-104.27987,13.114328,STD
4143218400000,0.529995,2.46502547925887,9.53660664002118,-0.46224797632504,-0.03176499,0.0030543262,0.01160644,128.34712,-104.28378,13.13266,STD
4143223503000,0.535098,2.43398016716781,9.55212905293806,-0.467422180599259,-0.043982297,0.0018325958,0.01740966,128.37706,-104.28628,13.149754,STD
4143228491000,0.540086,2.41742295038085,9.54388005404425,-0.477527296202394,-0.03756821,0.009162978,0.014049901,128.40233,-104.28843,13.168884,STD
4143233409000,0.545004,2.40888133694233,9.52252590895901,-0.490339796632209,-0.041233405,0.009773844,0.0125227375,128.42966,-104.29044,13.189798,STD
4143238413000,0.550008,2.40477576101199,9.51176336367302,-0.498991109970769,-0.036957346,0.009162978,0.014966198,128.4456,-104.288025,13.204779,STD
4143243424000,0.555019,2.40719433498639,9.51660061263986,-0.501409681419716,-0.04184427,0.002443461,0.01038471,128.46278,-104.282425,13.217153,STD
4143248409000,0.560004,2.40960035998387,9.52141276312872,-0.503815703904848,-0.03848451,0.006414085,0.016493361,128.47691,-104.2819,13.232149,STD
4143253411000,0.565006,2.41201459008165,9.52624132416087,-0.506229931481705,-0.038789943,0.0021380284,0.013744468,128.49484,-104.277336,13.242938,STD
4143258491000,0.570086,2.41134134978988,9.52288093349169,-0.521669104089165,-0.03726278,0.00030543262,0.008552114,128.51732,-104.27942,13.258145,STD
4143263419000,0.575014,2.40702977748949,9.50994639667458,-0.551850137204458,-0.026267206,0.005497787,0.005497787,128.53857,-104.28247,13.273129,STD
4143268403000,0.579998,2.40834763422068,9.50133516611796,-0.584888765760512,-0.03176499,0.009162978,0.0143553335,128.5606,-104.28627,13.290001,STD
4143273487000,0.585082,2.42666701117487,9.50591463973286,-0.626107519330261,-0.04734206,0.0125227375,0.017104227,128.58055,-104.28788,13.304288,STD
4143278521000,0.590116,2.44280137692765,9.5104846918737,-0.674397569098288,-0.04062254,0.01160644,0.010079277,128.59985,-104.291336,13.316194,STD
4143283423000,0.595018,2.44744806341681,9.51513147540335,-0.7626846609126,-0.03604105,0.0125227375,0.014660766,128.61772,-104.29688,13.332187,STD
4143288430000,0.600025,2.45200435446679,9.52002970536396,-0.849425167456732,-0.035124753,0.007941248,0.009773844,128.63669,-104.30084,13.34347,STD
4143293424000,0.605019,2.45504752952405,9.52611602370196,-0.908767128738229,-0.034208454,0.015882496,0.012217305,128.65169,-104.3084,13.358317,STD
4143298463000,0.610058,2.45811812606261,9.53225718471621,-0.968643809334436,-0.04184427,0.010079277,0.01282817,128.66812,-104.31385,13.36611,STD
4143303409000,0.615004,2.46113205153983,9.53828500419954,-1.02741540334691,-0.031154128,0.016187929,0.015271631,128.67857,-104.32226,13.375498,STD
4143308742000,0.620337,2.46438180175617,9.54478447069865,-1.09078558346589,-0.028099801,0.010995574,0.007941248,128.6935,-104.32656,13.381711,STD
4143313413000,0.625008,2.46722815151438,9.55047714049376,-1.14628944833291,-0.032375857,0.009468411,0.011301007,128.70564,-104.33455,13.391759,STD
4143318398000,0.629993,2.47026584227539,9.55655249029651,-1.20552446575146,-0.03390302,0.007330383,0.005497787,128.71696,-104.34027,13.39846,STD
4143323509000,0.635104,2.47466478639098,9.5691991797345,-1.2662869408366,-0.026267206,0.0125227375,0.0106901415,128.72673,-104.35014,13.409229,STD
4143328462000,0.640057,2.47919485856174,9.58278953815299,-1.32517731143157,-0.027183503,0.016798794,0.009773844,128.7368,-104.3557,13.416404,STD
4143333414000,0.645009,2.49493484471545,9.58274845340838,-1.37347227398374,-0.018020526,0.01863139,0.0070249503,128.7446,-104.363235,13.413213,STD
4143338379000,0.649974,2.51475918821138,9.57779225109443,-1.41807721504065,-0.027183503,0.008246681,0.008857546,128.75447,-104.36957,13.410815,STD
4143343422000,0.655017,2.52060355991082,9.57109675939629,-1.41552363991278,-0.022602014,0.013133603,0.013744468,128.7583,-104.37888,13.405999,STD
4143348343000,0.659938,2.52291295986671,9.56416872832851,-1.40166736074876,-0.025961773,0.01863139,0.016187929,128.76454,-104.38603,13.400735,STD
4143353412000,0.665007,2.52529181546038,9.55703233542412,-1.38739435138433,-0.024740042,0.015271631,0.015271631,128.77162,-104.39691,13.396256,STD
4143358423000,0.670018,2.52764345195276,9.54997759783408,-1.37328465520655,-0.018020526,0.013744468,0.011911872,128.77618,-104.40764,13.391828,STD
4143363414000,0.675009,2.52482696607302,9.55497677965766,-1.33843334682893,-0.017104227,0.020158553,0.016798794,128.77325,-104.41495,13.386403,STD
4143368394000,0.679989,2.52010816108638,9.5644139954487,-1.29596444685861,-0.03359759,0.021685716,0.014660766,128.77171,-104.41816,13.377855,STD
4143374059000,0.685654,2.52284057849162,9.57965156517691,-1.262589866946,-0.029626964,0.01160644,0.01038471,128.7722,-104.42463,13.372397,STD
4143378454000,0.690049,2.52719506592179,9.59271516387337,-1.24081770260708,-0.02076942,0.01038471,0.013439035,128.76971,-104.43115,13.368728,STD
4143383413000,0.695008,2.5213978918083,9.58908178406241,-1.15629869699081,-0.025961773,0.020158553,0.018936822,128.76366,-104.43286,13.364813,STD
4143388412000,0.700007,2.5125050389895,9.58018879195691,-1.05403133064921,-0.02443461,0.016493361,0.010995574,128.76157,-104.43341,13.357585,STD
4143393422000,0.705017,2.50474882021647,9.58118143410549,-0.984520013616729,-0.026267206,0.009773844,0.010995574,128.77257,-104.44206,13.358996,STD
4143398426000,0.710021,2.49770800425094,9.58822217655125,-0.935234096002743,-0.03176499,0.018325957,0.013133603,128.77962,-104.44872,13.359035,STD
4143403404000,0.714999,2.49070377126206,9.59522633640237,-0.886204260294823,-0.03634648,0.012217305,0.010995574,128.79367,-104.45156,13.3617525,STD
4143408386000,0.719981,2.48369391012292,9.60223612434497,-0.837135027370586,-0.029321533,0.009468411,0.01863139,128.80432,-104.45817,13.368168,STD
4143414942000,0.726537,2.47630470665179,9.58918408274184,-0.740439979833705,-0.02443461,0.014966198,0.017104227,128.81377,-104.46103,13.371406,STD
4143418413000,0.730008,2.4729340495944,9.57570166568647,-0.67976873001014,-0.04184427,0.008857546,0.015882496,128.82735,-104.46423,13.376435,STD
4143423394000,0.734989,2.46230158687553,9.55871560541914,-0.613264289585097,-0.04886922,0.01038471,0.009162978,128.8379,-104.45732,13.377092,STD
4143428369000,0.739964,2.44717312159187,9.54358735076207,-0.562836071972904,-0.052534413,0.015882496,0.013439035,128.84917,-104.45188,13.380677,STD
4143433380000,0.744975,2.43575991422776,9.5321740821213,-0.523737733283863,-0.03573562,0.016493361,0.016187929,128.86209,-104.44498,13.386286,STD
4143438413000,0.750008,2.42622196342139,9.52263593212625,-0.490354880562976,-0.041233405,0.012217305,0.01160644,128.8747,-104.43504,13.391214,STD
4143443857000,0.755452,2.4404337137999,9.52634679172006,-0.475340016275012,-0.04550946,0.010995574,0.0125227375,128.88666,-104.42791,13.399573,STD
4143448389000,0.759984,2.46182457511089,9.53490331493347,-0.471061830611138,-0.041233405,0.01282817,0.01038471,128.89867,-104.41965,13.405891,STD
4143453320000,0.764915,2.46202558529828,9.52091890940344,-0.478054043880688,-0.040927973,0.0070249503,0.010995574,128.91383,-104.409615,13.412726,STD
4143458349000,0.769944,2.44741636572295,9.4917003685541,-0.492663278710819,-0.043982297,0.0015271631,0.009162978,128.92818,-104.39914,13.418531,STD
4143463335000,0.77493,2.43311442110792,9.49599118352988,-0.524907908457041,-0.02565634,0.0012217305,0.013439035,128.9427,-104.39115,13.425995,STD
4143468322000,0.779917,2.41891582769795,9.51965558824695,-0.567503881426023,-0.03604105,0.0027488936,0.0143553335,128.95802,-104.379295,13.432167,STD
4143473363000,0.784958,2.41628108753463,9.52014596794618,-0.592962394254056,-0.03848451,0.0076358155,0.018936822,128.97208,-104.372215,13.439013,STD
4143478335000,0.78993,2.42099174764543,9.50601403680253,-0.60709452215275,-0.043066,0.014049901,0.008552114,128.98471,-104.36072,13.44215,STD
4143483333000,0.794928,2.42565648331726,9.50564153905497,-0.629261786287367,-0.025961773,0.00580322,0.007941248,129.00807,-104.3555,13.445078,STD
4143488348000,0.799943,2.43028793495661,9.51490405544841,-0.657050234975892,-0.026267206,0.0106901415,0.01160644,129.0252,-104.347015,13.447075,STD
4143493337000,0.804932,2.4337323632984,9.519346,-0.694844034229781,-0.025350908,0.003970624,0.0106901415,129.04765,-104.34044,13.447689,STD
4143498330000,0.809925,2.43609623827862,9.519346,-0.742122052190034,-0.027183503,0.007330383,0.0125227375,129.06549,-104.33566,13.450718,STD
4143503403000,0.814998,2.43849798828357,9.519346,-0.79015757894997,-0.021991149,0.01985312,0.0125227375,129.07729,-104.33614,13.456309,STD
4143508429000,0.820024,2.44087748671149,9.519346,-0.837748069290093,-0.020463986,0.017104227,0.0070249503,129.09221,-104.335236,13.460583,STD
4143513731000,0.825326,2.44729925414233,9.52064941235277,-0.877553235207364,-0.029626964,0.015577064,0.011911872,129.10316,-104.33668,13.468157,STD
4143518392000,0.829987,2.45613575445412,9.52285857779867,-0.904062690007919,-0.031154128,0.0067195175,0.0125227375,129.11664,-104.33652,13.472722,STD
4143523506000,0.835101,2.46583106932099,9.52528245080669,-0.933148583989904,-0.026267206,0.0143553335,0.013744468,129.1246,-104.33894,13.475077,STD
4143528449000,0.840044,2.47520219591211,9.52762527526477,-0.961261914837177,-0.031154128,0.01282817,0.009468411,129.1374,-104.33897,13.475629,STD
4143533405000,0.845,2.48646771929457,9.5329729115348,-0.993033628979981,-0.025350908,0.016187929,0.016187929,129.16246,-104.34998,13.483495,STD
4143538438000,0.850033,2.50025223787417,9.54216281448999,-1.02979252111535,-0.0290161,0.0106901415,0.019242255,129.18965,-104.3573,13.488798,STD
4143543388000,0.854983,2.50829984631891,9.5456065873662,-1.06085988312981,-0.025045475,0.009773844,0.016187929,129.21362,-104.36825,13.493897,STD
4143548416000,0.860011,2.50588001866928,9.5383469528117,-1.08263833197648,-0.02565634,0.010995574,0.01863139,129.23804,-104.380356,13.501199,STD
4143553377000,0.864972,2.50349243613749,9.53118405563094,-1.10412657476255,-0.01985312,0.013439035,0.016187929,129.25345,-104.39022,13.504657,STD
4143558423000,0.870018,2.50106394562038,9.52389843193125,-1.12598298941655,-0.010079277,0.016493361,0.0106901415,129.26779,-104.399956,13.507847,STD
4143563352000,0.874947,2.50123534885314,9.52272376824546,-1.13288460458743,-0.024740042,0.010995574,0.0125227375,129.28357,-104.40887,13.512135,STD
4143568397000,0.879992,2.50603278267302,9.53231883626254,-1.11369486930791,-0.01985312,0.0076358155,0.011301007,129.29716,-104.418076,13.513997,STD
4143573397000,0.884992,2.50748616021295,9.54504852495849,-1.09150996127772,-0.015271631,0.02107485,0.016798794,129.3066,-104.42811,13.516082,STD
4143578418000,0.890013,2.5027889722868,9.56383717856794,-1.06332683372082,-0.02321288,0.010995574,0.01038471,129.32306,-104.4336,13.51368,STD
4143583431000,0.895026,2.50096477585679,9.57964361095156,-1.03819888176335,-0.01740966,0.0070249503,0.008857546,129.33398,-104.4435,13.515961,STD
4143588403000,0.899998,2.50552306128662,9.58876037219989,-1.01996569244687,-0.022296581,0.009162978,0.014049901,129.34564,-104.4514,13.518172,STD
4143593391000,0.904986,2.50707533369949,9.59391299093016,-1.00198075630102,-0.025045475,0.016798794,0.016798794,129.36101,-104.45787,13.519321,STD
4143598414000,0.910009,2.49737982500252,9.58421727975411,-0.985013603426383,-0.021685716,0.008246681,0.010995574,129.3799,-104.46339,13.519117,STD
4143603385000,0.91498,2.48778468788673,9.57462194225537,-0.968222100949814,-0.01985312,0.009162978,0.015271631,129.39401,-104.471794,13.524299,STD
4143608417000,0.920012,2.47807180718533,9.56490885871208,-0.951224547044745,-0.024740042,-0.0036651916,0.01160644,129.4138,-104.47604,13.524959,STD
4143614958000,0.926553,2.47293566529833,9.56401176229117,-0.93004887954813,-0.021685716,0.0106901415,0.01282817,129.42514,-104.48354,13.528897,STD
4143618398000,0.929993,2.47555655121718,9.57187450214797,-0.919565448076372,-0.027183503,0.015577064,0.0125227375,129.44232,-104.48817,13.530781,STD
4143623397000,0.934992,2.47936521653938,9.58330061742244,-0.904330949841687,-0.02687807,0.027794369,0.017715093,129.45451,-104.49912,13.5392885,STD
4143628418000,0.940013,2.48385520758098,9.59330827055233,-0.872521873980506,-0.0290161,0.01282817,0.006414085,129.47238,-104.50452,13.542264,STD
4143633394000,0.944989,2.48854691371468,9.60269148685635,-0.834987783993305,-0.03268129,0.0076358155,0.01038471,129.48409,-104.51498,13.551433,STD
4143638473000,0.950068,2.49665314756133,9.5854869364676,-0.820263636219333,-0.027794369,0.0106901415,0.008246681,129.49161,-104.51544,13.552418,STD
4143643456000,0.955051,2.50598189243476,9.55750109148666,-0.815599263782621,-0.029932396,0.008552114,0.01038471,129.50215,-104.51707,13.555508,STD
4143648448000,0.960043,2.5058769935304,9.54320743860277,-0.810782255225285,-0.026267206,0.009162978,0.0070249503,129.51337,-104.51661,13.557816,STD
4143653459000,0.965054,2.50096835088733,9.53584432087148,-0.805873615144991,-0.015577064,0.011301007,0.0125227375,129.5248,-104.519684,13.563279,STD
4143658449000,0.970044,2.49608027928707,9.5285120603488,-0.800985546096763,-0.026267206,0.013744468,0.018325957,129.53612,-104.52202,13.570291,STD
4143663482000,0.975077,2.49115008602772,9.521116616018,-0.796055355411446,-0.014049901,0.022602014,0.0106901415,129.54448,-104.52557,13.575189,STD
4143668457000,0.980052,2.48820886508974,9.5158244037261,-0.79839667475517,-0.02076942,0.01282817,0.008552114,129.56276,-104.527306,13.580718,STD
4143673522000,0.985117,2.48584318105248,9.51109313446157,-0.803128089764436,-0.027183503,0.020463986,0.004886922,129.5728,-104.52786,13.584319,STD
4143678544000,0.990139,2.48349758080862,9.50640203194499,-0.807819336788432,-0.01863139,0.021380283,0.008552114,129.5874,-104.53,13.588636,STD
4143683457000,0.995052,2.48120289064573,9.50181274746391,-0.81240876264046,-0.016493361,0.03359759,0.015271631,129.59616,-104.530846,13.593366,STD
4143688410000,1.000005,2.48191805181063,9.50781833867616,-0.824704040516474,-0.02321288,0.019547688,0.01282817,129.61195,-104.53026,13.595908,STD
4143693460000,1.005055,2.48431056863065,9.51978104768972,-0.841451843128525,-0.027183503,0.02321288,0.015271631,129.61911,-104.53328,13.602488,STD
4143699057000,1.010652,2.48696223529237,9.53303951944197,-0.860013714657168,-0.0290161,0.008246681,0.016187929,129.62767,-104.53188,13.604754,STD
4143703457000,1.015052,2.48904680440289,9.54346247383002,-0.874605859507272,-0.027183503,0.01282817,0.015882496,129.62946,-104.53092,13.608009,STD
4143708425000,1.02002,2.48853991781689,9.54950667767451,-0.8810662,-0.022602014,0.015882496,0.021380283,129.63612,-104.53201,13.612822,STD
4143713452000,1.025047,2.48615994595116,9.55188647557841,-0.8810662,-0.018325957,0.013439035,0.018325957,129.64275,-104.531,13.615132,STD
4143718444000,1.030039,2.48379654440874,9.55424970437018,-0.8810662,-0.036651913,0.0076358155,0.014966198,129.64911,-104.52978,13.617153,STD
4143723481000,1.035076,2.48141183816492,9.55663423630611,-0.8810662,-0.03023783,0.0143553335,0.02443461,129.65268,-104.534096,13.622243,STD
4143728453000,1.040048,2.47772900729951,9.56209297238023,-0.884618182540361,-0.036651913,0.01282817,0.024129177,129.66232,-104.541565,13.631066,STD
4143733453000,1.045048,2.47300561598658,9.56996526383455,-0.89091602392398,-0.028710667,0.013133603,0.020463986,129.66945,-104.55242,13.6415615,STD
4143738437000,1.050032,2.46829733952586,9.5778123639562,-0.897193712215171,-0.029626964,0.006414085,0.019242255,129.67883,-104.56141,13.651403,STD
4143743463000,1.055058,2.46354938657811,9.58572559132608,-0.903524302373985,-0.03268129,0.005192355,0.018020526,129.68625,-104.56974,13.660125,STD
4143748453000,1.060048,2.45883544204781,9.59358213819748,-0.909809548074836,-0.040317107,0.0018325958,0.027488936,129.6954,-104.575836,13.667886,STD
4143753457000,1.065052,2.45410827202183,9.60146072748496,-0.916112427731562,-0.03634648,0.004886922,0.017715093,129.70229,-104.57722,13.669886,STD
4143758398000,1.069993,2.44727731242091,9.60115192689575,-0.923758660474058,-0.03940081,0.0015271631,0.015271631,129.7123,-104.58158,13.67632,STD
4143763454000,1.075049,2.43785065068626,9.59172551124306,-0.933185371425095,-0.04734206,0.0012217305,0.0143553335,129.72012,-104.58362,13.680523,STD
4143769221000,1.080816,2.42967595577982,9.59204985178389,-0.955525152619776,-0.049785517,-0.004886922,0.01282817,129.72614,-104.58127,13.678956,STD
4143773470000,1.085065,2.42552791825688,9.6003455803262,-0.980413139536188,-0.049480084,-0.0012217305,0.0106901415,129.72925,-104.57816,13.67732,STD
4143778441000,1.090036,2.42729690441575,9.60226344226504,-1.00035270441575,-0.045814894,0.00061086525,0.013133603,129.7343,-104.57542,13.674989,STD
4143783452000,1.095047,2.43675712713518,9.59516837400818,-1.00981292713518,-0.045814894,-0.0021380284,0.011301007,129.73935,-104.570816,13.67098,STD
4143788400000,1.099995,2.44609841271007,9.5881625073678,-1.01915421271007,-0.044593163,-0.011911872,0.013439035,129.74544,-104.56799,13.666431,STD
4143793467000,1.105062,2.45566435733576,9.58098814878518,-1.02872015733576,-0.038789943,-0.0030543262,0.011301007,129.74657,-104.56414,13.6607275,STD
4143798378000,1.109973,2.46488886642662,9.58045662358895,-1.03247032631374,-0.04153884,-0.006414085,0.013439035,129.75412,-104.561424,13.656471,STD
4143803460000,1.115055,2.47436133659011,9.58992924211756,-1.02773411595952,-0.0421497,-0.011301007,0.009468411,129.75914,-104.55739,13.650206,STD
4143808355000,1.11995,2.48117905508114,9.59438884058975,-1.02629043478627,-0.053145275,-0.007330383,0.015577064,129.76479,-104.561424,13.652332,STD
4143815273000,1.126868,2.48445689055512,9.58783296427865,-1.03284620841579,-0.051923547,0.0030543262,0.01160644,129.76935,-104.562775,13.650518,STD
4143818378000,1.129973,2.48592807863645,9.584890495943,-1.03578863066495,-0.04734206,-0.0027488936,0.009773844,129.77779,-104.56627,13.651998,STD
4143823570000,1.135165,2.48838811358599,9.57997027191767,-1.04070877762715,-0.032375857,0.0027488936,0.0125227375,129.77979,-104.57104,13.654196,STD
4143828429000,1.140024,2.48722107979055,9.57543266119445,-1.04112336544014,-0.043982297,0.0027488936,0.017104227,129.77823,-104.567924,13.652131,STD
4143833455000,1.14505,2.47813852543636,9.57089128917822,-1.03204076366638,-0.04428773,0.0015271631,0.01160644,129.77528,-104.5655,13.648154,STD
4143838544000,1.150139,2.46826878255814,9.56638087645349,-1.02217098255814,-0.04642576,-0.003970624,0.01160644,129.77512,-104.57035,13.651438,STD
4143843465000,1.15506,2.45618069274966,9.56235142903557,-1.01008289274966,-0.043066,0.002443461,0.014966198,129.77177,-104.57505,13.654326,STD
4143848397000,1.159992,2.44406558221614,9.5583129745212,-0.997967782216142,-0.047647487,0.0076358155,0.0125227375,129.77057,-104.57264,13.651729,STD
4143853463000,1.165058,2.45005623199179,9.54569736846732,-0.999973165995897,-0.04795292,0.008552114,0.018936822,129.76907,-104.5743,13.652714,STD
4143858359000,1.169954,2.45921673073166,9.53195681166357,-1.00455341536583,-0.053450707,0.007941248,0.011911872,129.76617,-104.57081,13.649322,STD
4143863466000,1.175061,2.45744103413457,9.51752836104817,-0.994169902403704,-0.05131268,0.008857546,0.015882496,129.76344,-104.57368,13.651909,STD
4143868384000,1.179979,2.45280122501231,9.50360912747512,-0.980250475036942,-0.04642576,0.013133603,0.015271631,129.75966,-104.57321,13.651293,STD
4143873570000,1.185165,2.44421048313288,9.52254885606727,-0.969382244226068,-0.044898596,0.018325957,0.018936822,129.75595,-104.57635,13.654538,STD
4143878402000,1.189997,2.43516093663831,9.54969725931358,-0.960332650484013,-0.04184427,0.013133603,0.02076942,129.75407,-104.57941,13.656873,STD
4143883447000,1.195042,2.42937145643225,9.54196544596912,-0.9702307432247,-0.03726278,0.015577064,0.016798794,129.74187,-104.57344,13.653061,STD
4143888431000,1.200026,2.42506241340616,9.52042045580933,-0.987466735352532,-0.03604105,0.0125227375,0.011911872,129.73312,-104.56789,13.649341,STD
4143893425000,1.20502,2.43275645032945,9.51222513887481,-0.983707449265079,-0.025961773,0.009468411,0.015577064,129.72522,-104.56969,13.650733,STD
4143898414000,1.210009,2.45212944787633,9.517068489407,-0.959491177045109,-0.027183503,0.0021380284,0.01038471,129.71931,-104.56686,13.648041,STD
4143903401000,1.214996,2.46835788395722,9.52290536631016,-0.942764912032086,-0.02687807,0.010079277,0.010995574,129.71002,-104.56801,13.647412,STD
4143908516000,1.220111,2.48214491801295,9.52979902730087,-0.93242463649029,-0.03145956,0.013439035,0.009773844,129.70413,-104.56668,13.644513,STD
4143913392000,1.224987,2.49528774852238,9.53637057979173,-0.922567513608218,-0.02076942,0.008552114,0.01740966,129.69957,-104.57121,13.647988,STD
4143918420000,1.230015,2.4995465,9.53686608134587,-0.914471798108857,-0.022907447,0.0125227375,0.014049901,129.69131,-104.57073,13.648261,STD
4143923501000,1.235096,2.4995465,9.53445832592776,-0.907248685214745,-0.024740042,0.009773844,0.0125227375,129.68686,-104.57379,13.650836,STD
4143928442000,1.240037,2.4995465,9.5321169129144,-0.900224595309253,-0.020463986,0.016798794,0.016798794,129.68391,-104.5771,13.654894,STD
4143933420000,1.245015,2.4995465,9.52975796655121,-0.893147906471054,-0.02565634,0.016187929,0.0125227375,129.68378,-104.57661,13.6558,STD
4143938414000,1.250009,2.49638423829179,9.53840965304454,-0.8716694699387,-0.030543262,0.018020526,0.009162978,129.67868,-104.5752,13.656369,STD
4143943422000,1.255017,2.49148429812015,9.55310926890069,-0.842269798210053,-0.022602014,0.02443461,0.015882496,129.6727,-104.57622,13.658738,STD
4143948412000,1.260007,2.48052912369451,9.55450640410501,-0.845769635073986,-0.024740042,0.022296581,0.022296581,129.66898,-104.57494,13.660839,STD
4143953406000,1.265001,2.46683178549881,9.54994100610979,-0.864032752668258,-0.03756821,0.02687807,0.015577064,129.66145,-104.57175,13.6614275,STD
4143958392000,1.269987,2.46714863353224,9.56285025670017,-0.862625445979899,-0.027183503,0.036651913,0.013133603,129.652,-104.571785,13.665164,STD
4143963419000,1.275014,2.47722878951005,9.58805051507538,-0.847505290954774,-0.032986723,0.029626964,0.014966198,129.64635,-104.568504,13.667928,STD
4143968442000,1.280037,2.48201916973088,9.59433477932768,-0.841132813288644,-0.036957346,0.03023783,0.019547688,129.63535,-104.56539,13.668467,STD
4143973504000,1.285099,2.4844086243543,9.59194524985213,-0.838743333714511,-0.034208454,0.035430185,0.01740966,129.62523,-104.56124,13.6676235,STD
4143978543000,1.290138,2.48678722211159,9.58956657758281,-0.836364711119874,-0.042760566,0.047036625,0.018936822,129.61386,-104.55825,13.6706705,STD
4143983415000,1.29501,2.48908698958005,9.58726673807177,-0.834064919637224,-0.03604105,0.033292156,0.014966198,129.60857,-104.55514,13.671051,STD
4143988398000,1.299993,2.49875015701944,9.58931088012959,-0.827328549762419,-0.037873644,0.023518313,0.013744468,129.59537,-104.553505,13.674972,STD
4143993456000,1.305051,2.51301663681524,9.59406647270764,-0.81781754336933,-0.031154128,0.028099801,0.017715093,129.58241,-104.553795,13.67922,STD
4143998416000,1.310011,2.51333437303211,9.59864378644471,-0.818052871334126,-0.039095376,0.028405234,0.0143553335,129.57391,-104.55095,13.681701,STD
4144003465000,1.31506,2.50413520309631,9.60324323933413,-0.824952276402378,-0.041233405,0.028710667,0.019242255,129.56471,-104.55266,13.687704,STD
4144008454000,1.320049,2.49504535187634,9.6077880344352,-0.831769692105589,-0.03756821,0.032986723,0.017104227,129.55205,-104.54449,13.686404,STD
4144014960000,1.326555,2.48319155912485,9.61371476061831,-0.840660072254935,-0.03390302,0.03023783,0.018020526,129.54199,-104.53861,13.687318,STD
4144018440000,1.330035,2.47644988946309,9.6072278612729,-0.832901268948427,-0.04184427,0.017104227,0.014049901,129.534,-104.530426,13.686198,STD
4144024369000,1.335964,2.46442380799534,9.58317594948639,-0.802836203410992,-0.034208454,0.01740966,0.016493361,129.52345,-104.526344,13.687524,STD
4144028422000,1.340017,2.46576912542147,9.57001239194209,-0.788080250787694,-0.035124753,0.021991149,0.016187929,129.5145,-104.51821,13.684403,STD
4144033412000,1.345007,2.47487256032003,9.5563575010001,-0.77442513646252,-0.036957346,0.032375857,0.020158553,129.5042,-104.512825,13.683503,STD
4144038397000,1.349992,2.47946743773557,9.54992804721263,-0.768921164564874,-0.032986723,0.025961773,0.013744468,129.49765,-104.50463,13.679867,STD
4144043426000,1.355021,2.4770914027035,9.55467991879625,-0.776049212597928,-0.040011674,0.022296581,0.01863139,129.488,-104.49965,13.681015,STD
4144048409000,1.360004,2.47473710113962,9.559388325259,-0.783112060748397,-0.04184427,0.025045475,0.014966198,129.47888,-104.493164,13.680462,STD
4144053405000,1.365,2.47237665750863,9.56410901534287,-0.790193334952639,-0.03970624,0.01985312,0.009773844,129.47354,-104.48758,13.680669,STD
4144058363000,1.369958,2.46766257751691,9.56565320582969,-0.799605252078193,-0.03145956,0.014049901,0.015577064,129.47166,-104.48137,13.679995,STD
4144063417000,1.375012,2.45803242487067,9.56083802894946,-0.814050476019698,-0.033292156,0.017104227,0.015271631,129.4686,-104.47182,13.676458,STD
4144068414000,1.380009,2.45328978859667,9.55277120217793,-0.830114521183481,-0.035124753,0.020463986,0.016798794,129.46706,-104.46471,13.673527,STD
4144073457000,1.385052,2.4582513462708,9.53788673638792,-0.849960772603246,-0.024740042,0.02321288,0.015882496,129.46486,-104.45815,13.670091,STD
4144078352000,1.389947,2.46473941200393,9.528923,-0.860162543998033,-0.03176499,0.024740042,0.016798794,129.45909,-104.450584,13.666598,STD
4144083410000,1.395005,2.47426770399312,9.528923,-0.855398398003442,-0.036651913,0.020463986,0.009468411,129.45421,-104.441956,13.660598,STD
4144088366000,1.399961,2.48360384774527,9.528923,-0.850730326127367,-0.027183503,0.021991149,0.019242255,129.44781,-104.44019,13.660192,STD
4144094196000,1.405791,2.49458643815589,9.528923,-0.845239030922056,-0.03573562,0.016798794,0.021991149,129.44447,-104.43273,13.655647,STD
4144098367000,1.409962,2.49668295549867,9.53035475231676,-0.843236257416888,-0.02687807,0.025961773,0.015577064,129.43665,-104.428085,13.6517725,STD
4144103409000,1.415004,2.48729544485127,9.53504844229149,-0.844800842524788,-0.032375857,0.022907447,0.010995574,129.43419,-104.42277,13.648912,STD
4144108409000,1.420004,2.47798613242823,9.5397030336984,-0.846352394595295,-0.026572637,0.015271631,0.01282817,129.4356,-104.424545,13.651396,STD
4144113417000,1.425012,2.46866192510531,9.54436507245156,-0.847906429149115,-0.03176499,0.0143553335,0.013439035,129.43584,-104.42335,13.652366,STD
4144118508000,1.430103,2.45918318319616,9.54910437742207,-0.849486219467306,-0.03481932,0.024740042,0.022296581,129.43523,-104.42567,13.656335,STD
4144123431000,1.435026,2.45001723418443,9.55368728812131,-0.851013877635928,-0.034208454,0.030543262,0.020463986,129.43593,-104.42519,13.657339,STD
4144128392000,1.439987,2.4417581117162,9.55896339418338,-0.85102543181379,-0.036957346,0.019242255,0.016798794,129.434,-104.4335,13.666896,STD
4144133418000,1.445013,2.43940938316498,9.5683586026936,-0.84163040969697,-0.03176499,0.0125227375,0.021991149,129.42944,-104.44425,13.67842,STD
4144138389000,1.449984,2.43708635697555,9.57765099853609,-0.832338198208169,-0.031154128,0.0125227375,0.01985312,129.42511,-104.44754,13.681939,STD
4144143392000,1.454987,2.43474837668472,9.58700321265798,-0.822986169626702,-0.034513887,0.02687807,0.021991149,129.41882,-104.45336,13.688186,STD
4144148544000,1.460139,2.43422766799601,9.59458603688933,-0.814716028634098,-0.035124753,0.025045475,0.017104227,129.41716,-104.45685,13.691298,STD
4144153401000,1.464996,2.45741536370887,9.57603549292124,-0.823991126289133,-0.042760566,0.023823744,0.011911872,129.41132,-104.45974,13.695118,STD
4144158595000,1.47019,2.48057443822476,9.55801588781701,-0.832637878884137,-0.047036625,0.029626964,0.01740966,129.40913,-104.46449,13.70095,STD
4144163372000,1.474967,2.4828493211636,9.56256579622079,-0.825813149302834,-0.043982297,0.02443461,0.016798794,129.41031,-104.46614,13.703227,STD
4144168671000,1.480266,2.48537278875684,9.56761288950771,-0.818242656932869,-0.039095376,0.024129177,0.0106901415,129.40912,-104.47077,13.708972,STD
4144173484000,1.485079,2.48766481546494,9.57219708652412,-0.811366495435107,-0.03970624,0.01160644,0.01038471,129.41322,-104.47645,13.71563,STD
4144178769000,1.490364,2.48835221219281,9.57559390103425,-0.804856131951798,-0.0290161,0.013133603,0.012217305,129.41931,-104.47954,13.718326,STD
4144183448000,1.495043,2.47134496399089,9.56283864247082,-0.809107944002277,-0.033292156,0.0106901415,0.015271631,129.43005,-104.48148,13.72093,STD
4144188417000,1.500012,2.45328362261125,9.54929282503084,-0.813623279347187,-0.029626964,0.013439035,0.014049901,129.4424,-104.490074,13.728289,STD
4144193467000,1.505062,2.45448219605423,9.5466671225299,-0.811208865417919,-0.024740042,0.018325957,0.009162978,129.45448,-104.49798,13.735279,STD
4144198370000,1.509965,2.45748501311633,9.54516568264373,-0.808206049923579,-0.032070424,0.019242255,0.01282817,129.46675,-104.50686,13.744153,STD
4144203406000,1.515001,2.46056928534246,9.543623514325,-0.805121779307732,-0.04428773,0.0125227375,0.012217305,129.47884,-104.511314,13.747791,STD
4144208359000,1.519954,2.46360272464667,9.54210676299802,-0.802088341587261,-0.039095376,0.015882496,0.016187929,129.4876,-104.51876,13.753926,STD
4144214922000,1.526517,2.46762220014709,9.54009698327684,-0.798068868185394,-0.028099801,0.015577064,0.01160644,129.49892,-104.52304,13.757138,STD
4144218461000,1.530056,2.4697896424442,9.53901323949607,-0.795901427019889,-0.033292156,0.0061086523,0.0106901415,129.51184,-104.52824,13.762277,STD
4144223422000,1.535017,2.48072781644612,9.5484115784499,-0.804786682996219,-0.034513887,0.0015271631,0.011301007,129.52216,-104.532555,13.765587,STD
4144228432000,1.540027,2.49584431550095,9.56352786704474,-0.81990317678954,-0.033292156,0.009468411,0.016187929,129.53136,-104.53745,13.769895,STD
4144233673000,1.545268,2.4995465,9.56913062681697,-0.819804185749036,-0.03145956,0.013133603,0.022602014,129.54291,-104.54524,13.777587,STD
4144238444000,1.550039,2.4995465,9.57138969272224,-0.815286148292297,-0.03940081,0.009468411,0.018020526,129.55391,-104.5504,13.783398,STD
4144243398000,1.554993,2.4995465,9.57373540902798,-0.810594813653713,-0.03481932,0.01160644,0.014049901,129.56252,-104.56084,13.792866,STD
4144248414000,1.560009,2.4995465,9.57611048230001,-0.805844766308712,-0.032375857,0.005497787,0.021380283,129.57454,-104.57194,13.803763,STD
4144253421000,1.565016,2.49626652407258,9.57462030371614,-0.803358435832499,-0.03573562,0.013133603,0.016493361,129.58127,-104.578316,13.810237,STD
4144258403000,1.569998,2.49164524577212,9.57153938717593,-0.801818011340845,-0.042455133,0.013133603,0.015882496,129.59204,-104.58747,13.819462,STD
4144263416000,1.575011,2.4869952120266,9.56843929993866,-0.800268001710845,-0.04062254,0.0061086523,0.017104227,129.6031,-104.60027,13.831606,STD
4144268464000,1.580059,2.48231271245601,9.565317568366,-0.798707170150454,-0.026267206,0.009773844,0.01282817,129.61066,-104.6116,13.841962,STD
4144273446000,1.585041,2.47769143415556,9.56223665182578,-0.7971667456588,-0.03940081,0.013439035,0.018325957,129.62029,-104.62327,13.8550005,STD
4144278506000,1.590101,2.47299780344494,9.55910749933813,-0.795602203722274,-0.040927973,0.0012217305,0.01282817,129.63289,-104.63278,13.863106,STD
4144283415000,1.59501,2.46837536666002,9.5552124705472,-0.799756434131367,-0.03145956,0.0106901415,0.018325957,129.63824,-104.646255,13.876223,STD
4144288411000,1.600006,2.46360653452606,9.55044403677863,-0.809294093419715,-0.03970624,0.00580322,0.013133603,129.65074,-104.65332,13.883864,STD
4144293420000,1.605015,2.46618414557983,9.55549412637811,-0.818973390089833,-0.04184427,0.01038471,0.01038471,129.65906,-104.65872,13.889369,STD
4144298415000,1.61001,2.47595065553287,9.57014361086158,-0.828739869448755,-0.036957346,0.014966198,0.01282817,129.66861,-104.66394,13.894698,STD
4144303428000,1.615023,2.48167291295041,9.57296727451363,-0.838301905261105,-0.035124753,0.014660766,0.016493361,129.67781,-104.667816,13.898529,STD
4144308466000,1.620061,2.48402541256522,9.56590980023404,-0.847712001979619,-0.030848695,0.014049901,0.015882496,129.68556,-104.67177,13.901858,STD
4144313413000,1.625008,2.48633541963041,9.55897980315959,-0.856952126724853,-0.041233405,0.008246681,0.018020526,129.69823,-104.674835,13.905139,STD
4144318442000,1.630037,2.48868371668536,9.55193493651568,-0.866345413028426,-0.032375857,0.0143553335,0.011301007,129.70714,-104.67733,13.9059105,STD
4144323519000,1.635114,2.48776181253474,9.55470063934101,-0.873697310520048,-0.029321533,0.0125227375,0.013439035,129.72,-104.681305,13.909482,STD
4144328467000,1.640062,2.48305900272926,9.56880901965065,-0.878400169432314,-0.031154128,0.017715093,0.011911872,129.72849,-104.682785,13.910414,STD
4144333383000,1.644978,2.47839469656024,9.57880532430563,-0.883064495093407,-0.034513887,0.015271631,0.01282817,129.73006,-104.689644,13.91605,STD
4144338409000,1.650004,2.47363701153504,9.58356305900959,-0.887822160247109,-0.03573562,0.007330383,0.015271631,129.73174,-104.69634,13.921518,STD
4144343363000,1.654958,2.46731524755556,9.58288307444444,-0.881890917922222,-0.032070424,0.020463986,0.013744468,129.72533,-104.706406,13.929661,STD
4144349232000,1.660827,2.45690668474074,9.57247429425926,-0.85586947827963,-0.029932396,0.015577064,0.01740966,129.72672,-104.71793,13.939062,STD
4144353371000,1.664966,2.4527705440094,9.56667596642522,-0.843867044009397,-0.03023783,0.008246681,0.008857546,129.71962,-104.72353,13.942869,STD
4144358426000,1.670021,2.45750926014096,9.56430655887823,-0.848605760140955,-0.029626964,0.009162978,0.016493361,129.71219,-104.734474,13.952132,STD
4144363347000,1.674942,2.46212236045419,9.56199996055208,-0.853218860454189,-0.038179077,0.0067195175,0.016187929,129.70769,-104.738945,13.956426,STD
4144368441000,1.680036,2.46689763641347,9.55961227270948,-0.857994136413469,-0.036957346,0.0076358155,0.019242255,129.70233,-104.74709,13.963723,STD
4144373498000,1.685093,2.47158685720841,9.55534078471139,-0.864995601470129,-0.03940081,0.01038471,0.018936822,129.70166,-104.75772,13.9733305,STD
4144378515000,1.69011,2.47599608060017,9.54211343681747,-0.882632338500505,-0.040317107,0.0015271631,0.014049901,129.7041,-104.7678,13.981897,STD
4144383735000,1.69533,2.48000629057499,9.52872964225903,-0.899446443976554,-0.040011674,0.008246681,0.014660766,129.70149,-104.78003,13.992994,STD
4144388418000,1.700013,2.47166085169334,9.52455685746185,-0.882755627212505,-0.04428773,0.008246681,0.008246681,129.70313,-104.78817,14.000021,STD
4144393416000,1.705011,2.46275406042054,9.52010339207294,-0.864942109769259,-0.035430185,0.0030543262,0.00580322,129.71068,-104.8026,14.010193,STD
4144398431000,1.710026,2.46491962589039,9.5451084349511,-0.854551948219229,-0.042455133,-0.00061086525,0.008857546,129.71758,-104.814514,14.019817,STD
4144403451000,1.715046,2.46935545685551,9.57615943698099,-0.845680286288983,-0.03756821,0.009773844,0.00580322,129.7214,-104.82561,14.026927,STD
4144408428000,1.720023,2.46929071386746,9.58180774603479,-0.847335158397623,-0.04520403,0.0036651916,0.01282817,129.7312,-104.837074,14.036826,STD
4144415056000,1.726651,2.46624911961761,9.57268277272509,-0.856459941147156,-0.038179077,0.0012217305,0.0106901415,129.73642,-104.84668,14.04332,STD
4144419309000,1.730904,2.46429741467727,9.56682753562701,-0.862315055968182,-0.03268129,0.004276057,0.008552114,129.74184,-104.85654,14.051651,STD
4144423449000,1.735044,2.46239756552302,9.56112786913604,-0.868014603430926,-0.035430185,0.00061086525,0.015271631,129.74991,-104.86777,14.061418,STD
4144428400000,1.739995,2.46349239166344,9.54864068039938,-0.880501780769678,-0.03359759,0.00580322,0.013133603,129.75491,-104.87376,14.065593,STD
4144433444000,1.745039,2.46817496041101,9.52991050319891,-0.899232085096937,-0.036651913,0.009773844,0.018936822,129.7615,-104.88276,14.073645,STD
4144438384000,1.749979,2.47280752486352,9.5293030203474,-0.911788061990075,-0.03176499,-0.0018325958,0.016187929,129.77052,-104.88947,14.077272,STD
4144443446000,1.755041,2.47761926360298,9.55336146282878,-0.916599745462035,-0.023823744,0.009162978,0.016187929,129.77179,-104.89823,14.08378,STD
4144448363000,1.759958,2.47660882859261,9.571014230678,-0.917481376150425,-0.038789943,0.003970624,0.019242255,129.78105,-104.90631,14.089774,STD
4144453452000,1.765047,2.46697518762601,9.5806480225341,-0.912664585845029,-0.034513887,0.0033597588,0.0125227375,129.78534,-104.91389,14.093082,STD
4144463429000,1.775024,2.46727541228452,9.55620343857739,-0.903760547715478,-0.024740042,-0.0009162979,0.013133603,129.78004,-104.90146,14.080517,STD
4144468305000,1.7799,2.46996716055777,9.54019782569721,-0.90361561688247,-0.035124753,0.0061086523,0.014966198,129.76991,-104.8963,14.07659,STD
4144473389000,1.784984,2.46457888574591,9.55097403773794,-0.925168710503541,-0.03634648,0.0015271631,0.015271631,129.76279,-104.891174,14.070953,STD
4144478333000,1.789928,2.46291503846492,9.56016664706743,-0.934337726584854,-0.03176499,0.005192355,0.017104227,129.75844,-104.89439,14.073122,STD
4144483374000,1.794969,2.46762635893432,9.56723373846004,-0.922559489364692,-0.04734206,0.0021380284,0.01863139,129.7575,-104.89549,14.074919,STD
4144488695000,1.80029,2.47259936750756,9.57469336815653,-0.910127035437201,-0.03176499,0.0015271631,0.0143553335,129.75433,-104.89805,14.0737705,STD
4144493317000,1.804912,2.47691909042159,9.58117305401581,-0.899327786789792,-0.03634648,0.007330383,0.017104227,129.75046,-104.89952,14.075092,STD
4144498347000,1.809942,2.4841106390953,9.5826662703262,-0.893121494690056,-0.04428773,0.00580322,0.02076942,129.74886,-104.90116,14.075237,STD
4144503328000,1.814923,2.49821388382773,9.56856268197497,-0.902523690570612,-0.03145956,0.015271631,0.016798794,129.74226,-104.90292,14.074364,STD
4144508341000,1.819936,2.50690547448593,9.55654417987622,-0.907578834485925,-0.036651913,0.007330383,0.01863139,129.74496,-104.906395,14.078339,STD
4144513336000,1.824931,2.49735544134558,9.55176956218806,-0.898028801345578,-0.04153884,0.0036651916,0.013133603,129.74341,-104.90791,14.079328,STD
4144518337000,1.829932,2.48889470645098,9.54485191832709,-0.891718064774117,-0.046731193,-0.004581489,0.010995574,129.7496,-104.915825,14.085877,STD
4144523363000,1.834958,2.48414697571513,9.53060827993687,-0.896465845085816,-0.03145956,0.004581489,0.021991149,129.75182,-104.92705,14.094786,STD
4144528339000,1.839934,2.47945355326741,9.51887629257428,-0.90021986,-0.03145956,0.0143553335,0.021380283,129.75562,-104.93151,14.098804,STD
4144533330000,1.844925,2.47477413346468,9.51653666207352,-0.90021986,-0.026572637,-0.0021380284,0.006414085,129.76422,-104.93666,14.101214,STD
4144538328000,1.849923,2.47008815066082,9.51419375018356,-0.90021986,-0.0290161,-0.0009162979,0.01282817,129.75772,-104.94052,14.105429,STD
4144543339000,1.854934,2.46538997942631,9.51184474428509,-0.90021986,-0.030543262,-0.00030543262,0.013133603,129.75575,-104.939255,14.1032505,STD
4144548331000,1.859926,2.46070962205198,9.50950464501444,-0.90021986,-0.03481932,0.0009162979,0.014966198,129.7535,-104.93966,14.103397,STD
4144553408000,1.865003,2.45594957109256,9.50712470030349,-0.90021986,-0.027794369,0.004886922,0.013133603,129.7502,-104.94008,14.1026745,STD
4144558616000,1.870211,2.45106669825493,9.50468334673748,-0.90021986,-0.030848695,0.01038471,0.01282817,129.74948,-104.93802,14.100935,STD
4144563415000,1.87501,2.44656729219737,9.50243372005482,-0.90021986,-0.030848695,0.008246681,0.014660766,129.74982,-104.937065,14.099264,STD
4144568488000,1.880083,2.4421394898708,9.50067710771384,-0.900166070129203,-0.034513887,0.0061086523,0.016187929,129.7486,-104.93539,14.097621,STD
4144573422000,1.885017,2.44304528926504,9.50882928334547,-0.899260270734961,-0.033292156,0.018936822,0.0125227375,129.74352,-104.93331,14.095396,STD
4144578422000,1.890017,2.44396320514895,9.51709050713108,-0.898342354851053,-0.03634648,0.004886922,0.014049901,129.7417,-104.93014,14.092331,STD
4144583413000,1.895008,2.44487946878427,9.52533686071387,-0.897426091215734,-0.031154128,0.01282817,0.013439035,129.72974,-104.926414,14.088563,STD
4144588407000,1.900002,2.44579628316911,9.53358817103094,-0.896509276830886,-0.03390302,0.01038471,0.015882496,129.72522,-104.92304,14.085606,STD
4144593570000,1.905165,2.44674412311084,9.54211871071196,-0.895561436889161,-0.033292156,0.013133603,0.01863139,129.71703,-104.92049,14.082966,STD
4144598414000,1.910009,2.44763340001917,9.55012218431546,-0.89467215998083,-0.032986723,0.009468411,0.0143553335,129.7115,-104.91651,14.078878,STD
4144603430000,1.915025,2.44855425323391,9.55840984401718,-0.893751306766093,-0.034208454,-0.0009162979,0.019242255,129.70834,-104.92008,14.081686,STD
4144608461000,1.920056,2.4494778601963,9.56672228739025,-0.892827699803703,-0.027794369,0.005192355,0.016187929,129.70117,-104.92106,14.081303,STD
4144614949000,1.926544,2.45066894784726,9.57744205137446,-0.891636612152743,-0.03604105,0.013744468,0.020158553,129.69675,-104.923676,14.084042,STD
4144618473000,1.930068,2.45131589496224,9.58326456189856,-0.890989665037764,-0.034208454,0.01282817,0.014966198,129.69308,-104.92445,14.083157,STD
4144623495000,1.93509,2.45593330524593,9.58923110439691,-0.889219454287341,-0.033292156,0.01282817,0.018325957,129.69044,-104.9385,14.094689,STD
4144628461000,1.940056,2.46270063736186,9.59374250211071,-0.88696367063416,-0.03573562,0.014049901,0.015882496,129.6875,-104.94901,14.1027565,STD
4144633443000,1.945038,2.4694897732059,9.59826843513732,-0.884700619051368,-0.030848695,0.013439035,0.021685716,129.69212,-104.95691,14.108121,STD
4144638446000,1.950041,2.47630752644311,9.60281344576199,-0.882428028310961,-0.03604105,0.006414085,0.02076942,129.6979,-104.96099,14.110635,STD
4144643456000,1.955051,2.48450754644459,9.59936523403801,-0.883123496852445,-0.03848451,0.0033597588,0.023518313,129.69594,-104.96469,14.113638,STD
4144648455000,1.96005,2.49473051745676,9.58403091095452,-0.888235041069827,-0.03573562,0.0106901415,0.0061086523,129.69244,-104.96262,14.110654,STD
4144653398000,1.964993,2.49476320771012,9.57202358284281,-0.895426377263341,-0.033292156,-0.0012217305,0.01282817,129.69661,-104.96876,14.116589,STD
4144658390000,1.969985,2.48553670264402,9.56279683691981,-0.90465293050082,-0.026572637,0.01160644,0.016493361,129.69086,-104.97003,14.117495,STD
4144663353000,1.974948,2.48710220527035,9.56436236289869,-0.913151269640877,-0.03604105,0.015882496,0.016187929,129.69145,-104.97222,14.120125,STD
4144668403000,1.979998,2.50264417160762,9.57990469438419,-0.920922269038323,-0.045814894,0.003970624,0.01160644,129.6931,-104.97468,14.122351,STD
4144673854000,1.985449,2.51821075155585,9.59620565378317,-0.928216227589256,-0.03970624,0.00030543262,0.0143553335,129.68945,-104.97045,14.118475,STD
4144678427000,1.990022,2.50864754456818,9.60098685784474,-0.913871422100666,-0.03145956,0.011301007,0.015577064,129.6849,-104.96415,14.11316,STD
4144683392000,1.994987,2.49839496062181,9.60438549068262,-0.903674498575912,-0.032375857,0.009468411,0.007941248,129.6825,-104.94756,14.09919,STD
4144688412000,2.000007,2.48896473602393,9.59495551225971,-0.931965339768537,-0.027794369,0.0061086523,0.011301007,129.6778,-104.93608,14.089343,STD
4144693384000,2.004979,2.47849729232407,9.58524655164069,-0.95578499074049,-0.02687807,0.013439035,0.014966198,129.66975,-104.91898,14.075363,STD
4144698418000,2.010013,2.45516479246927,9.57124675936502,-0.932452471394831,-0.036651913,0.003970624,0.015271631,129.6678,-104.901924,14.061388,STD
4144703763000,2.015358,2.43314748215814,9.55658885936588,-0.910009487904591,-0.032375857,0.01038471,0.013744468,129.65874,-104.886696,14.046512,STD
4144709094000,2.020689,2.4405955092589,9.54417543765804,-0.912492169653764,-0.032375857,0.01282817,0.015577064,129.65384,-104.87172,14.032849,STD
4144713739000,2.025334,2.44708511456429,9.53335939116903,-0.914655376692764,-0.03970624,0.015271631,0.0143553335,129.63812,-104.85164,14.01636,STD
4144718448000,2.030043,2.45366413531414,9.52239431842054,-0.916848388952539,-0.03634648,0.0061086523,0.014049901,129.6256,-104.833954,14.000929,STD
4144723726000,2.035321,2.46103811524995,9.51010430908384,-0.919306388253258,-0.040927973,0.0021380284,0.011301007,129.60664,-104.81882,13.989219,STD
4144728544000,2.040139,2.46852999698352,9.51705969698352,-0.922289728793407,-0.030543262,0.01160644,0.008552114,129.58691,-104.80577,13.977854,STD
4144733802000,2.045397,2.47673164112972,9.52526134112972,-0.925570386451886,-0.038179077,0.008857546,0.0125227375,129.57251,-104.792206,13.967602,STD
4144738417000,2.050012,2.48393030749234,9.53246000749234,-0.928449852996938,-0.034513887,-0.00030543262,0.009773844,129.55794,-104.78084,13.957446,STD
4144743427000,2.055022,2.49174511106261,9.54027481106261,-0.931575774425044,-0.036957346,0.0012217305,0.0125227375,129.5369,-104.76983,13.949852,STD
4144748411000,2.060006,2.49951935876604,9.54804905876604,-0.934685473506417,-0.03481932,0.011301007,0.0143553335,129.51643,-104.75901,13.941486,STD
4144753434000,2.065029,2.50735444026972,9.55588414026972,-0.93781950610789,-0.03604105,0.0125227375,0.015271631,129.49869,-104.74855,13.933726,STD
4144758428000,2.070023,2.5127746678388,9.55035049308574,-0.927572950296326,-0.03756821,0.010995574,0.01863139,129.47949,-104.73976,13.927572,STD
4144763477000,2.075072,2.51755077048597,9.54079858702094,-0.91324464734196,-0.040927973,0.013744468,0.015271631,129.45908,-104.729454,13.920099,STD
4144768457000,2.080052,2.52228034545725,9.5385,-0.911586780859398,-0.04428773,0.005192355,0.01863139,129.44286,-104.72468,13.917989,STD
4144773603000,2.085198,2.52717382304637,9.5385,-0.914033517099097,-0.032375857,0.009773844,0.022907447,129.42247,-104.7206,13.915684,STD
4144779210000,2.090805,2.53250567863171,9.5385,-0.916699442108033,-0.03604105,0.007330383,0.013744468,129.40727,-104.713,13.911875,STD
4144783446000,2.095041,2.53653381136928,9.5385,-0.918713506373746,-0.03604105,0.011301007,0.018020526,129.38979,-104.71177,13.913397,STD
4144788405000,2.1,2.53457422208477,9.54177958064826,-0.902975872079977,-0.03848451,0.005192355,0.01160644,129.37558,-104.70605,13.910126,STD
4144793459000,2.105054,2.52993281032796,9.54642113780207,-0.879768546734753,-0.035124753,0.004276057,0.013744468,129.35951,-104.70447,13.910752,STD
4144798417000,2.110012,2.52217420021208,9.55112812906484,-0.886746335745304,-0.03390302,0.0027488936,0.0143553335,129.34703,-104.70429,13.912219,STD
4144803439000,2.115034,2.51246001303777,9.55598479155726,-0.911031702247021,-0.035430185,0.017104227,0.020158553,129.33069,-104.70618,13.916092,STD
4144808427000,2.120022,2.49992159516097,9.55458601060071,-0.922440695622301,-0.03390302,0.01038471,0.016187929,129.32124,-104.70522,13.917177,STD
4144813510000,2.125105,2.48558746531213,9.54980834982332,-0.927218755535925,-0.03726278,0.0067195175,0.010079277,129.30724,-104.704666,13.919618,STD
4144818455000,2.13005,2.47754516859607,9.55092456377575,-0.920406847971251,-0.035124753,0.0143553335,0.019547688,129.29971,-104.707344,13.922445,STD
4144823451000,2.135046,2.47296000401533,9.55550929746047,-0.906651502648778,-0.026572637,0.016798794,0.017715093,129.29453,-104.705635,13.920117,STD
4144828424000,2.140019,2.47334698574578,9.5593402924002,-0.901063488581928,-0.043676864,0.008857546,0.02076942,129.2934,-104.70032,13.916184,STD
4144833416000,2.145011,2.47813810506431,9.56253443865041,-0.902660528354769,-0.040317107,0.011911872,0.016187929,129.28821,-104.69521,13.909966,STD
4144838404000,2.149999,2.48292538534491,9.56572602548856,-0.904256288448305,-0.039095376,0.0067195175,0.009773844,129.28796,-104.688126,13.903809,STD
4144843419000,2.155014,2.48773857913145,9.56893488835811,-0.905860686377151,-0.040011674,0.016187929,0.008857546,129.2826,-104.681625,13.898508,STD
4144848966000,2.160561,2.49306236496075,9.57248415303157,-0.907635281653583,-0.03359759,0.022602014,0.016187929,129.27977,-104.67668,13.893763,STD
4144853454000,2.165049,2.49736976550192,9.57535581336229,-0.909071081833974,-0.043982297,0.014966198,0.01863139,129.27826,-104.66884,13.887504,STD
4144858439000,2.170034,2.49869181055052,9.57424296734989,-0.903813828498883,-0.042455133,0.014049901,0.017715093,129.27475,-104.66955,13.887392,STD
4144863460000,2.175055,2.49711234948101,9.56950465011168,-0.892757591116805,-0.038179077,0.022296581,0.01740966,129.27094,-104.6704,13.888196,STD
4144868488000,2.180083,2.4955306864144,9.56475972697412,-0.881685939741164,-0.03726278,0.016187929,0.013133603,129.27286,-104.67197,13.889249,STD
4144873543000,2.185138,2.49394052993036,9.55998932393904,-0.870554834390356,-0.046731193,0.015577064,0.013439035,129.27094,-104.674065,13.891782,STD
4144878511000,2.190106,2.49237774112469,9.55530102279595,-0.859615302959532,-0.04734206,0.0106901415,0.01282817,129.27882,-104.679,13.894716,STD
4144883454000,2.195049,2.4908228165944,9.55063631415057,-0.848730821505715,-0.051923547,0.013439035,0.016798794,129.28458,-104.68393,13.899154,STD
4144888392000,2.199987,2.49207226995759,9.55858984978795,-0.851169279830358,-0.04795292,0.01985312,0.01863139,129.29042,-104.688736,13.902718,STD
4144893446000,2.205041,2.49684602942105,9.58245864710524,-0.87026431768419,-0.054367006,0.020463986,0.013133603,129.29689,-104.69116,13.905175,STD
4144898417000,2.210012,2.49779425174565,9.59771310187993,-0.879313951745647,-0.05131268,0.018020526,0.017715093,129.3029,-104.69764,13.912465,STD
4144903442000,2.215037,2.49362519517456,9.60188181018799,-0.875144895174565,-0.05009095,0.0009162979,0.010995574,129.31253,-104.69877,13.914571,STD
4144908454000,2.220049,2.48933111283011,9.60489845950704,-0.875320966362236,-0.057421334,0.005192355,0.011301007,129.3235,-104.69892,13.9156885,STD
4144913463000,2.225058,2.4840527578235,9.5996204903169,-0.906991454659991,-0.04062254,0.018020526,0.014660766,129.33643,-104.7005,13.915702,STD
4144918605000,2.2302,2.47727269494387,9.59128046910688,-0.930510394382626,-0.04642576,0.0106901415,0.013439035,129.35214,-104.693016,13.909972,STD
4144923454000,2.235049,2.4682071711469,9.5776819704246,-0.93504313261591,-0.04184427,0.014660766,0.015577064,129.36064,-104.69003,13.90694,STD
4144928426000,2.240021,2.46243042047952,9.56842114535464,-0.93733592952048,-0.03604105,0.014660766,0.015882496,129.37166,-104.68576,13.901063,STD
4144933417000,2.245012,2.46720542635365,9.57319625094905,-0.932560923646354,-0.043066,0.018020526,0.0125227375,129.38017,-104.68049,13.895131,STD
4144938406000,2.250001,2.46966506508062,9.57565594104264,-0.925497146443763,-0.04428773,0.013439035,0.015577064,129.39066,-104.67761,13.890016,STD
4144943425000,2.25502,2.46491029614205,9.57090107280641,-0.911232844592937,-0.03726278,0.01038471,0.013744468,129.39923,-104.672806,13.882901,STD
4144948435000,2.26003,2.46334298197213,9.56302267998839,-0.89706434692665,-0.047647487,0.011301007,0.016798794,129.40422,-104.65981,13.871665,STD
4144953438000,2.265033,2.47261586382814,9.54447710992839,-0.883155067714341,-0.042760566,0.016187929,0.015271631,129.40858,-104.647606,13.859083,STD
4144958407000,2.270002,2.4811436377104,9.53117490529304,-0.87073875445143,-0.03268129,0.016798794,0.013133603,129.41391,-104.6356,13.8477745,STD
4144963437000,2.275032,2.4860281237173,9.54582831230988,-0.865854217440681,-0.03634648,0.016798794,0.016798794,129.41798,-104.62442,13.838217,STD
4144968457000,2.280052,2.4899697,9.55807143587179,-0.863167884021823,-0.043982297,0.018325957,0.015577064,129.42172,-104.61387,13.829672,STD
4144973502000,2.285097,2.4899697,9.5602681153444,-0.869757798579677,-0.03970624,0.015577064,0.021685716,129.42688,-104.60742,13.824477,STD
4144978436000,2.290031,2.4899697,9.56241646351443,-0.87620272195499,-0.038789943,0.024740042,0.016187929,129.41566,-104.59586,13.817012,STD
4144983456000,2.295051,2.4899697,9.56460225755854,-0.8827599808411,-0.031154128,0.029321533,0.019242255,129.40724,-104.589645,13.813782,STD
4144988378000,2.299973,2.4899697,9.56674538072289,-0.889189229493976,-0.044593163,0.02321288,0.017104227,129.3993,-104.57905,13.807704,STD
4144993456000,2.305051,2.4899697,9.5659921331008,-0.88197815973595,-0.040927973,0.015882496,0.0076358155,129.39066,-104.56987,13.800679,STD
4144998348000,2.309943,2.4899697,9.56446485822793,-0.871287442941061,-0.032070424,0.024129177,0.01160644,129.37979,-104.56336,13.797336,STD
4145003436000,2.315031,2.4899697,9.56287639245664,-0.860168398163385,-0.041233405,0.01740966,0.0125227375,129.36847,-104.559685,13.79606,STD
4145008464000,2.320059,2.4899697,9.56130665859304,-0.849180474196766,-0.034208454,0.016798794,0.014660766,129.35352,-104.55974,13.796587,STD
4145014954000,2.326549,2.4899697,9.55928049057895,-0.834997573134046,-0.03634648,0.011301007,0.013744468,129.35217,-104.555244,13.793232,STD
4145018479000,2.330074,2.4899697,9.55817999100274,-0.827294225484418,-0.040011674,0.02107485,0.01282817,129.34665,-104.55196,13.790943,STD
4145023470000,2.335065,2.49313307520876,9.5623981619081,-0.82360536,-0.03756821,0.017104227,0.01160644,129.34682,-104.54886,13.787972,STD
4145028459000,2.340054,2.49791117963398,9.56956546822341,-0.82360536,-0.030848695,0.021991149,0.006414085,129.34149,-104.54464,13.784154,STD
4145033434000,2.345029,2.50267587586879,9.57671266183309,-0.82360536,-0.03481932,0.022602014,0.01160644,129.33934,-104.54236,13.784723,STD
4145038418000,2.350013,2.50744919165458,9.58387278503925,-0.82360536,-0.031154128,0.018020526,0.008857546,129.33711,-104.53798,13.781647,STD
4145043419000,2.355014,2.51223334596187,9.59260389707497,-0.804945064743935,-0.030848695,0.022602014,0.012217305,129.33243,-104.53618,13.782115,STD
4145048419000,2.360014,2.51701361949686,9.60216414465409,-0.776263393584906,-0.036957346,0.022296581,0.01160644,129.33044,-104.532455,13.78055,STD
4145053400000,2.364995,2.51718385581475,9.59947205492396,-0.772209486240465,-0.03176499,0.01282817,0.013744468,129.3291,-104.52954,13.779396,STD
4145058430000,2.370025,2.51481310410453,9.58998909759339,-0.781692507934446,-0.034208454,0.010995574,0.013744468,129.32571,-104.52487,13.77777,STD
4145063453000,2.375048,2.51244565165116,9.58051933722132,-0.791162332580343,-0.028099801,0.016798794,0.0143553335,129.32123,-104.52355,13.779865,STD
4145068531000,2.380126,2.51005227646538,9.57094588646095,-0.800735848318323,-0.03023783,0.015271631,0.008857546,129.31946,-104.51976,13.780053,STD
4145073473000,2.385068,2.50220892021871,9.56861290483597,-0.80445176,-0.036651913,0.02321288,0.016798794,129.31375,-104.520096,13.784643,STD
4145078443000,2.390038,2.49064228692588,9.57092627980559,-0.80445176,-0.034208454,0.013133603,0.015577064,129.31367,-104.51718,13.784628,STD
4145083445000,2.39504,2.47900118034022,9.57325454974484,-0.80445176,-0.03268129,0.016798794,0.019242255,129.3066,-104.51603,13.786788,STD
4145088430000,2.400025,2.46739963769137,9.57557490673147,-0.80445176,-0.034513887,0.013439035,0.021380283,129.3047,-104.51416,13.787796,STD
4145093452000,2.405047,2.46236740733062,9.57567886911021,-0.80445176,-0.03726278,0.008552114,0.0143553335,129.30217,-104.51772,13.793025,STD
4145098411000,2.410006,2.46472289543696,9.57332333181232,-0.80445176,-0.040317107,0.015577064,0.02107485,129.29767,-104.525276,13.802795,STD
4145103950000,2.415545,2.46735387922825,9.57069229307609,-0.80445176,-0.037873644,0.017104227,0.014966198,129.29517,-104.52473,13.803149,STD
4145108474000,2.420069,2.46950274557088,9.56854338185696,-0.80445176,-0.044593163,0.008246681,0.009773844,129.294,-104.525154,13.8055315,STD
4145113410000,2.425005,2.46874752644513,9.56929861675455,-0.80858890710974,-0.036651913,0.012217305,0.007330383,129.28908,-104.52264,13.80421,STD
4145118455000,2.43005,2.46394054644314,9.57410569714456,-0.81820286711372,-0.042760566,0.015882496,0.013439035,129.28703,-104.519394,13.803762,STD
4145123434000,2.435029,2.46022278140007,9.57274094682905,-0.826654920045547,-0.04062254,0.016798794,0.016798794,129.28477,-104.51701,13.802767,STD
4145128427000,2.440022,2.45785548785088,9.5632718220704,-0.833756810580722,-0.04062254,0.017715093,0.01282817,129.28152,-104.51371,13.801575,STD
4145133349000,2.444944,2.45552185699787,9.55393734739344,-0.840757712886777,-0.043066,0.005497787,0.016493361,129.28195,-104.51281,13.802016,STD
4145138467000,2.450062,2.45309529813852,9.54423116263181,-0.84803739959998,-0.041233405,0.010079277,0.013744468,129.27707,-104.50958,13.799974,STD
4145143370000,2.454965,2.44670407423617,9.53684715689513,-0.845724558744839,-0.037873644,0.004886922,0.009773844,129.28452,-104.509575,13.799775,STD
4145148413000,2.460008,2.43341043195706,9.53241585026149,-0.827999683864575,-0.0421497,0.0067195175,0.006414085,129.28839,-104.508514,13.799267,STD
4145153364000,2.464959,2.43659581464968,9.529899,-0.815980523312102,-0.03390302,-0.00030543262,0.008857546,129.29681,-104.50698,13.796096,STD
4145158495000,2.47009,2.50842831451394,9.53503,-0.826242330437507,-0.032375857,0.008246681,0.0125227375,129.29993,-104.50408,13.792891,STD
4145163354000,2.474949,2.55528097786646,9.53806841045357,-0.831455876514503,-0.033292156,0.009162978,0.014660766,129.30698,-104.50054,13.788945,STD
4145168463000,2.480058,2.54893124440335,9.53648094393615,-0.825106138078645,-0.044898596,0.013744468,0.010079277,129.31024,-104.49549,13.784537,STD
4145173810000,2.485405,2.54228571204335,9.53481952615015,-0.818460600514243,-0.043676864,0.010079277,0.01160644,129.31456,-104.50886,13.797507,STD
4145178430000,2.490025,2.53654373345662,9.53338400152489,-0.812718617430731,-0.032986723,0.010079277,0.014660766,129.31638,-104.52093,13.809512,STD
4145183384000,2.494979,2.53038664213224,9.53184469654792,-0.806561521284472,-0.037873644,0.0106901415,0.009162978,129.3211,-104.52436,13.81457,STD
4145188420000,2.500015,2.52412763690221,9.53027991256246,-0.800302511152748,-0.031154128,0.00580322,0.007941248,129.32751,-104.531586,13.821442,STD
4145193389000,2.504984,2.51754739909027,9.53007572498251,-0.796604020762771,-0.025961773,0.015271631,0.014660766,129.32948,-104.538826,13.829249,STD
4145198419000,2.510014,2.50791602770169,9.53970729751075,-0.811051072817155,-0.03573562,0.009468411,0.0076358155,129.33691,-104.541145,13.832238,STD
4145203420000,2.515015,2.49699840303235,9.54756736996368,-0.826663078489737,-0.022907447,0.013133603,0.014966198,129.339,-104.55127,13.841593,STD
4145208425000,2.52002,2.4767551882338,9.54351864245291,-0.850954953158206,-0.025961773,0.026572637,0.018020526,129.33957,-104.55599,13.84773,STD
4145214975000,2.52657,2.45131059124894,9.53814808389975,-0.880714291248938,-0.020158553,0.01160644,0.008246681,129.3467,-104.55959,13.84928,STD
4145218472000,2.530067,2.44775387187766,9.53459129025064,-0.877157571877655,-0.019242255,0.012217305,0.009773844,129.34567,-104.56623,13.8554125,STD
4145223383000,2.534978,2.44275900518267,9.52959631924384,-0.872162705182668,-0.03359759,0.009773844,0.014049901,129.35414,-104.57543,13.860713,STD
4145228434000,2.540029,2.43998881118483,9.54989210710901,-0.858907926976303,-0.029626964,0.008857546,0.01038471,129.36156,-104.58423,13.86401,STD
4145233344000,2.544939,2.43764300938888,9.57335037001746,-0.844832959433275,-0.023823744,0.010079277,0.011911872,129.369,-104.594185,13.869797,STD
4145238399000,2.549994,2.43522793238713,9.59750139221751,-0.830342336025942,-0.020463986,0.0070249503,0.0125227375,129.37756,-104.60233,13.873714,STD
4145243706000,2.555301,2.43269245985533,9.62285638228985,-0.815129331392367,-0.0290161,0.002443461,0.013744468,129.38599,-104.610214,13.878049,STD
4145248422000,2.560017,2.43659028523364,9.60836577383178,-0.809947232149533,-0.026572637,0.007941248,0.016493361,129.39822,-104.61679,13.879946,STD
4145253362000,2.564957,2.44124438242991,9.58974928785047,-0.80529308635514,-0.02443461,0.008552114,0.016187929,129.41272,-104.62192,13.881057,STD
4145258380000,2.569975,2.45364229678206,9.59023627937592,-0.812156157854705,-0.029626964,0.008552114,0.015577064,129.421246796968,-104.624211826885,13.8820893228959,STD
4145263390000,2.574985,2.46767830887372,9.59491504778157,-0.821513499249147,-0.03481932,0.0030543262,0.010079277,129.42976,-104.6265,13.88312,STD
4145268462000,2.580057,2.47831214151317,9.59221290097049,-0.819857339243415,-0.02687807,0.0009162979,0.01038471,129.44531,-104.63434,13.886896,STD
4145273540000,2.585135,2.48794394789067,9.58739689720737,-0.815041436054664,-0.029321533,-0.0033597588,0.008857546,129.46275,-104.639084,13.889634,STD
4145278485000,2.59008,2.4899697,9.58152019652857,-0.822540265592926,-0.028099801,0.002443461,0.01740966,129.47842,-104.65148,13.898778,STD
4145283390000,2.594985,2.4899697,9.5753667386933,-0.833308879452432,-0.03573562,-0.00030543262,0.014660766,129.49704,-104.65909,13.903793,STD
4145288412000,2.600007,2.4899697,9.56906650112985,-0.844334359330604,-0.027794369,-0.0036651916,0.011911872,129.5142,-104.67136,13.912793,STD
4145293439000,2.605034,2.4899697,9.56275999092844,-0.855370816389062,-0.025350908,-0.0009162979,0.015577064,129.53001,-104.68313,13.922693,STD
4145298411000,2.610006,2.4899697,9.55652247974455,-0.866286524464385,-0.03023783,0.006414085,0.0067195175,129.5446,-104.690475,13.92805,STD
4145303439000,2.615034,2.4899697,9.55021471501555,-0.8773251769589,-0.024129177,0.007941248,0.0067195175,129.55994,-104.70208,13.936664,STD
4145308538000,2.620133,2.48671254747546,9.551333914446,-0.887580593478261,-0.025350908,-0.0009162979,0.011911872,129.56386,-104.71168,13.945486,STD
4145313459000,2.625054,2.48199135525947,9.55605476157083,-0.897023106086957,-0.022602014,0.00580322,0.0070249503,129.56247,-104.719154,13.951588,STD
4145318506000,2.630101,2.48339076156837,9.56065085547634,-0.885230876863253,-0.03145956,0.008552114,0.009162978,129.56378,-104.726006,13.956973,STD
4145323522000,2.635117,2.4878381948801,9.56509842810851,-0.862993450239793,-0.027488936,0.008857546,0.0067195175,129.5636,-104.7315,13.95961,STD
4145328538000,2.640133,2.49541475912059,9.56178511144972,-0.855058329560296,-0.028099801,0.0070249503,0.01038471,129.56314,-104.7372,13.963212,STD
4145333455000,2.64505,2.50566489529822,9.55153529636482,-0.860183397649108,-0.03756821,0.011911872,0.010079277,129.56046,-104.74055,13.965039,STD
4145338456000,2.650051,2.50594324479607,9.54966689477868,-0.865092655203935,-0.019242255,0.008857546,0.0076358155,129.56438,-104.746735,13.968158,STD
4145343475000,2.65507,2.50116745273486,9.55205459133588,-0.86986844726514,-0.018936822,0.0106901415,0.016798794,129.56564,-104.75338,13.974631,STD
4145348452000,2.660047,2.49643162546078,9.55442230716876,-0.874604274539222,-0.021991149,0.014966198,0.019242255,129.56708,-104.76008,13.979687,STD
4145353443000,2.665038,2.49168247659099,9.55679668324308,-0.879353423409012,-0.026572637,0.0143553335,0.013744468,129.56937,-104.76672,13.984796,STD
4145358466000,2.670061,2.49292056294455,9.56060392456979,-0.889918807321224,-0.021380283,0.01985312,0.01038471,129.5723,-104.780334,13.995389,STD
4145363456000,2.675051,2.4974892275717,9.56517268460803,-0.903624829826004,-0.0143553335,0.02076942,0.013439035,129.57663,-104.793564,14.005806,STD
4145368504000,2.680099,2.49820163803269,9.56319547026973,-0.90172747977038,-0.024740042,0.018325957,0.015271631,129.57973,-104.802895,14.012769,STD
4145373532000,2.685127,2.49578751237341,9.55595319412414,-0.887242710689863,-0.02076942,0.018325957,0.014049901,129.58174,-104.81378,14.019517,STD
4145378465000,2.69006,2.49341899966911,9.54884775493833,-0.873031619624987,-0.022296581,0.0061086523,0.014049901,129.58174,-104.821014,14.024301,STD
4145383457000,2.695052,2.49102215891908,9.54165733279856,-0.858650560108292,-0.018936822,0.01038471,0.015271631,129.57697,-104.8288,14.02928,STD
4145388401000,2.699996,2.48871535330541,9.53975438598829,-0.85359015979249,-0.014660766,0.013439035,0.012217305,129.576,-104.83513,14.032541,STD
4145393493000,2.705088,2.48639444728476,9.54207536471372,-0.85591109004807,-0.03268129,0.0067195175,0.0143553335,129.5768,-104.8412,14.037311,STD
4145398423000,2.710018,2.48414737998667,9.5443225024035,-0.858158180810052,-0.024129177,0.010079277,0.01282817,129.57033,-104.844246,14.038922,STD
4145403463000,2.715058,2.48185017528437,9.54661977906811,-0.860455409499786,-0.022602014,0.007330383,0.008857546,129.56775,-104.844894,14.040089,STD
4145408418000,2.720013,2.47695303302855,9.548077,-0.864492573881596,-0.022907447,0.0021380284,0.015271631,129.56523,-104.848495,14.0437355,STD
4145413354000,2.724949,2.46729451370486,9.548077,-0.871736459592379,-0.02076942,0.009468411,0.007941248,129.5595,-104.84764,14.042541,STD
4145418435000,2.73003,2.45735226559228,9.548077,-0.879193141783726,-0.025961773,0.010995574,0.015271631,129.55713,-104.84736,14.042889,STD
4145423423000,2.735018,2.44759199525464,9.548077,-0.886513340715125,-0.024129177,0.0106901415,0.013744468,129.55286,-104.84365,14.03886,STD
4145428944000,2.740539,2.43693328072145,9.54550073655967,-0.885490624581139,-0.013439035,0.004581489,0.013744468,129.5502,-104.842766,14.037309,STD
4145433430000,2.745025,2.42839476838915,9.54123139123522,-0.876952085501342,-0.0143553335,0.005192355,0.009162978,129.54564,-104.83941,14.034229,STD
4145438364000,2.749959,2.42684703666073,9.54241481402258,-0.879319285585264,-0.014966198,0.0076358155,0.01282817,129.54875,-104.83381,14.02653,STD
4145443421000,2.755016,2.43643901083383,9.55200648772034,-0.898503263979006,-0.017104227,0.0036651916,0.010995574,129.55319,-104.825516,14.016106,STD
4145448358000,2.759953,2.44642843188789,9.55827340322581,-0.909176269730301,-0.01863139,0.0061086523,0.011911872,129.55716,-104.8172,14.006235,STD
4145453424000,2.765019,2.45765306441036,9.55987695564516,-0.907572750798519,-0.0143553335,0.014049901,0.013439035,129.56046,-104.8092,13.996389,STD
4145458361000,2.769956,2.46859187427287,9.56143967540323,-0.906010063675304,-0.01863139,0.013439035,0.019242255,129.56891,-104.80454,13.989298,STD
4145463486000,2.775081,2.47994723188789,9.56306190322581,-0.904387869730301,-0.01740966,0.014660766,0.019547688,129.57417,-104.79988,13.981537,STD
4145468354000,2.779949,2.49073315986251,9.56460278225807,-0.902847022876785,-0.022907447,0.006414085,0.011911872,129.58214,-104.79375,13.9731,STD
4145473428000,2.785023,2.50197551782126,9.56620886693548,-0.90124097173982,-0.015271631,0.013439035,0.01038471,129.5852,-104.79082,13.967078,STD
4145478361000,2.789956,2.51056692394913,9.56289918844931,-0.894445355158954,-0.02687807,0.014966198,0.014049901,129.59201,-104.78512,13.960269,STD
4145483356000,2.794951,2.51479123655952,9.55022642705758,-0.877548078251501,-0.021380283,0.011301007,0.01160644,129.59789,-104.77983,13.951558,STD
4145488356000,2.799951,2.51833193011442,9.53960451350115,-0.862096684942792,-0.021380283,0.012217305,0.007330383,129.60284,-104.777176,13.948328,STD
4145493346000,2.804941,2.51347169802695,9.5541852605136,-0.864526800986524,-0.0143553335,0.014660766,0.01038471,129.60835,-104.77711,13.946563,STD
4145498623000,2.810218,2.50833192954488,9.56960461962878,-0.867096685227562,-0.021685716,0.015577064,0.014049901,129.61755,-104.76448,13.936207,STD
4145503383000,2.814978,2.50369571617086,9.58351330816171,-0.869414791914569,-0.028099801,0.009468411,0.015271631,129.6279,-104.75322,13.926336,STD
4145508366000,2.819961,2.50092647536622,9.5932009916293,-0.872869379689088,-0.031154128,0.015577064,0.014049901,129.63422,-104.742355,13.917531,STD
4145513394000,2.824989,2.51052331650224,9.57400690852018,-0.882466250887892,-0.03023783,0.005192355,0.0143553335,129.64703,-104.73245,13.90935,STD
4145518386000,2.829981,2.51936957523697,9.55631410545024,-0.893990400533175,-0.025045475,0.0106901415,0.014049901,129.64742,-104.72072,13.899705,STD
4145523396000,2.834991,2.52410696356635,9.54683972452607,-0.917677089899289,-0.02076942,0.010079277,0.013133603,129.65253,-104.70937,13.889977,STD
4145528363000,2.839958,2.52776768549673,9.53900929588963,-0.938272394077911,-0.017104227,0.017104227,0.016798794,129.65411,-104.7017,13.8835335,STD
4145533392000,2.844987,2.52316922474817,9.5436075885807,-0.935973175707739,-0.022907447,0.013744468,0.014660766,129.65866,-104.69207,13.875225,STD
4145538366000,2.849961,2.51862105537786,9.54815559173151,-0.933699102895403,-0.01985312,0.007941248,0.014966198,129.6638,-104.69088,13.87224,STD
4145543407000,2.855002,2.51401162196496,9.55276485668592,-0.931394398221702,-0.019242255,0.01160644,0.01740966,129.66702,-104.689064,13.869559,STD
4145548373000,2.859968,2.50947076770421,9.55730554499451,-0.929123982945052,-0.020158553,0.0033597588,0.0106901415,129.6705,-104.67842,13.858943,STD
4145553413000,2.865008,2.49642267257506,9.55976981544372,-0.92683347876251,-0.012217305,0.002443461,0.009773844,129.67093,-104.67122,13.85124,STD
4145558442000,2.870037,2.48271635169094,9.56205424996443,-0.924549091948489,-0.010995574,0.007330383,0.011911872,129.67192,-104.66268,13.842784,STD
4145563505000,2.8751,2.46891736528483,9.56435412906133,-0.922249260880805,-0.028099801,0.015271631,0.01985312,129.67546,-104.65519,13.835853,STD
4145568731000,2.880326,2.4546741294645,9.56672805127354,-0.919875388244083,-0.028405234,0.0125227375,0.015882496,129.68033,-104.64701,13.826287,STD
4145573447000,2.885042,2.47228989325977,9.58098152371011,-0.915935554713192,-0.023823744,0.018936822,0.014049901,129.68034,-104.64071,13.820266,STD
4145578389000,2.889984,2.50052046027438,9.59980180345959,-0.91123046512377,-0.028405234,0.018325957,0.017104227,129.68321,-104.63406,13.814542,STD
4145583408000,2.895003,2.50058803201691,9.60269213843552,-0.91264175625962,-0.026267206,0.028405234,0.016187929,129.66954,-104.62189,13.803524,STD
4145588406000,2.900001,2.48844477287104,9.59864470942918,-0.916689519170402,-0.022602014,0.016798794,0.008552114,129.6626,-104.60884,13.791242,STD
4145593445000,2.90504,2.47956674449835,9.59430847174152,-0.916894710240572,-0.0143553335,0.00580322,0.009162978,129.65385,-104.60142,13.785151,STD
4145598407000,2.910002,2.47719000258578,9.58955493828149,-0.909764561436931,-0.030543262,0.0106901415,0.0106901415,129.64394,-104.59063,13.777545,STD
4145603376000,2.914971,2.47480990775233,9.58479469890967,-0.902624353979194,-0.025961773,0.01160644,0.0125227375,129.63503,-104.585594,13.771675,STD
4145608416000,2.920011,2.47239580472142,9.57996644243273,-0.895382123029909,-0.022602014,0.007941248,0.015882496,129.62636,-104.58002,13.76687,STD
4145613512000,2.925107,2.46516727150824,9.5838680540474,-0.894879690953826,-0.03268129,0.009468411,0.013439035,129.61607,-104.572754,13.761244,STD
4145618412000,2.930007,2.44977280009022,9.60311119355368,-0.906425570638891,-0.02565634,0.012217305,0.007941248,129.60674,-104.567665,13.755771,STD
4145623477000,2.935072,2.43385994341015,9.62300231632904,-0.918360240150086,-0.02443461,0.01740966,0.015577064,129.59688,-104.56387,13.753958,STD
4145628414000,2.940009,2.44195579629022,9.61052092886846,-0.905203186514555,-0.033292156,0.010995574,0.015271631,129.58954,-104.55642,13.748286,STD
4145633436000,2.945031,2.45305206444939,9.59491880489841,-0.891337842224696,-0.04184427,-0.00030543262,0.01282817,129.58255,-104.550766,13.744292,STD
4145638395000,2.94999,2.47067572200575,9.58170078569441,-0.900149671002876,-0.03023783,0.003970624,0.015882496,129.58105,-104.55548,13.745979,STD
4145643415000,2.95501,2.48851616583171,9.56832017339271,-0.909069892915855,-0.027183503,-0.0018325958,0.0070249503,129.58594,-104.55606,13.745473,STD
4145648375000,2.95997,2.48531681629124,9.55792442692431,-0.919102519729903,-0.02443461,-0.0030543262,0.011911872,129.58858,-104.56211,13.749886,STD
4145653560000,2.965155,2.48074097112402,9.54842496204027,-0.928428290770518,-0.032375857,0.01160644,0.01740966,129.58792,-104.56515,13.752167,STD
4145658349000,2.969944,2.48525705164689,9.55294092467136,-0.921654136976515,-0.03359759,0.0070249503,0.0143553335,129.59279,-104.57529,13.759412,STD
4145663791000,2.975386,2.49038891846783,9.55807265752548,-0.913956299234405,-0.029626964,0.004886922,0.0067195175,129.5978,-104.58676,13.767224,STD
4145668326000,2.979921,2.49466547415194,9.56234910157058,-0.907541434449313,-0.02107485,-0.005192355,0.0106901415,129.6065,-104.600464,13.776867,STD
4145673692000,2.985287,2.49990239301257,9.56696308395678,-0.900308833253142,-0.025961773,-0.00030543262,0.014660766,129.61739,-104.611755,13.784493,STD
4145678356000,2.989951,2.50863862991052,9.56041099750624,-0.902492892477629,-0.027488936,0.0021380284,0.0143553335,129.63144,-104.62369,13.791479,STD
4145683622000,2.995217,2.51850248572197,9.55301320864506,-0.904958856430492,-0.028099801,0.010079277,0.014966198,129.64047,-104.643906,13.807687,STD
4145688344000,2.999939,2.52734736364481,9.54637964256027,-0.907170075911202,-0.03023783,0.01160644,0.016187929,129.65036,-104.66325,13.823365,STD
4145693295000,3.00489,2.53662118630385,9.53942437240233,-0.909488531575962,-0.03756821,0.008857546,0.014049901,129.65376,-104.68251,13.839908,STD
4145698328000,3.009923,2.52946854965227,9.54688510656927,-0.90979666,-0.03604105,0.011301007,0.021685716,129.6554,-104.70467,13.85917,STD
4145703333000,3.014928,2.51987593765448,9.55647766848452,-0.90979666,-0.036957346,0.0015271631,0.013439035,129.6609,-104.72043,13.872388,STD
4145708372000,3.019967,2.51021816105969,9.56613539465653,-0.90979666,-0.029932396,0.008857546,0.013439035,129.66557,-104.743286,13.892407,STD
4145713303000,3.024898,2.50076737789063,9.57558612848351,-0.90979666,-0.02687807,0.009468411,0.013439035,129.67464,-104.76283,13.909145,STD
4145718366000,3.029961,2.48253047559213,9.58106109494179,-0.901288647796066,-0.03145956,0.02107485,0.015271631,129.67816,-104.78217,13.926343,STD
4145723338000,3.034933,2.46341532119631,9.58583998334002,-0.891731070598153,-0.024740042,0.0125227375,0.015882496,129.68723,-104.80192,13.942188,STD
4145728362000,3.039957,2.4612393,9.58220872583248,-0.894818246973742,-0.03176499,0.013133603,0.01863139,129.69328,-104.82505,13.961738,STD
4145733301000,3.044896,2.4612393,9.57758295662804,-0.899443919576549,-0.03145956,0.015271631,0.023518313,129.70122,-104.84947,13.981267,STD
4145738377000,3.049972,2.4612393,9.57282887594739,-0.904197900975991,-0.03023783,0.007941248,0.016798794,129.71516,-104.87079,13.997184,STD
4145743366000,3.054961,2.4612393,9.56815627773703,-0.908870401606767,-0.021991149,0.009468411,0.01863139,129.72589,-104.895615,14.016563,STD
4145748358000,3.059953,2.47537627073845,9.56369568350696,-0.892125424434406,-0.023518313,0.013744468,0.010079277,129.7371,-104.91427,14.030383,STD
4145754019000,3.065614,2.49536862431087,9.55869749073477,-0.867134951155158,-0.02565634,0.014660766,0.016187929,129.74895,-104.93733,14.048277,STD
4145758393000,3.069988,2.49329137580596,9.56390828748337,-0.871295354872582,-0.03390302,0.002443461,0.013133603,129.76752,-104.95774,14.0623,STD
4145763441000,3.075036,2.48339608688978,9.57380383471497,-0.886138396739331,-0.035430185,0.008246681,0.020463986,129.78053,-104.98224,14.080924,STD
4145768405000,3.08,2.48956702210644,9.5737489181243,-0.893701078012654,-0.03023783,0.015577064,0.019242255,129.79646,-105.007965,14.102017,STD
4145773511000,3.085106,2.50321578576479,9.56919921938965,-0.898250681734276,-0.03604105,0.005192355,0.011301007,129.81546,-105.03174,14.122248,STD
4145778507000,3.090102,2.5143868833695,9.5751254987177,-0.88969273173407,-0.03940081,0.009773844,0.016187929,129.82735,-105.05728,14.14336,STD
4145783413000,3.095008,2.52365577784573,9.58902905819688,-0.871155010530677,-0.034513887,0.015882496,0.014660766,129.84099,-105.07845,14.15959,STD
4145788524000,3.100119,2.51751152973743,9.59865213571655,-0.880752137830855,-0.029321533,0.011301007,0.007330383,129.8564,-105.100105,14.176656,STD
4145793429000,3.105024,2.49769740904777,9.60360523916482,-0.915426784382579,-0.032375857,0.018936822,0.015271631,129.86644,-105.12436,14.197516,STD
4145798416000,3.110011,2.49597338781483,9.59953350025492,-0.92294656531967,-0.04337143,0.023823744,0.02076942,129.87134,-105.14017,14.213036,STD
4145803406000,3.115001,2.50571912698073,9.58978806638116,-0.91320083124197,-0.04062254,0.015577064,0.019242255,129.87778,-105.15671,14.22818,STD
4145808414000,3.120009,2.50082642847161,9.5808526175482,-0.904265393062091,-0.046120327,0.002443461,0.015882496,129.88873,-105.17177,14.240456,STD
4145814950000,3.126545,2.48421743848399,9.5697796877764,-0.893192694530338,-0.0421497,0.005497787,0.016187929,129.89711,-105.18804,14.253133,STD
4145818422000,3.130017,2.47480044234043,9.56629788921326,-0.894371424311232,-0.04428773,0.0125227375,0.016798794,129.90181,-105.20221,14.266338,STD
4145824273000,3.135868,2.45816492893617,9.56352525056903,-0.905461744384958,-0.046120327,0.013133603,0.012217305,129.90721,-105.21499,14.277655,STD
4145828506000,3.140101,2.4461296993617,9.56151934057397,-0.913485214710045,-0.035430185,0.010079277,0.014049901,129.90681,-105.231285,14.292056,STD
4145833412000,3.145007,2.43218100191489,9.5591945131618,-0.922784327730332,-0.038179077,0.0033597588,0.0125227375,129.90717,-105.2435,14.3036995,STD
4145838393000,3.149988,2.42649325997418,9.56299485151711,-0.930730829987088,-0.03604105,0.0143553335,0.0143553335,129.90399,-105.25558,14.3145685,STD
4145843429000,3.155024,2.43687173313966,9.57856288637831,-0.93592006656983,-0.03481932,0.014660766,0.014049901,129.90579,-105.265945,14.32362,STD
4145848416000,3.160011,2.45029499940191,9.58521121845096,-0.942045327295156,-0.04062254,0.0036651916,0.016493361,129.90688,-105.273834,14.32895,STD
4145853396000,3.164991,2.46693411662679,9.5828341520634,-0.949176389944677,-0.032986723,0.0033597588,0.010995574,129.90451,-105.280624,14.331976,STD
4145858429000,3.170024,2.48375031682616,9.58043178757974,-0.956383345429625,-0.025961773,0.015271631,0.0143553335,129.90503,-105.28251,14.33193,STD
4145863417000,3.175012,2.50041616355662,9.57805090261164,-0.963525863601475,-0.03481932,0.015271631,0.0070249503,129.90855,-105.279205,14.326988,STD
4145868429000,3.180024,2.51136646401869,9.56783439077103,-0.960527996232477,-0.027183503,0.024129177,0.011911872,129.90276,-105.278755,14.324454,STD
4145873414000,3.185009,2.51601408356698,9.54924400963785,-0.946585113322625,-0.03145956,0.028710667,0.0125227375,129.89798,-105.27329,14.3186455,STD
4145878420000,3.190015,2.5187001,9.53749112011699,-0.939535908814198,-0.03359759,0.03176499,0.01740966,129.89432,-105.27229,14.316964,STD
4145883418000,3.195013,2.5187001,9.53511823463216,-0.941908744745191,-0.032375857,0.027488936,0.014049901,129.89134,-105.26923,14.313111,STD
4145888393000,3.199988,2.5187001,9.53275626878842,-0.944270661263137,-0.029932396,0.029932396,0.009468411,129.88615,-105.26808,14.3125305,STD
4145893833000,3.205428,2.5187001,9.53017353628792,-0.946853339827484,-0.028405234,0.021380283,0.014966198,129.88571,-105.268814,14.313484,STD
4145898361000,3.209956,2.51690390641695,9.52802488210829,-0.946756701296017,-0.034513887,0.022296581,0.014660766,129.88159,-105.26631,14.311843,STD
4145903415000,3.21501,2.51211089566262,9.52562832042681,-0.943161933846211,-0.04428773,0.013439035,0.017104227,129.88313,-105.26584,14.312082,STD
4145908423000,3.220018,2.50736150946204,9.52325357153467,-0.939599884897136,-0.031154128,0.02687807,0.020158553,129.87808,-105.2642,14.310327,STD
4145913512000,3.225107,2.50253530611245,9.52084041316565,-0.935980222935905,-0.026572637,0.016187929,0.017715093,129.88263,-105.26011,14.306958,STD
4145918370000,3.229965,2.49792817389152,9.51853679293442,-0.93252486475008,-0.032070424,0.025961773,0.016187929,129.87444,-105.25917,14.307437,STD
4145923421000,3.235016,2.49313800821677,9.51614165382616,-0.92893223111554,-0.03268129,0.010079277,0.017104227,129.87698,-105.2592,14.306962,STD
4145928348000,3.239943,2.4884654391652,9.51380531441091,-0.92542779517862,-0.036957346,0.020463986,0.017104227,129.869,-105.25773,14.306779,STD
4145933451000,3.245046,2.48362595877751,9.51138551736687,-0.921798175412819,-0.028099801,0.0143553335,0.015577064,129.87057,-105.25738,14.305595,STD
4145938406000,3.250001,2.47599524227723,9.51270088950495,-0.923771192415842,-0.027488936,0.019547688,0.016798794,129.86435,-105.25511,14.304746,STD
4145943457000,3.255052,2.46162714767327,9.52227978594059,-0.938139237009901,-0.03573562,0.02076942,0.019242255,129.86119,-105.25285,14.303606,STD
4145948401000,3.259996,2.45038506143664,9.53020046524114,-0.950658733796168,-0.040011674,0.01985312,0.02076942,129.85448,-105.24658,14.2991495,STD
4145953441000,3.265036,2.44591712919559,9.5346684907896,-0.95959462160511,-0.03726278,0.017715093,0.015882496,129.84789,-105.23936,14.2937155,STD
4145958443000,3.270038,2.44145865036349,9.53975409272544,-0.964749300144432,-0.027183503,0.016187929,0.014049901,129.8411,-105.23218,14.286795,STD
4145963529000,3.275124,2.4367686879351,9.54913396861008,-0.945989440636464,-0.03726278,0.02443461,0.014049901,129.83215,-105.222755,14.279439,STD
4145968463000,3.280058,2.43221888954311,9.55823351788552,-0.9277902375668,-0.03481932,0.011301007,0.007330383,129.82439,-105.212875,14.268529,STD
4145973495000,3.28509,2.42757872223292,9.56751380405373,-0.909229558635598,-0.023518313,0.01038471,0.01160644,129.81126,-105.20613,14.261521,STD
4145978731000,3.290326,2.42328897687506,9.576896221082,-0.890732279218765,-0.032070424,0.008246681,0.00580322,129.80435,-105.18834,14.245094,STD
4145983413000,3.295008,2.43177069022037,9.57901669370094,-0.892852707555093,-0.02687807,0.0143553335,0.013133603,129.79588,-105.17812,14.234212,STD
4145988420000,3.300015,2.44084115983165,9.58128435846023,-0.895120324957912,-0.040927973,0.011301007,0.016798794,129.79755,-105.16465,14.222933,STD
4145993423000,3.305018,2.44990438321196,9.58355021162395,-0.897386130802989,-0.03359759,0.004886922,0.016798794,129.79851,-105.155136,14.213095,STD
4145998355000,3.30995,2.45883898599262,9.58578390896623,-0.899619781498156,-0.038179077,0.00030543262,0.0125227375,129.79984,-105.14329,14.203362,STD
4146003397000,3.314992,2.4629781123095,9.58116745413247,-0.912391553429074,-0.031154128,0.01282817,0.01160644,129.79805,-105.13452,14.195164,STD
4146008451000,3.320046,2.4653423731145,9.5740745235932,-0.928941388939039,-0.03359759,0.009162978,0.016493361,129.80234,-105.12518,14.187196,STD
4146014928000,3.326523,2.46837231320828,9.56498451348183,-0.950150982250879,-0.03940081,0.010995574,0.018020526,129.8017,-105.11736,14.1809635,STD
4146018428000,3.330023,2.47000961293474,9.56007251172333,-0.961612087174678,-0.041233405,0.003970624,0.014049901,129.8047,-105.10978,14.174438,STD
4146023481000,3.335076,2.4692694465677,9.557653,-0.954884266081599,-0.03268129,0.0076358155,0.0125227375,129.79425,-105.10635,14.172653,STD
4146028421000,3.340016,2.46697432251977,9.557653,-0.936523264111968,-0.02443461,0.0036651916,0.0125227375,129.7883,-105.10225,14.169897,STD
4146033417000,3.345012,2.46465318087129,9.557653,-0.917954121229321,-0.03481932,0.0015271631,0.013744468,129.7808,-105.098434,14.16668,STD
4146038414000,3.350009,2.46233157462281,9.557653,-0.899381261544656,-0.029626964,0.008246681,0.014660766,129.77202,-105.09693,14.163565,STD
4146043424000,3.355019,2.46644417361267,9.54984583903935,-0.882835774037813,-0.027488936,0.0106901415,0.015882496,129.76367,-105.09816,14.163924,STD
4146048419000,3.360014,2.47622166277976,9.53517988605008,-0.868169586229944,-0.03634648,0.014660766,0.016187929,129.75313,-105.09876,14.164439,STD
4146053423000,3.365018,2.47765294223473,9.53166310068217,-0.856432507358462,-0.031154128,0.0067195175,0.02076942,129.74606,-105.10151,14.167464,STD
4146058453000,3.370048,2.47285569525967,9.5364604227954,-0.84683805348205,-0.041233405,0.004581489,0.0143553335,129.73613,-105.09902,14.167632,STD
4146063415000,3.37501,2.46812330172285,9.54119289045461,-0.837373305940348,-0.03604105,0.0021380284,0.014660766,129.72969,-105.10286,14.173133,STD
4146068439000,3.380034,2.46333177710999,9.54598449011602,-0.827790296740527,-0.02107485,0.011911872,0.0143553335,129.72034,-105.10479,14.176826,STD
4146073506000,3.385101,2.46675926991674,9.55359676818136,-0.829125312625138,-0.026572637,0.010079277,0.011301007,129.70723,-105.10997,14.184761,STD
4146079169000,3.390764,2.47763973968302,9.56447684030495,-0.840005748307754,-0.025350908,0.014049901,0.016798794,129.69023,-105.11921,14.195137,STD
4146083410000,3.395005,2.482986703125,9.57241740625,-0.850540158125,-0.035430185,0.008246681,0.01740966,129.67673,-105.12299,14.202062,STD
4146088416000,3.400011,2.48761066247106,9.58166532494213,-0.864412123072917,-0.03023783,0.00580322,0.018325957,129.6617,-105.129745,14.210552,STD
4146093408000,3.405003,2.49222169024884,9.59088738049769,-0.878245293072917,-0.015271631,0.014049901,0.016798794,129.63907,-105.1342,14.217598,STD
4146098418000,3.410013,2.4968493443287,9.60014268865741,-0.892128342291667,-0.026572637,0.0106901415,0.013744468,129.62114,-105.136314,14.223852,STD
4146103390000,3.414985,2.49701676761497,9.60237483451871,-0.898322556748946,-0.030848695,0.009162978,0.0125227375,129.60088,-105.14046,14.230178,STD
4146108424000,3.420019,2.4908107867055,9.59461735838187,-0.893668061346507,-0.03176499,0.014660766,0.014049901,129.58011,-105.143654,14.236304,STD
4146113447000,3.425042,2.48461836673961,9.58687683342452,-0.889023736672996,-0.0290161,0.004276057,0.0143553335,129.5648,-105.14676,14.24037,STD
4146118420000,3.430015,2.47848758742638,9.57921335928298,-0.884425642585524,-0.0290161,0.01282817,0.012217305,129.54285,-105.14916,14.244614,STD
4146123400000,3.434995,2.47234817842178,9.57153909802723,-0.879821076216007,-0.029321533,0.0143553335,0.0125227375,129.52072,-105.156784,14.253292,STD
4146128430000,3.440025,2.46614712876452,9.56378778595565,-0.875170279260451,-0.036651913,0.01282817,0.017104227,129.49771,-105.16405,14.262384,STD
4146133421000,3.445016,2.46310732211279,9.56232303089996,-0.873357418211665,-0.03634648,0.01282817,0.013744468,129.47427,-105.1697,14.26905,STD
4146138410000,3.450005,2.4723346115392,9.58539113402858,-0.882584688368096,-0.0290161,0.019547688,0.018020526,129.45026,-105.17836,14.27899,STD
4146143408000,3.455003,2.4820495730233,9.60498485319781,-0.889538670680939,-0.03390302,0.009162978,0.010079277,129.43068,-105.17746,14.280602,STD
4146149055000,3.46065,2.49664343864352,9.600120620761,-0.879809362592426,-0.03756821,0.0067195175,0.01038471,129.40779,-105.1806,14.285921,STD
4146153398000,3.464993,2.50786730235675,9.59637963236485,-0.872326737299631,-0.033292156,0.008857546,0.015882496,129.38715,-105.18368,14.290249,STD
4146158438000,3.470033,2.49453064037475,9.59109666161053,-0.88608214089226,-0.034208454,0.0125227375,0.014966198,129.36714,-105.18421,14.292676,STD
4146163384000,3.474979,2.48064539156056,9.58512202901984,-0.899967465803968,-0.02443461,0.008246681,0.01740966,129.34962,-105.18846,14.297297,STD
4146168428000,3.480023,2.48302940472806,9.57320183871286,-0.897583427742572,-0.038789943,0.01740966,0.011911872,129.3308,-105.18866,14.301202,STD
4146173451000,3.485046,2.48540349238476,9.56133127647814,-0.895209315295627,-0.04062254,0.01160644,0.016493361,129.32423,-105.193825,14.3055725,STD
4146178431000,3.490026,2.48775725637647,9.54956233362945,-0.892855526725891,-0.04520403,0.010079277,0.014660766,129.31369,-105.19406,14.306782,STD
4146183474000,3.495069,2.49100240825141,9.54056542369179,-0.892708476143382,-0.034208454,0.01160644,0.015882496,129.30446,-105.19761,14.309996,STD
4146188415000,3.50001,2.50509802004766,9.56875674540761,-0.920899694829709,-0.034208454,0.014660766,0.016187929,129.2954,-105.198875,14.312333,STD
4146193557000,3.505152,2.51854233568691,9.59517217843457,-0.946841734671629,-0.02687807,0.008246681,0.013133603,129.287,-105.205345,14.31803,STD
4146198417000,3.510012,2.51649224327622,9.58492171638109,-0.930440984682641,-0.038789943,0.0143553335,0.025045475,129.27475,-105.21388,14.328239,STD
4146203394000,3.514989,2.51439279678897,9.57442448394485,-0.913645401823548,-0.03756821,0.007330383,0.017715093,129.2768,-105.21765,14.32883,STD
4146208411000,3.520006,2.51227647711316,9.56384288556578,-0.896714833367837,-0.0290161,0.010995574,0.019242255,129.27449,-105.22634,14.335559,STD
4146214982000,3.526577,2.50950463406158,9.54998367030789,-0.874540074483548,-0.031154128,0.011911872,0.011911872,129.27461,-105.229576,14.337284,STD
4146218988000,3.530583,2.49985815907059,9.55116513306997,-0.88075459252729,-0.03970624,0.009773844,0.013744468,129.27481,-105.23567,14.341898,STD
4146223414000,3.535009,2.48663845766712,9.55557134743736,-0.89397436755172,-0.03604105,0.007941248,0.017715093,129.27452,-105.24117,14.344957,STD
4146228417000,3.540012,2.47851963908911,9.55952639025291,-0.903029885717261,-0.02321288,0.015577064,0.021380283,129.27249,-105.2469,14.35053,STD
4146233413000,3.545008,2.47530558994391,9.56274048973903,-0.907850932586572,-0.027794369,0.004581489,0.018020526,129.27643,-105.25036,14.354554,STD
4146238406000,3.550001,2.47209347077218,9.56595265922144,-0.912669084511806,-0.03176499,0.003970624,0.014966198,129.27461,-105.25433,14.3572035,STD
4146243428000,3.555023,2.46886269519027,9.56918348540624,-0.91751522089645,-0.032375857,0.010995574,0.015882496,129.27376,-105.25823,14.35985,STD
4146248445000,3.56004,2.46563513623081,9.57241109491821,-0.922356532374299,-0.038179077,0.021991149,0.0143553335,129.29301,-105.25478,14.354534,STD
4146253437000,3.565032,2.46242366038357,9.57562262106607,-0.927173719318174,-0.033292156,0.02321288,0.015577064,129.31258,-105.25339,14.350391,STD
4146258485000,3.57008,2.46720761674116,9.57382279488924,-0.931934392790517,-0.039095376,0.011911872,0.0106901415,129.33191,-105.24849,14.344231,STD
4146263443000,3.575038,2.47643459348037,9.56920923425962,-0.936547857073455,-0.032375857,0.011301007,0.015271631,129.34758,-105.248245,14.341601,STD
4146268463000,3.580058,2.48843370406307,9.56186967988778,-0.941207294016639,-0.0290161,0.005192355,0.017715093,129.36697,-105.24419,14.334487,STD
4146273507000,3.585102,2.50245282307246,9.55252386079133,-0.94588034995163,-0.03573562,0.0076358155,0.0143553335,129.38348,-105.239586,14.32745,STD
4146278451000,3.590046,2.51033740171924,9.5505051273733,-0.93717692818807,-0.03023783,0.008552114,0.0125227375,129.40692,-105.2402,14.323298,STD
4146283455000,3.59505,2.51272551689341,9.55528120810285,-0.91568387915234,-0.032986723,0.012217305,0.016493361,129.42824,-105.24007,14.320159,STD
4146288609000,3.600204,2.51518521825385,9.56020045671999,-0.893546554066378,-0.029932396,0.009162978,0.013133603,129.45078,-105.24051,14.3164015,STD
4146293457000,3.605052,2.51749888379429,9.56482764284647,-0.872723552122888,-0.0290161,0.003970624,0.014660766,129.4725,-105.242836,14.315305,STD
4146298414000,3.610009,2.51635256212578,9.56957758689974,-0.868955228330319,-0.034208454,0.0125227375,0.013439035,129.48245,-105.24266,14.313272,STD
4146303432000,3.615027,2.51152471579265,9.57440553405666,-0.883438797576854,-0.03145956,0.012217305,0.016493361,129.4963,-105.244896,14.312597,STD
4146308520000,3.620115,2.50830562210291,9.57517161005336,-0.889007699082944,-0.0421497,0.012217305,0.016798794,129.51312,-105.247986,14.316202,STD
4146313455000,3.62505,2.50674881638448,9.57205793359246,-0.885894077892483,-0.03604105,0.009468411,0.010079277,129.53029,-105.25179,14.318536,STD
4146318469000,3.630064,2.50516708915607,9.56889441307069,-0.882730613525924,-0.03359759,0.010079277,0.009468411,129.54456,-105.25062,14.317486,STD
4146323605000,3.6352,2.50354687554516,9.56565391817643,-0.879490176153238,-0.03145956,0.010079277,0.009773844,129.55923,-105.248566,14.3148575,STD
4146328463000,3.640058,2.50201436041241,9.56258882390144,-0.876425136286317,-0.024129177,0.0143553335,0.014049901,129.568,-105.249115,14.314633,STD
4146333439000,3.645034,2.50044462074577,9.55944927900389,-0.873285647118387,-0.03848451,0.007330383,0.018936822,129.57985,-105.24807,14.314464,STD
4146338405000,3.65,2.49176311167897,9.55376142774954,-0.881218645560456,-0.038179077,0.016493361,0.0143553335,129.58528,-105.24776,14.313389,STD
4146343460000,3.655055,2.47319537785981,9.54447785166363,-0.904428337069709,-0.03390302,0.009162978,0.010079277,129.59752,-105.24785,14.313208,STD
4146348361000,3.659956,2.46201609065688,9.54005353264673,-0.922480616683093,-0.03176499,0.013439035,0.012217305,129.60353,-105.24798,14.314272,STD
4146353437000,3.665032,2.46441158845415,9.54484437815996,-0.932062620378948,-0.029626964,0.013439035,0.017104227,129.61267,-105.2482,14.314691,STD
4146358427000,3.670022,2.46676650059134,9.54955405489578,-0.941482281222589,-0.034513887,0.016493361,0.017104227,129.62115,-105.248375,14.313114,STD
4146363451000,3.675046,2.46913745822205,9.55429582161337,-0.950966124124082,-0.022602014,0.024740042,0.014660766,129.62787,-105.250984,14.312379,STD
4146368410000,3.680005,2.46951203302253,9.56026118842269,-0.958984766977467,-0.040011674,0.032070424,0.014966198,129.6338,-105.25093,14.312497,STD
4146373530000,3.685125,2.46474967715618,9.5697860990676,-0.963747122843823,-0.036957346,0.0290161,0.01740966,129.64015,-105.25389,14.312457,STD
4146378409000,3.690004,2.46226951456386,9.57886747215732,-0.969317929127726,-0.040011674,0.017104227,0.019547688,129.63,-105.25355,14.312497,STD
4146383444000,3.695039,2.46696375015576,9.5882561394081,-0.978706400311526,-0.037873644,0.010079277,0.013744468,129.6195,-105.252495,14.310949,STD
4146388427000,3.700022,2.4715977190563,9.5951793727822,-0.981721430550494,-0.036651913,0.017104227,0.01160644,129.60855,-105.25185,14.309904,STD
4146393453000,3.705048,2.47621395569195,9.59056308794476,-0.95402427584636,-0.035124753,0.0143553335,0.013439035,129.60265,-105.25095,14.307906,STD
4146398396000,3.709991,2.48196709978043,9.58559693161857,-0.930130829971769,-0.036957346,0.009773844,0.0106901415,129.59436,-105.24212,14.298875,STD
4146403354000,3.714949,2.50182559014011,9.57566745315767,-0.945024762541824,-0.039095376,0.018936822,0.01282817,129.58325,-105.235435,14.292252,STD
4146408321000,3.719916,2.51652534630057,9.5686798660777,-0.958405617899809,-0.042455133,0.018020526,0.014660766,129.577,-105.22831,14.286809,STD
4146414562000,3.726157,2.49852450036141,9.58068068065455,-0.96440589987953,-0.035124753,0.021685716,0.013439035,129.56696,-105.22201,14.2816305,STD
4146418350000,3.729945,2.48802192446556,9.58404666122328,-0.967647055106888,-0.043066,0.013133603,0.013133603,129.56444,-105.22353,14.284017,STD
4146423345000,3.73494,2.4761859891924,9.56984348945962,-0.97001424216152,-0.029321533,0.014660766,0.009773844,129.55794,-105.22667,14.285456,STD
4146428402000,3.739997,2.46420314140934,9.55546402207047,-0.972410811718131,-0.03604105,0.024740042,0.014049901,129.55124,-105.227135,14.286468,STD
4146433362000,3.744957,2.45245014061758,9.54136037203088,-0.974761411876485,-0.038179077,0.018936822,0.014966198,129.54865,-105.22756,14.285185,STD
4146438346000,3.749941,2.44324756316627,9.52718022951472,-0.977415231583135,-0.029932396,0.013439035,0.012217305,129.5432,-105.22847,14.284303,STD
4146443362000,3.754957,2.45280150684169,9.51284951352426,-0.982192203420843,-0.033292156,0.008552114,0.014660766,129.53958,-105.22964,14.284991,STD
4146448325000,3.75992,2.46074184025923,9.49919805974077,-0.984918720777702,-0.028710667,0.01038471,0.013744468,129.54385,-105.23267,14.283458,STD
4146453327000,3.764922,2.45607337192281,9.48986092807719,-0.970913315768444,-0.025350908,0.009468411,0.011301007,129.55017,-105.23538,14.281952,STD
4146458421000,3.770016,2.45237039643467,9.48210082986843,-0.958742544652004,-0.02076942,0.009468411,0.016493361,129.55595,-105.241844,14.283885,STD
4146463335000,3.77493,2.46182312219544,9.49627972110073,-0.972921633293161,-0.03176499,0.01160644,0.0106901415,129.56079,-105.243324,14.281961,STD
4146468391000,3.779986,2.47117751035063,9.51121465649762,-0.986049693423138,-0.021685716,0.013439035,0.016187929,129.5665,-105.2518,14.285454,STD
4146473784000,3.785379,2.47629322169176,9.5316777155309,-0.980934035499208,-0.022907447,0.004276057,0.013133603,129.5742,-105.25409,14.284574,STD
4146478484000,3.790079,2.47986693291029,9.54860305793451,-0.976483589827553,-0.018936822,0.0067195175,0.010995574,129.578,-105.26017,14.285916,STD
4146483333000,3.794928,2.47311852201608,9.55535135138539,-0.971984664890525,-0.018936822,0.005192355,0.017104227,129.58554,-105.26694,14.288303,STD
4146488344000,3.799939,2.46614465379771,9.56232509823678,-0.967335435593877,-0.026267206,0.006414085,0.01160644,129.59425,-105.267334,14.285057,STD
4146493336000,3.804931,2.45919722810502,9.56927240302267,-0.962703834586321,-0.032070424,0.006414085,0.01160644,129.60378,-105.27084,14.285007,STD
4146498381000,3.809976,2.45217604168281,9.57629346725441,-0.958023059930246,-0.03023783,0.006414085,0.016493361,129.608104428388,-105.271778790458,14.2844582070672,STD
4146503439000,3.815034,2.46721826866719,9.5806960233827,-0.961569642166797,-0.03573562,0.0067195175,0.013133603,129.61244,-105.27272,14.283908,STD
4146508643000,3.820238,2.48448255106088,9.58501218411709,-0.96588571276522,-0.027794369,0.0070249503,0.016187929,129.62086,-105.27554,14.2832775,STD
4146513428000,3.825023,2.48732531798219,9.58373953514419,-0.948746621541582,-0.03848451,0.011911872,0.0143553335,129.62758,-105.26445,14.272719,STD
4146518443000,3.830038,2.48308974601817,9.57950383049652,-0.919097290507099,-0.03756821,0.0033597588,0.014049901,129.63805,-105.25683,14.263408,STD
4146523427000,3.835022,2.48124497047983,9.57169510595073,-0.899367880623882,-0.0290161,0.011911872,0.01160644,129.63857,-105.2465,14.253464,STD
4146528424000,3.840019,2.48362202044506,9.55743260758991,-0.896990805837473,-0.03390302,0.02107485,0.013439035,129.64139,-105.23636,14.244794,STD
4146533415000,3.84501,2.48599621623783,9.54318723450229,-0.894616585253328,-0.037873644,0.013744468,0.018020526,129.6467,-105.22689,14.237506,STD
4146538411000,3.850006,2.48837279050765,9.52892759035367,-0.892239986167296,-0.033292156,0.009773844,0.011301007,129.64809,-105.21564,14.228163,STD
4146543934000,3.855529,2.4899697,9.52187066033775,-0.893167732859881,-0.033292156,0.01160644,0.008246681,129.65013,-105.20609,14.221411,STD
4146548420000,3.860015,2.4899697,9.52709948133273,-0.898396579789442,-0.036957346,0.005192355,0.010079277,129.65564,-105.19653,14.214123,STD
4146553793000,3.865388,2.4899697,9.5333621775445,-0.904659307063746,-0.023823744,0.007330383,0.015882496,129.66093,-105.19336,14.211464,STD
4146558460000,3.870055,2.4899697,9.5388019696942,-0.910099126194432,-0.03848451,0.00580322,0.013744468,129.66885,-105.18565,14.2070055,STD
4146563759000,3.875354,2.4899697,9.5449784125057,-0.916275599640651,-0.03145956,0.006414085,0.011911872,129.67877,-105.18113,14.202442,STD
4146568451000,3.880046,2.4899697,9.55044734431766,-0.921744558578123,-0.023518313,0.0067195175,0.00580322,129.6888,-105.173805,14.196262,STD
4146573428000,3.885023,2.4899697,9.55624846827932,-0.927545711312947,-0.019547688,0.0061086523,0.013744468,129.70125,-105.16928,14.1926775,STD
4146578496000,3.890091,2.49365558008369,9.56871087117665,-0.93263613008369,-0.02107485,0.005497787,0.008857546,129.71275,-105.16022,14.184011,STD
4146583358000,3.894953,2.49829465566404,9.58262838856232,-0.937275205664043,-0.024129177,0.004886922,0.009773844,129.72452,-105.15532,14.179487,STD
4146588401000,3.899996,2.49777579576292,9.58284251756777,-0.93852705,-0.023518313,0.008246681,0.008246681,129.72542,-105.14293,14.168055,STD
4146593397000,3.904992,2.49540473214233,9.57810029129293,-0.93852705,-0.022907447,0.010079277,0.013744468,129.7271,-105.13281,14.159222,STD
4146598416000,3.910011,2.49302275289658,9.57333623331186,-0.93852705,-0.029626964,0.017104227,0.01740966,129.72545,-105.11729,14.146426,STD
4146603418000,3.915013,2.49064884172159,9.56858831180931,-0.93852705,-0.038179077,0.010995574,0.013133603,129.72707,-105.1015,14.133075,STD
4146608463000,3.920058,2.48835126680851,9.55913774954407,-0.941763958632219,-0.03176499,0.0125227375,0.01160644,129.72205,-105.0883,14.122255,STD
4146615286000,3.926881,2.48529576883797,9.54386010016367,-0.947875034337152,-0.032986723,0.017715093,0.013133603,129.71785,-105.07374,14.111473,STD
4146618463000,3.930058,2.48387303440262,9.53674635370587,-0.950720540348375,-0.026572637,0.011301007,0.011301007,129.7165,-105.05956,14.09911,STD
4146623419000,3.935014,2.48165362242226,9.52564917792846,-0.955159422246902,-0.033292156,0.007330383,0.013133603,129.71323,-105.04589,14.088851,STD
4146628408000,3.940003,2.480393,9.52141336153312,-0.953546057884023,-0.03604105,0.010995574,0.009773844,129.70753,-105.02465,14.071252,STD
4146633412000,3.945007,2.480393,9.52617190666269,-0.944029153951941,-0.035430185,0.014660766,0.014966198,129.70343,-105.006615,14.057117,STD
4146638392000,3.949987,2.480393,9.53090762903386,-0.934557894643035,-0.03390302,0.004886922,0.018325957,129.70213,-104.98804,14.04145,STD
4146643431000,3.955026,2.480393,9.5356994573528,-0.924974425635488,-0.03023783,0.005497787,0.010079277,129.69669,-104.96867,14.024866,STD
4146648397000,3.959992,2.48600033329792,9.5366308433607,-0.924980802815065,-0.03481932,-0.0015271631,0.007941248,129.69055,-104.95468,14.014095,STD
4146653423000,3.965018,2.49994514139063,9.5319824607436,-0.938925659444713,-0.025045475,-0.0012217305,0.010079277,129.68222,-104.94194,14.002829,STD
4146658396000,3.969991,2.50589581857099,9.53215054883109,-0.946490109285497,-0.028710667,0.005497787,0.011301007,129.67538,-104.92989,13.994321,STD
4146663419000,3.975014,2.49615909832001,9.54188747242182,-0.941621749160004,-0.028405234,0.009773844,0.016187929,129.66951,-104.92116,13.98772,STD
4146668372000,3.979967,2.49163929994717,9.54919003176385,-0.936300917318233,-0.03390302,0.009773844,0.01038471,129.66234,-104.91178,13.980729,STD
4146673446000,3.985041,2.49645268070396,9.55239885174668,-0.929883077984547,-0.033292156,0.0021380284,0.014049901,129.6568,-104.90714,13.977903,STD
4146678344000,3.989939,2.50109910146602,9.55549636855313,-0.923687851919039,-0.027183503,0.00580322,0.01160644,129.6476,-104.898254,13.970858,STD
4146683421000,3.995016,2.50591532813181,9.55870708574919,-0.917266218041009,-0.03145956,0.014049901,0.0143553335,129.63971,-104.8911,13.966486,STD
4146688380000,3.999975,2.51061961571023,9.56184317922472,-0.910993836240507,-0.033292156,0.009773844,0.0125227375,129.6379,-104.8849,13.9611435,STD
4146693429000,4.005024,2.51540928055867,9.56503618909727,-0.904607618109688,-0.031154128,0.0036651916,0.0125227375,129.63449,-104.88012,13.957425,STD
4146698385000,4.00998,2.52004992953555,9.56520528388626,-0.902244603598578,-0.033292156,0.004276057,0.015271631,129.63052,-104.875206,13.954198,STD
4146703397000,4.014992,2.52459959035071,9.55838088767772,-0.909069092445972,-0.028405234,0.008246681,0.014049901,129.62732,-104.870346,13.949942,STD
4146708412000,4.020007,2.52915197442654,9.55155240663507,-0.915897666182938,-0.02565634,0.009468411,0.01160644,129.63252,-104.87213,13.9524765,STD
4146713419000,4.025014,2.53369709647393,9.54473481848341,-0.922715346881043,-0.03023783,0.0018325958,0.015271631,129.63919,-104.87496,13.956249,STD
4146718474000,4.030069,2.5371008417341,9.53817733971924,-0.928412493534269,-0.035430185,0.010079277,0.014660766,129.64056,-104.87618,13.958528,STD
4146723426000,4.035021,2.52926858515277,9.53482058822697,-0.92281801870591,-0.032070424,0.014660766,0.0143553335,129.64522,-104.87882,13.961616,STD
4146728430000,4.040025,2.52135408355078,9.5314285881326,-0.917164797372891,-0.024740042,0.0125227375,0.016798794,129.65068,-104.886635,13.968827,STD
4146733416000,4.045011,2.51346805137903,9.52804878947741,-0.911531911368409,-0.025045475,0.011911872,0.01160644,129.65407,-104.8917,13.9737625,STD
4146738407000,4.050002,2.50557411103221,9.52466560153356,-0.905893376661555,-0.028710667,0.008552114,0.008246681,129.6589,-104.8981,13.979616,STD
4146743429000,4.055024,2.49763114,9.5212614,-0.90021982,-0.01985312,0.010079277,0.01282817,129.66248,-104.90623,13.986201,STD
4146748410000,4.060005,2.4897530160033,9.51788499063348,-0.894592582697888,-0.024740042,0.019547688,0.015577064,129.66444,-104.911125,13.991337,STD
4146753410000,4.065005,2.48184484094137,9.51449570197004,-0.888943880326767,-0.028099801,0.018325957,0.014966198,129.66904,-104.91718,13.996434,STD
4146758557000,4.070152,2.47370416553262,9.51100676821989,-0.883129106105934,-0.024129177,0.017715093,0.01863139,129.67079,-104.925186,14.003632,STD
