timestamp,rel_time,acc_x,acc_y,acc_z,gyro_x,gyro_y,gyro_z,azimuth,pitch,roll,label
4620304235000,0,1.60635662754916,-9.60879927549165,-0.0667253059426221,0.0036651916,0.1328632,0.051923547,323.16284,105.80705,15.688699,STD
4620309375000,0.00514,1.60660120800648,-9.61124508006479,-0.0557191779061323,-0.0033597588,0.084910266,0.030543262,323.22028,105.7348,15.6254015,STD
4620314249000,0.010014,1.60683313118721,-9.61356431187209,-0.0452826277018811,0.011301007,0.08460484,0.015577064,323.2863,105.65838,15.5586195,STD
4620319250000,0.015015,1.60707109750375,-9.61594397503751,-0.0345741362017867,0.024740042,0.09101892,0.003970624,323.3396,105.58884,15.497536,STD
4620324236000,0.020001,1.6073083500641,-9.61831650064096,-0.0238977637523825,0.033292156,0.09712757,0.005497787,323.39236,105.520874,15.437761,STD
4620329348000,0.025113,1.60755159817651,-9.62074898176506,-0.012951591277181,0.023823744,0.12950343,0.015577064,323.45447,105.45513,15.379773,STD
4620334282000,0.030047,1.60778637638203,-9.62309676382029,-0.00238656487016926,0.008857546,0.16310102,0.011911872,323.51825,105.39396,15.325951,STD
4620339273000,0.035038,1.60802386686111,-9.62547166861107,0.00830051392946507,-0.0076358155,0.18112154,0.01038471,323.58655,105.33072,15.269363,STD
4620344251000,0.040016,1.60826073875148,-9.62784038751478,0.0189597562185013,-0.01160644,0.16279559,0.00061086525,323.65317,105.27195,15.216695,STD
4620349245000,0.04501,1.60849837198179,-9.63021671981795,0.0296532588282736,-0.0018325958,0.17348573,-0.004276057,323.73288,105.2132,15.163847,STD
4620354272000,0.050037,1.60873757547575,-9.63260875475748,0.0404174233495643,-0.0067195175,0.20219639,0.025350908,323.81186,105.14867,15.104343,STD
4620359263000,0.055028,1.60702203107585,-9.63477454458858,0.041081796153656,-0.014049901,0.19761491,0.047036625,323.88315,105.08838,15.048749,STD
4620364249000,0.060014,1.6007846613579,-9.6364538207313,0.0185312988598587,-0.004886922,0.14966199,0.026267206,323.9491,105.03243,14.9973,STD
4620369245000,0.06501,1.59453478187317,-9.63813646485666,-0.00406442606589564,0.022602014,0.10995574,0.024129177,324.05942,104.960266,14.931167,STD
4620374234000,0.069999,1.58829365922519,-9.63981675139418,-0.02662849164928,0.03176499,0.10598512,0.0143553335,324.1644,104.89744,14.873511,STD
4620379214000,0.074979,1.58206379536731,-9.64149400674732,-0.0491518523639031,0.019547688,0.086437434,0.015271631,324.2517,104.83313,14.81364,STD
4620384286000,0.080051,1.57571884165503,-9.64320224754072,-0.0720913072925312,0.03145956,0.10170906,0.0027488936,324.34683,104.77601,14.760952,STD
4620389270000,0.085035,1.56948397389044,-9.64488085008692,-0.0946327590599371,0.018325957,0.08827003,-0.040011674,324.42642,104.72881,14.717001,STD
4620394206000,0.089971,1.5633091530064,-9.64654328631646,-0.116957118193949,0.015577064,0.06291912,-0.054367006,324.50583,104.67766,14.668842,STD
4620399259000,0.095024,1.55698796785101,-9.64824512794285,-0.139810640621859,0.0106901415,0.061391957,-0.0027488936,324.58713,104.62054,14.6141205,STD
4620404240000,0.100005,1.55075685301645,-9.64992272009425,-0.162338524099677,0.014660766,0.09773844,0.013133603,324.67087,104.57816,14.573798,STD
4620409265000,0.10503,1.54447069520805,-9.65161513136926,-0.185065409158107,0.009468411,0.09162979,0.021685716,324.74072,104.52405,14.52116,STD
4620414292000,0.110057,1.53818203544629,-9.6533082162408,-0.207801339742929,0.008857546,0.089186326,0.0143553335,324.8213,104.47073,14.469081,STD
4620419287000,0.115052,1.53193340693823,-9.65499052356789,-0.230392541905487,-0.00030543262,0.08827003,0.011301007,324.89944,104.41472,14.413896,STD
4620424856000,0.120621,1.52496671781684,-9.65686615309834,-0.255579810142382,-0.01282817,0.081855945,-0.0018325958,324.9742,104.364525,14.364228,STD
4620429220000,0.124985,1.51950745559279,-9.65833594072105,-0.275317148728449,0.007330383,0.061391957,-0.009773844,325.04352,104.31449,14.314465,STD
4620434212000,0.129977,1.51326258001477,-9.66001723765336,-0.297894782601421,0.014660766,0.06811147,-0.019547688,325.11798,75.73052,14.269448,STD
4620439238000,0.135003,1.50697517122969,-9.66170998572663,-0.320626190423046,0.040927973,0.11453723,-0.014966198,325.1972,75.77665,14.222996,STD
4620444220000,0.139985,1.50074280541845,-9.6633879146763,-0.343158596664061,0.04062254,0.17256944,-0.0067195175,325.28088,75.82048,14.178579,STD
4620449187000,0.144952,1.49452920425739,-9.66506079165201,-0.36562316145714,0.010079277,0.17898351,-0.0036651916,325.3619,75.86369,14.134534,STD
4620454249000,0.150014,1.48819676031189,-9.66676566446278,-0.388517388753811,-0.015577064,0.124005646,-0.0061086523,325.44043,75.9073,14.089853,STD
4620459225000,0.15499,1.48197190036073,-9.66844157262286,-0.411022658415651,-0.002443461,0.02443461,-0.012217305,325.5062,75.95024,14.045623,STD
4620464246000,0.160011,1.47569074645904,-9.67013263670482,-0.433731452421298,0.019547688,-0.04520403,-0.0036651916,325.56342,75.996216,13.998327,STD
4620469286000,0.165051,1.46938582400046,-9.67183009995378,-0.456526178927664,0.04337143,-0.092240654,-0.007941248,325.59735,76.03594,13.9571705,STD
4620474283000,0.170048,1.46313469353905,-9.6735130808774,-0.479126426616614,0.043982297,-0.0983493,0.0012217305,325.62268,76.08108,13.91055,STD
4620479359000,0.175124,1.45678473592006,-9.67522266886386,-0.502083972598025,0.02107485,-0.0571159,0.014049901,325.6483,76.12513,13.864915,STD
4620484269000,0.180034,1.45064244042966,-9.67687634833854,-0.524290739888948,-0.017715093,-0.0033597588,0.013133603,325.67603,76.16709,13.821443,STD
4620489269000,0.185034,1.44438755703821,-9.67856033965696,-0.546904555867485,-0.032375857,0.06078109,0.02687807,325.71887,76.21596,13.770824,STD
4620494988000,0.190753,1.43723322141508,-9.68048648892696,-0.572770238583736,-0.04734206,0.12522738,0.028710667,325.77734,76.2608,13.724473,STD
4620499252000,0.195017,1.43189905685885,-9.6819225967233,-0.592055300850233,-0.04642576,0.1432479,0.026267206,325.84027,76.30758,13.67606,STD
4620504245000,0.20001,1.42565293030416,-9.68360423045387,-0.6146374574864,-0.04337143,0.11484267,0.017104227,325.90744,76.35249,13.629573,STD
4620509210000,0.204975,1.41944183109645,-9.68527643383306,-0.637092976753087,-0.017715093,0.07422013,0.023823744,325.97504,76.40032,13.57973,STD
4620514304000,0.210069,1.41306935589725,-9.68699208418826,-0.660131932472021,0.010079277,0.013744468,0.009162978,326.02753,76.43875,13.539322,STD
4620519358000,0.215123,1.40674691976518,-9.68869426261292,-0.682989977663126,0.038179077,-0.04642576,-0.013439035,326.06738,76.47572,13.500046,STD
4620524235000,0.22,1.40064590650516,-9.6903368277449,-0.705047493768592,0.054061573,-0.07574729,-0.026572637,326.09814,76.510254,13.462997,STD
4620529229000,0.224994,1.39439852897378,-9.69201879827373,-0.727634173167955,0.056505036,-0.10598512,-0.03604105,326.11093,76.53851,13.4321785,STD
4620534242000,0.230007,1.38812738288552,-9.69370716796957,-0.750306785068036,0.055588737,-0.08552113,-0.03634648,326.13013,76.56486,13.402895,STD
4620539235000,0.235,1.38188125633082,-9.69538880170014,-0.772888941704203,0.041233405,-0.07574729,-0.021380283,326.13745,76.59257,13.372613,STD
4620544233000,0.239998,1.37562887489274,-9.69707211942203,-0.795493712156349,0.022602014,-0.055588737,-0.005497787,326.1539,76.620125,13.342427,STD
4620549239000,0.245004,1.36936648564122,-9.69875813153003,-0.81813466471406,0.0021380284,-0.054367006,0.01282817,326.16766,76.652466,13.3078165,STD
4620554237000,0.250002,1.36311410420313,-9.70044144925192,-0.840739435166206,0.00030543262,-0.032070424,0.004581489,326.19354,76.68115,13.276653,STD
4620559226000,0.254991,1.36234263351865,-9.69956497692331,-0.849087754985465,0.0009162979,-0.022602014,0.021685716,326.21576,76.72194,13.233789,STD
4620564805000,0.26057,1.36794701743639,-9.69556184754398,-0.841615242352024,-0.006414085,-0.0061086523,0.022602014,326.24652,76.75537,13.198377,STD
4620569286000,0.265051,1.37244840555889,-9.69234657191237,-0.835613390925166,-0.007330383,0.015271631,0.029932396,326.2668,76.80386,13.153314,STD
4620574269000,0.270034,1.37745407773349,-9.6887710935655,-0.828939160695298,-0.0067195175,0.049480084,0.04153884,326.29584,76.85293,13.107424,STD
4620579352000,0.275117,1.38256020489855,-9.68512386168969,-0.822130990464831,-0.020158553,0.074830994,0.051618114,326.32855,76.90293,13.060652,STD
4620584286000,0.280051,1.38751665412783,-9.681583542572,-0.815522390835256,-0.019547688,0.111177474,0.033292156,326.37457,76.94678,13.0193205,STD
4620589279000,0.285044,1.39253237180148,-9.67800088887224,-0.808834766605329,-0.01160644,0.05467244,0.050701816,326.40027,77.00279,12.966042,STD
4620594217000,0.289982,1.39749283923038,-9.67445769961339,-0.80222080937573,0.0009162979,0.021685716,0.029626964,326.44336,77.041725,12.929343,STD
4620599263000,0.295028,1.40256179804897,-9.67083701654329,-0.795462196945485,0.0070249503,-0.026267206,0.025045475,326.46512,77.08937,12.884043,STD
4620604241000,0.300006,1.40756244747405,-9.66726512587287,-0.788794663715647,0.014049901,-0.056505036,0.016493361,326.48242,77.12878,12.846667,STD
4620609255000,0.30502,1.4125992606957,-9.66366740393203,-0.782078912085594,0.024740042,-0.057421334,0.009468411,326.49445,77.166275,12.810978,STD
4620614297000,0.310062,1.41766420131467,-9.66004959100309,-0.775325657255372,0.02107485,-0.055283304,0.011301007,326.49878,77.20315,12.776017,STD
4620619279000,0.315044,1.42266886893937,-9.65647483019151,-0.76865276642551,-0.0036651916,-0.042455133,0.010995574,326.50623,77.23679,12.744298,STD
4620624266000,0.320031,1.42767855931359,-9.65289648170348,-0.761973178595618,-0.017715093,-0.013744468,0.0143553335,326.51923,77.27113,12.711588,STD
4620629285000,0.32505,1.43272039528476,-9.64929517208619,-0.755250729965535,-0.02107485,0.020463986,0.02321288,326.5377,77.306404,12.677973,STD
4620634332000,0.330097,1.43779035865326,-9.64567377148081,-0.748490778135283,-0.043066,0.051923547,0.021991149,326.56384,77.339455,12.646807,STD
4620639273000,0.335038,1.44275383973187,-9.64212842961609,-0.741872802705667,-0.043066,0.05009095,0.030848695,326.59,77.37693,12.610813,STD
4620644248000,0.340013,1.44775147550724,-9.63855869155153,-0.735209287675847,-0.039095376,0.053450707,0.042455133,326.6266,77.414406,12.57481,STD
4620649258000,0.345023,1.45278427052927,-9.63496383975185,-0.728498893645818,-0.03726278,0.06414085,0.043066,326.66446,77.45055,12.540014,STD
4620654273000,0.350038,1.45782208830082,-9.63136540027572,-0.721781802615758,-0.026572637,0.048563786,0.03176499,326.6953,77.48569,12.506013,STD
4620659276000,0.355041,1.46284785147351,-9.62777557122307,-0.71508078438577,-0.027488936,0.035124753,0.028710667,326.72955,77.52273,12.470072,STD
4620664298000,0.360063,1.46789270109439,-9.62417210899991,-0.708354317555669,-0.041233405,0.032070424,0.020463986,326.76196,77.5544,12.439431,STD
4620669278000,0.365043,1.47289535961928,-9.62059878325891,-0.701684105525819,-0.021685716,0.023823744,0.007330383,326.7887,77.58286,12.411651,STD
4620674269000,0.370034,1.47790906819312,-9.61701756462972,-0.694999160095903,-0.011911872,0.019242255,0.0070249503,326.8153,77.61226,12.383059,STD
4620679350000,0.375115,1.48301318625838,-9.6133717678245,-0.688193668665448,-0.015271631,0.0076358155,0.004581489,326.83722,77.63676,12.359268,STD
4620684244000,0.380009,1.48792945349147,-9.60986015011838,-0.681638645036114,-0.018325957,-0.00580322,0.003970624,326.85703,77.66116,12.335429,STD
4620689274000,0.385039,1.49298233951159,-9.60625094761291,-0.674901463005964,-0.015577064,-0.013744468,0.0012217305,326.87485,77.6838,12.313306,STD
4620694219000,0.389984,1.49794983878982,-9.60270273560704,-0.668278129976324,-0.013133603,-0.017104227,-0.0033597588,326.88998,77.70529,12.292296,STD
4620699230000,0.394995,1.50298363836175,-9.59910716627207,-0.661566396546288,-0.01282817,-0.007330383,0.002443461,326.90652,77.728516,12.269486,STD
4620704205000,0.39997,1.50798127413712,-9.59553742820751,-0.654902881516468,-0.01282817,0.00030543262,0.008552114,326.92142,77.7501,12.248266,STD
4620709225000,0.40499,1.5130241146582,-9.59193540105493,-0.648179093486379,-0.012217305,0.013744468,0.02076942,326.9407,77.77468,12.2239895,STD
4620714285000,0.41005,1.51810713717545,-9.58830467249079,-0.641401729456049,-0.018020526,0.02321288,0.014660766,326.96097,77.79536,12.2036,STD
4620719285000,0.41505,1.52312988669843,-9.584716996044,-0.63470472942608,-0.010079277,0.018325957,0.02321288,326.9807,77.8232,12.175951,STD
4620724271000,0.420036,1.52813857252275,-9.58113936509126,-0.628026480996194,-0.011911872,0.00030543262,0.023823744,326.99918,77.846664,12.152701,STD
4620729224000,0.424989,1.53311410820022,-9.57758541280307,-0.621392432766506,-0.018936822,-0.005192355,0.01740966,327.01965,77.8701,12.129438,STD
4620734250000,0.430015,1.53816297602072,-9.57397908043876,-0.61466060833638,-0.007941248,-0.01740966,0.027794369,327.03278,77.89799,12.101666,STD
4620739236000,0.435001,1.54317166184504,-9.57040144948602,-0.607982359906495,-0.009468411,-0.008246681,0.027794369,327.05045,77.92066,12.079121,STD
4620744221000,0.439986,1.54817934311945,-9.56682453606857,-0.601305450876615,-0.018020526,0.0021380284,0.029321533,327.06488,77.9462,12.053673,STD
4620749916000,0.445681,1.55390025482613,-9.56273817259568,-0.593677567842479,-0.02565634,0.004886922,0.036651913,327.0797,77.9729,12.0270405,STD
4620754242000,0.450007,1.55824593771341,-9.55963411493392,-0.587883323416549,-0.03481932,0.021380283,0.055283304,327.10147,78.0028,11.997188,STD
4620759221000,0.454986,1.5612317796878,-9.55754686902252,-0.577498424802714,-0.040927973,0.047647487,0.055283304,327.12677,78.02892,11.971075,STD
4620764315000,0.46008,1.56171931473272,-9.55730312186323,-0.562141059331581,-0.03756821,0.04428773,0.027183503,327.14804,101.94829,11.948278,STD
4620769305000,0.46507,1.56219689617641,-9.55706435108882,-0.547097232535163,-0.036651913,0.01863139,0.028405234,327.195,101.9412,11.941183,STD
4620774239000,0.470004,1.56266911798867,-9.55682825990626,-0.532222234255899,-0.028405234,0.013133603,0.043676864,327.24564,101.93767,11.937647,STD
4620779253000,0.475018,1.56314899641726,-9.55658834073534,-0.5171060523807,-0.02107485,0.0030543262,0.025350908,327.28635,101.94305,11.943019,STD
4620784244000,0.480009,1.56362667356865,-9.55634952211107,-0.502059210789333,-0.023823744,-0.014966198,0.03390302,327.32224,101.93613,11.936083,STD
4620789236000,0.485001,1.56410444642775,-9.55611065563695,-0.487009354403016,-0.030543262,-0.014049901,0.025045475,327.3598,101.93909,11.939038,STD
4620794220000,0.489985,1.56458145362522,-9.55587217196167,-0.471983616376293,-0.016798794,-0.022602014,0.026267206,327.3886,101.93644,11.936393,STD
4620799237000,0.495002,1.56506161917692,-9.55563210924118,-0.456858390116247,-0.020158553,-0.031154128,0.023518313,327.41693,101.93717,11.937111,STD
4620804258000,0.500023,1.56554216755944,-9.55539185512127,-0.441721104676404,-0.025045475,-0.026572637,0.025350908,327.44592,101.93596,11.935892,STD
4620809216000,0.504981,1.5660166863566,-9.55515461554221,-0.426773751318359,-0.02687807,-0.016187929,0.02687807,327.4735,101.93535,11.93528,STD
4620814328000,0.510093,1.56650594414019,-9.55491000708554,-0.411362119538141,-0.032070424,-0.01282817,0.021380283,327.4998,101.936,11.93591,STD
4620820138000,0.515903,1.56706200590128,-9.55463199943036,-0.393846160883393,-0.028710667,-0.012217305,0.021380283,327.52765,101.93439,11.93429,STD
4620824236000,0.520001,1.56745421607287,-9.55443591072624,-0.381491531181646,-0.030543262,-0.0143553335,0.024740042,327.55502,101.93312,11.933005,STD
4620829231000,0.524996,1.56793227605509,-9.55419690070256,-0.366432630410481,-0.02687807,-0.021380283,0.018325957,327.5805,101.93438,11.934256,STD
4620834243000,0.530008,1.56841196306827,-9.55395707723134,-0.351322478125181,-0.028405234,-0.031154128,0.016187929,327.60394,101.933235,11.933087,STD
4620839235000,0.535,1.56888973592737,-9.55371821075722,-0.336272621738865,-0.023823744,-0.032986723,0.01863139,327.62708,101.93235,11.932199,STD
4620844217000,0.539982,1.56936655170942,-9.55347982278165,-0.32125291330204,-0.031154128,-0.030543262,0.008246681,327.64813,101.93555,11.935369,STD
4620849263000,0.545028,1.56984949278455,-9.55323837241538,-0.306040257988467,-0.020463986,-0.035124753,0.016187929,327.6661,101.93256,11.932382,STD
4620854245000,0.55001,1.5703263085666,-9.5529999844398,-0.291020549551642,-0.013133603,-0.023823744,0.019242255,327.68896,101.9337,11.933512,STD
4620859222000,0.554987,1.57080264581014,-9.5527618357135,-0.276015915089564,-0.018936822,-0.03604105,0.01038471,327.70316,101.93578,11.935572,STD
4620864320000,0.560085,1.57129056368588,-9.55251789715479,-0.260646490438634,-0.026267206,-0.042455133,0.0070249503,327.72192,101.9352,11.934987,STD
4620869329000,0.565094,1.57176996357595,-9.55227821723314,-0.245545382538181,-0.013744468,-0.03573562,0.003970624,327.7405,101.93684,11.936633,STD
4620874232000,0.569997,1.57223921844938,-9.55204360939608,-0.230763842902342,-0.011911872,-0.026572637,0.0015271631,327.7576,101.939064,11.938846,STD
4620879252000,0.575017,1.57271967112419,-9.55180340312603,-0.215629572257448,-0.025045475,-0.022296581,0.012217305,327.77478,101.93815,11.937917,STD
4620884245000,0.58001,1.573197539691,-9.55156448880205,-0.200576701076182,-0.032070424,-0.024129177,0.009773844,327.79245,101.9414,11.941158,STD
4620889416000,0.585181,1.57369244422914,-9.55131705720396,-0.184987196393962,-0.030543262,-0.03176499,0.011301007,327.80923,101.940254,11.940002,STD
4620894211000,0.589976,1.57415136267052,-9.55108761715119,-0.170531254612634,-0.025961773,-0.028405234,0.013744468,327.82825,101.93937,11.939096,STD
4620899226000,0.594991,1.57463133680681,-9.55084765013042,-0.155412057942486,-0.02687807,-0.023823744,0.012217305,327.84503,101.939026,11.938729,STD
4620904235000,0.6,1.57511073669688,-9.55060797020877,-0.140310950042034,-0.022907447,-0.018325957,0.020158553,327.8627,101.93511,11.934804,STD
4620909209000,0.604974,1.57558678681731,-9.55036996503203,-0.125315359964802,-0.03145956,-0.01740966,0.022602014,327.87997,101.933075,11.932733,STD
4620914260000,0.610025,1.57607020643095,-9.55012827541649,-0.110087630676484,-0.027794369,-0.025961773,0.01985312,327.8957,101.93011,11.929761,STD
4620919250000,0.615015,1.57654778787464,-9.54988950464207,-0.0950438038800656,-0.028405234,-0.030848695,0.01740966,327.9124,101.9263,11.925922,STD
4620924235000,0.62,1.57702489077981,-9.54965097311694,-0.0800150510583932,-0.025350908,-0.024129177,0.019547688,327.92966,101.92187,11.921482,STD
4620929241000,0.625006,1.57750400354677,-9.54941143674485,-0.064922987542788,-0.029321533,-0.029626964,0.02443461,327.94162,101.91729,11.916864,STD
4620934246000,0.630011,1.57798302060602,-9.54917194822262,-0.0498339388221321,-0.025961773,-0.016187929,0.03359759,327.9608,101.91077,11.910341,STD
4620939243000,0.635008,1.57846127200364,-9.54893284249922,-0.0347690084610695,-0.034208454,-0.019242255,0.034208454,327.97324,101.90531,11.904834,STD
4620944224000,0.639989,1.57893799207799,-9.5486945023735,-0.0197523148191939,-0.022907447,-0.009773844,0.036651913,327.99298,101.89666,11.896203,STD
4620949241000,0.645006,1.57941815762969,-9.54845443965302,-0.00462708855914775,-0.028099801,-0.014660766,0.042760566,328.00735,101.88688,11.886373,STD
4620954237000,0.650002,1.57989631331961,-9.54821538177948,0.0104348270069656,-0.029932396,-0.004581489,0.04337143,328.02853,101.87796,11.877453,STD
4620959457000,0.655222,1.58095348399664,-9.54885737701205,0.023055536846882,-0.018325957,-0.005192355,0.035124753,328.04486,101.869896,11.869399,STD
4620964246000,0.660011,1.58255883578354,-9.55046271443073,0.0310823016723622,-0.035430185,-0.01282817,0.039095376,328.0618,101.8583,11.8577385,STD
4620969249000,0.665014,1.58423592390003,-9.55213978753694,0.0394677484090248,-0.033292156,-0.0070249503,0.039095376,328.12466,101.84635,11.846121,STD
4620974233000,0.669998,1.58590664290315,-9.55381049158678,0.0478213495554422,-0.03481932,-0.013133603,0.03970624,328.18066,101.83304,11.832969,STD
4620979260000,0.675025,1.58759177621548,-9.55549560981683,0.0562470223008356,-0.035124753,-0.01038471,0.046731193,328.2398,101.817764,11.817767,STD
4620984253000,0.680018,1.58926551216703,-9.55716933078812,0.064615708200527,-0.03634648,-0.01160644,0.038789943,328.29495,78.19347,11.8064995,STD
4620989236000,0.685001,1.59093589595366,-9.55883969962447,0.0729676332632474,-0.04428773,-0.01740966,0.042455133,328.34848,78.21008,11.78978,STD
4620994216000,0.689981,1.5926052740908,-9.56050906282034,0.0813145300748764,-0.02687807,-0.01282817,0.038179077,328.40363,78.22221,11.777423,STD
4620999250000,0.695015,1.59429275391858,-9.56219652754484,0.0897519354061495,-0.026572637,-0.012217305,0.032986723,328.45493,78.23523,11.764159,STD
4621004235000,0.7,1.59596380813819,-9.56386756680818,0.0981072126362641,-0.036957346,-0.008246681,0.039095376,328.50757,78.25034,11.748705,STD
4621009245000,0.70501,1.59764324277014,-9.56554698640885,0.106504391958807,-0.032375857,-0.008552114,0.03390302,328.55817,78.26081,11.737784,STD
4621014254000,0.710019,1.59932234218559,-9.56722607079602,0.114899895197652,-0.024740042,-0.01038471,0.032070424,328.6085,78.27408,11.724013,STD
4621019252000,0.715017,1.60099775421961,-9.56890146783477,0.123276961515829,-0.023823744,0.0033597588,0.035124753,328.66232,78.287384,11.710147,STD
4621024234000,0.719999,1.60266780278974,-9.57057150145762,0.131627210494852,-0.03970624,0.010995574,0.036957346,328.71292,78.29999,11.69699,STD
4621029268000,0.725033,1.60435528261752,-9.57225896618213,0.140064615826125,-0.040011674,0.019547688,0.039095376,328.76685,78.31356,11.682683,STD
4621034238000,0.730003,1.60602130858973,-9.57392497724307,0.148394751800783,-0.04153884,0.019242255,0.04184427,328.81937,78.32806,11.667533,STD
4621039232000,0.734997,1.60769537975778,-9.57559903342784,0.156765113784172,-0.03848451,0.02321288,0.041233405,328.87463,78.34226,11.652576,STD
4621044229000,0.739994,1.60937045657531,-9.5772740952531,0.165140504018652,-0.04153884,0.022907447,0.032986723,328.92758,78.3552,11.638927,STD
4621049229000,0.744994,1.61104653904232,-9.57895016271883,0.173520922504223,-0.042760566,0.02565634,0.032070424,328.98157,78.370094,11.623238,STD
4621054245000,0.75001,1.61272798497322,-9.58063159360045,0.181928158328948,-0.04795292,0.032986723,0.03848451,329.03583,78.38492,11.607644,STD
4621059232000,0.754997,1.61439970962582,-9.58230330329078,0.190286787726457,-0.045814894,0.028710667,0.03573562,329.08652,78.39692,11.594803,STD
4621064238000,0.760003,1.61607780339179,-9.58398138203747,0.198677262714211,-0.04734206,0.029321533,0.040317107,329.13974,78.413025,11.577896,STD
4621069236000,0.765001,1.61775321542581,-9.58565677907622,0.207054329032388,-0.04886922,0.030543262,0.041233405,329.19098,78.42736,11.562731,STD
4621074233000,0.769998,1.61942829224334,-9.58733184090148,0.215429719266868,-0.043676864,0.03268129,0.0421497,329.24173,78.442986,11.546191,STD
4621079260000,0.775025,1.62111342555567,-9.58901695913153,0.223855392012261,-0.036651913,0.04734206,0.042760566,329.29556,78.45881,11.529389,STD
4621084212000,0.779977,1.622773417631,-9.59067693634959,0.232155358480371,-0.050396383,0.05375614,0.051923547,329.3467,78.47756,11.509853,STD
4621089203000,0.784968,1.62444648314957,-9.59234998689389,0.240520692212668,-0.055283304,0.05497787,0.052839845,329.3997,78.49398,11.49241,STD
4621094226000,0.789991,1.62613027559593,-9.59403376426996,0.248939660623273,-0.057421334,0.056505036,0.05131268,329.45367,78.51245,11.473028,STD
4621099224000,0.794989,1.62780568762995,-9.59570916130871,0.25731672694145,-0.045814894,0.05681047,0.052839845,329.50668,78.53188,11.452537,STD
4621104160000,0.799925,1.62946031624138,-9.59736377511089,0.265589876070406,-0.049785517,0.069027774,0.05589417,329.56268,78.55154,11.432021,STD
4621109132000,0.804897,1.63112701264658,-9.59903045659881,0.273923364212458,-0.04917465,0.06963864,0.065973446,329.61444,78.57337,11.409113,STD
4621114185000,0.80995,1.63282086158774,-9.60072429037968,0.282392615133976,-0.048258353,0.09010262,0.067500606,329.67462,78.593636,11.387708,STD
4621119161000,0.814926,1.6344888988589,-9.60239231272158,0.290732807610817,-0.05131268,0.100792766,0.06872234,329.7312,78.61663,11.363637,STD
4621124159000,0.819924,1.63616431089293,-9.60406770976033,0.299109873928994,-0.07269296,0.12217305,0.076358154,329.79584,78.64211,11.337258,STD
4621129165000,0.82493,1.6378424046589,-9.60574578850702,0.307500348916748,-0.076358154,0.13927728,0.074830994,329.8613,78.665,11.313195,STD
4621134155000,0.82992,1.63951513496097,-9.60741850383783,0.315864006565348,-0.07971791,0.1518,0.09560041,329.93045,78.69669,11.280601,STD
4621139152000,0.834917,1.6411902117785,-9.60909356566308,0.324239396799828,-0.08124508,0.1600467,0.0842994,330.00223,78.71874,11.25764,STD
4621144552000,0.840317,1.64300038084287,-9.61090371852607,0.333290248764245,-0.0842994,0.15363261,0.090713486,330.07202,78.75168,11.223859,STD
4621149147000,0.844912,1.64454070063005,-9.61244402452708,0.340991853352485,-0.09285152,0.14172074,0.08368854,330.14142,78.777565,11.197253,STD
4621154229000,0.849994,1.64624427084952,-9.61414757949926,0.34950971070122,-0.09682214,0.13347405,0.08155051,330.20877,78.80647,11.167586,STD
4621159220000,0.854985,1.61737880524587,-9.59356882439865,0.296335389056071,-0.099571034,0.1133155,0.064751714,330.26813,78.82915,11.144386,STD
4621164322000,0.860087,1.54517656281914,-9.54142295821361,0.15594211829899,-0.098043874,0.04734206,0.064751714,330.31058,78.85583,11.117371,STD
4621169698000,0.865463,1.47035222556591,-9.48476278828229,0.00985735243142476,-0.09162979,0.004886922,0.032070424,330.3776,78.867065,11.104908,STD
4621174238000,0.870003,1.42017710474922,-9.41914900754549,-0.0943525920656902,-0.06383542,-0.016798794,0.036651913,330.43018,78.88836,11.082056,STD
4621179198000,0.874963,1.36536023266755,-9.34746522947182,-0.208203104115402,-0.040317107,-0.05467244,-0.005192355,330.4819,78.88929,11.081763,STD
4621184237000,0.880002,1.38454402365127,-9.28599253614588,-0.31925341615451,-0.01282817,-0.08399397,0.004886922,330.52847,78.90574,11.065274,STD
4621189167000,0.884932,1.43039238532585,-9.22995554326715,-0.42623299056107,0.005192355,-0.06872234,0.023518313,330.57617,78.91267,11.058001,STD
4621194220000,0.889985,1.43247017021563,-9.22651553369272,-0.355464735494802,0.015271631,-0.0421497,0.0143553335,330.63428,78.9133,11.058353,STD
4621199223000,0.894988,1.42785790316712,-9.23112746361186,-0.258606058294186,0.018020526,-0.030543262,0.01160644,330.6913,78.92104,11.051299,STD
4621204236000,0.900001,1.523894371912,-9.21767810692645,-0.171196029214133,0.0033597588,-0.0061086523,0.005497787,330.76572,78.90964,11.064966,STD
4621209203000,0.904968,1.64362361288338,-9.1999405410646,-0.0869420866598303,-0.00061086525,0.014660766,0.0143553335,330.84076,78.90209,11.074313,STD
4621214971000,0.910736,1.45334549640133,-9.46736619465034,0.0296038445203567,-0.004886922,0.11209377,0.032986723,330.96533,78.89765,11.079876,STD
4621219229000,0.914994,1.2080376749812,-9.75647931743474,0.121594272978838,-0.021991149,0.17715092,0.035124753,331.0843,78.89213,11.08676,STD
4621224234000,0.919999,1.33258032491519,-9.83299449679608,0.190391830870712,-0.04642576,0.26816985,0.03634648,331.24484,78.870605,11.109401,STD
4621229254000,0.925019,1.56362573030531,-9.84205481153411,0.249285768865435,-0.13530666,0.22388211,0.029932396,331.38138,78.85026,11.132331,STD
4621234246000,0.930011,1.63281273201428,-9.81924423832193,0.205475369199643,-0.16432275,0.10720685,0.047036625,331.5545,78.89843,11.084476,STD
4621239240000,0.935005,1.62569780502827,-9.78129815917882,0.11298124904096,-0.115453534,-0.014660766,0.032986723,331.70953,78.93621,11.047269,STD
4621244216000,0.939981,1.61860852255281,-9.74348885004463,0.0208205077695131,-0.028710667,-0.086132,0.018325957,331.8702,78.92732,11.057716,STD
4621249241000,0.945006,1.61144943002083,-9.70530722255281,-0.0722477649171874,0.009468411,-0.10262536,0.017715093,332.00797,78.91936,11.06726,STD
4621254236000,0.950001,1.57332933165583,-9.65068191564977,-0.116290774874855,0.008246681,-0.06811147,0.016187929,332.1559,78.902504,11.085337,STD
4621259214000,0.954979,1.51812727117663,-9.58698728164247,-0.133276019478044,-0.018020526,-0.012217305,0.023823744,332.302,78.889084,11.099694,STD
4621264210000,0.959975,1.47237376207561,-9.55810304905216,-0.135631256570633,-0.034513887,0.03573562,0.035430185,332.4634,78.86734,11.123666,STD
4621269357000,0.965122,1.44069868197494,-9.58449899507336,-0.114514488728714,-0.03756821,0.06841691,0.03970624,332.63278,78.847145,11.145805,STD
4621274234000,0.969999,1.43707670129149,-9.59849402427792,-0.0952124575481804,-0.053450707,0.08552113,0.042760566,332.82452,78.837776,11.15734,STD
4621279244000,0.975009,1.45629067951644,-9.60329737463083,-0.0759984391970766,-0.06291912,0.096516706,0.049785517,333.01953,78.83178,11.164976,STD
4621284476000,0.980241,1.47635605557892,-9.60831356805326,-0.055933021230415,-0.0580322,0.089186326,0.04734206,333.21045,78.83322,11.164746,STD
4621289245000,0.98501,1.49464576858387,-9.6128858590379,-0.037643270029534,-0.05375614,0.061391957,0.045814894,333.3942,78.83784,11.161069,STD
4621294209000,0.989974,1.48613080443131,-9.61760373707533,-0.0511376013293944,-0.034513887,0.03726278,0.040927973,333.57465,78.84198,11.15753,STD
4621299239000,0.995004,1.4529255727228,-9.62234744066962,-0.093830071816839,-0.027183503,0.00580322,0.036651913,333.74088,78.84665,11.153237,STD
4621304231000,0.999996,1.42699452434282,-9.61992767513144,-0.119684910368019,-0.022602014,-0.005192355,0.032070424,333.9017,78.845245,11.154754,STD
4621309216000,1.004981,1.40805177159012,-9.61045612568198,-0.129156271909533,-0.03145956,-0.009162978,0.025961773,334.05188,101.15699,11.156929,STD
4621314251000,1.010016,1.38429107769193,-9.6008962631996,-0.136395741089648,-0.035430185,-0.00580322,0.03145956,334.20206,101.15253,11.152211,STD
4621319276000,1.015041,1.35568879760277,-9.59136245190689,-0.14116279606736,-0.03848451,-0.00580322,0.025961773,334.276861002004,101.152706227455,11.1521445370741,STD
4621324231000,1.019996,1.34897829938283,-9.57815872208917,-0.162159084806559,-0.04917465,0.007330383,0.023823744,334.35062,101.15288,11.152079,STD
4621329250000,1.025015,1.3666886286846,-9.5604484390199,-0.202007457498158,-0.05131268,0.016798794,0.02565634,334.49283,101.142166,11.140639,STD
4621334171000,1.029936,1.37779506727969,-9.54934194025392,-0.233638499110344,-0.062308256,0.0125227375,0.02107485,334.63367,101.13044,11.127875,STD
4621339235000,1.035,1.37326776996826,-9.55386890664675,-0.247220537594287,-0.0693332,0.02107485,0.027488936,334.7779,101.11464,11.110873,STD
4621344225000,1.03999,1.37351609732994,-9.56053349809282,-0.259149871423236,-0.067500606,0.020463986,0.029626964,334.91708,101.109406,11.104031,STD
4621349242000,1.045007,1.40024270565798,-9.57962393261284,-0.262967970287667,-0.065973446,0.023518313,0.03268129,335.05676,101.1016,11.094358,STD
4621354244000,1.050009,1.4268894058487,-9.59865728989192,-0.26677465366815,-0.069027774,0.029626964,0.040011674,335.19376,101.09093,11.081544,STD
4621359258000,1.055023,1.4483606686783,-9.58777774423985,-0.271110517169575,-0.064751714,0.026267206,0.040011674,335.326,101.080894,11.069289,STD
4621364234000,1.059999,1.466736898043,-9.56021378395835,-0.275704574510749,-0.062002823,0.016798794,0.03848451,335.45535,101.06882,11.054791,STD
4621369254000,1.065019,1.45626035792855,-9.55271880904652,-0.266122504158314,-0.065973446,0.005192355,0.03726278,335.57263,101.05806,11.04115,STD
4621374294000,1.070059,1.42318085137497,-9.56098841583141,-0.24544782227705,-0.04917465,-0.0009162979,0.036957346,335.68622,101.04676,11.027214,STD
4621379189000,1.074954,1.39499224498458,-9.57152526587873,-0.231991005273381,-0.054061573,-0.014049901,0.03848451,335.7896,101.04008,11.017222,STD
4621384252000,1.080017,1.38004244961973,-9.59145829167523,-0.241957575410072,-0.058643065,-0.017715093,0.040317107,335.8917,101.03271,11.006756,STD
4621389167000,1.084932,1.36977639459169,-9.6061230075401,-0.249289967651145,-0.058948494,-0.016493361,0.04062254,335.99527,101.017586,10.988768,STD
4621394215000,1.08998,1.37088097763789,-9.60833224283691,-0.250394562231413,-0.06505715,-0.01282817,0.034513887,336.0963,101.00376,10.971829,STD
4621399192000,1.094957,1.37197002474981,-9.61051040529178,-0.251483620715167,-0.06566802,-0.0021380284,0.03848451,336.1987,100.98371,10.948714,STD
4621404243000,1.100008,1.37307526424393,-9.61272095352557,-0.252588871750217,-0.058337633,0.007941248,0.038179077,336.2999,100.96638,10.928378,STD
4621409208000,1.104973,1.37416168556414,-9.61489386423251,-0.253675304414843,-0.07544186,0.00030543262,0.04642576,336.397,100.94589,10.904236,STD
4621414313000,1.110078,1.37527874112096,-9.61712804533199,-0.254792371635973,-0.06841691,-0.003970624,0.04153884,336.4959,100.92824,10.883791,STD
4621419252000,1.115017,1.37635947322579,-9.61928957725175,-0.255873115025819,-0.062002823,-0.0070249503,0.03940081,336.59103,100.90777,10.860065,STD
4621424240000,1.120005,1.37745092731344,-9.62147255380889,-0.256964580510442,-0.064446285,-0.017715093,0.03756821,336.6808,100.88852,10.837475,STD
4621429242000,1.125007,1.37854544482475,-9.62366165740529,-0.258059109450715,-0.054367006,-0.003970624,0.033292156,336.7749,100.869896,10.816191,STD
4621434237000,1.130002,1.3815711597619,-9.63222420550595,-0.259829303813988,-0.063224554,-0.0076358155,0.03573562,336.85706,100.84683,10.788675,STD
4621439235000,1.135,1.38631965642857,-9.64646974508929,-0.262203559584821,-0.063224554,-0.010079277,0.03848451,336.94183,100.82438,10.762418,STD
4621444205000,1.13997,1.39104155087302,-9.66063547772817,-0.264564514202877,-0.05681047,-0.01160644,0.029932396,337.0236,100.805275,10.739414,STD
4621449266000,1.145031,1.39584990253968,-9.67506058293651,-0.26696869756746,-0.04428773,-0.014966198,0.028710667,337.10257,100.78316,10.713598,STD
4621454231000,1.149996,1.39350326838761,-9.67508620502383,-0.261084947662828,-0.051618114,-0.016187929,0.024740042,337.19138,100.76971,10.696109,STD
4621459202000,1.154967,1.38405007680699,-9.66090612152502,-0.246905150420969,-0.052534413,-0.0125227375,0.027183503,337.27893,100.75392,10.676961,STD
4621464290000,1.160055,1.38371484606963,-9.66273068655686,-0.237092802104744,-0.043676864,-0.0070249503,0.026267206,337.36243,100.73994,10.659702,STD
4621470185000,1.16595,1.39485109934905,-9.68500365825032,-0.23152466383667,-0.038789943,-0.004276057,0.028710667,337.44458,100.72425,10.640649,STD
4621474211000,1.169976,1.39609602074431,-9.68114049315743,-0.238314174319189,-0.04184427,-0.015882496,0.022602014,337.5202,100.708534,10.622406,STD
4621479249000,1.175014,1.39134585685734,-9.65738942571626,-0.257315048112632,-0.043066,-0.01740966,0.023823744,337.5981,100.68961,10.601346,STD
4621484193000,1.179958,1.38529773696439,-9.64217533361394,-0.269820231517805,-0.043066,-0.014049901,0.0290161,337.6724,100.67207,10.5817,STD
4621489240000,1.185005,1.37715999648119,-9.63810637839886,-0.273889101759407,-0.040927973,-0.016493361,0.02443461,337.74307,100.65676,10.564357,STD
4621494225000,1.18999,1.36906132362027,-9.63405695740285,-0.278149476820462,-0.032986723,-0.011911872,0.020463986,337.81436,100.64023,10.545827,STD
4621499321000,1.195086,1.35945908598131,-9.62925573831776,-0.287751724485981,-0.03023783,-0.01740966,0.025961773,337.8807,100.62227,10.525729,STD
4621504533000,1.200298,1.3503298,-9.624691,-0.296415272213437,-0.040317107,-0.01863139,0.03145956,337.95325,100.605865,10.506921,STD
4621509213000,1.204978,1.3503298,-9.624691,-0.290476036134105,-0.042760566,-0.016798794,0.03390302,338.02377,100.5882,10.487296,STD
4621514309000,1.210074,1.3503298,-9.624691,-0.284008867958832,-0.046731193,-0.015577064,0.035430185,338.0897,100.56691,10.463367,STD
4621519255000,1.21502,1.3503298,-9.624691,-0.277732059914307,-0.054061573,-0.02321288,0.027183503,338.15228,100.54795,10.441572,STD
4621524232000,1.219997,1.3503298,-9.624691,-0.271415910776094,-0.052534413,-0.013133603,0.03756821,338.21942,100.5231,10.414251,STD
4621529227000,1.224992,1.35957545615346,-9.62237954070752,-0.265839185358246,-0.047647487,-0.013744468,0.04428773,338.28003,100.50178,10.390277,STD
4621534247000,1.230012,1.37873862456403,-9.61758865480817,-0.261048392004983,-0.042760566,-0.011301007,0.038179077,338.34332,100.481125,10.3672285,STD
4621539570000,1.235335,1.39905845433483,-9.61250859790733,-0.255968433236173,-0.04520403,-0.0067195175,0.026572637,338.40674,100.459694,10.3436575,STD
4621544221000,1.239986,1.41681301534629,-9.60806987075237,-0.251529791824614,-0.046120327,-0.012217305,0.039095376,338.46698,100.43295,10.314994,STD
4621549228000,1.244993,1.42919769751,-9.6077904681,-0.246743551313,-0.048563786,-0.015882496,0.048563786,338.52283,100.40758,10.28705,STD
4621554245000,1.25001,1.4340023279,-9.612595249,-0.24193887577,-0.040011674,-0.01160644,0.03756821,338.5784,100.38424,10.261701,STD
4621559263000,1.255028,1.43713562649359,-9.61388479835524,-0.246181004684351,-0.036957346,-0.004276057,0.03481932,338.63257,100.36386,10.23857,STD
4621564260000,1.260025,1.43842176074337,-9.61131263729205,-0.260328341764627,-0.042760566,-0.0036651916,0.035124753,338.68506,100.34581,10.21783,STD
4621569235000,1.265,1.43970223260502,-9.60875180053213,-0.274413393190357,-0.04795292,-0.004581489,0.03481932,338.73947,100.32984,10.199801,STD
4621574234000,1.269999,1.44098888161735,-9.60617860998683,-0.288566392602865,-0.045814894,-0.003970624,0.032070424,338.7935,100.31439,10.182454,STD
4621579220000,1.274985,1.44227218467306,-9.60361211107528,-0.302682586855868,-0.050396383,-0.016187929,0.036957346,338.84265,100.29739,10.162953,STD
4621584267000,1.280032,1.44357118798678,-9.60101421295923,-0.316971482241931,-0.05100725,-0.003970624,0.03940081,338.89813,100.28155,10.145184,STD
4621589229000,1.284994,1.4448483138918,-9.59846006783305,-0.331019728508157,-0.052534413,-0.00580322,0.03145956,338.9464,100.26918,10.131721,STD
4621594493000,1.290258,1.44352605625958,-9.59767555055811,-0.34176455906763,-0.06169739,-0.013439035,0.03481932,338.99576,100.25325,10.114363,STD
4621599217000,1.294982,1.41382094665135,-9.61747881910703,-0.307108637491793,-0.062002823,-0.0021380284,0.03940081,339.0491,100.23877,10.099014,STD
4621604130000,1.299895,1.38561074262703,-9.6351326178781,-0.272539526606344,-0.05955936,-0.0036651916,0.03634648,339.09238,100.22928,10.08716,STD
4621609181000,1.304946,1.36877635276922,-9.63994229288058,-0.243680552474893,-0.061391957,-0.013439035,0.030848695,339.13574,100.21929,10.074694,STD
4621614144000,1.309909,1.35223525657751,-9.64466817231779,-0.215324367835339,-0.055588737,-0.011911872,0.03848451,339.18558,100.19847,10.052752,STD
4621619154000,1.314919,1.33553751490504,-9.64943880620463,-0.186699647898976,-0.043066,-0.002443461,0.03756821,339.23398,100.1814,10.034893,STD
4621624154000,1.319919,1.31930545493411,-9.6518917511957,-0.166628964171791,-0.04734206,-0.0070249503,0.034208454,339.2698,100.159836,10.011915,STD
4621629170000,1.324935,1.30523891648609,-9.64251435265983,-0.190073209606637,-0.04734206,-0.011301007,0.027488936,339.30783,100.13889,9.990497,STD
4621634135000,1.3299,1.29233415544355,-9.63212867762097,-0.212294251836694,-0.048563786,-0.020158553,0.034513887,339.3485,100.10646,9.95852,STD
4621639151000,1.334916,1.28749159173387,-9.61275892842742,-0.226821654747984,-0.049785517,-0.01282817,0.03145956,339.3919,100.07911,9.931798,STD
4621644139000,1.339904,1.28150962627382,-9.59774335511474,-0.238231924852198,-0.05100725,-0.0076358155,0.03023783,339.43146,100.04848,9.901128,STD
4621649163000,1.344928,1.26747413160249,-9.61177870322832,-0.228874881180475,-0.0571159,-0.009162978,0.03145956,339.47064,100.01869,9.871038,STD
4621654153000,1.349918,1.25525016876343,-9.624346759328,-0.220094433258449,-0.056199603,-0.006414085,0.035124753,339.51138,99.98903,9.841143,STD
4621659185000,1.35495,1.26466423076773,-9.61963964231295,-0.217740923901153,-0.05131268,-0.02076942,0.03481932,339.54614,99.96059,9.812258,STD
4621664214000,1.359979,1.27407268025493,-9.61493533160774,-0.215388817669467,-0.06169739,-0.01282817,0.03268129,339.58188,99.92543,9.775887,STD
4621669190000,1.364955,1.28338197527349,-9.61028059904278,-0.213061499990232,-0.0571159,-0.01160644,0.028099801,339.61118,99.89069,9.74079,STD
4621674480000,1.370245,1.29304306583119,-9.60501480977674,-0.210863815831189,-0.05222898,-0.00061086525,0.026572637,339.64532,99.85677,9.706211,STD
4621679190000,1.374955,1.29678667343348,-9.5937841433314,-0.21460742343348,-0.06383542,-0.009162978,0.029321533,339.6738,99.82406,9.672137,STD
4621684144000,1.379909,1.30072421739563,-9.58197167590671,-0.218544967395635,-0.06963864,-0.0061086523,0.040317107,339.70264,99.7913,9.639136,STD
4621689194000,1.384959,1.31230839441922,-9.58385171029945,-0.218857607940111,-0.06536258,0.004276057,0.034208454,339.73074,99.76317,9.610782,STD
4621694177000,1.389942,1.32934906986686,-9.59602362133347,-0.216423225733306,-0.0711658,-0.0027488936,0.03481932,339.75464,99.7314,9.577838,STD
4621699198000,1.394963,1.34651969628118,-9.60828835448656,-0.213970279102688,-0.06383542,-0.008246681,0.032070424,339.78073,99.70346,9.54966,STD
4621704247000,1.400012,1.36378607603938,-9.62062148288527,-0.211503653422945,-0.057421334,-0.014660766,0.03176499,339.8043,99.67545,9.521041,STD
4621709252000,1.405017,1.35114975344482,-9.64302471036789,-0.198467309391304,-0.057726767,-0.011911872,0.029626964,339.82907,99.6491,9.49383,STD
4621714350000,1.410115,1.32315786062112,-9.67101670062112,-0.17980603289441,-0.05100725,-0.014049901,0.030543262,339.8504,99.62175,9.466232,STD
4621719257000,1.415022,1.3043188282388,-9.68471995967216,-0.16211089045916,-0.047647487,-0.022602014,0.025961773,339.86826,99.60231,9.446484,STD
4621724231000,1.419996,1.29100915101052,-9.68915658051597,-0.144364768425072,-0.047036625,-0.029626964,0.028405234,339.8858,99.580765,9.424812,STD
4621729213000,1.424978,1.27892749006191,-9.68736437612686,-0.13625756636255,-0.04886922,-0.029626964,0.021685716,339.90936,99.557785,9.402473,STD
4621734241000,1.430006,1.26846764450961,-9.67690425752145,-0.14148751644401,-0.04734206,-0.03970624,0.015271631,339.9278,99.534256,9.379628,STD
4621739230000,1.434995,1.26689504106701,-9.66430549193309,-0.162947901860833,-0.04917465,-0.04428773,0.010995574,339.94055,99.50538,9.3522415,STD
4621744216000,1.439981,1.27162135253885,-9.65012675492428,-0.196032106839553,-0.057726767,-0.03573562,0.004581489,339.95413,99.479774,9.327884,STD
4621749243000,1.445008,1.28705342324547,-9.64606783097199,-0.226250878311367,-0.06719518,-0.038179077,0.010995574,339.96368,99.451225,9.300137,STD
4621754257000,1.450022,1.31078562691928,-9.65002286095552,-0.253938421729819,-0.05589417,-0.03848451,0.004886922,339.97617,99.42789,9.278374,STD
4621759271000,1.455036,1.32828801160188,-9.6539986473302,-0.280615578747544,-0.06414085,-0.03268129,0.011911872,339.9878,99.40419,9.2544155,STD
4621764275000,1.46004,1.30781705587356,-9.6580929068774,-0.301086466074327,-0.06780604,-0.030543262,0.007330383,339.9981,99.38509,9.235893,STD
4621769177000,1.464942,1.28776337382315,-9.66210371029475,-0.321140081117471,-0.057726767,-0.031154128,0.007941248,340.00864,99.37076,9.221779,STD
4621774238000,1.470003,1.29432540179047,-9.65748139511251,-0.32561144,-0.052839845,-0.027183503,0.008552114,340.02097,99.35835,9.20924,STD
4621779243000,1.475008,1.30824228081297,-9.65052307669973,-0.32561144,-0.057726767,-0.036957346,0.004276057,340.02896,99.34734,9.198012,STD
4621784237000,1.480002,1.32212857328817,-9.64358005129446,-0.32561144,-0.053450707,-0.03726278,0.007330383,340.03748,99.32849,9.179542,STD
4621789235000,1.485,1.33602598814421,-9.63663146479555,-0.32561144,-0.053450707,-0.02107485,0.016187929,340.048,99.31002,9.161029,STD
4621794907000,1.490672,1.32968920185176,-9.63242400155121,-0.32376747620922,-0.04153884,-0.03390302,0.024129177,340.05225,99.291214,9.142446,STD
4621799219000,1.494984,1.31767835149547,-9.63042215832081,-0.321765670603519,-0.04520403,-0.03573562,0.021685716,340.0643,99.27395,9.124862,STD
4621804234000,1.499999,1.30370933142663,-9.62809394779194,-0.319437503833438,-0.043982297,-0.027183503,0.022296581,340.07324,99.25884,9.110165,STD
4621809263000,1.505028,1.28970131509041,-9.62575923777207,-0.317102837694508,-0.043676864,-0.032375857,0.02321288,340.07764,99.24485,9.096225,STD
4621814239000,1.510004,1.28410826493548,-9.62305847012904,-0.318483365371993,-0.03359759,-0.026267206,0.020463986,340.08557,99.23067,9.083146,STD
4621819248000,1.515013,1.28563674009877,-9.62000151980245,-0.323068698294727,-0.03756821,-0.029626964,0.026572637,340.0894,99.21472,9.067433,STD
4621824229000,1.519994,1.2871566711805,-9.616961657639,-0.327628399490202,-0.033292156,-0.01863139,0.026267206,340.10153,99.19539,9.049573,STD
4621829226000,1.524991,1.28868148459455,-9.6139120308109,-0.332202747386968,-0.03359759,-0.029321533,0.02321288,340.10648,99.17596,9.030933,STD
4621834224000,1.529989,1.29020660315437,-9.61086179369125,-0.336778010702565,-0.03940081,-0.035124753,0.02107485,340.116,99.15679,9.012591,STD
4621839236000,1.535001,1.29173599375498,-9.60780301249004,-0.341366089881791,-0.044898596,-0.03268129,0.016493361,340.1248,99.13956,8.996148,STD
4621844206000,1.539971,1.29550574024751,-9.60290034235024,-0.351356896125288,-0.049480084,-0.03848451,0.0125227375,340.1328,99.12418,8.980277,STD
4621849216000,1.544981,1.30601494362063,-9.5923914681853,-0.377629926505312,-0.054367006,-0.027794369,0.019547688,340.1463,99.10756,8.963008,STD
4621854187000,1.549952,1.31295153461007,-9.58731295400976,-0.388004403069699,-0.050396383,-0.02687807,0.012217305,340.1559,99.098816,8.953501,STD
4621859249000,1.555014,1.31518327025136,-9.58954473625817,-0.376845715541847,-0.05222898,-0.037873644,0.01160644,340.16513,99.08692,8.940271,STD
4621865280000,1.561045,1.31784221881963,-9.5922037403554,-0.363550961594697,-0.049785517,-0.040011674,0.011911872,340.17706,99.080414,8.932114,STD
4621869247000,1.565012,1.31959119062701,-9.59395274868797,-0.354806095252739,-0.050701816,-0.032070424,0.015577064,340.18866,99.07346,8.923282,STD
4621874221000,1.569986,1.32119123407588,-9.59759365517241,-0.343540541375242,-0.055283304,-0.04184427,0.011911872,340.1943,99.068634,8.916418,STD
4621879220000,1.574985,1.31632149313396,-9.61707251724138,-0.328931308379615,-0.04428773,-0.03145956,0.017715093,340.20807,99.05941,8.906152,STD
4621884240000,1.580005,1.31016350442708,-9.63453359023209,-0.317096959851974,-0.044898596,-0.041233405,0.018936822,340.21378,99.05306,8.898305,STD
4621889244000,1.585009,1.29483745130208,-9.63672306885051,-0.325854700575658,-0.04917465,-0.03848451,0.019242255,340.226,99.045044,8.889367,STD
4621894218000,1.589983,1.27960328098958,-9.63889942109832,-0.334559936858553,-0.041233405,-0.0421497,0.024129177,340.23633,99.034164,8.879773,STD
4621899234000,1.594999,1.26424047473958,-9.64109415026499,-0.343338679358553,-0.047036625,-0.04184427,0.016187929,340.2483,99.027855,8.873894,STD
4621904227000,1.599992,1.24894811197917,-9.64327881588085,-0.352077168453947,-0.042760566,-0.046120327,0.018020526,340.25787,99.016624,8.863864,STD
4621909242000,1.605007,1.2449849,-9.64501036813187,-0.359003724391026,-0.049480084,-0.05131268,0.014660766,340.27335,99.01277,8.860374,STD
4621914223000,1.609988,1.2449849,-9.64657035164835,-0.365244183012821,-0.047647487,-0.046120327,0.021685716,340.29044,99.00479,8.853391,STD
4621919232000,1.614997,1.2449849,-9.6481391043956,-0.37151972150641,-0.042455133,-0.059253927,0.017104227,340.30423,98.996635,8.845539,STD
4621924207000,1.619972,1.2449849,-9.64969720879121,-0.377752663012821,-0.043066,-0.053450707,0.015882496,340.32483,98.98585,8.834994,STD
4621929226000,1.624991,1.2449849,-9.65126909340659,-0.384040730032051,-0.049785517,-0.06688975,0.015882496,340.33176,98.974396,8.823454,STD
4621934644000,1.630409,1.2449849,-9.65296593956044,-0.390828685224359,-0.047647487,-0.058337633,0.013439035,340.34656,98.9637,8.813326,STD
4621939234000,1.634999,1.25256526040069,-9.65493710057529,-0.394165148914009,-0.0580322,-0.0580322,0.004886922,340.35495,98.955894,8.804946,STD
4621944204000,1.639969,1.2645749483801,-9.65733908331651,-0.396567081493742,-0.053145275,-0.050396383,0.016493361,340.36795,98.94233,8.791752,STD
4621949235000,1.645,1.27673203896851,-9.65977054713363,-0.39899849453371,-0.065973446,-0.0571159,0.015882496,340.37573,98.93687,8.784762,STD
4621954236000,1.650001,1.28881663647053,-9.66218751206096,-0.401415408986677,-0.06047566,-0.06169739,0.01160644,340.38623,98.92807,8.775709,STD
4621959271000,1.655036,1.30258663529412,-9.65651977941176,-0.389269026176471,-0.06383542,-0.07086037,0.014660766,340.39667,98.919914,8.76591,STD
4621964257000,1.660022,1.31701550056406,-9.64690083722804,-0.37003052910556,-0.06169739,-0.05955936,0.0125227375,340.41144,98.91389,8.759024,STD
4621969246000,1.665011,1.31863521456231,-9.6319880106354,-0.352061912058904,-0.058337633,-0.067500606,0.016798794,340.41583,98.90986,8.753645,STD
4621974236000,1.670001,1.31429122474321,-9.61461168848287,-0.334685943710572,-0.050701816,-0.0711658,0.014049901,340.42444,98.90802,8.751007,STD
4621979217000,1.674982,1.30959466447481,-9.61282095868915,-0.328039375525192,-0.05467244,-0.06352998,0.026572637,340.4314,98.9018,8.743139,STD
4621984246000,1.680011,1.30445357489325,-9.62824454953032,-0.333180465106746,-0.0571159,-0.07360926,0.014660766,340.4319,98.90277,8.742931,STD
4621989233000,1.684998,1.30810298933073,-9.64275366585247,-0.340845435237909,-0.050701816,-0.06811147,0.027183503,340.4441,98.893524,8.7331705,STD
4621994211000,1.689976,1.31741873147044,-9.65672708451392,-0.350161187105032,-0.04550946,-0.06963864,0.021991149,340.451,98.89279,8.731754,STD
4621999283000,1.695048,1.33105013313795,-9.662998,-0.351641647712483,-0.04337143,-0.06383542,0.029321533,340.46027,98.8827,8.720359,STD
4622004329000,1.700094,1.34785365653967,-9.662998,-0.346840636013114,-0.048258353,-0.06078109,0.02443461,340.4681,98.87771,8.7140465,STD
4622009235000,1.705,1.36419097041379,-9.662998,-0.342172827175004,-0.04642576,-0.06505715,0.022602014,340.4681,98.86854,8.7037735,STD
4622014253000,1.710018,1.38090125190999,-9.662998,-0.337398456047886,-0.040927973,-0.062308256,0.026572637,340.47107,98.859344,8.693537,STD
4622019225000,1.71499,1.39725345900484,-9.6565357625881,-0.337342349127961,-0.032986723,-0.06780604,0.022907447,340.46835,98.85189,8.685238,STD
4622024304000,1.720069,1.41377403102658,-9.64414553842235,-0.341472481351787,-0.040011674,-0.06811147,0.021685716,340.4681,98.84338,8.675422,STD
4622029251000,1.725016,1.4264076015352,-9.63319461988268,-0.344496693569646,-0.047647487,-0.06627888,0.017715093,340.4646,98.842186,8.673537,STD
4622034201000,1.729966,1.42344918572142,-9.62727788092861,-0.343017501108338,-0.048563786,-0.064751714,0.026267206,340.46115,98.83791,8.668512,STD
4622039205000,1.73497,1.42045849628058,-9.6212965957314,-0.341522172001997,-0.04550946,-0.05009095,0.01985312,340.45993,98.84337,8.6731205,STD
4622044234000,1.739999,1.41745286534573,-9.61528542801423,-0.34001937222666,-0.040011674,-0.048258353,0.027183503,340.45572,98.84248,8.6712885,STD
4622049200000,1.744965,1.41448488697579,-9.60934956424738,-0.338535398537194,-0.058337633,-0.04153884,0.025961773,340.45135,98.844376,8.671061,STD
4622054233000,1.749998,1.4114768654019,-9.60333361532701,-0.337031403454818,-0.049785517,-0.04153884,0.025350908,340.4458,98.84232,8.668635,STD
4622059207000,1.754972,1.40850410575387,-9.59738818915377,-0.335545039151273,-0.03848451,-0.030848695,0.025350908,340.44537,98.84136,8.666634,STD
4622064265000,1.76003,1.41287475243875,-9.59426621969315,-0.330104001718342,-0.04337143,-0.03023783,0.022907447,340.44208,98.841736,8.665506,STD
4622069179000,1.764944,1.41934059521411,-9.59211090125945,-0.323638176947103,-0.04917465,-0.028710667,0.022907447,340.44217,98.84087,8.663826,STD
4622074173000,1.769938,1.42591170201511,-9.58992049420655,-0.317067088443325,-0.062002823,-0.02076942,0.025961773,340.44504,98.83912,8.660765,STD
4622079212000,1.774977,1.43254201983055,-9.58771034980536,-0.310436789089993,-0.057421334,-0.013133603,0.025961773,340.44824,98.83758,8.65864,STD
4622084216000,1.779981,1.44238676531244,-9.5883391938544,-0.311345961843679,-0.053145275,-0.01038471,0.02107485,340.45224,98.83732,8.657126,STD
4622099219000,1.794984,1.48683326883894,-9.6031542309239,-0.348384745722829,-0.055283304,-0.00030543262,0.026572637,340.43063,98.81747,8.633779,STD
4622104200000,1.799965,1.48794043932397,-9.60674529989191,-0.350717033501032,-0.051618114,0.007941248,0.021991149,340.41962,98.81148,8.628117,STD
4622109226000,1.804991,1.47611649899774,-9.60911014228162,-0.343622649550948,-0.053450707,0.0106901415,0.03176499,340.40875,98.80115,8.617829,STD
4622114201000,1.809966,1.46441253896531,-9.61145098806131,-0.336600253977597,-0.06169739,0.015577064,0.02687807,340.4051,98.80532,8.620057,STD
4622119299000,1.815064,1.4524192146949,-9.61384970801808,-0.329404239378009,-0.048563786,0.020158553,0.032070424,340.40237,98.80284,8.616722,STD
4622124235000,1.82,1.44203674497973,-9.6181599139719,-0.32561144,-0.05131268,0.03145956,0.032375857,340.403,98.80451,8.616344,STD
4622129316000,1.825081,1.43286167665692,-9.62504132299425,-0.32561144,-0.058948494,0.03390302,0.028405234,340.40244,98.80547,8.615733,STD
4622134161000,1.829926,1.424112767776,-9.63160310742906,-0.32561144,-0.054367006,0.02687807,0.0290161,340.40524,98.7992,8.608486,STD
4622139233000,1.834998,1.41495395129631,-9.63847232737815,-0.32561144,-0.052839845,0.025045475,0.038179077,340.41022,98.79235,8.600114,STD
4622144178000,1.839943,1.4077905,-9.64290686838942,-0.324673327327724,-0.04520403,0.03390302,0.03756821,340.41788,98.788536,8.596333,STD
4622149268000,1.845033,1.4077905,-9.63802436338141,-0.319790920884081,-0.05009095,0.028710667,0.029626964,340.42093,98.784966,8.592006,STD
4622154747000,1.850512,1.4077905,-9.63276871604567,-0.314535379645433,-0.049480084,0.026572637,0.031154128,340.42554,98.77264,8.5795,STD
4622159235000,1.855,1.4077905,-9.6284636703726,-0.310230420879407,-0.04917465,0.03634648,0.02565634,340.43198,98.765,8.571551,STD
4622164395000,1.86016,1.4077905,-9.62351401893029,-0.305280869356971,-0.04520403,0.03604105,0.029626964,340.42664,98.75153,8.560364,STD
4622169251000,1.865016,1.4077905,-9.61885597485978,-0.300622919319578,-0.04428773,0.036957346,0.028710667,340.42453,98.74141,8.552442,STD
4622174239000,1.870004,1.40580481484502,-9.61412118593228,-0.299859557581307,-0.043676864,0.054367006,0.0290161,340.4273,98.72991,8.543389,STD
4622179228000,1.874993,1.39669112281354,-9.60956447076777,-0.313530140831664,-0.04795292,0.04734206,0.030848695,340.4234,98.71876,8.534143,STD
4622184236000,1.880001,1.3875427223939,-9.60499040190749,-0.327252786836433,-0.04337143,0.04886922,0.03848451,340.42722,98.70464,8.521594,STD
4622189260000,1.885025,1.37836509385789,-9.60040171940868,-0.341019275160706,-0.046731193,0.050396383,0.031154128,340.42896,98.69519,8.512978,STD
4622194502000,1.890267,1.3700308633437,-9.5961434731722,-0.35397688278608,-0.050701816,0.06078109,0.031154128,340.43393,98.681625,8.500446,STD
4622199254000,1.895019,1.37687703652593,-9.59842534820981,-0.34941274667937,-0.055283304,0.059864793,0.029932396,340.43604,98.67094,8.490496,STD
4622204231000,1.899996,1.38404736563534,-9.60081526657306,-0.344632505643366,-0.051923547,0.0571159,0.028405234,340.44183,98.65841,8.476861,STD
4622209240000,1.905005,1.39126379692107,-9.60322055109818,-0.339821529684084,-0.052839845,0.06291912,0.022296581,340.44974,98.64827,8.465249,STD
4622214358000,1.910123,1.39871865132712,-9.60604195659971,-0.336198132636298,-0.05589417,0.059253927,0.021380283,340.45416,98.63726,8.452759,STD
4622219239000,1.915004,1.40710187387016,-9.61442526667862,-0.352964411404232,-0.056505036,0.05681047,0.01863139,340.4605,98.62856,8.442817,STD
4622224824000,1.920589,1.41669423156385,-9.62401772453372,-0.372148936484935,-0.057421334,0.064446285,0.02443461,340.4639,98.6179,8.429721,STD
4622229211000,1.924976,1.40442104766175,-9.62598567091906,-0.378674038231592,-0.05589417,0.05100725,0.024129177,340.46048,98.60982,8.419239,STD
4622234213000,1.929978,1.38821124676164,-9.62760668316865,-0.385157955206416,-0.046731193,0.058337633,0.02443461,340.4654,98.599754,8.407466,STD
4622239234000,1.934999,1.37193987324716,-9.62923385280184,-0.391666501214131,-0.045814894,0.047036625,0.022602014,340.4596,98.59345,8.398339,STD
4622244187000,1.939952,1.35588886487886,-9.63083898548322,-0.398086901209394,-0.04886922,0.059253927,0.024129177,340.46283,98.586,8.388701,STD
4622249234000,1.944999,1.3395332341026,-9.63247458100975,-0.404629150104223,-0.063224554,0.04520403,0.026267206,340.45535,98.579735,8.379335,STD
4622254184000,1.949949,1.32349194772604,-9.63407874147266,-0.411045661304819,-0.06078109,0.047036625,0.023518313,340.45605,98.57375,8.371429,STD
4622259215000,1.95498,1.31947626177776,-9.62365230888878,-0.409679541777756,-0.055283304,0.04642576,0.020158553,340.45642,98.56986,8.364065,STD
4622264224000,1.959989,1.31708480700932,-9.61169503504661,-0.407288087009323,-0.050701816,0.05681047,0.027183503,340.46057,98.56385,8.354842,STD
4622269236000,1.965001,1.31469191994616,-9.59973059973079,-0.404895199946159,-0.06047566,0.056199603,0.032986723,340.46442,98.55187,8.338613,STD
4622274165000,1.96993,1.31233865970387,-9.58796429851937,-0.402541939703874,-0.052534413,0.06261369,0.032070424,340.47327,98.53869,8.322829,STD
4622279225000,1.97499,1.30877118990273,-9.59938957248726,-0.408728706984715,-0.05497787,0.06566802,0.022602014,340.48096,98.52785,8.308201,STD
4622284235000,1.98,1.30506733256137,-9.61420492450208,-0.416136429402501,-0.04917465,0.06811147,0.030543262,340.49045,98.51164,8.289273,STD
4622289237000,1.985002,1.30069428010049,-9.624691,-0.419277679046853,-0.049785517,0.070249505,0.027488936,340.4841,98.49427,8.268484,STD
4622294568000,1.990333,1.29428126321568,-9.624691,-0.411582069499309,-0.04886922,0.0729984,0.03573562,340.4792,98.47162,8.242866,STD
4622299237000,1.995002,1.288664610461,-9.624691,-0.40484209557744,-0.046120327,0.07238753,0.029626964,340.47424,98.45335,8.221653,STD
4622304236000,2.000001,1.28265097860822,-9.624691,-0.39762574740108,-0.05100725,0.07422013,0.029626964,340.47125,98.432106,8.197052,STD
4622309218000,2.004983,1.27665779719382,-9.624691,-0.390433939716619,-0.047036625,0.062308256,0.02565634,340.46426,98.41342,8.175797,STD
4622314280000,2.010045,1.27056837842231,-9.624691,-0.383126647364402,-0.0421497,0.06566802,0.021685716,340.4625,98.3955,8.155305,STD
4622319204000,2.014969,1.26464496909182,-9.624691,-0.376018566064062,-0.05100725,0.058643065,0.01863139,340.45456,98.3796,8.136037,STD
4622324233000,2.019998,1.25859524823012,-9.624691,-0.368758911137294,-0.048563786,0.050396383,0.017715093,340.44745,98.363556,8.117828,STD
4622329198000,2.024963,1.2561220195472,-9.6231306478674,-0.3654789795472,-0.04734206,0.059864793,0.024129177,340.4512,98.35052,8.101445,STD
4622334247000,2.030012,1.26100914944411,-9.61824341590863,-0.370366109444108,-0.05467244,0.052534413,0.019547688,340.44772,98.341515,8.088607,STD
4622339161000,2.034926,1.26376577818114,-9.61436857971384,-0.373868181818855,-0.06291912,0.04520403,0.022907447,340.45044,98.322914,8.067124,STD
4622344210000,2.039975,1.26264628236711,-9.61212965822375,-0.374987677632895,-0.062002823,0.04428773,0.022602014,340.4529,98.306854,8.048455,STD
4622349265000,2.04503,1.26152545619559,-9.60988807610206,-0.376108503804408,-0.053450707,0.043982297,0.01863139,340.4578,98.29488,8.035989,STD
4622354240000,2.050005,1.26042236812373,-9.60768196906835,-0.377211591876273,-0.053450707,0.047036625,0.025350908,340.4635,98.28083,8.020866,STD
4622359204000,2.054969,1.25932171904056,-9.60548073985923,-0.378312240959437,-0.05222898,0.046120327,0.029626964,340.4679,98.26809,8.007785,STD
4622364254000,2.060019,1.25820200150028,-9.60324137493054,-0.379431958499722,-0.05222898,0.044898596,0.021685716,340.47305,98.257225,7.9965878,STD
4622369567000,2.065332,1.2570239699574,-9.60088538565012,-0.3806099900426,-0.04917465,0.043066,0.021685716,340.4725,98.24071,7.9806175,STD
4622374215000,2.06998,1.25599338636785,-9.59882428303853,-0.381640573632154,-0.04886922,0.04917465,0.025961773,340.474,98.22574,7.9660916,STD
4622379271000,2.075036,1.25487233847009,-9.59658225747824,-0.382761621529913,-0.050701816,0.04795292,0.022907447,340.4729,98.21307,7.9538856,STD
4622384238000,2.080003,1.25289401424944,-9.59929626701826,-0.376401513514992,-0.050701816,0.047647487,0.02076942,340.47403,98.19916,7.9405875,STD
4622389231000,2.084996,1.25055897360094,-9.60396620202168,-0.367061346044536,-0.052839845,0.048563786,0.02321288,340.47525,98.18541,7.9271517,STD
4622394233000,2.089998,1.24821972398672,-9.60864455469284,-0.357704342702412,-0.053145275,0.04886922,0.026267206,340.48428,98.17549,7.919435,STD
4622399307000,2.095072,1.24584680264674,-9.61339024870593,-0.348212652386952,-0.051618114,0.043676864,0.021685716,340.49185,98.16718,7.9132323,STD
4622404198000,2.099963,1.23986248420637,-9.62279778415373,-0.349887461142406,-0.055588737,0.035430185,0.01985312,340.49857,98.157845,7.9054356,STD
4622409272000,2.105037,1.23133520804598,-9.63558896551724,-0.358414746206897,-0.06414085,0.044593163,0.026267206,340.50876,98.14785,7.8967905,STD
4622414227000,2.109992,1.22829554015929,-9.64548777531015,-0.36556148677286,-0.043982297,0.037873644,0.020158553,340.516,98.13948,7.893556,STD
4622419219000,2.114984,1.23561785377546,-9.65036916480319,-0.370443029183642,-0.05100725,0.037873644,0.016798794,340.5277,98.13121,7.887877,STD
4622424199000,2.119964,1.24292256567621,-9.65523882018686,-0.375312837117476,-0.055588737,0.048258353,0.02107485,340.54092,98.11946,7.8798757,STD
4622429254000,2.125019,1.25033728829836,-9.66018181375402,-0.380255985532241,-0.052839845,0.047647487,0.019242255,340.55072,98.11049,7.874489,STD
4622434213000,2.129978,1.25096618447856,-9.65580700650113,-0.384870021515124,-0.055283304,0.037873644,0.015882496,340.5607,98.10156,7.8683443,STD
4622439213000,2.134978,1.24231896100226,-9.63851264984199,-0.389193642282619,-0.04734206,0.045814894,0.022296581,340.57553,98.08967,7.8600974,STD
4622444325000,2.14009,1.23595638445083,-9.624691,-0.395390503399169,-0.0580322,0.051923547,0.01985312,340.58447,98.085365,7.858398,STD
4622449279000,2.145044,1.23839025646642,-9.624691,-0.407559868559996,-0.04642576,0.051923547,0.024129177,340.59393,98.07551,7.8529243,STD
4622454120000,2.149885,1.2407686122249,-9.624691,-0.419451652319294,-0.054061573,0.053145275,0.027794369,340.6088,98.06897,7.848816,STD
4622459162000,2.154927,1.24324571813985,-9.624691,-0.431837187067152,-0.05375614,0.052839845,0.027794369,340.62296,98.061035,7.8444443,STD
4622464149000,2.159914,1.24355509917458,-9.6275506613702,-0.446252310766612,-0.05681047,0.04734206,0.032375857,340.6358,98.05161,7.837634,STD
4622469142000,2.164907,1.23862144643005,-9.63741817292613,-0.465986947503095,-0.048563786,0.05467244,0.032070424,340.65204,98.04288,7.8322997,STD
4622474131000,2.169896,1.23404503038348,-9.64180035287611,-0.47338806655236,-0.0421497,0.05589417,0.027794369,340.67252,98.040276,7.831167,STD
4622479426000,2.175191,1.22988990452311,-9.6355675339233,-0.45676754792527,-0.04428773,0.045814894,0.029932396,340.69147,98.03587,7.828074,STD
4622484142000,2.179907,1.22618913520157,-9.6300162640118,-0.441964457114061,-0.05100725,0.052839845,0.028405234,340.7135,98.032646,7.825569,STD
4622489151000,2.184916,1.2222584410685,-9.62412009968043,-0.426241666216404,-0.046731193,0.056199603,0.018020526,340.7312,98.03066,7.82477,STD
4622494154000,2.189919,1.21833245529335,-9.61823099803343,-0.410537708767617,-0.053450707,0.041233405,0.018936822,340.75085,98.02958,7.8247156,STD
4622499133000,2.194898,1.21776147139771,-9.616621002869,-0.399211935631012,-0.054367006,0.040317107,0.021991149,340.7749,98.02988,7.8268285,STD
4622504125000,2.19989,1.22098875634725,-9.61984835521653,-0.392757362362035,-0.052534413,0.0421497,0.027488936,340.795,98.029274,7.8275924,STD
4622509151000,2.204916,1.22423802200358,-9.62309768872987,-0.38625882765653,-0.05467244,0.05009095,0.030543262,340.8165,98.02447,7.8248725,STD
4622514255000,2.21002,1.22753771398724,-9.62639744962365,-0.379659440243697,-0.056199603,0.034208454,0.026267206,340.83127,98.01998,7.822351,STD
4622519120000,2.214885,1.23068289453201,-9.62954269585176,-0.373369075869983,-0.058643065,0.03756821,0.02321288,340.8535,98.01444,7.818717,STD
4622524130000,2.219895,1.23392181632632,-9.63278168528707,-0.366891228899315,-0.04917465,0.029626964,0.02321288,340.86755,98.008575,7.8150964,STD
4622529145000,2.22491,1.23815850592154,-9.62876707327905,-0.369419471843079,-0.050396383,0.03726278,0.022602014,340.89304,98.00723,7.8157225,STD
4622534124000,2.229889,1.24320057922174,-9.61868271608332,-0.379503618443481,-0.04062254,0.03268129,0.032070424,340.91232,98.00166,7.813045,STD
4622539125000,2.23489,1.25346396748064,-9.62076682970387,-0.391551333383144,-0.04795292,0.036957346,0.021991149,340.93906,98.00463,7.8186617,STD
4622544337000,2.240102,1.26710796245103,-9.62986301630979,-0.405195337851481,-0.059253927,0.027794369,0.028099801,340.9603,97.99993,7.8165064,STD
4622549335000,2.2451,1.27113070272717,-9.63685265124905,-0.406633485454347,-0.04917465,0.032986723,0.03023783,340.98532,97.99971,7.819542,STD
4622554123000,2.249888,1.26612866079415,-9.64185479764372,-0.396629401588306,-0.05009095,0.0290161,0.023823744,341.00458,98.001335,7.822855,STD
4622559158000,2.254923,1.25835286325034,-9.65107704593708,-0.396988310582899,-0.045814894,0.023823744,0.014049901,341.02792,98.00724,7.830245,STD
4622564203000,2.259968,1.24902745193978,-9.66273381007527,-0.403982373934569,-0.051618114,0.028099801,0.027183503,341.05243,98.008835,7.8325577,STD
4622569117000,2.264882,1.23994418708744,-9.67408789114071,-0.410794827316155,-0.05375614,0.025961773,0.019242255,341.07367,98.01675,7.841951,STD
4622574131000,2.269896,1.2306760776105,-9.68567302798688,-0.417745914262691,-0.05589417,0.030848695,0.02321288,341.0978,98.01771,7.8439445,STD
4622579186000,2.274951,1.22827725290661,-9.68439098803778,-0.423825452906611,-0.048258353,0.02565634,0.022602014,341.1319,98.027405,7.855358,STD
4622584161000,2.279926,1.23327668417629,-9.66939238100735,-0.428824884176285,-0.04734206,0.02565634,0.013133603,341.16794,98.03842,7.867639,STD
4622589120000,2.284885,1.2421435534199,-9.662998,-0.433650491214314,-0.053450707,0.017104227,0.014049901,341.20346,98.04409,7.8746214,STD
4622594158000,2.289923,1.25410028856067,-9.662998,-0.438433202749802,-0.047647487,0.014049901,0.016187929,341.23962,98.050766,7.883375,STD
4622599119000,2.294884,1.2658742788412,-9.662998,-0.443142816074048,-0.03940081,0.018325957,0.015882496,341.27377,98.05907,7.893345,STD
4622604156000,2.299921,1.27782864067209,-9.662998,-0.447924578282117,-0.05955936,0.010995574,0.019242255,341.30295,98.06655,7.9009757,STD
4622609153000,2.304918,1.28837365888955,-9.66045714402441,-0.455191533174838,-0.050396383,0.0106901415,0.019242255,341.33627,98.0731,7.909767,STD
4622614172000,2.309937,1.2978374236267,-9.65572521224651,-0.464655194152392,-0.052839845,0.014966198,0.015577064,341.36804,98.08107,7.9181166,STD
4622619108000,2.314873,1.29780087302452,-9.64645377929155,-0.466941083188011,-0.041233405,0.008246681,0.0125227375,341.39032,98.09059,7.928771,STD
4622624133000,2.319898,1.28843459772285,-9.6324047086415,-0.462257999327559,-0.047036625,0.021380283,0.012217305,341.41888,98.101006,7.9393587,STD
4622629161000,2.324926,1.28551118024918,-9.62691018024918,-0.446371914982639,-0.043676864,0.017104227,0.01863139,341.43515,98.10996,7.9500723,STD
4622634139000,2.329904,1.29037987979984,-9.63177887979984,-0.417160302309028,-0.04795292,0.008552114,0.014660766,341.4533,98.1222,7.9633737,STD
4622639127000,2.334892,1.2835728232095,-9.63775401321148,-0.408035988977352,-0.049480084,0.005497787,0.015271631,341.4667,98.126495,7.968438,STD
4622644134000,2.339899,1.26452003680342,-9.64489869931459,-0.419943977372604,-0.039095376,0.0067195175,0.008246681,341.47845,98.13338,7.9765067,STD
4622649111000,2.344876,1.24558140729612,-9.65200057723254,-0.431780617724744,-0.04917465,0.004581489,0.013133603,341.48907,98.13715,7.9807744,STD
4622654138000,2.349903,1.22645251629085,-9.65917380212576,-0.44373617148207,-0.04550946,0.0061086523,0.008857546,341.50067,98.14389,7.989395,STD
4622659102000,2.354867,1.22483988365224,-9.66085160926308,-0.454402619584928,-0.04886922,-0.010079277,0.011301007,341.50635,98.148094,7.994268,STD
4622664176000,2.359941,1.24391266677461,-9.65608331390442,-0.463939006167206,-0.048258353,-0.009773844,0.0070249503,341.51685,98.154724,8.00214,STD
4622669089000,2.364854,1.25654002396464,-9.65539936527957,-0.465306874136458,-0.040927973,-0.007330383,0.007330383,341.52548,98.15269,8.000822,STD
4622674132000,2.369897,1.26133650846162,-9.66019594994538,-0.455713910150958,-0.029932396,-0.01740966,0.0070249503,341.5304,98.15171,8.0007105,STD
4622679095000,2.37486,1.25935342132382,-9.66395503572137,-0.451066945735236,-0.044593163,-0.02107485,0.005192355,341.53555,98.15611,8.004766,STD
4622684140000,2.379905,1.24738479369798,-9.66634881123662,-0.453460671260404,-0.046731193,-0.02107485,0.002443461,341.53876,98.15947,8.008973,STD
4622689086000,2.384851,1.23565103111375,-9.66869561276259,-0.455807423777249,-0.05131268,-0.022296581,0.0036651916,341.54446,98.16356,8.009348,STD
4622694137000,2.389902,1.22366816924296,-9.67109223518629,-0.458203996151407,-0.046120327,-0.028099801,0.0009162979,341.54865,98.16898,8.011551,STD
4622699102000,2.394867,1.21567969206681,-9.67085060020877,-0.45968673,-0.05467244,-0.0290161,-0.00030543262,341.55374,98.17453,8.012948,STD
4622704137000,2.399902,1.21410678014092,-9.66613193012787,-0.45968673,-0.03634648,-0.032070424,0.00030543262,341.5564,98.1784,8.014494,STD
4622709241000,2.405006,1.21251231291754,-9.6613485950548,-0.45968673,-0.04153884,-0.025961773,-0.0009162979,341.56052,98.17897,8.0097065,STD
4622714324000,2.410089,1.21092440600209,-9.65658494063153,-0.45968673,-0.03604105,-0.038179077,-0.009162978,341.55835,98.17975,8.006727,STD
4622719224000,2.414989,1.20939366748434,-9.65199278901357,-0.45968673,-0.03604105,-0.0421497,-0.014660766,341.56033,98.18074,8.003547,STD
4622724269000,2.420034,1.2078176316023,-9.64726474719468,-0.45968673,-0.03481932,-0.038789943,-0.013744468,341.56085,98.18186,8.000943,STD
4622729244000,2.425009,1.20730582666568,-9.64572935376169,-0.455917966726517,-0.03756821,-0.039095376,-0.013439035,341.55444,98.182594,7.996379,STD
4622734268000,2.430033,1.20968569723005,-9.65286886605332,-0.441638730915071,-0.042455133,-0.03848451,-0.016798794,341.54935,98.18424,7.9928308,STD
4622739240000,2.435005,1.21204093537617,-9.65993448211901,-0.427507289741801,-0.03390302,-0.03604105,-0.0067195175,341.53735,98.17739,7.9798145,STD
4622744248000,2.440013,1.21441322673493,-9.66705125711035,-0.41327352920364,-0.03145956,-0.033292156,-0.015271631,341.52576,98.17763,7.973483,STD
4622749260000,2.445025,1.21470385233161,-9.66999058721934,-0.405327178035406,-0.03634648,-0.035430185,-0.010079277,341.51395,98.17144,7.96072,STD
4622754270000,2.450035,1.20779830138169,-9.65848133563615,-0.41913829195308,-0.025961773,-0.03359759,-0.009162978,341.50424,98.16793,7.9520345,STD
4622759312000,2.455077,1.20084864312032,-9.6468985718672,-0.433037620570428,-0.026572637,-0.03726278,-0.0076358155,341.4987,98.16505,7.942607,STD
4622764286000,2.460051,1.1939927128958,-9.635472021493,-0.446749492950969,-0.027183503,-0.03268129,-0.0009162979,341.49625,98.15997,7.931828,STD
4622769416000,2.465181,1.1886422035533,-9.62431829103215,-0.458568625279188,-0.027183503,-0.017715093,-0.004581489,341.49237,98.156006,7.9216337,STD
4622774272000,2.470037,1.20106671351857,-9.62017670122006,-0.446144102340369,-0.032070424,-0.020463986,0.0015271631,341.48508,98.148125,7.907009,STD
4622779229000,2.474994,1.21374964100989,-9.6159489704337,-0.433461161605664,-0.03726278,-0.026572637,0.00061086525,341.48358,98.14427,7.896984,STD
4622784284000,2.480049,1.23078051611313,-9.6114824201321,-0.438219319432505,-0.029626964,-0.029932396,0.010079277,341.48233,98.135475,7.88257,STD
4622789297000,2.485062,1.24864580531212,-9.60701600455856,-0.447151978023072,-0.025961773,-0.032375857,0.011301007,341.47964,98.13007,7.8710623,STD
4622794211000,2.489976,1.25612273327155,-9.61022019761559,-0.45010993,-0.033292156,-0.036651913,0.0070249503,341.475,98.12608,7.861211,STD
4622799264000,2.495029,1.25854679630817,-9.61749253859641,-0.45010993,-0.032375857,-0.03573562,0.003970624,341.47134,98.12079,7.8510275,STD
4622804848000,2.500613,1.26122559464509,-9.62552910143766,-0.45010993,-0.034513887,-0.032375857,0.014049901,341.4636,98.11736,7.8406954,STD
4622809300000,2.505065,1.26336134145669,-9.63193647568001,-0.45010993,-0.034208454,-0.018936822,0.008246681,341.45905,98.11906,7.8361793,STD
4622814295000,2.51006,1.28618822590391,-9.63741802192769,-0.459559805012182,-0.03970624,-0.02443461,0.015882496,341.45468,98.11684,7.8269157,STD
4622819289000,2.515054,1.31881528698957,-9.64207912104084,-0.473542820067245,-0.042760566,-0.023518313,0.013439035,341.4559,98.11882,7.8225775,STD
4622824264000,2.520029,1.33700317343596,-9.64675824333925,-0.481753836717979,-0.044898596,-0.01160644,0.0106901415,341.45862,98.11969,7.8169336,STD
4622829296000,2.525061,1.34651382226169,-9.6515131705151,-0.486509161130847,-0.04337143,-0.0021380284,0.008246681,341.4609,98.12113,7.812085,STD
4622834272000,2.530037,1.3561126461507,-9.65631248345926,-0.4768514516602,-0.03970624,0.0027488936,0.0106901415,341.45642,98.12628,7.813684,STD
4622839385000,2.53515,1.36611186575454,-9.66131219767204,-0.456853002011436,-0.04795292,-0.002443461,0.009162978,341.45172,98.13389,7.8170886,STD
4622844255000,2.54002,1.37510178933333,-9.65737978666667,-0.452919124666667,-0.044898596,-0.002443461,0.005192355,341.44897,98.1421,7.822318,STD
4622849291000,2.545056,1.38409549838695,-9.64838635934732,-0.457415979193473,-0.050396383,0.007330383,0.013439035,341.44772,98.14853,7.8244886,STD
4622854269000,2.550034,1.39111539988309,-9.63393108991391,-0.467122012463599,-0.047036625,0.007941248,0.012217305,341.4316,98.15287,7.8269033,STD
4622859320000,2.555085,1.39625642567754,-9.61336634254437,-0.482545261631417,-0.04917465,0.004581489,0.009162978,341.41748,98.15638,7.8276787,STD
4622864274000,2.560039,1.38373339461239,-9.60264117479796,-0.482625006676644,-0.03970624,0.004581489,0.0015271631,341.412364781037,98.1590918621936,7.8298770001808,STD
4622869276000,2.565041,1.35983682993116,-9.59786225112242,-0.473066345870498,-0.049480084,0.0070249503,0.011301007,341.4072,98.16183,7.8320966,STD
4622874869000,2.570634,1.34361280362079,-9.59931921763675,-0.462546527127701,-0.053450707,0.008857546,0.0061086523,341.39587,98.17054,7.839398,STD
4622879266000,2.575031,1.33541556990461,-9.60341749211602,-0.45434929769126,-0.048258353,0.013133603,0.0076358155,341.38492,98.17826,7.845895,STD
4622884255000,2.58002,1.32987647433142,-9.6068367528118,-0.444911020539865,-0.049785517,0.016798794,0.009162978,341.3751,98.18276,7.8471074,STD
4622889279000,2.585044,1.32747138344414,-9.60924189392652,-0.435290644433892,-0.04734206,0.018936822,0.011911872,341.36627,98.18577,7.847634,STD
4622894200000,2.589965,1.32511560074981,-9.61159772581854,-0.425867501357161,-0.051923547,0.016187929,0.009773844,341.36267,98.1898,7.848403,STD
4622899252000,2.595017,1.32269710569358,-9.61401627138216,-0.416193508505374,-0.054061573,0.023823744,0.0070249503,341.36276,98.19281,7.8487535,STD
4622904236000,2.600001,1.32414269110826,-9.61765734422185,-0.421975857711438,-0.057726767,0.021991149,0.011301007,341.3599,98.19499,7.8495684,STD
4622909321000,2.605086,1.32894857564394,-9.62246332912267,-0.441199420945426,-0.056505036,0.027794369,0.014966198,341.3614,98.19777,7.851457,STD
4622914291000,2.610056,1.32874537010054,-9.62590644033222,-0.45132534494973,-0.053450707,0.022296581,0.009468411,341.36026,98.199875,7.8531394,STD
4622919278000,2.615043,1.32410604797708,-9.62822614983729,-0.453645006011462,-0.038179077,0.023518313,0.0106901415,341.36285,98.198006,7.851996,STD
4622924259000,2.620024,1.31947230755258,-9.6305430684346,-0.455961876223712,-0.045814894,0.02565634,0.012217305,341.36072,98.20002,7.85299,STD
4622929259000,2.625024,1.31482089174802,-9.6328688249065,-0.45828758412599,-0.052534413,0.01740966,0.0125227375,341.35593,98.20072,7.853857,STD
4622934262000,2.630027,1.30219756868251,-9.64016292440605,-0.463616738423326,-0.040011674,0.015271631,0.0106901415,341.35358,98.200645,7.8549867,STD
4622939272000,2.635037,1.27752418176489,-9.65496671953101,-0.473486082884912,-0.038179077,0.015271631,0.008552114,341.34952,98.202,7.8560667,STD
4622944791000,2.640556,1.27208420798776,-9.64710658402449,-0.481488910110585,-0.03634648,0.015577064,0.0070249503,341.3498,98.20302,7.8558655,STD
4622949263000,2.645028,1.28477010806675,-9.62173478386651,-0.485717528751975,-0.051923547,0.01038471,0.00580322,341.34845,98.20579,7.856127,STD
4622954199000,2.649964,1.30072679035978,-9.60750148861508,-0.486452702410054,-0.037873644,0.014049901,0.009468411,341.3515,98.2008,7.8509765,STD
4622959321000,2.655086,1.32006730079842,-9.61233671720059,-0.481617574800394,-0.03848451,0.016493361,0.013133603,341.35266,98.19866,7.846199,STD
4622964212000,2.659977,1.32189830897704,-9.61882521841137,-0.482551490908639,-0.04795292,0.027488936,0.01160644,341.36014,98.20231,7.846569,STD
4622969281000,2.665046,1.29776817578288,-9.62847743294562,-0.492203503872154,-0.042760566,0.023518313,0.0067195175,341.36392,98.20462,7.8467035,STD
4622974163000,2.669928,1.28848240778176,-9.6334029169815,-0.495398752432167,-0.045814894,0.018325957,0.011301007,341.3691,98.20917,7.8479195,STD
4622979271000,2.675036,1.30288360438644,-9.63100267577646,-0.488198171673618,-0.044898596,0.01863139,0.0125227375,341.3745,98.215004,7.8513904,STD
4622984166000,2.679931,1.31668428124233,-9.62870252293803,-0.481297850057897,-0.04337143,0.029321533,0.01740966,341.3821,98.214005,7.8490405,STD
4622989256000,2.685021,1.33103472969923,-9.62631073990481,-0.474122643311418,-0.04642576,0.031154128,0.01282817,341.38705,98.21554,7.8489523,STD
4622994202000,2.689967,1.33944335960407,-9.624691,-0.471227982645167,-0.046120327,0.026572637,0.011301007,341.3932,98.21444,7.8466396,STD
4622999287000,2.695052,1.33500071690006,-9.624691,-0.477891953659627,-0.039095376,0.01985312,0.014966198,341.39908,98.21279,7.844116,STD
4623004205000,2.69997,1.33070397809606,-9.624691,-0.484337068595539,-0.035430185,0.027183503,0.011301007,341.40945,98.22017,7.848662,STD
4623009282000,2.705047,1.32626832480044,-9.624691,-0.490990555486475,-0.03604105,0.024740042,0.012217305,341.41498,98.22488,7.850556,STD
4623014220000,2.709985,1.32195411247548,-9.624691,-0.497461880731196,-0.037873644,0.01740966,0.007330383,341.42657,98.23435,7.856274,STD
4623019249000,2.715014,1.30679054291448,-9.62962738878359,-0.488121378609656,-0.03726278,0.010079277,0.010995574,341.43723,98.24079,7.8590693,STD
4623024200000,2.719965,1.29063754260543,-9.63259437637204,-0.482187530266705,-0.03726278,0.013439035,0.00061086525,341.44833,98.252304,7.8671384,STD
4623029233000,2.724998,1.27207403009821,-9.61867148757943,-0.510032750568072,-0.03940081,0.009162978,0.002443461,341.45163,98.25701,7.866965,STD
4623034392000,2.730157,1.25378166337693,-9.6067070793698,-0.534351106406064,-0.048563786,0.0125227375,0.003970624,341.45612,98.26045,7.8646173,STD
4623039195000,2.73496,1.2446660529132,-9.62038078061831,-0.511562056450654,-0.051618114,0.0070249503,0.004581489,341.45676,98.26324,7.8619256,STD
4623044499000,2.740264,1.23780207001467,-9.63386899735941,-0.486821171934474,-0.050396383,0.020158553,0.0067195175,341.46384,98.264175,7.856226,STD
4623049193000,2.744958,1.26418069735941,-9.62947247530562,-0.469235441794621,-0.05497787,0.018020526,0.0125227375,341.46497,98.26471,7.849203,STD
4623054556000,2.750321,1.29311657659319,-9.62543371943888,-0.450605082927856,-0.04886922,0.008857546,0.015882496,341.4698,98.26065,7.8398294,STD
4623059230000,2.754995,1.29760174324649,-9.63888903206413,-0.459575411551102,-0.040927973,0.016798794,0.0076358155,341.47876,98.25846,7.83254,STD
4623064537000,2.760302,1.3022157293943,-9.65296087320286,-0.469493591326408,-0.03359759,0.009773844,0.008246681,341.47885,98.25653,7.8263187,STD
4623069200000,2.764965,1.29807357018829,-9.64467681430294,-0.473635763508023,-0.03848451,0.019547688,0.012217305,341.48596,98.25627,7.8218966,STD
4623074198000,2.769963,1.29363382931082,-9.63579761070402,-0.478075518293294,-0.032986723,0.027794369,0.014049901,341.48584,98.254234,7.816306,STD
4623079201000,2.774966,1.29152176681157,-9.63561523318842,-0.477493140726124,-0.043676864,0.027488936,0.014049901,341.48615,98.25359,7.8102946,STD
4623094203000,2.789968,1.28664219358783,-9.64049480641217,-0.472613654119006,-0.04886922,0.013744468,0.014966198,341.48804,98.2477,7.791525,STD
4623099254000,2.795019,1.28499929768374,-9.64213770231626,-0.470970787377734,-0.03756821,0.0070249503,0.01038471,341.48035,98.24524,7.7850575,STD
4623104109000,2.799874,1.28342015303627,-9.64371684696373,-0.469391670761445,-0.044593163,0.008857546,0.005497787,341.47638,98.24458,7.777656,STD
4623109149000,2.804914,1.27905130726268,-9.6396041744186,-0.456541300087686,-0.047647487,0.005497787,0.0030543262,341.46918,98.24319,7.77097,STD
4623114179000,2.809944,1.27446011387724,-9.6350128372093,-0.442767566519253,-0.043066,0.006414085,0.0036651916,341.46384,98.2423,7.7651205,STD
4623119154000,2.814919,1.2817805050572,-9.64233314189531,-0.448598294530222,-0.048258353,0.0076358155,0.0027488936,341.46262,98.24377,7.762936,STD
4623124095000,2.81986,1.29136217810064,-9.65191473990078,-0.458179955067328,-0.053450707,0.014049901,0.004581489,341.46323,98.2439,7.759961,STD
4623129541000,2.825306,1.30192315591779,-9.66247563501063,-0.468740919099929,-0.046120327,0.010079277,0.007941248,341.4622,98.24151,7.755712,STD
4623134102000,2.829867,1.31076792635922,-9.67132033618508,-0.477585677996861,-0.03970624,0.008857546,0.006414085,341.46375,98.24053,7.7525563,STD
4623139147000,2.834912,1.320381156539,-9.67675436554872,-0.487198906538996,-0.05009095,0.013439035,0.009468411,341.46747,98.23908,7.747805,STD
4623144150000,2.839915,1.32988953724945,-9.68150865518952,-0.496707287249454,-0.04428773,0.014660766,0.0070249503,341.4698,98.23735,7.7450805,STD
4623149177000,2.844942,1.33254032718164,-9.67396720842202,-0.491173311243001,-0.034208454,0.014966198,0.009773844,341.47113,98.2381,7.7435493,STD
4623154133000,2.849898,1.33409449139134,-9.66464219070696,-0.483402486948819,-0.03848451,0.01160644,0.0067195175,341.47162,98.24182,7.744345,STD
4623159161000,2.854926,1.33567123425783,-9.65518170057959,-0.475518769323488,-0.03634648,0.013439035,0.010079277,341.47266,98.24362,7.744441,STD
4623164222000,2.859987,1.33725832567537,-9.64565911892989,-0.467583308921379,-0.034208454,0.00580322,0.01038471,341.4699,98.24738,7.746077,STD
4623169269000,2.865034,1.33884102679852,-9.63616287913815,-0.459669800000327,-0.0421497,0.008552114,0.016187929,341.4708,98.249466,7.7453446,STD
4623174249000,2.870014,1.34040271722715,-9.62679270395232,-0.451861344595763,-0.03145956,0.0027488936,0.005497787,341.46683,98.253815,7.7490225,STD
4623179272000,2.875037,1.3371370521218,-9.62288298830353,-0.459149803471242,-0.028405234,0.0015271631,0.010995574,341.4574,98.25035,7.7432523,STD
4623184269000,2.880034,1.332511119826,-9.6205699738521,-0.470714639041083,-0.036651913,0.018020526,0.011301007,341.45145,98.25132,7.7423267,STD
4623189265000,2.88503,1.32788611327211,-9.6182574222813,-0.482277160255196,-0.03756821,0.0036651916,0.0067195175,341.43674,98.25137,7.742051,STD
4623194211000,2.889976,1.32330739381344,-9.61596801474142,-0.493723963682939,-0.030848695,0.0033597588,0.0012217305,341.43097,98.2517,7.7424736,STD
4623200067000,2.895832,1.31773106719033,-9.59964074954683,-0.509598968625378,-0.039095376,0.0036651916,0.0067195175,341.42334,98.252365,7.7427373,STD
4623204234000,2.899999,1.31371228314199,-9.58356569728097,-0.521655341752266,-0.027488936,0.004886922,0.006414085,341.41583,98.25347,7.7462215,STD
4623209271000,2.905036,1.31674062459508,-9.58938833323336,-0.51571566444961,-0.030543262,0.005497787,0.011301007,341.40823,98.25394,7.7455506,STD
4623214311000,2.910076,1.32397923767247,-9.60869120065987,-0.498825549632573,-0.030848695,0.004581489,0.010079277,341.40057,98.25477,7.7467523,STD
4623219265000,2.91503,1.33109433473305,-9.62766469376125,-0.482223639155669,-0.034208454,0.006414085,0.01160644,341.39096,98.25354,7.7450185,STD
4623224268000,2.920033,1.33827980719856,-9.64682585362927,-0.465457519229154,-0.044898596,0.004886922,0.009468411,341.38028,98.254486,7.744729,STD
4623229263000,2.925028,1.33473671086372,-9.65943741477927,-0.456678585431862,-0.027794369,0.009773844,0.01038471,341.37222,98.25189,7.743364,STD
4623234336000,2.930101,1.3254117384261,-9.66876258195777,-0.452016099213052,-0.031154128,0.010995574,0.008857546,341.36282,98.25367,7.7433357,STD
4623239273000,2.935038,1.3268164827514,-9.66735780829607,-0.45532701002759,-0.03390302,0.008246681,0.014049901,341.35477,98.25111,7.7421207,STD
4623244252000,2.940017,1.33588943246123,-9.65828466910855,-0.464399955000476,-0.033292156,0.008552114,0.0070249503,341.3479,98.252335,7.74493,STD
4623249307000,2.945072,1.32868845681098,-9.65100829292503,-0.47167643619641,-0.029932396,-0.0015271631,0.011911872,341.35556,98.253914,7.7479935,STD
4623254268000,2.950033,1.30360371298838,-9.64599176325238,-0.476693400676874,-0.025961773,-0.0030543262,0.005497787,341.36523,98.26011,7.7561684,STD
4623259262000,2.955027,1.29422751538119,-9.64112791249568,-0.480198865381195,-0.01740966,0.0009162979,0.011301007,341.36862,98.26228,7.7582707,STD
4623264319000,2.960084,1.29662041412125,-9.63634201506991,-0.482591764121251,-0.029321533,0.0012217305,0.008246681,341.37018,98.270035,7.764525,STD
4623269820000,2.965585,1.29922340719403,-9.63113592020357,-0.485194757194031,-0.033292156,0.003970624,0.0070249503,341.3756,98.26957,7.7668376,STD
4623274271000,2.970036,1.30132955556105,-9.62692353550077,-0.487300905561045,-0.035430185,-0.004276057,0.014049901,341.37793,98.268654,7.7673893,STD
4623279264000,2.975029,1.3072611653145,-9.62228326706118,-0.486009467342751,-0.03176499,-0.0033597588,0.004886922,341.38327,98.27217,7.7729564,STD
4623284260000,2.980025,1.31639463726258,-9.61771643571633,-0.481442731368712,-0.03023783,-0.00061086525,0.004581489,341.38693,98.27181,7.7738376,STD
4623289275000,2.98504,1.32369630475181,-9.62140473615109,-0.47884035,-0.0290161,0.004886922,0.010995574,341.384,98.27081,7.771833,STD
4623294215000,2.98998,1.32847430727668,-9.63573879361713,-0.47884035,-0.039095376,0.007330383,0.0070249503,341.3809,98.27365,7.7729244,STD
4623299337000,2.995102,1.33342834147351,-9.65060094793718,-0.47884035,-0.029626964,0.009773844,0.0036651916,341.3789,98.27416,7.77392,STD
4623304237000,3.000002,1.33816765571883,-9.66481894016058,-0.47884035,-0.033292156,0.018020526,0.016493361,341.37952,98.273605,7.771539,STD
4623309257000,3.005022,1.33644504607571,-9.66611315908002,-0.487456255599425,-0.030543262,0.010079277,0.011911872,341.38165,98.27955,7.77729,STD
4623314272000,3.010037,1.32723993788213,-9.65230568902731,-0.505866467180642,-0.034513887,0.0027488936,0.0125227375,341.38647,98.28154,7.777933,STD
4623319226000,3.014991,1.32070175395655,-9.64115200563086,-0.515352248850409,-0.03604105,0.012217305,0.014660766,341.3933,98.28465,7.780479,STD
4623324268000,3.020033,1.31829562352003,-9.63393346357385,-0.510539990489834,-0.043066,0.008552114,0.006414085,341.394,98.291214,7.7854533,STD
4623329221000,3.024986,1.31593196543751,-9.62684234123978,-0.505812676792904,-0.02565634,0.004886922,0.006414085,341.39725,98.2925,7.786545,STD
4623334273000,3.030038,1.31352106282639,-9.61960948235998,-0.5009908740881,-0.03481932,0.00061086525,0.011301007,341.39908,98.29783,7.7884393,STD
4623339205000,3.03497,1.31039482559044,-9.61999742521104,-0.494738401180878,-0.032986723,-0.0036651916,0.009162978,341.40186,98.30324,7.792651,STD
4623344256000,3.040021,1.30580671814474,-9.63376203499953,-0.485562186289481,-0.03970624,-0.005497787,0.0070249503,341.4041,98.30894,7.7953706,STD
4623349307000,3.045072,1.30370763808456,-9.64447586633832,-0.480102188084557,-0.035430185,0.0021380284,0.011301007,341.40845,98.31103,7.796178,STD
4623354270000,3.050035,1.30834309508948,-9.64679340122885,-0.484737645089482,-0.025350908,0.0067195175,0.007941248,341.4112,98.3157,7.799655,STD
4623359249000,3.055014,1.31299349614278,-9.64911840751939,-0.489388046142781,-0.03604105,0.00030543262,0.010079277,341.41812,98.31915,7.80057,STD
4623364324000,3.060089,1.31773356148632,-9.65148824220998,-0.494128111486322,-0.034513887,-0.004276057,0.007330383,341.42654,98.32246,7.803791,STD
4623369245000,3.06501,1.32305316251577,-9.64905977317286,-0.495086423450451,-0.038179077,-0.0067195175,0.004581489,341.43356,98.326614,7.806238,STD
4623374269000,3.070034,1.33239293601864,-9.62104084276424,-0.476406866692226,-0.028099801,0.0027488936,0.0106901415,341.44266,98.32747,7.8069415,STD
4623379259000,3.075024,1.34029028010977,-9.59688643494879,-0.460149450373401,-0.028099801,-0.0021380284,0.01038471,341.446,98.33434,7.812095,STD
4623384261000,3.080026,1.3355955034547,-9.60627593923654,-0.46484423193071,-0.037873644,0.0012217305,0.0036651916,341.45428,98.3411,7.817449,STD
4623389240000,3.085005,1.33092231413731,-9.61562226907434,-0.469517426127799,-0.03726278,-0.0015271631,0.010079277,341.4591,98.344536,7.8209558,STD
4623394211000,3.089976,1.32625663345911,-9.62495358171216,-0.474183111677856,-0.02687807,0.0015271631,0.011301007,341.46616,98.35093,7.8277807,STD
4623399566000,3.095331,1.32324106553258,-9.6349246456425,-0.479825348976708,-0.035430185,0.0033597588,0.01282817,341.4664,98.35433,7.8312798,STD
4623404236000,3.100001,1.34274889768821,-9.64272753406613,-0.491530044196109,-0.035430185,0.00030543262,0.009468411,341.46603,98.356804,7.8356977,STD
4623409201000,3.104966,1.36348902330978,-9.65102332443514,-0.503974115237721,-0.03940081,-0.0009162979,0.007330383,341.4642,98.35685,7.8356113,STD
4623414253000,3.110018,1.37127769805232,-9.64803812457912,-0.502187791508418,-0.03359759,0.004886922,0.010079277,341.4636,98.35554,7.8351607,STD
4623419172000,3.114937,1.37371788387464,-9.64071759259259,-0.494867160148148,-0.029932396,0.0009162979,0.010995574,341.4598,98.3559,7.8356895,STD
4623424228000,3.119993,1.37622603177415,-9.63319317508418,-0.487342640498317,-0.029932396,-0.0015271631,0.0027488936,341.45746,98.363144,7.8443723,STD
4623429245000,3.12501,1.37871483280497,-9.6257267979798,-0.479876162040404,-0.029932396,-0.004581489,0.00030543262,341.45398,98.36804,7.850807,STD
4623434245000,3.13001,1.36361959069114,-9.61311074901667,-0.47498020050384,-0.02443461,0.00061086525,0.013133603,341.45572,98.37241,7.8555393,STD
4623439232000,3.134997,1.34572883327402,-9.59969283274022,-0.470507485462633,-0.030848695,0.009162978,0.0125227375,341.45734,98.38193,7.864491,STD
4623444207000,3.139972,1.33728528798062,-9.59942842234333,-0.465795811601574,-0.035124753,-0.0018325958,0.0143553335,341.45502,98.38681,7.869689,STD
4623449264000,3.145029,1.33239782430114,-9.6043154777475,-0.460908353025532,-0.03604105,0.008246681,0.015882496,341.4611,98.39209,7.875403,STD
4623454233000,3.149998,1.34131103119109,-9.60891534761497,-0.473199845309911,-0.038179077,0.0143553335,0.015577064,341.46432,98.394455,7.8775606,STD
4623459213000,3.154978,1.35493355732648,-9.61345628449015,-0.491363222973436,-0.03970624,0.008857546,0.018325957,341.46707,98.39553,7.878309,STD
4623464247000,3.160012,1.36594795504119,-9.61813475637505,-0.504035333428796,-0.036651913,0.016187929,0.014049901,341.48276,98.400246,7.882413,STD
4623469224000,3.164989,1.37529740281483,-9.62280960229502,-0.513384825134366,-0.032375857,0.01160644,0.013439035,341.49323,98.403076,7.8842926,STD
4623474236000,3.170001,1.37300113432506,-9.63680893134987,-0.508059047200378,-0.04337143,0.0061086523,0.017715093,341.50336,98.41038,7.8888063,STD
4623479245000,3.17501,1.36291493988646,-9.65698132022708,-0.492929681818755,-0.036651913,0.011301007,0.01863139,341.5149,98.416306,7.8943233,STD
4623484250000,3.180015,1.3582113219522,-9.65621692321266,-0.491807704325401,-0.025350908,0.010995574,0.013439035,341.51624,98.42302,7.898981,STD
4623489273000,3.185038,1.35578597827972,-9.64651559917314,-0.496658389137844,-0.040317107,0.0067195175,0.016187929,341.51794,98.42913,7.901039,STD
4623494214000,3.189979,1.35340022811334,-9.63697264833115,-0.501429886979429,-0.03756821,0.005497787,0.017104227,341.52466,98.43167,7.9049754,STD
4623499289000,3.195054,1.35094977636382,-9.62717089250782,-0.506330787919734,-0.04062254,0.0076358155,0.02107485,341.5311,98.43456,7.9071083,STD
4623504204000,3.199969,1.3503298,-9.62808640955915,-0.493989378302983,-0.03359759,0.009162978,0.015271631,341.53668,98.438446,7.911634,STD
4623509233000,3.204998,1.3503298,-9.63278911258116,-0.475178949227164,-0.029932396,0.01740966,0.013744468,341.54483,98.440636,7.913841,STD
4623514263000,3.210028,1.3503298,-9.63749275072011,-0.456364779759801,-0.043982297,0.014660766,0.014966198,341.54977,98.44488,7.916487,STD
4623519290000,3.215055,1.3503298,-9.64219358350828,-0.43756183146707,-0.03848451,0.013133603,0.012217305,341.55716,98.44815,7.9206853,STD
4623524730000,3.220495,1.35384761275745,-9.633291524995,-0.445027558376325,-0.03604105,0.0143553335,0.013744468,341.5632,98.450676,7.923429,STD
4623529271000,3.225036,1.35819556804639,-9.62024761372725,-0.462419388612277,-0.04917465,0.014660766,0.016187929,341.56836,98.454575,7.9265175,STD
4623534278000,3.230043,1.3629897129774,-9.60586512887422,-0.48159597834833,-0.035430185,0.011911872,0.017104227,341.57462,98.45276,7.9283915,STD
4623539268000,3.235033,1.36776758060388,-9.59153147610478,-0.500707458832234,-0.040011674,0.008857546,0.014966198,341.5807,98.454155,7.930339,STD
4623544257000,3.240022,1.36647465102201,-9.59240130945362,-0.504561994163719,-0.029626964,0.008246681,0.014049901,341.58447,98.45123,7.9306717,STD
4623549258000,3.245023,1.36176812814465,-9.60181406033805,-0.499855476200865,-0.033292156,0.01038471,0.016187929,341.58813,98.44991,7.930684,STD
4623554266000,3.250031,1.35116105931284,-9.6084522411091,-0.500909127185051,-0.03756821,0.01740966,0.017715093,341.59015,98.45302,7.934452,STD
4623559286000,3.255051,1.33667174767933,-9.61328211251758,-0.505738892686357,-0.0421497,0.015577064,0.017104227,341.5902,98.45644,7.9380264,STD
4623564288000,3.260053,1.33940233486137,-9.62334030665435,-0.49660255445841,-0.0421497,0.004581489,0.017715093,341.58582,98.45534,7.9385185,STD
4623569294000,3.265059,1.3526947916451,-9.63663304103512,-0.47887926949353,-0.03573562,0.010079277,0.015577064,341.58563,98.45498,7.940167,STD
4623574268000,3.270033,1.35533677447168,-9.63927507903635,-0.457838951407439,-0.036957346,0.014966198,0.015271631,341.58493,98.452576,7.9405375,STD
4623579264000,3.275029,1.34522568131868,-9.62916377472527,-0.432561207967033,-0.03756821,0.010995574,0.0125227375,341.5832,98.450806,7.9421268,STD
4623584268000,3.280033,1.33942296822746,-9.62336094045134,-0.422709531772542,-0.036957346,0.013744468,0.0143553335,341.58313,98.44822,7.9438844,STD
4623589269000,3.285034,1.33704233512278,-9.62098025762998,-0.425090164877224,-0.039095376,0.018936822,0.014049901,341.58258,98.44736,7.9469323,STD
4623594868000,3.290633,1.33437703523213,-9.61831490207774,-0.42775546476787,-0.035124753,0.0125227375,0.015577064,341.5812,98.44201,7.946738,STD
4623599387000,3.295152,1.33222584926931,-9.61616367118998,-0.429906650730689,-0.040927973,0.02076942,0.012217305,341.58545,98.43934,7.9482493,STD
4623604236000,3.300001,1.33611328197904,-9.61387970372898,-0.439596199907385,-0.05009095,0.02107485,0.017104227,341.58884,98.43535,7.9483266,STD
4623609283000,3.305048,1.3455374320351,-9.61152361701194,-0.456088474806239,-0.04184427,0.0076358155,0.016493361,341.59036,98.432686,7.950719,STD
4623614284000,3.310049,1.35487568732147,-9.60918900443578,-0.472430433746039,-0.03634648,0.013133603,0.013439035,341.5975,98.43011,7.9519362,STD
4623619279000,3.315044,1.36420273894224,-9.60685719283451,-0.488752786256398,-0.03573562,0.013133603,0.021685716,341.5993,98.424416,7.9497805,STD
4623624228000,3.319993,1.36752103957106,-9.60357480349725,-0.492106862565936,-0.03481932,0.02443461,0.016493361,341.60086,98.42058,7.9507823,STD
4623629264000,3.325029,1.36286170570959,-9.59891585885422,-0.478128846385856,-0.038179077,0.021991149,0.018020526,341.59872,98.41325,7.9473634,STD
4623634202000,3.329967,1.35741240827318,-9.60094931400269,-0.468432123625865,-0.027794369,0.012217305,0.011911872,341.59244,98.412926,7.9510827,STD
4623639266000,3.335031,1.35017009926826,-9.61543373034994,-0.466018023145005,-0.029932396,0.020463986,0.009162978,341.59082,98.41285,7.9535904,STD
4623644175000,3.33994,1.34314946441336,-9.62947480456967,-0.463677813970332,-0.038789943,0.021991149,0.015271631,341.58218,98.40857,7.9532743,STD
4623649326000,3.345091,1.33578273185325,-9.6442080645627,-0.461222239014386,-0.029626964,0.023823744,0.015882496,341.57605,98.40521,7.9553967,STD
4623654167000,3.349932,1.32807765476333,-9.6487732468544,-0.458137457381666,-0.03481932,0.020158553,0.013439035,341.56613,98.40248,7.9541464,STD
4623659285000,3.35505,1.31828854703415,-9.63408978969443,-0.453242903517076,-0.03940081,0.01160644,0.010079277,341.55554,98.39913,7.9530416,STD
4623664607000,3.360372,1.3135832637037,-9.6262516962963,-0.451670593703704,-0.033292156,0.014660766,0.018936822,341.55673,98.3923,7.948783,STD
4623669279000,3.365044,1.31714700799681,-9.62981551501394,-0.455234337996814,-0.03634648,0.01282817,0.01863139,341.55392,98.39022,7.947956,STD
4623674232000,3.369997,1.32092509564317,-9.63359368156113,-0.45901242564317,-0.038789943,0.014660766,0.017715093,341.5473,98.38064,7.9420395,STD
4623679264000,3.375029,1.32713746864631,-9.63795993010828,-0.450456605951485,-0.04153884,0.017715093,0.017104227,341.54077,98.37168,7.9363046,STD
4623684248000,3.380013,1.33379169577583,-9.64239594256239,-0.439366215821832,-0.045814894,0.02321288,0.019547688,341.5357,98.36281,7.9301863,STD
4623689266000,3.385031,1.34049131691064,-9.6468622167387,-0.428200168937683,-0.03970624,0.027794369,0.020158553,341.53436,98.35694,7.926072,STD
4623694212000,3.389977,1.34709480956364,-9.65126440726799,-0.417194336357173,-0.041233405,0.027488936,0.019242255,341.53326,98.35205,7.921819,STD
4623699279000,3.395044,1.35520017107136,-9.65585623639161,-0.426413803385266,-0.04795292,0.01282817,0.02076942,341.52945,98.34638,7.9166536,STD
4623704237000,3.400002,1.36433303785343,-9.66042276514714,-0.453812422804385,-0.03756821,0.02443461,0.014049901,341.53305,98.341934,7.9145484,STD
4623709268000,3.405033,1.37163543579328,-9.66084603162075,-0.471415559163986,-0.032070424,0.021380283,0.013744468,341.527,98.33654,7.9123864,STD
4623714318000,3.410083,1.3764979775186,-9.65598364221798,-0.476278108505429,-0.033292156,0.025045475,0.01160644,341.52618,98.33329,7.9129,STD
4623719261000,3.415026,1.38125749113211,-9.65122427769958,-0.481037629573698,-0.047036625,0.022296581,0.013439035,341.52084,98.33312,7.9144707,STD
4623724269000,3.420034,1.38607959191635,-9.64640232797104,-0.485859737910718,-0.04184427,0.016798794,0.0070249503,341.51566,98.33425,7.9189615,STD
4623729257000,3.425022,1.3875305679564,-9.64605777166213,-0.48841715,-0.035430185,0.014966198,0.013133603,341.52295,98.33807,7.9227943,STD
4623734276000,3.430041,1.38514927189002,-9.65082016487491,-0.48841715,-0.038179077,0.023518313,0.012217305,341.5313,98.34567,7.930302,STD
4623739235000,3.435,1.3827964432004,-9.65552562571216,-0.48841715,-0.03573562,0.022602014,0.01282817,341.535,98.35257,7.9375043,STD
4623744246000,3.440011,1.38041894278425,-9.66028042794154,-0.48841715,-0.034208454,0.014049901,0.013744468,341.53876,98.35971,7.9446483,STD
4623749209000,3.444974,1.37346906535324,-9.65927074735769,-0.490280834702392,-0.02687807,0.016798794,0.01282817,341.54184,98.36495,7.9496775,STD
4623754273000,3.450038,1.35998026142221,-9.65027846180234,-0.494777118329316,-0.030848695,0.013744468,0.008246681,341.5407,98.37169,7.955205,STD
4623759185000,3.45495,1.34376148287751,-9.63990392742365,-0.495366623151006,-0.021380283,0.013133603,0.008552114,341.54156,98.374245,7.95842,STD
4623764312000,3.460077,1.31763598878365,-9.62422830360753,-0.484916425513462,-0.022907447,0.017104227,0.00580322,341.54272,98.38009,7.9637275,STD
4623769168000,3.464933,1.30420987309166,-9.61423194503389,-0.47884035,-0.031154128,0.010995574,0.0125227375,341.54172,98.3809,7.9637322,STD
4623774272000,3.470037,1.3090119152569,-9.61183087380882,-0.47884035,-0.032070424,0.0143553335,0.014660766,341.5444,98.38311,7.9659247,STD
4623779183000,3.474948,1.31363237549858,-9.60952059544159,-0.47884035,-0.03176499,0.0106901415,0.009773844,341.54623,98.3817,7.964904,STD
4623784272000,3.480037,1.31842030507908,-9.60712658065625,-0.47884035,-0.03268129,0.013744468,0.008857546,341.551,98.37885,7.9622974,STD
4623789192000,3.484957,1.32450134647527,-9.60481157398486,-0.481016809098909,-0.032070424,0.0106901415,0.009773844,341.55594,98.37795,7.962034,STD
4623794207000,3.489972,1.3339453838364,-9.60245076187199,-0.48809983465441,-0.034513887,0.021380283,0.018020526,341.56567,98.3756,7.9600782,STD
4623799242000,3.495007,1.34342708435749,-9.60008053475568,-0.495211107570052,-0.038179077,0.014660766,0.014966198,341.56842,98.37797,7.9626493,STD
4623804237000,3.500002,1.35283345855865,-9.59772913764625,-0.502265885765412,-0.029932396,0.016493361,0.017104227,341.57675,98.37578,7.9615617,STD
4623809275000,3.50504,1.3635222250908,-9.60078180828507,-0.516007206096005,-0.032070424,0.01985312,0.0143553335,341.5986,98.38351,7.9688706,STD
4623814392000,3.510157,1.3779537021498,-9.62002367723569,-0.549680682705409,-0.03848451,0.014660766,0.016187929,341.6181,98.38874,7.9738436,STD
4623819272000,3.515037,1.38761631145813,-9.6363092918212,-0.570525688463791,-0.041233405,0.01863139,0.014049901,341.63843,98.39978,7.9844947,STD
4623824275000,3.52004,1.38294002503416,-9.64566147403865,-0.551820738083154,-0.032986723,0.016187929,0.009162978,341.6549,98.410255,7.994882,STD
4623829241000,3.525006,1.37778488585433,-9.65367604868804,-0.535025981859622,-0.03940081,0.022602014,0.014966198,341.6689,98.4218,8.00513,STD
4623834278000,3.530043,1.3699035930301,-9.65525234346306,-0.527144664346633,-0.032375857,0.021991149,0.0125227375,341.67963,98.434586,8.018584,STD
4623839233000,3.534998,1.3621506039604,-9.65680297689769,-0.519391650990099,-0.044898596,0.0125227375,0.0143553335,341.69077,98.44427,8.027198,STD
4623844245000,3.54001,1.3543084281345,-9.65837144809332,-0.511549450597981,-0.04184427,0.017715093,0.010995574,341.70547,98.45368,8.037809,STD
4623850071000,3.545836,1.34519260284286,-9.66019465503382,-0.502433596750319,-0.040011674,0.01740966,0.010995574,341.7156,98.462585,8.046425,STD
4623854268000,3.550033,1.33862564116263,-9.66150807754142,-0.495866614498579,-0.041233405,0.02321288,0.013744468,341.72867,98.47132,8.055023,STD
4623859459000,3.555224,1.33097399907689,-9.66320020514583,-0.487406144328783,-0.036957346,0.01282817,0.014660766,341.73367,98.4785,8.061581,STD
4623864321000,3.560086,1.32868771794167,-9.6654865340273,-0.475974726716095,-0.043982297,0.016798794,0.01985312,341.74432,98.48461,8.06616,STD
4623869635000,3.5654,1.32618889071983,-9.66798541343415,-0.46348057756064,-0.050701816,0.020158553,0.019242255,341.75272,98.485016,8.065022,STD
4623874270000,3.570035,1.32400935286261,-9.67016499680841,-0.452582876895316,-0.0421497,0.027183503,0.015577064,341.7632,98.484055,8.063378,STD
4623879608000,3.575373,1.32139898160739,-9.67197375319316,-0.440933937413048,-0.04550946,0.026572637,0.015271631,341.77234,98.483925,8.060882,STD
4623884317000,3.580082,1.31696813554726,-9.6586814000786,-0.449795643413244,-0.042455133,0.019242255,0.015577064,341.78128,98.4832,8.059209,STD
4623889165000,3.58493,1.31240650001965,-9.64499668402437,-0.458918928758106,-0.03970624,0.0076358155,0.01740966,341.78085,98.47586,8.052431,STD
4623894204000,3.589969,1.31640113300425,-9.63508775111067,-0.468443805152532,-0.04062254,0.013744468,0.017104227,341.78345,98.46923,8.046452,STD
4623899229000,3.594994,1.32115218641524,-9.62558544584855,-0.477945921896535,-0.041233405,0.017104227,0.020158553,341.7821,98.46112,8.038979,STD
4623904233000,3.599998,1.31947622051131,-9.62575261191437,-0.480963529488685,-0.027794369,0.01863139,0.018020526,341.78458,98.45454,8.035451,STD
4623909175000,3.60494,1.31716045069602,-9.62691052100306,-0.483279299303976,-0.03390302,0.022296581,0.024740042,341.7888,98.44664,8.028667,STD
4623914296000,3.610061,1.3147608033419,-9.628110369737,-0.485678946658104,-0.03604105,0.01740966,0.015882496,341.7898,98.44388,8.028241,STD
4623919904000,3.615669,1.31213295285138,-9.62942432242202,-0.488306797148624,-0.035430185,0.013439035,0.016798794,341.79233,98.43706,8.023223,STD
4623924259000,3.620024,1.31009224513272,-9.63044469759021,-0.490347504867278,-0.032375857,0.015271631,0.016798794,341.79498,98.43296,8.02103,STD
4623929245000,3.62501,1.30775585737492,-9.63161291586544,-0.492683892625076,-0.043066,0.008552114,0.010995574,341.79395,98.43144,8.020109,STD
4623934272000,3.630037,1.30540025744343,-9.63279074042813,-0.495039492556575,-0.038789943,-0.0009162979,0.010995574,341.78955,98.42591,8.014345,STD
4623939266000,3.635031,1.30306012096881,-9.63396083310092,-0.497379629031193,-0.028710667,-0.0009162979,0.011911872,341.787962775216,98.4237469681171,8.0119025764989,STD
4623944246000,3.640011,1.31575915765843,-9.62428277323103,-0.478023896135266,-0.0290161,0.00030543262,0.0143553335,341.78638,98.42159,8.009467,STD
4623949346000,3.645111,1.33426505137823,-9.6104030630861,-0.450265031400966,-0.03176499,0.0061086523,0.0143553335,341.77884,98.417786,8.004056,STD
4623954269000,3.650034,1.34707036307207,-9.60237858232509,-0.450009151204629,-0.03268129,0.0009162979,0.013744468,341.76913,98.41112,7.9962773,STD
4623959295000,3.65506,1.35719829506575,-9.59731503934771,-0.465201059770647,-0.030543262,0.0061086523,0.015271631,341.76437,98.404045,7.988346,STD
4623964248000,3.660013,1.34961294234091,-9.60282322346868,-0.472694749968232,-0.032986723,0.0030543262,0.014966198,341.7515,98.39908,7.981802,STD
4623969246000,3.665011,1.33535755276482,-9.61232651881267,-0.477446561378934,-0.026572637,-0.0067195175,0.010079277,341.7384,98.394196,7.9763765,STD
4623974234000,3.669999,1.32951317418401,-9.61178805255892,-0.47884035,-0.02107485,-0.0012217305,0.011301007,341.72775,98.39096,7.9718924,STD
4623979221000,3.674986,1.32715840140026,-9.60707865452125,-0.47884035,-0.028710667,0.00061086525,0.013744468,341.71356,98.38949,7.9684873,STD
4623984193000,3.679958,1.32481071134997,-9.60238342150675,-0.47884035,-0.025961773,0.0061086523,0.011911872,341.702,98.38466,7.9620514,STD
4623989192000,3.684957,1.32245027237945,-9.59766269145055,-0.47884035,-0.031154128,-0.0015271631,0.013133603,341.6876,98.37996,7.9542036,STD
4623994212000,3.689977,1.32313081236335,-9.59749228443649,-0.475777522075134,-0.03756821,-0.005192355,0.020463986,341.67624,98.37416,7.9455247,STD
4623999261000,3.695026,1.32553357837408,-9.59989484973167,-0.470971985035778,-0.036957346,0.004581489,0.022907447,341.66687,98.36941,7.938265,STD
4624004233000,3.699998,1.32789970089445,-9.6022607745975,-0.466239735053667,-0.041233405,0.0070249503,0.011911872,341.65216,98.36627,7.9294333,STD
4624009274000,3.705039,1.33029865978931,-9.60465953309481,-0.461441812254025,-0.037873644,0.004886922,0.015577064,341.63956,98.35804,7.916213,STD
4624014276000,3.710041,1.334141833889,-9.60850269582271,-0.462652360792312,-0.03726278,0.006414085,0.014966198,341.6288,98.35478,7.907795,STD
4624019238000,3.715003,1.33880157909394,-9.61316253834085,-0.467312101131594,-0.043982297,0.0061086523,0.016493361,341.6173,98.35055,7.898027,STD
4624024267000,3.720032,1.33511767860419,-9.61793171954138,-0.460810532021934,-0.037873644,0.004276057,0.013744468,341.60617,98.34674,7.8905444,STD
4624029266000,3.725031,1.32557143270189,-9.62270494217348,-0.446491153200399,-0.037873644,-0.007330383,0.013744468,341.59244,98.34315,7.882034,STD
4624034223000,3.729988,1.32982892616487,-9.62743423267623,-0.451505815875149,-0.029626964,0.004276057,0.015271631,341.59332,98.3431,7.8802233,STD
4624039249000,3.735014,1.34420556798088,-9.63222654669454,-0.470674696649741,-0.0290161,-0.00030543262,0.018020526,341.5863,98.34346,7.87779,STD
4624044246000,3.740011,1.35303410500297,-9.63156363852086,-0.459910195212577,-0.031154128,-0.010079277,0.008246681,341.58875,98.346664,7.877591,STD
4624049253000,3.745018,1.3577751607277,-9.62682248378485,-0.426722770485466,-0.032375857,-0.010079277,0.0067195175,341.59277,98.34673,7.874399,STD
4624054233000,3.749998,1.36249423239604,-9.62986637287129,-0.4143903178,-0.035430185,-0.0030543262,0.01282817,341.58786,98.34882,7.8715076,STD
4624059240000,3.755005,1.36724185988119,-9.63936182613861,-0.4191379552,-0.034513887,0.0009162979,0.007941248,341.58203,98.35401,7.8722696,STD
4624064245000,3.76001,1.36706701241999,-9.64022034293494,-0.426212278944779,-0.032375857,0.0015271631,0.0067195175,341.5785,98.35563,7.8707137,STD
4624069252000,3.765017,1.36248584899207,-9.6333484542849,-0.43537461297602,-0.029932396,-0.00061086525,0.013133603,341.57538,98.35634,7.868449,STD
4624074233000,3.769998,1.35792847430974,-9.62651224949842,-0.444489369478838,-0.030543262,0.008246681,0.02076942,341.57486,98.35802,7.866323,STD
4624079269000,3.775034,1.35332077728098,-9.61960055961594,-0.45370477075332,-0.03940081,-0.0030543262,0.01740966,341.5679,98.36148,7.865298,STD
4624084230000,3.779995,1.35199165791498,-9.61926864478745,-0.458855801042511,-0.035124753,-0.002443461,0.019242255,341.56818,98.36012,7.863342,STD
4624089289000,3.785054,1.35696053450592,-9.63169083626481,-0.456371362747039,-0.034513887,-0.002443461,0.015882496,341.565,98.362274,7.8637204,STD
4624094212000,3.789977,1.36179583386493,-9.64377908466233,-0.453953713067535,-0.02565634,0.00580322,0.020463986,341.56433,98.36047,7.860533,STD
4624099317000,3.795082,1.36680989099021,-9.65631422747551,-0.451446684504897,-0.032070424,0.004276057,0.016798794,341.56073,98.36321,7.8605924,STD
4624104216000,3.799981,1.3684564213487,-9.662998,-0.452163886230235,-0.03604105,0.005497787,0.01740966,341.5605,98.3625,7.858342,STD
4624109280000,3.805045,1.36606752842717,-9.662998,-0.456941669578838,-0.037873644,-0.007330383,0.01985312,341.55576,98.362686,7.856442,STD
4624114280000,3.810045,1.36370882688538,-9.662998,-0.461659070199498,-0.038789943,-0.006414085,0.016187929,341.54935,98.3613,7.859914,STD
4624119277000,3.815042,1.3613515405645,-9.662998,-0.466373640379784,-0.036651913,-0.0015271631,0.018325957,341.54074,98.35779,7.860926,STD
4624124166000,3.819931,1.3565939959462,-9.65140398958136,-0.467607219702595,-0.043066,0.007330383,0.013744468,341.5336,98.35815,7.86497,STD
4624129265000,3.82503,1.34734373960977,-9.61902838217465,-0.462982096363895,-0.041233405,0.009468411,0.022602014,341.52628,98.35348,7.864525,STD
4624134167000,3.829932,1.33703952703198,-9.59719872092076,-0.458448905677327,-0.040011674,0.0012217305,0.014966198,341.51364,98.35303,7.867185,STD
4624139372000,3.835137,1.32180814263597,-9.6022754249338,-0.453371777545325,-0.03756821,0.0027488936,0.015577064,341.50488,98.34791,7.86523,STD
4624144214000,3.839979,1.31343670018728,-9.6027088882208,-0.457180433889601,-0.037873644,0.0018325958,0.016187929,341.49927,98.34622,7.8677435,STD
4624149327000,3.845092,1.31826333186792,-9.59305592725481,-0.481313602372597,-0.03848451,0.0067195175,0.018020526,341.4959,98.34397,7.869783,STD
4624154221000,3.849986,1.32769698801498,-9.5888229588015,-0.491896359438202,-0.0421497,-0.007330383,0.01038471,341.4882,98.34156,7.8711896,STD
4624159283000,3.855048,1.35039256928839,-9.59790090692884,-0.469200768685393,-0.026267206,-0.004276057,0.013439035,341.48706,98.33415,7.869331,STD
4624164259000,3.860024,1.3692703382332,-9.60575006621634,-0.45074911574536,-0.04550946,-0.0009162979,0.013744468,341.48044,98.33595,7.871889,STD
4624169276000,3.865041,1.36778157655625,-9.60723885898429,-0.455215403885291,-0.03573562,0.0015271631,0.013439035,341.47458,98.333015,7.8737626,STD
4624174850000,3.870615,1.36612752880117,-9.60889294128219,-0.46017755060484,-0.040927973,-0.002443461,0.012217305,341.46317,98.33452,7.877123,STD
4624179268000,3.875033,1.3648165164255,-9.61020398103678,-0.464110590469743,-0.03481932,-0.0036651916,0.011301007,341.45343,98.334175,7.8805356,STD
4624184176000,3.879941,1.36336009978,-9.61166042809779,-0.468479843447774,-0.040927973,-0.002443461,0.014049901,341.4435,98.334885,7.883216,STD
4624189266000,3.885031,1.36184967583429,-9.6131708835869,-0.473011118439253,-0.023823744,-0.0009162979,0.013133603,341.43344,98.33423,7.887175,STD
4624194224000,3.889989,1.36037842201841,-9.61464216812816,-0.47742488295944,-0.036651913,0.009162978,0.023823744,341.42657,98.33311,7.8871584,STD
4624199258000,3.895023,1.35879503019682,-9.61622559301698,-0.475505638269075,-0.043676864,0.0027488936,0.022907447,341.42462,98.337524,7.8936343,STD
4624204200000,3.899965,1.35719997271502,-9.61782068380965,-0.470720462492586,-0.032375857,0.0030543262,0.0143553335,341.42746,98.34055,7.899343,STD
4624209369000,3.905134,1.35553164974387,-9.61948904162173,-0.465715490095039,-0.0290161,0.0030543262,0.011301007,341.428516999071,98.3419072828974,7.9014713431284,STD
4624214296000,3.910061,1.35394143359396,-9.6210792909814,-0.460944838324346,-0.0290161,0.0030543262,0.019242255,341.429524512017,98.3432010211127,7.90350004241137,STD
4624219262000,3.915027,1.35233862998113,-9.62268212806686,-0.456136424138582,-0.03145956,-0.0036651916,0.013744468,341.43054,98.344505,7.9055448,STD
4624224263000,3.920028,1.3507245299272,-9.62429626182933,-0.451294120605958,-0.03634648,-0.007941248,0.012217305,341.4341,98.35037,7.914207,STD
4624229264000,3.925029,1.35206037590281,-9.62296038795619,-0.453571079998565,-0.032375857,-0.0021380284,0.0125227375,341.4481,98.358665,7.927847,STD
4624234302000,3.930067,1.35436811581767,-9.62065259984694,-0.458186557418568,-0.036651913,-0.00580322,0.010079277,341.45767,98.36902,7.942048,STD
4624239264000,3.935029,1.35664104266514,-9.61837962553212,-0.462732408740135,-0.02443461,0.0009162979,0.0106901415,341.4667,98.37183,7.9517517,STD
4624244860000,3.940625,1.35920438378533,-9.61581623087961,-0.467859088303917,-0.032986723,0.0030543262,0.01282817,341.47314,98.377014,7.9612556,STD
4624249286000,3.945051,1.35564353146638,-9.613408826004,-0.470116136377597,-0.038179077,0.0009162979,0.013744468,341.48004,98.380875,7.970608,STD
4624254250000,3.950015,1.34832867761194,-9.6104829761194,-0.471579111731343,-0.048258353,-0.0021380284,0.014049901,341.48706,98.38538,7.9792027,STD
4624259250000,3.955015,1.34096077485767,-9.60753590733959,-0.473052696898292,-0.03145956,-0.0021380284,0.016798794,341.49203298379,98.3878284690815,7.98256636820092,STD
4624264244000,3.960009,1.33360171358671,-9.60459237504232,-0.474524513763041,-0.039095376,0.009773844,0.014966198,341.497,98.390274,7.985926,STD
4624269451000,3.965216,1.32592877965841,-9.60152329761502,-0.476059105355901,-0.04337143,0.0018325958,0.009773844,341.5001,98.3986,7.9938,STD
4624274270000,3.970035,1.31882759498384,-9.59868291272504,-0.477479346739806,-0.037873644,0.005497787,0.01038471,341.511,98.40445,7.9963455,STD
4624279279000,3.975044,1.31239086601101,-9.59669750894965,-0.479208616011015,-0.043066,0.0030543262,0.016187929,341.5176,98.41136,7.9985795,STD
4624284260000,3.980025,1.31708225476003,-9.60607999252557,-0.483900004760031,-0.03756821,0.004581489,0.015577064,341.52612,98.418175,8.002439,STD
4624289437000,3.985202,1.3222262271431,-9.6144871924927,-0.487790321875107,-0.04062254,0.0030543262,0.019547688,341.53458,98.41941,7.99916,STD
4624294210000,3.989975,1.33007884119567,-9.60663482442879,-0.479937695523106,-0.043066,0.013439035,0.018325957,341.54663,98.42156,7.997713,STD
4624299226000,3.994991,1.33833124263872,-9.59838268149803,-0.471685281154441,-0.03970624,0.0070249503,0.007941248,341.5571,98.42728,8.001272,STD
4624304236000,4.000001,1.33738961719277,-9.59932410184634,-0.459173364554298,-0.03023783,0.0012217305,0.008857546,341.5705,98.42968,8.001947,STD
4624309279000,4.005044,1.33259551332142,-9.60411780524121,-0.44479104292833,-0.03970624,0.0015271631,0.011911872,341.58337,98.43546,8.004783,STD
4624314875000,4.01064,1.33507205667262,-9.61138090704938,-0.450272751851577,-0.04428773,0.008552114,0.013744468,341.59265,98.44001,8.007762,STD
4624319218000,4.014983,1.33919579674797,-9.61756664634146,-0.460582112804878,-0.03970624,0.002443461,0.0067195175,341.59796,98.44598,8.012123,STD
4624324262000,4.020027,1.34398514626215,-9.62475082064248,-0.472555499092802,-0.0421497,0.0018325958,0.016187929,341.60464,98.44437,8.009266,STD
4624329284000,4.025049,1.34875360646441,-9.63190366032124,-0.484476662046401,-0.035430185,0.0033597588,0.011301007,341.60974,98.447235,8.012395,STD
4624334267000,4.030032,1.35818438582782,-9.634268,-0.494700839986672,-0.034513887,0.006414085,0.010079277,341.6152,98.44723,8.011767,STD
4624339270000,4.035035,1.37000999307928,-9.634268,-0.504161357893178,-0.043982297,0.0067195175,0.01038471,341.62018,98.44842,8.0120325,STD
4624344246000,4.040011,1.38177178034357,-9.634268,-0.513570819636687,-0.03573562,-0.0009162979,0.005192355,341.6219,98.45242,8.01595,STD
4624349343000,4.045108,1.39381957569849,-9.634268,-0.523209088629183,-0.0290161,0.005192355,0.008857546,341.6277,98.45479,8.017351,STD
4624354270000,4.050035,1.38937802299519,-9.63279535384924,-0.520833930723737,-0.032070424,0.0021380284,0.0106901415,341.6243,98.45695,8.020234,STD
4624359310000,4.055075,1.37486309075782,-9.63037614374499,-0.511157279761427,-0.026267206,0.002443461,0.015577064,341.62375,98.455864,8.021254,STD
4624364279000,4.060044,1.3605526347484,-9.62799101378308,-0.501616946699579,-0.03756821,0.01863139,0.016493361,341.62415,98.46265,8.02779,STD
4624369282000,4.065047,1.34614426054531,-9.62558956375301,-0.492011334643144,-0.039095376,0.0106901415,0.019547688,341.6178,98.46606,8.031892,STD
4624374266000,4.070031,1.33682289066693,-9.62370845214783,-0.491364730973857,-0.027794369,0.009773844,0.018936822,341.61804,98.46996,8.036959,STD
4624379266000,4.075031,1.33050844765107,-9.62212980842647,-0.49610056158738,-0.034513887,0.014966198,0.021380283,341.61783,98.473885,8.040168,STD
4624384345000,4.08011,1.32409423643557,-9.62052622213431,-0.500911218324597,-0.040317107,0.00580322,0.018020526,341.6109,98.46992,8.037344,STD
4624389267000,4.085032,1.31787829873076,-9.618972205255,-0.505573169980549,-0.039095376,0.009162978,0.0125227375,341.60922,98.465996,8.034783,STD
4624394212000,4.089977,1.31163331458807,-9.61741092661458,-0.510256906457324,-0.023823744,0.011301007,0.014049901,341.60474,98.46048,8.031153,STD
4624399333000,4.095098,1.30516606205123,-9.61579407971516,-0.515107344171694,-0.032070424,0.0012217305,0.0143553335,341.5977,98.45889,8.029393,STD
4624404300000,4.100065,1.30110685673956,-9.61377502877734,-0.515808596739563,-0.0421497,0.00030543262,0.016493361,341.59406,98.45532,8.026882,STD
4624409327000,4.105092,1.29871408469185,-9.61138220675944,-0.513415824691849,-0.03940081,0.012217305,0.017104227,341.59137,98.45181,8.024848,STD
4624414264000,4.110029,1.29636415121272,-9.60903222420477,-0.511065891212724,-0.03359759,0.00030543262,0.019547688,341.57846,98.44341,8.01821,STD
4624419281000,4.115046,1.29397613900596,-9.60664416212724,-0.508677879005964,-0.035430185,0.014660766,0.021380283,341.5768,98.4357,8.012251,STD
4624424265000,4.12003,1.29794075421399,-9.60807293006575,-0.520250141422594,-0.043066,0.013744468,0.018325957,341.5675,98.42895,8.006849,STD
