timestamp,rel_time,acc_x,acc_y,acc_z,gyro_x,gyro_y,gyro_z,azimuth,pitch,roll,label
20912094063000,0,-0.345114870219393,9.81037605367203,0.813941125454284,-0.05589417,0.019242255,0.03176499,233.58194,-83.416664,2.3145611,STD
20912099046000,0.004983,-0.349932957702078,9.80893064860772,0.812736603709388,-0.04184427,0.00061086525,0.032070424,233.55573,-83.435196,2.2875066,STD
20912104052000,0.009989,-0.354773283999152,9.80747857199685,0.811526522261474,-0.041233405,-0.00061086525,0.032986723,233.52722,-83.44705,2.2630713,STD
20912109056000,0.014993,-0.359611676486279,9.80602707552046,0.810316924265998,-0.034513887,-0.0076358155,0.038789943,233.50583,-83.46316,2.241413,STD
20912114048000,0.019985,-0.364438466113725,9.80457905985098,0.809110226985138,-0.041233405,-0.007941248,0.03940081,233.48334,-83.47559,2.2189028,STD
20912119058000,0.024995,-0.369282660030693,9.80312582297115,0.807899178632353,-0.046120327,-0.022296581,0.040317107,233.46696,-83.48912,2.1992493,STD
20912124062000,0.029999,-0.37412105251782,9.80167432649476,0.806689580636876,-0.050701816,-0.02687807,0.037873644,233.44827,-83.50064,2.1789644,STD
20912129051000,0.034988,-0.378944941430346,9.800227181027,0.805483608534671,-0.052534413,-0.02443461,0.036651913,233.43182,-83.510925,2.1599407,STD
20912134027000,0.039964,-0.383756260578216,9.79878380643337,0.804280778873301,-0.053450707,-0.034513887,0.043982297,233.42021,-83.51924,2.143615,STD
20912139102000,0.045039,-0.388663303318458,9.79731171518285,0.803054018316338,-0.05467244,-0.03940081,0.04520403,233.40683,-83.5273,2.1253932,STD
20912144045000,0.049982,-0.393442714602205,9.79587791280819,0.801859165620166,-0.058948494,-0.055283304,0.038789943,233.39957,-83.534,2.1080806,STD
20912149497000,0.055434,-0.398714280517436,9.79429646620762,0.800541274278971,-0.067500606,-0.056505036,0.03726278,233.38947,-83.53835,2.0925436,STD
20912154056000,0.059993,-0.40312240029138,9.7929740496537,0.799439244450558,-0.06078109,-0.06352998,0.033292156,233.3858,-83.546295,2.0755334,STD
20912159052000,0.064989,-0.407953057538719,9.79152487371524,0.798231580264826,-0.06719518,-0.07269296,0.028099801,233.38318,-83.54844,2.0582266,STD
20912164033000,0.06997,-0.412769211211457,9.79008004878541,0.797027541972366,-0.055588737,-0.06505715,0.025045475,233.37778,-83.55727,2.0405095,STD
20912169034000,0.074971,-0.417604702983664,9.78862942251075,0.795818669155544,-0.050396383,-0.06414085,0.020158553,233.377,-83.56309,2.0217352,STD
20912174021000,0.079958,-0.418369560151008,9.78775647738633,0.792332089825725,-0.05375614,-0.052839845,0.019242255,233.371,-83.569374,2.003144,STD
20912179049000,0.084986,-0.40439543497951,9.78896114248187,0.780526363587265,-0.0571159,-0.054367006,0.01740966,233.36853,-83.57726,1.9837704,STD
20912184039000,0.089976,-0.390526921732539,9.79015670310772,0.768809861214568,-0.048563786,-0.073303826,0.014660766,233.35583,-83.607414,1.9405644,STD
20912189103000,0.09504,-0.376452743158859,9.79136999349035,0.756919607103279,-0.050701816,-0.0870483,0.01038471,233.34233,-83.63283,1.8974711,STD
20912194131000,0.100068,-0.362478617987361,9.79257465858589,0.745113880864818,-0.037873644,-0.086132,0.013133603,233.32996,-83.66306,1.8569531,STD
20912199053000,0.10499,-0.348799094500068,9.79375392700281,0.73355704225191,-0.035430185,-0.10262536,0.0070249503,233.32684,-83.68983,1.8148761,STD
20912204045000,0.109982,-0.334925022730753,9.79494996681127,0.721835843886279,-0.034513887,-0.10842858,0.007330383,233.32016,-83.71775,1.7762069,STD
20912209061000,0.114998,-0.320984248693316,9.79615175681112,0.710058293605428,-0.014966198,-0.099571034,0.0033597588,233.31427,-83.751175,1.7358166,STD
20912214043000,0.11998,-0.307137969535718,9.7973454007065,0.698360575204471,-0.013133603,-0.093767814,-0.012217305,233.31113,-83.77978,1.6936144,STD
20912219088000,0.125025,-0.293116596924301,9.79855413885428,0.686514933026064,-0.011911872,-0.08399397,-0.008246681,233.30385,-83.811134,1.6566302,STD
20912224044000,0.129981,-0.279342578557168,9.79974155337566,0.674878262533261,-0.0070249503,-0.07666359,-0.013439035,233.29636,-83.84463,1.6137601,STD
20912229081000,0.135018,-0.265343440035125,9.80094837479298,0.663051404326593,-0.0018325958,-0.080634214,-0.01160644,233.289,-83.87645,1.5752484,STD
20912234026000,0.139963,-0.251599993540882,9.80213315380997,0.651440561794933,-0.0009162979,-0.07666359,-0.018325957,233.27782,-83.908165,1.5335623,STD
20912239073000,0.14501,-0.237573062407121,9.80334237114037,0.639590223623591,0.0021380284,-0.06780604,-0.018020526,233.26617,-83.94,1.4955167,STD
20912244058000,0.149995,-0.223718445466008,9.80453673380967,0.627885461233232,-0.005497787,-0.06780604,-0.013439035,233.2561,-83.96805,1.4580886,STD
20912249048000,0.154985,-0.209849932219037,9.80573229443552,0.616168958860535,-0.008246681,-0.05955936,-0.01282817,233.2414,-83.9973,1.4202405,STD
20912254064000,0.160001,-0.1959091581816,9.80693408443537,0.604391408579684,-0.0125227375,-0.055283304,-0.011301007,233.22778,-84.022514,1.3851076,STD
20912259057000,0.164994,-0.182032307151113,9.80813036383514,0.592667862217586,-0.020463986,-0.050701816,-0.003970624,233.21173,-84.04446,1.352544,STD
20912264047000,0.169984,-0.168163793904141,9.80932592446099,0.580951359844889,-0.021685716,-0.046731193,-0.007941248,233.1951,-84.06671,1.3180286,STD
20912269032000,0.174969,-0.154309176963029,9.8105202871303,0.56924659745453,-0.021380283,-0.046731193,-0.007330383,233.17816,-84.08554,1.2877134,STD
20912274056000,0.179993,-0.140346168836218,9.81172399386061,0.557450263201939,-0.023823744,-0.038179077,-0.00580322,233.15794,-84.10261,1.2569973,STD
20912279044000,0.184981,-0.12648321411159,9.81291907530384,0.545738456822178,-0.023823744,-0.029321533,0.0018325958,233.13766,-84.11923,1.2289867,STD
20912284033000,0.18997,-0.11261748012579,9.81411439633838,0.534024302445949,-0.021991149,-0.029932396,-0.00061086525,233.11813,-84.13544,1.1993151,STD
20912289205000,0.195142,-0.0982431413455621,9.81535356258225,0.521880464716172,-0.010079277,-0.03023783,0.0018325958,233.09595,-84.153,1.1735991,STD
20912294052000,0.199989,-0.084772062446149,9.81651486165108,0.510499725838324,-0.013133603,-0.027183503,0.009468411,233.07318,-84.166016,1.1492392,STD
20912299046000,0.204983,-0.0708924321544905,9.81771138064216,0.498773831479758,-0.029932396,-0.030848695,0.0125227375,233.05283,-84.17788,1.1251035,STD
20912304035000,0.209972,-0.0570266981686906,9.8189067016767,0.487059677103529,-0.030848695,-0.01985312,0.01160644,233.02762,-84.192444,1.1020404,STD
20912309059000,0.214996,-0.0430636900418799,9.82011040840701,0.475263342850938,-0.04337143,-0.014660766,0.011911872,233.00531,-84.19829,1.0809345,STD
20912314058000,0.219995,-0.0291701634443627,9.82130812535463,0.463525708510035,-0.040317107,-0.015577064,0.016187929,232.98186,-84.20759,1.0610195,STD
20912319065000,0.225002,-0.0152544027574716,9.82250775903271,0.451769290197391,-0.025961773,-0.011911872,0.013133603,232.95613,-84.21653,1.0392361,STD
20912324045000,0.229982,-0.00141368212221739,9.82370092374548,0.440076267789369,-0.03481932,-0.009468411,0.015882496,232.93106,-84.21888,1.0207572,STD
20912329048000,0.234985,0.0124909615199868,9.82489959905833,0.428329241462596,-0.044898596,-0.013133603,0.019547688,232.90714,-84.22455,1.0021422,STD
20912334027000,0.239964,0.0263289028940693,9.82609252417979,0.416638567051041,-0.04337143,-0.011911872,0.019547688,232.8815,-84.23064,0.9834163,STD
20912339043000,0.24498,0.040269676931506,9.82729431417964,0.404861016770191,-0.030543262,-0.0106901415,0.021685716,232.85707,-84.23651,0.96674645,STD
20912344052000,0.249989,0.0541909961407406,9.82849442704033,0.393099902464612,-0.03726278,-0.0061086523,0.023823744,232.83167,-84.237015,0.9502371,STD
20912349046000,0.254983,0.0680706264323991,9.82969094603141,0.381374008106046,-0.03359759,-0.0015271631,0.029321533,232.80612,-84.24345,0.9355452,STD
20912354056000,0.259993,0.0819947249028055,9.83089129848342,0.369610545804,-0.028099801,0.004886922,0.03726278,232.77898,-84.24799,0.9222178,STD
20912359021000,0.264958,0.0957937566204837,9.83208086932657,0.35795274334299,-0.03145956,0.01863139,0.03359759,232.74902,-84.25104,0.9070033,STD
20912364029000,0.269966,0.109712296568547,9.83328074259595,0.346193977033879,-0.046731193,0.014660766,0.040011674,232.72223,-84.25113,0.8973561,STD
20912369031000,0.274968,0.123614160949579,9.8344791783175,0.334449298703573,-0.03970624,0.027488936,0.031154128,232.68777,-84.257095,0.88157314,STD
20912374025000,0.279962,0.135193829701689,9.83555760737757,0.325670309945475,-0.04153884,0.037873644,0.034513887,232.65506,-84.25525,0.8713333,STD
20912379048000,0.284985,0.139761614003788,9.83627882596093,0.325910719487039,-0.04734206,0.03756821,0.032986723,232.62263,-84.254585,0.85725135,STD
20912384037000,0.289974,0.144298479598687,9.83699516271434,0.326149501729296,-0.03726278,0.04184427,0.029932396,232.62723,-84.29775,0.89006734,STD
20912389062000,0.294999,0.148868082648269,9.83771666846416,0.326390006994348,-0.029626964,0.04184427,0.02565634,232.63365,-84.33751,0.9213757,STD
20912394058000,0.299995,0.153411313859355,9.83843401030021,0.326629124268815,-0.03604105,0.043676864,0.025961773,232.63873,-84.37481,0.95216537,STD
20912399040000,0.304977,0.157941813838065,9.83914934197098,0.326867571478862,-0.051618114,0.0290161,0.02565634,232.64908,-84.41063,0.98129493,STD
20912404769000,0.310706,0.163151616001459,9.8399719303174,0.327141771411893,-0.04886922,0.029321533,0.02107485,232.65515,-84.44884,1.0081145,STD
20912409055000,0.314992,0.167049191856287,9.84058732805745,0.327346906847916,-0.033292156,0.03573562,0.022907447,232.66376,-84.485016,1.0361688,STD
20912414047000,0.319984,0.171588785572409,9.84130409556056,0.327585832675406,-0.037873644,0.028405234,0.017715093,232.67677,-84.516,1.060601,STD
20912419032000,0.324969,0.176122013672342,9.84201985798104,0.327824423470686,-0.030543262,0.022602014,0.017715093,232.68765,-84.553276,1.0861608,STD
20912424060000,0.329997,0.180694344843148,9.84274179448057,0.328065072320971,-0.020463986,0.026267206,0.015271631,232.69836,-84.589516,1.1088905,STD
20912429038000,0.334975,0.185221207326893,9.8434565518184,0.328303328084041,-0.018020526,0.020463986,0.01740966,232.71352,-84.62442,1.1327564,STD
20912434027000,0.339964,0.189758072921791,9.84417288857181,0.328542110326298,-0.015882496,0.018936822,0.018325957,232.72673,-84.66123,1.1548427,STD
20912439123000,0.34506,0.194392241506999,9.84490458873124,0.328786013775195,-0.013133603,0.025045475,0.01985312,232.73953,-84.6977,1.1771513,STD
20912444128000,0.350065,0.198943657081757,9.84562322281639,0.32902556180536,-0.014049901,0.018936822,0.015271631,232.75658,-84.73308,1.1978137,STD
20912449043000,0.35498,0.203413229019806,9.8463289344105,0.32926080227854,-0.0125227375,0.015271631,0.019242255,232.77113,-84.76824,1.2206198,STD
20912454050000,0.359987,0.207966463342046,9.84704785566212,0.329500446032195,-0.012217305,0.025961773,0.018325957,232.78372,-84.80246,1.2400527,STD
20912459055000,0.364992,0.212517878916804,9.84776648974727,0.329739994062361,-0.019242255,0.0106901415,0.021685716,232.80469,-84.83359,1.2621108,STD
20912464045000,0.369982,0.217055653885443,9.84848297008391,0.329978824166363,-0.0290161,0.0009162979,0.016187929,232.82146,-84.86379,1.2805023,STD
20912469028000,0.374965,0.221587063237894,9.84919844533792,0.330217319238154,-0.03023783,0.0076358155,0.029932396,232.8374,-84.892,1.3048409,STD
20912474744000,0.380681,0.226785043542653,9.8500191671023,0.33049089696851,-0.03848451,0.004276057,0.022296581,232.85965,-84.916824,1.3215778,STD
20912479046000,0.384983,0.23069716937734,9.85063686217409,0.330696798192441,-0.03390302,-0.008246681,0.027794369,232.88197,-84.94223,1.3455019,STD
20912484023000,0.38996,0.235223122487343,9.85135147592869,0.330935006093766,-0.03848451,0.0036651916,0.022296581,232.89873,-84.96369,1.363132,STD
20912489156000,0.395093,0.239890937900976,9.85208848866777,0.331180680427201,-0.044593163,0.00580322,0.02107485,232.92154,-84.98471,1.3836114,STD
20912494068000,0.400005,0.244357781717801,9.85279376951218,0.331415777315148,-0.04550946,0.0018325958,0.023823744,232.94272,-85.00549,1.4030745,STD
20912499021000,0.404958,0.248861909858016,9.85350493726917,0.331652836534611,-0.03359759,0.0021380284,0.022602014,232.96213,-85.02809,1.4204763,STD
20912504058000,0.409995,0.253442425392493,9.8542281660178,0.331893916140595,-0.03268129,0.00061086525,0.0290161,232.98288,-85.04614,1.4405464,STD
20912509024000,0.414961,0.257958375391343,9.85494120035683,0.332131597562733,-0.04550946,-0.00030543262,0.026572637,233.00357,-85.06402,1.4573182,STD
20912514024000,0.419961,0.262505244097395,9.85565911652582,0.332370906284178,-0.040011674,-0.0009162979,0.028099801,233.02432,-85.08581,1.4766352,STD
20912519048000,0.424985,0.267073937773235,9.85638047869241,0.332611363687485,-0.036651913,0.0076358155,0.028405234,233.04272,-85.10344,1.4942937,STD
20912524132000,0.430069,0.271697193873549,9.85711045585303,0.33285469279545,-0.033292156,0.010995574,0.029932396,233.06265,-85.12193,1.5124478,STD
20912529080000,0.435017,0.276196775145058,9.85782090569385,0.333091512706192,-0.046120327,0.020463986,0.0290161,233.0784,-85.1367,1.5292372,STD
20912534029000,0.439966,0.280697265790308,9.85853149911791,0.333328380478677,-0.048563786,0.021685716,0.03268129,233.0954,-85.15421,1.547465,STD
20912539097000,0.445034,0.285305971910761,9.85925917894679,0.333570943798734,-0.04337143,0.030543262,0.029626964,233.10767,-85.17067,1.5626932,STD
20912544266000,0.450203,0.290006524779078,9.86000136068228,0.333818341154963,-0.04520403,0.038789943,0.032986723,233.11957,-85.18333,1.5803423,STD
20912549034000,0.454971,0.294342418777169,9.86068596554102,0.334046545951733,-0.048563786,0.058643065,0.030543262,233.12585,-85.19746,1.5945886,STD
20912554104000,0.460041,0.298952943645105,9.86141393253637,0.334289204995277,-0.050701816,0.06658431,0.028099801,233.1332,-85.21078,1.6094452,STD
20912559045000,0.464982,0.303446159300425,9.86212337729456,0.334525689873809,-0.05222898,0.07971791,0.025961773,233.13359,-85.22324,1.6227008,STD
20912564043000,0.46998,0.307991209258995,9.86284100629707,0.334764902871765,-0.05681047,0.07941248,0.029321533,233.13567,-85.2337,1.6365446,STD
20912569073000,0.47501,0.312565359177283,9.86356322996307,0.335005647445538,-0.06627888,0.079107046,0.030848695,233.1343,-85.24251,1.6485825,STD
20912574077000,0.480014,0.313874601244057,9.8638267872026,0.337632471600823,-0.0693332,0.069027774,0.03634648,233.13586,-85.250824,1.6625252,STD
20912579050000,0.484987,0.304840309172313,9.86263806538473,0.347855485689041,-0.07452556,0.062308256,0.04550946,233.13663,-85.25534,1.6774658,STD
20912584062000,0.489999,0.295735167032038,9.86144002119587,0.358158672218329,-0.06872234,0.06047566,0.047647487,233.12996,-85.28809,1.686501,STD
20912589084000,0.495021,0.286611858207526,9.86023958665548,0.368482415783788,-0.076052725,0.06078109,0.050396383,233.12476,-85.313995,1.6981788,STD
20912594076000,0.500013,0.277543049435728,9.8590463231697,0.378744488240732,-0.07391469,0.07544186,0.05681047,233.11623,-85.3424,1.7109929,STD
20912599077000,0.505014,0.268457890648117,9.85785090836753,0.389025062030231,-0.074830994,0.07269296,0.0571159,233.113,-85.36752,1.7229341,STD
20912604022000,0.509959,0.25947446529224,9.85666887953395,0.399190516417168,-0.073303826,0.08460484,0.06414085,233.10156,-85.39161,1.7376565,STD
20912609003000,0.51494,0.250425639873104,9.85547824543485,0.409429976134324,-0.07147124,0.09285152,0.06566802,233.09248,-85.41525,1.7506945,STD
20912613985000,0.519922,0.241374997785545,9.8542873723006,0.419671491555096,-0.06383542,0.093462385,0.06841691,233.08247,-85.43912,1.7656134,STD
20912618949000,0.524886,0.232357055729615,9.8531008017991,0.42987600431076,-0.0720821,0.087964594,0.06780604,233.0724,-85.45868,1.7795401,STD
20912623971000,0.529908,0.223233746905103,9.85190036725871,0.440199747876219,-0.071776666,0.086437434,0.070249505,233.0614,-85.48102,1.7946233,STD
20912628966000,0.534903,0.214159488128034,9.85070638666746,0.450467987444015,-0.069027774,0.08460484,0.0729984,233.05254,-85.50113,1.8093376,STD
20912633965000,0.539902,0.20507796267727,9.8495114499356,0.46074444982628,-0.07147124,0.06414085,0.062308256,233.05008,-85.520546,1.8209139,STD
20912639005000,0.544942,0.195921953821128,9.84830671276245,0.471105196056848,-0.07696902,0.05222898,0.058948494,233.04591,-85.53804,1.8348085,STD
20912643965000,0.549902,0.186911278438893,9.84712109840157,0.481301485998043,-0.073303826,0.03726278,0.0571159,233.04892,-85.55773,1.8462583,STD
20912648958000,0.554895,0.177840652998672,9.84592759588063,0.491565614158605,-0.077579886,0.03604105,0.05100725,233.05176,-85.57428,1.8552394,STD
20912654033000,0.55997,0.168621060747696,9.84471449247711,0.501998310015775,-0.07391469,0.037873644,0.04428773,233.05814,-85.593605,1.8635478,STD
20912659054000,0.564991,0.159499568591608,9.84351429697188,0.512319997877617,-0.07452556,0.040317107,0.036957346,233.0649,-85.61102,1.8697852,STD
20912664053000,0.56999,0.150418043140843,9.84231936024001,0.522596460259882,-0.07880162,0.043066,0.03756821,233.07108,-85.62773,1.8762398,STD
20912669023000,0.57496,0.14138920107437,9.8411313555276,0.532813307237248,-0.07727446,0.05681047,0.02687807,233.07384,-85.64752,1.8770787,STD
20912674054000,0.579991,0.132249542234043,9.83992876967083,0.543155552135262,-0.07788532,0.061391957,0.018325957,233.07843,-85.66483,1.8787855,STD
20912679047000,0.584984,0.123178916793822,9.83873526714989,0.553419680295824,-0.077579886,0.062002823,0.0125227375,233.08046,-85.68321,1.8780748,STD
20912684032000,0.589969,0.114122824700991,9.83754367691017,0.563667362827448,-0.06780604,0.06811147,0.013439035,233.07974,-85.70352,1.8767506,STD
20912689184000,0.595121,0.10476334898138,9.83631216779984,0.57425834786314,-0.07452556,0.06352998,0.014966198,233.08209,-85.71974,1.8742923,STD
20912694101000,0.600038,0.0958307903413704,9.83513683195056,0.584366242548796,-0.07971791,0.06414085,0.0067195175,233.08151,-85.739334,1.8692334,STD
20912699064000,0.605001,0.0868146649538643,9.83395050048422,0.594568699600843,-0.07452556,0.0729984,0.008857546,233.07973,-85.75782,1.8676342,STD
20912704092000,0.610029,0.0776804561188087,9.83274863173291,0.604904777388005,-0.053450707,0.0842994,0.008552114,233.07735,-85.77987,1.863107,STD
20912709100000,0.615037,0.0685825806522299,9.83155154368467,0.615199741102824,-0.04917465,0.09712757,0.014049901,233.07196,-85.79736,1.8608156,STD
20912714078000,0.620015,0.0595392052383662,9.83036162669103,0.625433033709128,-0.0421497,0.09162979,0.007330383,233.06903,-85.82184,1.8552411,STD
20912719079000,0.625016,0.0504540464507543,9.82916621188886,0.635713607498627,-0.0421497,0.094989546,0.015271631,233.0598,-85.84231,1.8551217,STD
20912724091000,0.630028,0.0413489043104801,9.8279681677,0.646016794027915,-0.034208454,0.0870483,0.018020526,233.05586,-85.86733,1.8520842,STD
20912729757000,0.635694,0.0310556610210162,9.82661379452082,0.657664410722836,-0.03940081,0.07788532,0.020463986,233.05145,-85.88728,1.8512794,STD
20912734054000,0.639991,0.0232494368037859,9.82558666046665,0.666497769165843,-0.033292156,0.059253927,0.024129177,233.05219,-85.91088,1.8519969,STD
20912739058000,0.644995,0.0141588280109025,9.82439052855902,0.676784510066193,-0.043982297,0.04337143,0.017715093,233.0551,-85.929184,1.8507121,STD
20912744061000,0.649998,0.00507003588644284,9.82319463568654,0.687069195262927,-0.032375857,0.03604105,0.016187929,233.06085,-85.95297,1.8520944,STD
20912749046000,0.654983,-0.00398605620638773,9.82200304544683,0.697316877794551,-0.030543262,0.03634648,0.016493361,233.06903,-85.97158,1.8524171,STD
20912754048000,0.659985,-0.0130730316624235,9.82080739160951,0.707599507287667,-0.032375857,0.022907447,0.020158553,233.08319,-85.99134,1.853777,STD
20912759063000,0.665,-0.0221836238079692,9.81960863031519,0.717908860927806,-0.03573562,0.01160644,0.015577064,233.09676,-86.011604,1.8529415,STD
20912764048000,0.669985,-0.0312397159007997,9.81841704007548,0.72815654345943,-0.030848695,0.023518313,0.021685716,233.10721,-86.03103,1.8561381,STD
20912769026000,0.674963,-0.0402830913146634,9.81722712308184,0.738389836065734,-0.02076942,0.0290161,0.013133603,233.1229,-86.05296,1.854288,STD
20912774019000,0.679956,-0.0470917592476736,9.81860378392474,0.741444993629205,-0.03176499,0.022602014,0.010995574,233.13828,-86.0686,1.856092,STD
20912779051000,0.684988,-0.0421638031417323,9.83338743869516,0.706949318897638,-0.029932396,0.012217305,0.009468411,233.15332,-86.09047,1.8557434,STD
20912784039000,0.689976,-0.0387503436108492,9.84584325126691,0.667546031194642,-0.03359759,0.0106901415,0.005497787,233.13109,-86.11001,1.8071749,STD
20912789170000,0.695107,-0.0409157067825321,9.85017406579121,0.606915844299123,-0.032070424,0.009162978,0.009162978,233.11182,-86.129196,1.7618704,STD
20912794148000,0.700085,-0.0430165015337769,9.8543757408452,0.548093573715243,-0.03145956,0.03604105,0.0067195175,233.08511,-86.16103,1.7097338,STD
20912799730000,0.705667,-0.045372193840215,9.85908722138986,0.482134169456661,-0.036651913,0.043066,0.0076358155,233.06456,-86.18923,1.6614457,STD
20912804022000,0.709959,-0.0471834857390385,9.86270987894946,0.431417981158948,-0.04062254,0.054367006,0.00030543262,233.03555,-86.217606,1.6109757,STD
20912809026000,0.714963,-0.0412843742433797,9.85091176166924,0.43160165464812,-0.04917465,0.06078109,-0.0030543262,233.00615,-86.24127,1.5632195,STD
20912814011000,0.719948,-0.0314460686462648,9.83123526553323,0.461116573494075,-0.03573562,0.074830994,-0.0021380284,232.97171,-86.268486,1.5156198,STD
20912819042000,0.724979,-0.0183713704685804,9.8292570862188,0.489981633485252,-0.033292156,0.06811147,-0.0015271631,232.94525,-86.33204,1.4547337,STD
20912824023000,0.72996,-0.00425415413041334,9.83396291999605,0.518216085816316,-0.03268129,0.07238753,-0.0036651916,232.91219,-86.396095,1.3947669,STD
20912829062000,0.734999,-0.0101577121974618,9.83876661886679,0.533496203417608,-0.046731193,0.052839845,-0.003970624,232.8833,-86.46439,1.3266436,STD
20912834055000,0.739992,-0.024492776358549,9.84354457110023,0.543052906205656,-0.030848695,0.047036625,-0.0036651916,232.84982,-86.53785,1.2598888,STD
20912839103000,0.74504,-0.0412552186782609,9.83556353913044,0.570927587547826,-0.03726278,0.044898596,0.0009162979,232.80984,-86.61294,1.186258,STD
20912844063000,0.75,-0.0586468764173913,9.82251998764302,0.60571088940595,-0.043066,0.0421497,-0.004276057,232.77249,-86.689735,1.1123662,STD
20912849055000,0.754992,-0.0776972314528908,9.81889194892934,0.641146702412206,-0.03268129,0.047647487,0.0027488936,232.72523,-86.77515,1.0359231,STD
20912854055000,0.759992,-0.0982043138940043,9.82401882259101,0.677034106052463,-0.028099801,0.046120327,0.005192355,232.68163,-86.85446,0.95931584,STD
20912859050000,0.764987,-0.127196075087649,9.81331767544826,0.714502879485125,-0.025961773,0.04428773,0.004886922,232.62738,-86.94018,0.87240756,STD
20912864062000,0.769999,-0.160852556273665,9.79408551237103,0.752967406460984,-0.02321288,0.05100725,0.013439035,232.5719,-87.021935,0.7913059,STD
20912869600000,0.775537,-0.17238252,9.80198201207323,0.795114703758041,-0.030543262,0.04795292,0.007941248,232.51688,-87.09348,0.70503163,STD
20912884091000,0.790028,-0.17238252,9.85691588015834,0.904983121098466,-0.025045475,0.05222898,0.015271631,232.3252,-87.314964,0.42892104,STD
20912889054000,0.794991,-0.18403165780633,9.85828631401925,0.939759440400833,-0.02443461,0.04062254,0.0125227375,232.26276,-87.37917,0.33261672,STD
20912894034000,0.799971,-0.202959131305685,9.84882238704236,0.972882517789463,-0.03848451,0.03573562,0.01740966,232.19734,-87.43337,0.24119689,STD
20912899083000,0.80502,-0.216532928604675,9.84203565627846,0.983489512223009,-0.03970624,0.034513887,0.021380283,232.12509,-87.48741,0.1460518,STD
20912903956000,0.809893,-0.225976978137205,9.83731402843266,0.978767489922089,-0.041233405,0.03390302,0.02565634,232.05496,-87.53241,0.054706406,STD
20912908969000,0.814906,-0.221486728585197,9.8298097999229,0.971263216268311,-0.037873644,0.03145956,0.016493361,231.9802,-87.56775,-0.03827126,STD
20912913963000,0.8199,-0.207658691048574,9.82059092212799,0.962044530994603,-0.047036625,0.03634648,0.018325957,231.90433,-87.59459,-0.12489011,STD
20912918957000,0.824894,-0.190882639253656,9.81239069313566,0.955123119806052,-0.05222898,0.040317107,0.017104227,231.82977,-87.618256,-0.21207444,STD
20912923971000,0.829908,-0.171378940416328,9.80507691267262,0.950247185550366,-0.049480084,0.03268129,0.010995574,231.75815,-87.63723,-0.29804692,STD
20912928959000,0.834896,-0.151976377632007,9.79780105767669,0.945396535357433,-0.043982297,0.03023783,0.013439035,231.68645,-87.65376,-0.37754318,STD
20912933941000,0.839878,-0.13259715393684,9.79053395471162,0.940551719948213,-0.051923547,0.03176499,0.0106901415,231.61682,-87.66302,-0.45829695,STD
20912938990000,0.844927,-0.121680440285629,9.79031481136566,0.944163158256471,-0.04917465,0.02443461,0.014049901,231.54945,-87.67688,-0.53818583,STD
20912943966000,0.849903,-0.116954247033621,9.7950406048795,0.953615559565606,-0.041233405,0.023823744,0.011911872,231.48071,-87.68561,-0.6185539,STD
20912948963000,0.8549,-0.109761672370391,9.80481316661952,0.921560639049505,-0.04550946,0.025045475,0.013439035,231.41792,-87.691956,-0.6882229,STD
20912954037000,0.859974,-0.100597556615182,9.81855961584158,0.857411815366337,-0.04917465,0.024740042,0.006414085,231.35667,-87.69664,-0.7591909,STD
20912959048000,0.864985,-0.09016889544281,9.825804,0.819126029317022,-0.046120327,0.022907447,0.014660766,231.29555,-87.69871,-0.82044137,STD
20912964054000,0.869991,-0.0781751265950165,9.825804,0.809531023155709,-0.03726278,0.030848695,0.01160644,231.2327,-87.697105,-0.88540524,STD
20912969011000,0.874948,-0.066298755804263,9.825804,0.800029935352747,-0.045814894,0.02565634,0.013439035,231.17879,-87.703606,-0.9429486,STD
20912974031000,0.879968,-0.0542714446544581,9.825804,0.790408095374762,-0.04062254,0.02687807,0.015577064,231.12163,-87.713066,-0.99983853,STD
20912979037000,0.884974,-0.0545043360354505,9.83242420679468,0.780884621225997,-0.03390302,0.03390302,0.025961773,231.06497,-87.71958,-1.0523179,STD
20912984037000,0.889974,-0.0686502848291482,9.84656994780896,0.771453961452486,-0.048563786,0.027183503,0.017715093,231.01291,-87.717575,-1.1079105,STD
20912989055000,0.894992,-0.0796866376946898,9.85146186185807,0.768192628094845,-0.043066,0.03023783,0.01740966,230.9538,-87.73067,-1.1478386,STD
20912994056000,0.899993,-0.0866607596452772,9.84448784331618,0.772842055513057,-0.04184427,0.017104227,0.021991149,230.90222,-87.73678,-1.1873441,STD
20912999001000,0.904938,-0.0935567870489273,9.83759191816328,0.77743941975682,-0.053145275,0.012217305,0.026572637,230.84766,-87.73994,-1.2282032,STD
20913004049000,0.909986,-0.100596452637123,9.83055235695563,0.782132543053587,-0.04795292,0.008246681,0.018936822,230.79752,-87.744385,-1.2699555,STD
20913008992000,0.914929,-0.108062430939114,9.82444519686347,0.778504286267528,-0.030848695,-0.0018325958,0.023518313,230.75125,-87.75007,-1.3057035,STD
20913014047000,0.919984,-0.116994303499078,9.81997916964945,0.756174583882841,-0.04550946,-0.007941248,0.024740042,230.7059,-87.74639,-1.3434762,STD
20913019013000,0.92495,-0.12223320035267,9.81924736769382,0.738169195865775,-0.03756821,-0.0027488936,0.023518313,230.66025,-87.7472,-1.3797067,STD
20913024025000,0.929962,-0.106442335662244,9.84030172496984,0.743432812665862,-0.034513887,-0.014966198,0.021991149,230.62195,-87.7427,-1.4145066,STD
20913029000000,0.934937,-0.0918304018408576,9.85404178227217,0.751420772177602,-0.04550946,-0.023518313,0.018325957,230.58336,-87.73701,-1.454363,STD
20913034062000,0.939999,-0.0792705745884448,9.85247177210312,0.765550585008744,-0.040317107,-0.02565634,0.0106901415,230.54707,-87.73329,-1.4945943,STD
20913039112000,0.945049,-0.066740521719088,9.85090548380724,0.779646901641946,-0.041233405,-0.027488936,0.016798794,230.51453,-87.727806,-1.5283335,STD
20913044141000,0.950078,-0.054262574020079,9.84934570878943,0.793684599928752,-0.041233405,-0.034513887,0.013133603,230.4847,-87.71946,-1.5658927,STD
20913049030000,0.954967,-0.0421319941233888,9.84782935562536,0.807331509239588,-0.042455133,-0.03023783,0.018020526,230.44833,-87.71482,-1.6002294,STD
20913054862000,0.960799,-0.0276616439582227,9.8460205252607,0.823610661438565,-0.044593163,-0.036957346,0.00580322,230.41776,-87.70495,-1.6393238,STD
20913059052000,0.964989,-0.016340548236418,9.84566028061372,0.833885465926855,-0.040317107,-0.03726278,0.008552114,230.39064,-87.695946,-1.6726655,STD
20913064047000,0.969984,0.00212366134188941,9.85027642603493,0.838501514947409,-0.036651913,-0.030543262,0.0033597588,230.36389,-87.68174,-1.7106628,STD
20913069031000,0.974968,0.0188111634414303,9.85282174845869,0.841389197336622,-0.043982297,-0.022602014,0.013133603,230.33794,-87.66871,-1.7367494,STD
20913074088000,0.980025,0.0142176025006165,9.82985396054254,0.823014947817509,-0.039095376,-0.025350908,0.0143553335,230.3135,-87.65571,-1.7658832,STD
20913079414000,0.985351,0.00935846626465644,9.80643166626392,0.804124249592351,-0.036651913,-0.015882496,0.01863139,230.28526,-87.64567,-1.785376,STD
20913084061000,0.989998,0.00468275475709183,9.80175610464383,0.797110697222105,-0.030848695,-0.013133603,0.016798794,230.26012,-87.636086,-1.8056033,STD
20913089121000,0.995058,-0.000408508472578274,9.79666500462282,0.789473818592141,-0.029932396,-0.0076358155,0.016493361,230.2323,-87.628845,-1.8243307,STD
20913094146000,1.000083,-0.00546455545461231,9.79160911972053,0.781889764221475,-0.028710667,-0.0070249503,0.015577064,230.20555,-87.62203,-1.8431782,STD
20913099036000,1.004973,-0.009576807,9.78859920199704,0.7757214,-0.0290161,-0.010079277,0.012217305,230.1803,-87.61425,-1.859866,STD
20913104043000,1.00998,-0.009576807,9.79547183636711,0.7757214,-0.016187929,-0.008246681,0.015271631,230.15385,-87.610176,-1.8745621,STD
20913109079000,1.015016,-0.009576807,9.80238427628876,0.7757214,-0.021380283,-0.011301007,0.012217305,230.13013,-87.60107,-1.8927745,STD
20913114045000,1.019982,-0.009576807,9.80920063384454,0.7757214,-0.025961773,-0.008246681,0.014049901,230.10448,-87.595955,-1.9082654,STD
20913119371000,1.025308,-0.00999188215609297,9.81684960364322,0.776759086319096,-0.026572637,-0.013439035,0.009773844,230.08287,-87.587906,-1.927004,STD
20913124806000,1.030743,-0.0208901114960218,9.83319670896147,0.804004618417085,-0.026267206,-0.007941248,0.01740966,230.05762,-87.582275,-1.9413795,STD
20913129088000,1.035025,-0.0277757547410732,9.84479789421853,0.823684915715147,-0.03145956,-0.005497787,0.0143553335,230.03525,-87.57227,-1.9593635,STD
20913134066000,1.040003,-0.0150006911417789,9.84266878513209,0.824749508053862,-0.032070424,0.004276057,0.022296581,230.00949,-87.567345,-1.9716414,STD
20913139144000,1.045081,-0.00196899709653648,9.84049690567428,0.825835486337509,-0.04153884,-0.0070249503,0.02443461,229.99364,-87.55148,-1.9877447,STD
20913144078000,1.050015,0.0106931491065407,9.83838661555124,0.826890668860454,-0.038179077,-0.009773844,0.024740042,229.97278,-87.53927,-2.0018113,STD
20913148987000,1.054924,0.0232911376981309,9.83628701802104,0.827940504897166,-0.040317107,-0.011911872,0.025961773,229.9552,-87.525505,-2.0145388,STD
20913154042000,1.059979,0.0362638067408053,9.83412497574864,0.829021564413479,-0.03940081,-0.013744468,0.028710667,229.9385,-87.51348,-2.0263348,STD
20913159035000,1.064972,0.0490773649069918,9.8319894511065,0.830089364643934,-0.05497787,-0.021380283,0.023823744,229.92436,-87.497086,-2.0395582,STD
20913164043000,1.06998,0.0619294176400706,9.82984751090864,0.831160372766128,-0.048258353,-0.027488936,0.021380283,229.91043,-87.48598,-2.0509477,STD
20913169038000,1.074975,0.0747481084151761,9.82771113085907,0.832228600715482,-0.045814894,-0.024129177,0.022296581,229.89612,-87.47152,-2.0624435,STD
20913174184000,1.080121,0.0847982333146305,9.82510747247512,0.832485684111793,-0.051618114,-0.014966198,0.018936822,229.89339,-87.44692,-2.0857995,STD
20913179084000,1.085021,0.0748625262428541,9.82013951778531,0.827517812420072,-0.044593163,-0.0125227375,0.018020526,229.89143,-87.42623,-2.1074345,STD
20913184080000,1.090017,0.067980323893862,9.81716969318674,0.82172001299974,-0.034513887,-0.0027488936,0.016493361,229.89333,-87.41028,-2.1189106,STD
20913189119000,1.095056,0.0721581020391308,9.8213475568349,0.813364460199117,-0.03970624,-0.0030543262,0.014660766,229.89719,-87.393166,-2.130251,STD
20913194379000,1.100316,0.0765191087952558,9.82570865284391,0.804642450329842,-0.038789943,-0.0012217305,0.01985312,229.89551,-87.37917,-2.1443825,STD
20913199052000,1.104989,0.0961560696808058,9.83557449513151,0.789795578592054,-0.03268129,0.009468411,0.016493361,229.89136,-87.363205,-2.1609948,STD
20913204046000,1.109983,0.113763641678393,9.84264093738364,0.773984337922587,-0.03848451,0.004581489,0.019242255,229.8936,-87.35029,-2.170424,STD
20913209097000,1.115034,0.104283493278981,9.82368075541401,0.759764077707006,-0.03145956,0.008552114,0.014049901,229.89027,-87.33817,-2.182821,STD
20913214031000,1.119968,0.0950356441223271,9.80701621739549,0.74772331949528,-0.025350908,0.00580322,0.01282817,229.89206,-87.33118,-2.1894922,STD
20913219068000,1.125005,0.0857429516189559,9.81166265825467,0.757016007146985,-0.020463986,0.0067195175,0.018325957,229.89157,-87.32573,-2.1954453,STD
20913224429000,1.130366,0.0738324455382838,9.81662443780145,0.767336791409767,-0.022602014,0.01985312,0.018020526,229.88312,-87.32142,-2.2037897,STD
20913229173000,1.13511,0.0418763967673834,9.82118967976286,0.781032264649317,-0.040317107,0.021685716,0.01985312,229.87767,-87.31722,-2.209562,STD
20913234348000,1.140285,0.00922190289818607,9.82615891125415,0.796294586481373,-0.03726278,0.028405234,0.021991149,229.86617,-87.31375,-2.2168574,STD
20913239103000,1.14504,0.00478093183469865,9.83059997181588,0.814058471662766,-0.03268129,0.040011674,0.025350908,229.85284,-87.30852,-2.2230651,STD
20913244430000,1.150367,-0.000194111854999026,9.83557509549795,0.833958646852465,-0.03023783,0.040011674,0.022602014,229.84122,-87.293625,-2.2399604,STD
20913249073000,1.15501,-0.004527099079809,9.83990771759891,0.85129058308322,-0.040317107,0.029321533,0.02443461,229.82945,-87.27959,-2.2541254,STD
20913254054000,1.159991,-0.0091755180689924,9.84455574488404,0.86988424544923,-0.03848451,0.018936822,0.025045475,229.8165,-87.26454,-2.2699394,STD
20913259089000,1.165026,-0.02480962869323,9.85366164521859,0.869313284140926,-0.034208454,0.016187929,0.022296581,229.80452,-87.24825,-2.2857125,STD
20913264295000,1.170232,-0.0420304907420803,9.86350233642554,0.866853162715879,-0.040011674,0.005497787,0.016187929,229.7979,-87.23036,-2.3016722,STD
20913269059000,1.174996,-0.0577892665393763,9.87250753291227,0.864601910608902,-0.030543262,0.015271631,0.017715093,229.78918,-87.21255,-2.3171515,STD
20913273994000,1.179931,-0.0741136910901016,9.8818359637817,0.862269851593803,-0.04153884,0.007941248,0.016187929,229.78839,-87.18894,-2.3344839,STD
20913279078000,1.185015,-0.080769683277193,9.87703202917293,0.86606782710777,-0.031154128,0.012217305,0.013133603,229.78143,-87.170746,-2.3514576,STD
20913284061000,1.189998,-0.0855537654140351,9.86985575984962,0.870851906746867,-0.044898596,0.011911872,0.01985312,229.77771,-87.149445,-2.3654644,STD
20913289108000,1.195045,-0.0903992927157895,9.86258732090226,0.875697431518797,-0.03970624,0.011911872,0.01160644,229.76782,-87.12822,-2.384629,STD
20913293985000,1.199922,-0.0950816062982456,9.8555637075188,0.880379742656642,-0.0421497,0.016798794,0.014966198,229.75647,-87.1084,-2.3981647,STD
20913299043000,1.20498,-0.0835840792326921,9.84641160189435,0.844514250787032,-0.03573562,0.019547688,0.011911872,229.74693,-87.086006,-2.4190357,STD
20913304011000,1.209948,-0.0696467003876575,9.83712031159066,0.802702120073235,-0.033292156,0.00061086525,0.013133603,229.74217,-87.06492,-2.4370267,STD
20913309089000,1.215026,-0.0571040175254814,9.84134109202301,0.788914780474619,-0.03756821,-0.0030543262,0.006414085,229.73128,-87.0392,-2.4594846,STD
20913313976000,1.219913,-0.0454006274813703,9.84836302300575,0.781892734618655,-0.03359759,0.0033597588,0.007941248,229.72278,-87.018,-2.478547,STD
20913319009000,1.224946,-0.0333475965642411,9.85559473543386,0.774660903885471,-0.036651913,-0.007941248,0.0106901415,229.72548,-86.999855,-2.4954832,STD
20913324023000,1.22996,-0.0213400668566142,9.86279914753688,0.767456373923981,-0.03176499,-0.002443461,0.008857546,229.72147,-86.98332,-2.5129182,STD
20913329045000,1.234982,-0.0172181870885796,9.8602400681684,0.779692498686799,-0.03726278,0.004276057,0.010995574,229.72015,-86.966736,-2.527807,STD
20913334049000,1.239986,-0.0148611960287724,9.85552599104859,0.796191448657289,-0.03023783,0.009162978,0.012217305,229.71771,-86.95267,-2.542973,STD
20913339103000,1.24504,-0.0124806538992229,9.85076481084005,0.812855256241393,-0.028405234,0.004886922,0.014966198,229.71179,-86.948006,-2.5467896,STD
20913344060000,1.249997,-0.0101458008449734,9.84609501062365,0.829199240055086,-0.028405234,0.008552114,0.02443461,229.70224,-86.94614,-2.5482717,STD
20913349076000,1.255013,-0.00596856706173939,9.8287199698229,0.845811041856139,-0.03634648,0.013133603,0.01740966,229.69385,-86.94007,-2.5535173,STD
20913354073000,1.26001,-0.00123369968477293,9.80741313164144,0.862383080394776,-0.039095376,0.008857546,0.0143553335,229.68697,-86.938034,-2.554801,STD
20913359091000,1.265028,0.003521066074206,9.78601675101415,0.879024763281884,-0.04520403,0.013744468,0.016187929,229.67477,-86.930786,-2.556631,STD
20913364080000,1.270017,0.00824835311516771,9.76474402424062,0.89557027064015,-0.03359759,-0.005192355,0.008857546,229.67082,-86.92313,-2.5616155,STD
20913369058000,1.274995,0.00282869629418719,9.75539187665025,0.879975521540887,-0.04153884,-0.00061086525,0.010995574,229.65872,-86.914215,-2.5635338,STD
20913374075000,1.280012,-0.00663866148295567,9.75065810236453,0.851573439312315,-0.058948494,-0.007941248,0.01863139,229.65549,-86.90536,-2.56554,STD
20913379078000,1.285015,-0.0127635274443801,9.75556256933179,0.817265221803785,-0.055588737,-0.0106901415,0.021380283,229.65207,-86.893555,-2.5683367,STD
20913384079000,1.290016,-0.0173882485535921,9.76481219795288,0.780267431682117,-0.04642576,-0.013133603,0.021991149,229.65048,-86.88145,-2.569451,STD
20913389088000,1.295025,-0.0373858150235414,9.78049772876151,0.744873613613101,-0.040317107,-0.019242255,0.02687807,229.65446,-86.87099,-2.5715106,STD
20913394128000,1.300065,-0.0670278450747185,9.80025896519959,0.710291269293756,-0.034513887,-0.017715093,0.022907447,229.65686,-86.8603,-2.5758572,STD
20913399045000,1.304982,-0.0644814943595105,9.8248494899788,0.720339564405473,-0.038789943,-0.01985312,0.025350908,229.66367,-86.85536,-2.5768487,STD
20913404028000,1.309965,-0.0460882671345153,9.85243940740027,0.752527689362112,-0.027488936,-0.022602014,0.029932396,229.67009,-86.8537,-2.5781922,STD
20913409049000,1.314986,-0.0326127511203307,9.87265258909981,0.780380697875076,-0.02687807,-0.016798794,0.028710667,229.67491,-86.84874,-2.5843115,STD
20913414047000,1.319984,-0.0228424145440906,9.88730787997551,0.80480655334354,-0.027794369,-0.020158553,0.025961773,229.683,-86.84625,-2.5891643,STD
20913419028000,1.324965,-0.024247852684948,9.88519975354595,0.819122805866071,-0.036651913,-0.014660766,0.0290161,229.68536,-86.844185,-2.587771,STD
20913424062000,1.329999,-0.0325362811077108,9.87276729244391,0.827411245972664,-0.03023783,-0.00580322,0.03481932,229.68762,-86.8446,-2.5862546,STD
20913429048000,1.334985,-0.0378305271321884,9.85982071428091,0.833658899519376,-0.034208454,-0.00030543262,0.025961773,229.69229,-86.83616,-2.5877554,STD
20913434083000,1.34002,-0.0362098763324371,9.84523490158976,0.835279549134541,-0.038789943,-0.00030543262,0.026267206,229.69576,-86.83228,-2.5850103,STD
20913439085000,1.345022,-0.0345998474743723,9.83074468608208,0.836889576815783,-0.04642576,-0.024740042,0.017715093,229.70363,-86.820755,-2.5888526,STD
20913444100000,1.350037,-0.0329856342150371,9.81621681107787,0.838503788895237,-0.0421497,-0.023518313,0.022907447,229.7039,-86.81394,-2.5888155,STD
20913449647000,1.355584,-0.0312001823806339,9.80014779360065,0.840289239424596,-0.052839845,-0.021991149,0.02443461,229.70924,-86.80049,-2.5952148,STD
20913454044000,1.359981,-0.029784889120156,9.78741019312338,0.84170453165059,-0.055588737,-0.027794369,0.02107485,229.71616,-86.78946,-2.6012282,STD
20913458999000,1.364936,-0.0256544834885701,9.77945799933046,0.84122103278814,-0.051923547,-0.032375857,0.019547688,229.72243,-86.778854,-2.6054726,STD
20913464047000,1.369984,-0.0164065218985175,9.78408207355332,0.836597055131516,-0.058337633,-0.021685716,0.021685716,229.72575,-86.7665,-2.6095133,STD
20913468990000,1.374927,-0.00710845305324565,9.78502859630887,0.834416376071277,-0.05681047,-0.027488936,0.02076942,229.73474,-86.75511,-2.6140125,STD
20913474044000,1.379981,0.00315908673843869,9.77476084959694,0.83955014221468,-0.048563786,-0.023823744,0.01985312,229.73773,-86.74458,-2.6179216,STD
20913478979000,1.384916,0.00791339289418093,9.77666006444988,0.837768754382396,-0.052839845,-0.02107485,0.013744468,229.7422,-86.734604,-2.618137,STD
20913484078000,1.390015,0.00313763358924205,9.80053884352078,0.823441466992665,-0.047647487,-0.028405234,0.0125227375,229.7483,-86.72874,-2.617123,STD
20913489038000,1.394975,0.00300939960329853,9.81773173016493,0.810266808433688,-0.048258353,-0.007941248,0.018936822,229.73811,-86.72631,-2.612985,STD
20913494059000,1.399996,0.0123946141425295,9.82242443212648,0.798535283828438,-0.04795292,-0.014966198,0.013439035,229.73799,-86.722,-2.6122775,STD
20913499002000,1.404939,0.0216340316823461,9.8270442341173,0.786986005572363,-0.035124753,-0.015577064,0.01740966,229.73459,-86.72334,-2.605859,STD
20913504041000,1.409978,0.0310528916829804,9.83175375914902,0.775212424117303,-0.03145956,-0.009773844,0.022907447,229.73138,-86.72228,-2.6006455,STD
20913509024000,1.414961,0.0372878469831933,9.83741969467787,0.761047603641457,-0.032375857,-0.01038471,0.014660766,229.72945,-86.72135,-2.596384,STD
20913514047000,1.419984,0.0326414351643002,9.8467122204192,0.737815561528059,-0.027183503,-0.00580322,0.018020526,229.72427,-86.72588,-2.5875301,STD
20913519051000,1.424988,0.0279997182799272,9.85489935824197,0.720087253060322,-0.025350908,-0.0061086523,0.02107485,229.72313,-86.73307,-2.5777001,STD
20913524073000,1.43001,0.0232708728698687,9.85726382872032,0.731909358561526,-0.03145956,-0.0027488936,0.015271631,229.71977,-86.738304,-2.5697432,STD
20913529044000,1.434981,0.0185900503821346,9.85960428725235,0.743611406838405,-0.042455133,-0.0015271631,0.014049901,229.7237,-86.743324,-2.562908,STD
20913534046000,1.439983,0.0138800374906347,9.86195934128116,0.755386431075168,-0.025961773,0.004276057,0.016798794,229.72533,-86.75163,-2.5567307,STD
20913539170000,1.445107,0.0112233005016034,9.86246453056791,0.769437488149374,-0.02107485,0.02321288,0.017104227,229.72285,-86.7551,-2.5517998,STD
20913544116000,1.450053,0.0259228616188062,9.84776518433847,0.79883662061653,-0.027183503,0.027183503,0.014049901,229.72304,-86.75926,-2.547012,STD
20913549032000,1.454969,0.0411500005086694,9.83751304894481,0.822183974247498,-0.032375857,0.027183503,0.014966198,229.71243,-86.76507,-2.5375345,STD
20913554046000,1.459983,0.0601802626881997,9.85178553680769,0.812668849864262,-0.035430185,0.017715093,0.014966198,229.70369,-86.76903,-2.5293934,STD
20913559036000,1.464973,0.0729843061680865,9.86108587891261,0.806871859396956,-0.03726278,0.011911872,0.015577064,229.6934,-86.77073,-2.5197039,STD
20913564032000,1.469969,0.0455051871252991,9.8381866289844,0.82519127846846,-0.037873644,0.028099801,0.021685716,229.67961,-86.77315,-2.508859,STD
20913569201000,1.475138,0.0181056453482582,9.81657632992377,0.843108322628582,-0.043066,0.025350908,0.01740966,229.67477,-86.775826,-2.4976654,STD
20913574079000,1.480016,0.00458185941387629,9.82108434941619,0.847616247978385,-0.043982297,0.025045475,0.015882496,229.6647,-86.78082,-2.484546,STD
20913579394000,1.485331,-0.00995978718745494,9.8257082530161,0.852910270506128,-0.051923547,0.02687807,0.013133603,229.65097,-86.77688,-2.476916,STD
20913584014000,1.489951,-0.0184663663511175,9.82358156520067,0.865670144248017,-0.046731193,0.029932396,0.0106901415,229.63718,-86.77476,-2.4699328,STD
20913589649000,1.495586,-0.0288418151795242,9.8209876505167,0.881233323584715,-0.051618114,0.031154128,0.015577064,229.62245,-86.76788,-2.4641337,STD
20913594042000,1.499979,-0.0369304303886085,9.81896545580389,0.893366251149243,-0.054061573,0.019242255,0.011301007,229.61092,-86.75983,-2.4617324,STD
20913599015000,1.504952,-0.0460869711204037,9.81667627430906,0.90710106762509,-0.04642576,0.0125227375,0.010995574,229.59764,-86.754616,-2.457087,STD
20913604038000,1.509975,-0.0402546355665354,9.82004177549213,0.875464357726378,-0.047036625,0.02107485,0.018325957,229.58347,-86.74815,-2.4516742,STD
20913609046000,1.514983,-0.0308135638248031,9.82476240698819,0.832979512214567,-0.04734206,0.014966198,0.015577064,229.57564,-86.74095,-2.4491515,STD
20913614053000,1.51999,-0.0388895589977345,9.822417551971,0.816832605382873,-0.040011674,0.004886922,0.015271631,229.55452,-86.73574,-2.4481156,STD
20913619026000,1.524963,-0.0518371238966923,9.81810160987766,0.808200901458994,-0.036957346,0.008857546,0.012217305,229.53151,-86.72845,-2.448837,STD
20913624016000,1.529953,-0.0560594766783868,9.8204310279214,0.810057214457084,-0.035430185,0.01740966,0.021685716,229.51286,-86.73145,-2.44366,STD
20913629046000,1.534983,-0.0535687143081696,9.82790320475698,0.820020266018614,-0.027183503,0.02321288,0.012217305,229.4944,-86.73145,-2.44486,STD
20913634033000,1.53997,-0.0510992447375388,9.83531150413651,0.829898146364012,-0.03573562,0.027488936,0.011911872,229.47675,-86.72989,-2.4441714,STD
20913639173000,1.54511,-0.0485540124148914,9.84294708841779,0.840079077780765,-0.033292156,0.01740966,0.01038471,229.46198,-86.729546,-2.4464052,STD
20913644114000,1.550051,-0.0548588804100274,9.83798237663656,0.832296722650969,-0.03176499,0.021380283,0.013744468,229.44435,-86.72675,-2.4498746,STD
20913649038000,1.554975,-0.0644308295658175,9.82841073632396,0.817938792420583,-0.03268129,0.01985312,0.008246681,229.43155,-86.721695,-2.456,STD
20913654038000,1.559975,-0.0378255496872916,9.82255814570211,0.836749079151538,-0.020158553,0.02443461,-0.0009162979,229.41548,-86.71776,-2.4617648,STD
20913659121000,1.565058,0.00275523902260096,9.81804907836236,0.868311910211189,-0.01740966,0.03023783,0.004581489,229.39963,-86.713776,-2.4647746,STD
20913664043000,1.56998,0.0163055963231024,9.82761900290336,0.875370168809622,-0.03268129,0.025045475,0.0018325958,229.39165,-86.70247,-2.4751797,STD
20913669026000,1.574963,0.0113573145643924,9.8474120121319,0.865473612525923,-0.0290161,0.01740966,0.0027488936,229.38275,-86.697296,-2.4827256,STD
20913674128000,1.580065,0.00642454853357207,9.8639909659803,0.852455831512981,-0.021685716,0.008857546,-0.0012217305,229.3747,-86.68997,-2.4897246,STD
20913679047000,1.584984,0.00173855294688153,9.87804923604894,0.83839785502835,-0.018325957,0.016493361,-0.004276057,229.36424,-86.68309,-2.4960897,STD
20913684041000,1.589978,-0.00289920723949178,9.87746646866641,0.830282982770348,-0.022296581,0.021380283,-0.00061086525,229.35818,-86.67752,-2.5005815,STD
20913689129000,1.595066,-0.00755404044698128,9.86815661463508,0.825628133523118,-0.040317107,0.025961773,0.00030543262,229.35017,-86.668785,-2.50656,STD
20913694080000,1.600017,0.000874953626338064,9.85888515085885,0.826218303669405,-0.040927973,0.026267206,0.0033597588,229.33952,-86.66713,-2.5090044,STD
20913699045000,1.604982,0.0198140016226039,9.84941568334578,0.830953072033856,-0.0421497,0.026267206,0.0009162979,229.32787,-86.66101,-2.5127046,STD
20913704024000,1.609961,0.0388064527753547,9.83991951441374,0.835701191205377,-0.042760566,0.018936822,0.0036651916,229.31822,-86.656586,-2.5145931,STD
20913709054000,1.614991,0.0579934439981578,9.83032607602689,0.840497945459796,-0.029321533,0.013439035,0.0009162979,229.30829,-86.65291,-2.5186694,STD
20913714044000,1.619981,0.0694947081579154,9.82088978311128,0.852587228526646,-0.044898596,0.01985312,0.0036651916,229.30177,-86.64276,-2.5222623,STD
20913719028000,1.624965,0.0741705301735894,9.81153794768809,0.871290508777429,-0.05009095,0.02443461,0.00580322,229.29741,-86.63652,-2.5265322,STD
20913724099000,1.630036,0.069332182373728,9.81150494542091,0.878638777983349,-0.051618114,0.01740966,0.005497787,229.29599,-86.63183,-2.5249066,STD
20913729050000,1.634987,0.054711530783431,9.82125224257375,0.873765231185117,-0.04642576,0.024740042,0.009162978,229.28911,-86.6288,-2.5217683,STD
20913734050000,1.639987,0.057846283244582,9.81584180804954,0.876470537585139,-0.05681047,0.028099801,0.014660766,229.28453,-86.62112,-2.5177844,STD
20913739156000,1.645093,0.0767701131756966,9.79691809075077,0.885932475274768,-0.051618114,0.03145956,0.016798794,229.27788,-86.6175,-2.51386,STD
20913744071000,1.650008,0.0802848849969679,9.78552816858702,0.884736676773802,-0.051618114,0.028099801,0.016187929,229.27122,-86.610115,-2.514238,STD
20913749039000,1.654976,0.0679195790487742,9.78140631672875,0.87237135360998,-0.053450707,0.02321288,0.023823744,229.26402,-86.60562,-2.5116618,STD
20913754036000,1.659973,0.0550476668462757,9.7811375451664,0.861108209508716,-0.044593163,0.013133603,0.022296581,229.2616,-86.60183,-2.5065634,STD
20913759054000,1.664991,0.0398158393174855,9.80144652836767,0.856030937200211,-0.04062254,0.0030543262,0.028099801,229.2604,-86.5999,-2.4973233,STD
20913763981000,1.669918,0.0257102793865941,9.81723373386099,0.856362657655206,-0.035430185,-0.0012217305,0.022296581,229.2606,-86.59705,-2.4939325,STD
20913769027000,1.674964,0.0137576287707148,9.82121803116497,0.872299539010636,-0.03756821,-0.0021380284,0.028710667,229.26245,-86.597336,-2.4854243,STD
20913775217000,1.681154,0.000185157418463407,9.825804,0.890272744273712,-0.036957346,0.0009162979,0.02687807,229.26825,-86.593124,-2.4827392,STD
20913779049000,1.684986,0.00204254806650471,9.825804,0.886557954056079,-0.050701816,-0.0009162979,0.028710667,229.27539,-86.58789,-2.477159,STD
20913784021000,1.689958,0.00445250273823261,9.825804,0.881738033136957,-0.047036625,-0.008857546,0.030543262,229.28151,-86.58179,-2.4746673,STD
20913789115000,1.695052,0.00692159145460067,9.825804,0.876799843844519,-0.040317107,-0.011911872,0.02107485,229.28665,-86.57186,-2.4749458,STD
20913794095000,1.700032,0.00933542376860006,9.825804,0.871972167622229,-0.03634648,-0.0012217305,0.022602014,229.28975,-86.564995,-2.4716454,STD
20913799049000,1.704986,0.009576807,9.81947269412986,0.860937435100143,-0.04886922,-0.005497787,0.028405234,229.29785,-86.55536,-2.469536,STD
20913804023000,1.70996,0.009576807,9.81240538816082,0.84915882796103,-0.05222898,-0.01282817,0.027488936,229.30368,-86.54747,-2.468957,STD
20913809026000,1.714963,0.009576807,9.80529687755304,0.837311547800801,-0.043066,-0.00580322,0.027794369,229.29471,-86.55036,-2.4597666,STD
20913813982000,1.719919,0.009576807,9.79825514687701,0.825575565295485,-0.044898596,-0.010079277,0.01863139,229.29129,-86.548164,-2.4535832,STD
20913819045000,1.724982,0.00555781568706606,9.80109207230708,0.815567383249355,-0.04550946,0.0021380284,0.025350908,229.28108,-86.55121,-2.4432895,STD
20913824078000,1.730015,0.000777011319777822,9.80587297302123,0.80600578150367,-0.053145275,0.0033597588,0.027488936,229.2755,-86.54958,-2.436894,STD
20913829007000,1.734944,-0.00394887197362086,9.82244539388165,0.808400629087262,-0.054367006,0.0018325958,0.020158553,229.27434,-86.547966,-2.434211,STD
20913834033000,1.73997,-0.00877665853149448,9.84175642517553,0.813228412116349,-0.04153884,0.0021380284,0.017715093,229.27222,-86.54906,-2.429668,STD
20913839025000,1.744962,-0.0135538352809286,9.83899154468298,0.821982619468797,-0.04428773,-0.0027488936,0.015882496,229.27094,-86.547485,-2.4222896,STD
20913844798000,1.750735,-0.0190742450587119,9.83071105092361,0.833023443059411,-0.050396383,-0.0036651916,0.0143553335,229.26854,-86.54731,-2.4157424,STD
20913849073000,1.75501,-0.0231621979081877,9.82457921118323,0.841199351746381,-0.056199603,0.006414085,0.02107485,229.26389,-86.54687,-2.408267,STD
20913853985000,1.759922,-0.0278592796383924,9.81753369146281,0.85059351864004,-0.058948494,-0.0015271631,0.018325957,229.26482,-86.54362,-2.4038181,STD
20913859058000,1.764995,-0.0247667498953858,9.82415450079554,0.848372132378679,-0.04642576,0.0030543262,0.016187929,229.25557,-86.545944,-2.3955379,STD
20913864021000,1.769958,-0.0200402494799125,9.83360769311854,0.843645634924423,-0.03970624,0.00061086525,0.012217305,229.25078,-86.545525,-2.3886404,STD
20913868974000,1.774911,-0.00758898697217774,9.82381613991193,0.835049238182546,-0.053450707,-0.015882496,0.02107485,229.24722,-86.54179,-2.377976,STD
20913873979000,1.779916,0.00680210160918735,9.80942476130905,0.825455166104884,-0.045814894,-0.017715093,0.02565634,229.24039,-86.54217,-2.3700511,STD
20913878985000,1.784922,0.00165948353702946,9.79873293033961,0.811729387619681,-0.048258353,-0.019547688,0.022907447,229.23886,-86.53917,-2.360874,STD
20913883950000,1.789887,-0.00806818560270049,9.78900557303601,0.797137899654255,-0.050701816,-0.0143553335,0.020158553,229.23582,-86.53855,-2.350775,STD
20913889012000,1.794949,-0.0218538841246515,9.79568145599363,0.790782613807248,-0.04550946,-0.013744468,0.018020526,229.23593,-86.54136,-2.3393016,STD
20913893960000,1.799897,-0.0360074203811231,9.80511684468339,0.78606477167264,-0.04642576,-0.0033597588,0.012217305,229.23186,-86.54101,-2.3301551,STD
20913898960000,1.804897,-0.0185964893175553,9.81059222710551,0.779384938424977,-0.052839845,-0.006414085,0.019242255,229.23463,-86.5416,-2.3176267,STD
20913904035000,1.809972,0.00524335666395252,9.81536029253936,0.772232972208761,-0.04642576,-0.0027488936,0.011301007,229.23279,-86.540695,-2.3114932,STD
20913909050000,1.814987,0.0288013522496199,9.82007198675627,0.765165561258155,-0.046731193,0.0036651916,0.014660766,229.23068,-86.53932,-2.301839,STD
20913914049000,1.819986,0.0522841877297297,9.82476864864865,0.758120698378378,-0.051923547,0.0067195175,0.018020526,229.2286,-86.53674,-2.2946296,STD
20913919037000,1.824974,0.0593125408488407,9.82950728181909,0.739902409762165,-0.05467244,0.003970624,0.01985312,229.22638,-86.534935,-2.2870934,STD
20913924060000,1.829997,0.061706028590407,9.83429410234849,0.718361042581351,-0.054367006,0.0143553335,0.02321288,229.2195,-86.533554,-2.2786171,STD
20913929044000,1.834981,0.0640809326126978,9.83904375664245,0.696986928699373,-0.06047566,0.021380283,0.02076942,229.21796,-86.53698,-2.2643206,STD
20913934054000,1.839991,0.0664682257811723,9.84381818842671,0.675501312618171,-0.06047566,0.02107485,0.022907447,229.21555,-86.54303,-2.24824,STD
20913939070000,1.845007,0.0740794996882517,9.83791537457904,0.698543884046955,-0.06291912,0.02321288,0.02443461,229.21507,-86.54376,-2.240246,STD
20913944057000,1.849994,0.0832702100769749,9.82872495689406,0.735306706408159,-0.05589417,0.032070424,0.02107485,229.21283,-86.546,-2.2332926,STD
20913949229000,1.855166,0.0827994745416667,9.81902029166667,0.750382683333333,-0.055283304,0.026267206,0.019547688,229.21698,-86.55329,-2.2231967,STD
20913954042000,1.859979,0.0782484114218009,9.80991798104265,0.754933743601896,-0.063224554,0.026572637,0.026572637,229.21687,-86.56098,-2.2119956,STD
20913959048000,1.864985,0.0720073547281088,9.80357869905097,0.750424905674591,-0.07147124,0.036651913,0.02321288,229.21791,-86.55996,-2.1997397,STD
20913964050000,1.869987,0.0649772416841796,9.79889210742589,0.74105142879366,-0.07360926,0.030543262,0.01740966,229.22339,-86.5593,-2.1863806,STD
20913969055000,1.874992,0.0579429122589766,9.79420270497016,0.731672330075335,-0.070554934,0.03268129,0.01985312,229.22292,-86.55751,-2.1731358,STD
20913974113000,1.88005,0.050834093431269,9.78946364450641,0.722193912229723,-0.06505715,0.032375857,0.0290161,229.22481,-86.55598,-2.1598144,STD
20913979083000,1.88502,0.0410318635370583,9.7861265386034,0.712778768892987,-0.06383542,0.04153884,0.023518313,229.22346,-86.55199,-2.150457,STD
20913984101000,1.890038,0.0290554854990779,9.78373121457409,0.703197672865474,-0.064446285,0.030848695,0.023823744,229.22769,-86.55143,-2.1369169,STD
20913989094000,1.895031,0.0171387745497682,9.78134782420376,0.693664310476998,-0.069027774,0.026267206,0.025045475,229.22371,-86.552635,-2.1237037,STD
20913994071000,1.900008,0.0052602505372078,9.77897207137517,0.684161497617505,-0.06811147,0.01985312,0.03023783,229.22333,-86.55555,-2.109461,STD
20913999045000,1.904982,-0.00746139728108007,9.79284283611476,0.672491907912995,-0.0720821,0.013744468,0.03176499,229.23067,-86.55192,-2.0957885,STD
20914004086000,1.910023,-0.0210400628745547,9.82000024292143,0.658913251771986,-0.06719518,0.0143553335,0.027183503,229.23778,-86.55036,-2.0827713,STD
20914009080000,1.915017,-0.0395403354328232,9.83970482765172,0.649060895873351,-0.062002823,0.023518313,0.028405234,229.24075,-86.55112,-2.0720172,STD
20914014082000,1.920019,-0.0648190624056992,9.84981599451187,0.644005101277045,-0.0720821,0.020158553,0.02687807,229.24715,-86.54824,-2.0633967,STD
20914019015000,1.924952,-0.0875776556998972,9.85575215802868,0.635555342140655,-0.057421334,0.029932396,0.0290161,229.24727,-86.553764,-2.0551732,STD
20914024064000,1.930001,-0.108875541572456,9.85811863740028,0.623723202266921,-0.06505715,0.027183503,0.036957346,229.25179,-86.5526,-2.0456696,STD
20914029035000,1.934972,-0.129844404846865,9.86044855796995,0.612073852432829,-0.062002823,0.017715093,0.043676864,229.25446,-86.55548,-2.039146,STD
20914034123000,1.94006,-0.151306802018499,9.86283331674252,0.600150317539275,-0.063224554,0.015882496,0.04520403,229.25569,-86.55606,-2.032069,STD
20914039103000,1.94504,-0.169233986369863,9.86518239954338,0.599118921369863,-0.0693332,0.014049901,0.05100725,229.26132,-86.557076,-2.0242195,STD
20914044088000,1.950025,-0.183450893137284,9.86755193225134,0.610966327593806,-0.06352998,0.020158553,0.05100725,229.26521,-86.559845,-2.0177886,STD
20914049026000,1.954963,-0.197533758857951,9.86989912432996,0.622702033097082,-0.07238753,0.015882496,0.05009095,229.27148,-86.55735,-2.0149844,STD
20914054084000,1.960021,-0.211958857038416,9.87230335631328,0.63472293192972,-0.06994407,0.005192355,0.052534413,229.27776,-86.55939,-2.0112445,STD
20914059008000,1.964945,-0.229705368324838,9.88312680846893,0.649197066486963,-0.067500606,-0.00061086525,0.057726767,229.2808,-86.561646,-2.008304,STD
20914064074000,1.970011,-0.253483117521074,9.9069045328367,0.66821929563811,-0.08246681,-0.01038471,0.054061573,229.28809,-86.55936,-2.00699,STD
20914068996000,1.974933,-0.281856538146341,9.91985872284719,0.700512209008462,-0.07880162,-0.011301007,0.056199603,229.28781,-86.55895,-2.0023785,STD
20914074090000,1.980027,-0.320709097365854,9.91500205405674,0.75879105290891,-0.08857546,-0.029626964,0.053145275,229.29535,-86.550606,-2.0000052,STD
20914078984000,1.984921,-0.343238926619654,9.90894270949721,0.796401081786794,-0.07849618,-0.028099801,0.054061573,229.2949,-86.54385,-2.0000174,STD
20914084079000,1.990016,-0.338770221060537,9.90000511173184,0.800869782679733,-0.0983493,-0.03634648,0.05009095,229.3024,-86.52685,-2.0018933,STD
20914089117000,1.995054,-0.333627683720215,9.8912804942352,0.798989813835511,-0.0983493,-0.04184427,0.047647487,229.30281,-86.50525,-2.0103834,STD
20914094099000,2.000036,-0.325478112036895,9.88313118635238,0.770466317198736,-0.10629055,-0.04337143,0.042760566,229.30424,-86.47675,-2.0204778,STD
20914099092000,2.005029,-0.317310546518063,9.8749638852165,0.741879842147066,-0.112399206,-0.058337633,0.03756821,229.31122,-86.447876,-2.02607,STD
20914104034000,2.009971,-0.299041672247613,9.87708665910641,0.730616923738063,-0.11728613,-0.058337633,0.03176499,229.31406,-86.41723,-2.033347,STD
20914109052000,2.014989,-0.278553778969986,9.88118432162346,0.722421769849932,-0.10720685,-0.059253927,0.026572637,229.32109,-86.38875,-2.0415554,STD
20914114052000,2.019989,-0.250281663993912,9.87560673149255,0.713155094281987,-0.10751228,-0.06841691,0.03359759,229.33246,-86.36418,-2.0451915,STD
20914119026000,2.024963,-0.214033667381237,9.86007156527883,0.702798533090553,-0.10842858,-0.06078109,0.023518313,229.3392,-86.338936,-2.055238,STD
20914124083000,2.03002,-0.172576585746547,9.8608755400746,0.714960419104748,-0.10903945,-0.051923547,0.02107485,229.34375,-86.32452,-2.0596514,STD
20914129049000,2.034986,-0.129424473924791,9.87046509184393,0.738933797872769,-0.10720685,-0.053145275,0.015271631,229.34895,-86.30872,-2.067665,STD
20914134642000,2.040579,-0.0819412310248659,9.85170097279376,0.783635856060458,-0.10170906,-0.032986723,0.01740966,229.34761,-86.29972,-2.069514,STD
20914139075000,2.045012,-0.0446827370628962,9.8268619076548,0.8250341970941,-0.10354166,-0.03359759,0.016493361,229.3525,-86.2883,-2.0734148,STD
20914144044000,2.049981,-0.00407675303155818,9.81912748984221,0.844209214635109,-0.10842858,-0.03604105,0.015271631,229.36095,-86.27456,-2.0726905,STD
20914149065000,2.055002,0.0362313100907298,9.82386971045365,0.846580275424063,-0.1020145,-0.028405234,0.018325957,229.36636,-86.263985,-2.0711386,STD
20914154022000,2.059959,0.0760255879033531,9.82855148451677,0.84892111357002,-0.098043874,-0.01160644,0.022602014,229.36896,-86.249504,-2.0656335,STD
20914159097000,2.065034,0.116767157380671,9.83334470690335,0.851317674714004,-0.10629055,-0.015577064,0.01282817,229.37526,-86.23223,-2.0632055,STD
20914164078000,2.070015,0.138428743418618,9.84626460286427,0.858865961718561,-0.087659165,-0.014049901,0.009162978,229.37491,-86.22425,-2.0583427,STD
20914169098000,2.075035,0.146164773847454,9.865604668839,0.870470001303403,-0.08246681,-0.0061086523,0.011911872,229.37375,-86.2109,-2.0545819,STD
20914174111000,2.080048,0.154602973565217,9.88280696956522,0.877860052,-0.08307768,0.0018325958,0.023518313,229.37929,-86.20841,-2.0423038,STD
20914179092000,2.085029,0.170556844470457,9.87748890523969,0.840634356923077,-0.0852157,0.003970624,0.013133603,229.38441,-86.2039,-2.0357718,STD
20914184090000,2.090027,0.175514437156496,9.87626587476601,0.812739582238862,-0.09437868,0.016493361,0.017715093,229.38367,-86.20076,-2.0210278,STD
20914189120000,2.095057,0.152970757738675,9.88528305840509,0.808230849180082,-0.08582657,0.02076942,0.018020526,229.38484,-86.19922,-2.010667,STD
20914194065000,2.100002,0.13129049993578,9.89214485879537,0.806540360993219,-0.08979719,0.02107485,0.015882496,229.3877,-86.19906,-2.0022197,STD
20914199048000,2.104985,0.112255302788991,9.88738646150778,0.820816765313123,-0.082161374,0.04062254,0.017104227,229.38374,-86.20427,-1.9932766,STD
20914204682000,2.110619,0.0907775607646535,9.87702687486409,0.836925075081546,-0.08002335,0.060170226,0.018020526,229.37962,-86.2047,-1.9891472,STD
20914209061000,2.114998,0.0741968220183849,9.85630096441633,0.849360621350203,-0.07574729,0.062002823,0.020158553,229.37502,-86.20776,-1.9843959,STD
20914214025000,2.119962,0.0569499768174152,9.83231581231614,0.861657168582075,-0.073303826,0.06505715,0.018325957,229.35954,-86.207794,-1.9816808,STD
20914219031000,2.124968,0.0522489086335556,9.80410932418121,0.859306636085507,-0.08277224,0.06627888,0.01160644,229.34444,-86.205345,-1.9798629,STD
20914224417000,2.130354,0.0471909874912728,9.77376171229653,0.85677767723083,-0.074830994,0.074830994,0.0106901415,229.32452,-86.203835,-1.980466,STD
20914229048000,2.134985,0.042842076832173,9.74766817523044,0.854603223377133,-0.07452556,0.07941248,0.008857546,229.30582,-86.19697,-1.9831861,STD
20914234263000,2.1402,0.0394076381210558,9.71972537785275,0.854903425808692,-0.07666359,0.07941248,0.0012217305,229.28642,-86.19035,-1.987859,STD
20914239132000,2.145069,0.0532882125988291,9.71047147568962,0.887291431152014,-0.069027774,0.08857546,0.0012217305,229.274253534953,-86.1869028349033,-1.99072893392167,STD
20914244348000,2.150285,0.0696009693666083,9.70240358756567,0.920472014623468,-0.07880162,0.096516706,-0.007941248,229.26122,-86.18321,-1.9938034,STD
20914249087000,2.155024,0.100510817912045,9.71565093228255,0.933719082691185,-0.069027774,0.10354166,-0.0067195175,229.2386,-86.17784,-2.0002205,STD
20914254433000,2.16037,0.135517182939682,9.72985576098617,0.94846432144067,-0.07086037,0.10415252,-0.008246681,229.21227,-86.16385,-2.0093637,STD
20914259092000,2.165029,0.169105846019573,9.72565709315893,0.956861503651077,-0.081855945,0.109650314,-0.012217305,229.18295,-86.14981,-2.0189724,STD
20914264049000,2.169986,0.20484291467959,9.72118986920109,0.965795788308083,-0.09437868,0.12003502,-0.005497787,229.15347,-86.137856,-2.0216975,STD
20914269070000,2.175007,0.194623458079299,9.70840945825862,0.999390100617653,-0.08857546,0.13072516,-0.0012217305,229.12283,-86.126785,-2.0263724,STD
20914274220000,2.180157,0.174969918081291,9.69366952002391,1.03869720113568,-0.079107046,0.13897185,-0.00580322,229.09041,-86.11331,-2.0319,STD
20914279089000,2.185026,0.160498470432294,9.69767093791946,1.0399106322197,-0.09407325,0.14538592,0.007330383,229.0731,-86.0907,-2.0262647,STD
20914284010000,2.189947,0.146544424161074,9.7046478590604,1.03525926241611,-0.10262536,0.1563815,0.009773844,229.05258,-86.06991,-2.0253985,STD
20914289139000,2.195076,0.132000570609949,9.7119196795302,1.03041128929629,-0.09865474,0.17623462,0.008857546,229.0243,-86.042366,-2.025561,STD
20914293985000,2.199922,0.118259195232925,9.71879026677852,1.02583081011153,-0.098043874,0.19792034,0.010995574,228.99252,-86.013084,-2.0247014,STD
20914299049000,2.204986,0.11124440828213,9.73884535858935,1.05413651214067,-0.103847094,0.1863139,0.009773844,228.96501,-85.98288,-2.025153,STD
20914304013000,2.20995,0.106548247539267,9.76232616230366,1.09170584712042,-0.10170906,0.18997909,0.007330383,228.92735,-85.95518,-2.0263333,STD
20914309086000,2.215023,0.112462180968814,9.74343231097859,1.09421550274709,-0.10567969,0.1872302,-0.0027488936,228.88683,-85.92796,-2.036149,STD
20914314045000,2.219982,0.121747815145175,9.71093241441001,1.08492987341871,-0.09987647,0.18112154,-0.0033597588,228.84666,-85.90489,-2.0440314,STD
20914319051000,2.224988,0.138652117129426,9.68361297994359,1.06094873898464,-0.11056661,0.1853976,-0.0070249503,228.80255,-85.869354,-2.05715,STD
20914324233000,2.23017,0.159388361343362,9.65769269497545,1.02984434289147,-0.11148291,0.18142697,-0.010995574,228.76308,-85.8379,-2.070216,STD
20914329086000,2.235023,0.152082092075789,9.67129370076535,1.03901649793728,-0.10170906,0.18051068,-0.0076358155,228.72281,-85.80929,-2.080791,STD
20914334102000,2.240039,0.138631299960799,9.69371167201792,1.05695092175658,-0.10048734,0.1872302,-0.012217305,228.68217,-85.77705,-2.09479,STD
20914339140000,2.245077,0.124589403393652,9.72027684603975,1.04721575031148,-0.09987647,0.18936823,-0.015271631,228.64767,-85.75208,-2.1009092,STD
20914344109000,2.250046,0.110472775589835,9.74851018026303,1.0236880045486,-0.09407325,0.19608775,-0.01038471,228.61032,-85.729454,-2.106413,STD
20914349048000,2.254985,0.0805651875273828,9.78079254894046,1.03716790519218,-0.09773844,0.20708331,-0.0143553335,228.56383,-85.70135,-2.1099055,STD
20914354130000,2.260067,0.0403831846091184,9.81651013723512,1.07288526038896,-0.08032878,0.21074851,-0.0009162979,228.51773,-85.683205,-2.107356,STD
20914359080000,2.265017,-0.000162029906203622,9.8525503588602,1.10463308637578,-0.07391469,0.21563543,-0.0036651916,228.47,-85.66117,-2.112029,STD
20914364078000,2.270015,-0.0427843646714159,9.89043665271594,1.13304795512021,-0.0729984,0.2321288,-0.0036651916,228.41835,-85.6443,-2.1126957,STD
20914369072000,2.275009,-0.0691728909623561,9.91413028466245,1.16202826271907,-0.073303826,0.24984388,-0.005497787,228.36652,-85.61623,-2.1255708,STD
20914374109000,2.280046,-0.0741753136262574,9.91913280970652,1.19204283840091,-0.07849618,0.24251351,-0.003970624,228.3178,-85.58781,-2.1373239,STD
20914379056000,2.284993,-0.0836898362210578,9.91449647642116,1.20196078278794,-0.06383542,0.24098633,-0.006414085,228.25943,-85.55573,-2.1578698,STD
20914384148000,2.290085,-0.0981530422706871,9.90003298141374,1.19231865414731,-0.07147124,0.24678956,-0.0021380284,228.20164,-85.51831,-2.175986,STD
20914389050000,2.294987,-0.10423336903428,9.88728345445642,1.19530466376102,-0.08124508,0.23976462,-0.0021380284,228.176594868699,-85.5008553486266,-2.18512762088741,STD
20914394087000,2.300024,-0.101871056488149,9.87547191145936,1.21184082395691,-0.06963864,0.22540927,0.006414085,228.15086,-85.48292,-2.194521,STD
20914399028000,2.304965,-0.0995537671710088,9.86388548423115,1.2280618220764,-0.070249505,0.22235495,0.01038471,228.09395,-85.445366,-2.2135315,STD
20914404078000,2.310015,-0.097185357729285,9.85204345680705,1.24464066047013,-0.0693332,0.21380283,0.0106901415,228.04803,-85.40862,-2.2362936,STD
20914409022000,2.314959,-0.105094484469396,9.84122655147953,1.26202285024321,-0.06994407,0.19792034,0.013133603,228.00552,-85.37266,-2.2568512,STD
20914414082000,2.320019,-0.129647911927848,9.83140549554114,1.28166562871909,-0.08827003,0.17654006,0.018325957,227.96747,-85.3334,-2.2760007,STD
20914419021000,2.324958,-0.15142869875309,9.82969217452784,1.29675729633145,-0.09101892,0.17562376,0.028099801,227.92654,-85.29463,-2.2936757,STD
20914424166000,2.330103,-0.170917544629685,9.8394362845842,1.30650171163848,-0.09315695,0.17165314,0.0290161,227.89294,-85.25167,-2.3116863,STD
20914428976000,2.334913,-0.190858486212916,9.84050742514588,1.32092174041583,-0.09560041,0.15668693,0.020463986,227.85904,-85.204895,-2.334682,STD
20914434132000,2.340069,-0.215071704911489,9.82840082464571,1.34513491613299,-0.103847094,0.15882497,0.032070424,227.82121,-85.159836,-2.351666,STD
20914439020000,2.344957,-0.238026362203697,9.81692350438876,1.36808953267788,-0.1001819,0.14935656,0.016187929,227.7904,-85.10985,-2.380922,STD
20914444089000,2.350026,-0.261831018057667,9.80502118516157,1.39189414627568,-0.11178834,0.13469578,0.016187929,227.76009,-85.05869,-2.4019606,STD
20914449007000,2.354944,-0.273431287125439,9.79850506603589,1.40349439161139,-0.10873401,0.12492194,0.02321288,227.72612,-85.01571,-2.4259248,STD
20914454076000,2.360013,-0.259225810177526,9.80324031896215,1.38928892949668,-0.101098195,0.094989546,0.019242255,227.70251,-84.97029,-2.4518023,STD
20914459651000,2.365588,-0.240741102758621,9.80004534482759,1.36089720344828,-0.09132435,0.08307768,0.01740966,227.67096,-84.9163,-2.4832964,STD
20914464046000,2.369983,-0.221891992875056,9.78496614509628,1.31942918768473,-0.09590584,0.07147124,0.020463986,227.64783,-84.86185,-2.5132174,STD
20914469273000,2.37521,-0.200403959474806,9.76869749748062,1.27300631984496,-0.10293079,0.06505715,0.018325957,227.62837,-84.81284,-2.5417886,STD
20914474106000,2.380043,-0.191434056652132,9.77318254021318,1.26403642170543,-0.10170906,0.070554934,0.016798794,227.60863,-84.76626,-2.5687091,STD
20914479434000,2.385371,-0.180982909124909,9.77674829160571,1.25260885743416,-0.09040806,0.05955936,0.014049901,227.59952,-84.73062,-2.5905128,STD
20914484143000,2.39008,-0.160364227955377,9.75200580358449,1.21137147787125,-0.10048734,0.05681047,0.010995574,227.58641,-84.69048,-2.6126451,STD
20914489090000,2.395027,-0.138703447376555,9.726012792703,1.16804989861924,-0.09621128,0.061086524,0.00580322,227.57552,-84.65918,-2.6338303,STD
20914494182000,2.400119,-0.113646868894058,9.7286305362656,1.1547079171918,-0.086132,0.06658431,0.0027488936,227.56491,-84.62742,-2.6547291,STD
20914498981000,2.404918,-0.0893504523197293,9.73834929773736,1.14984863793614,-0.09315695,0.06872234,0.0015271631,227.55399,-84.59269,-2.6760554,STD
20914504081000,2.410018,-0.0606188294914243,9.74600601416853,1.15560992542878,-0.09682214,0.07086037,-0.005497787,227.54117,-84.57229,-2.6947396,STD
20914508990000,2.414927,-0.0325725691324882,9.75301747675864,1.16262151004226,-0.10567969,0.08155051,-0.01740966,227.52547,-84.5483,-2.7150002,STD
20914514080000,2.420017,-0.00349221361670395,9.76028745935869,1.1698916191648,-0.0983493,0.09010262,-0.020158553,227.51434,-84.529335,-2.7305253,STD
20914519003000,2.42494,0.0246340320029828,9.76731891797166,1.17692320014914,-0.089491755,0.10567969,-0.032070424,227.49864,-84.505974,-2.7520156,STD
20914524072000,2.430009,0.0586207050667862,9.74966158646347,1.13684815120574,-0.10995574,0.10170906,-0.04184427,227.48616,-84.47744,-2.7729232,STD
20914529766000,2.435703,0.0977280771187808,9.72521949807261,1.08307550570148,-0.10445796,0.1151481,-0.040317107,227.46434,-84.45774,-2.7942054,STD
20914534098000,2.440035,0.124907179283828,9.72697989806697,1.04651931840076,-0.09712757,0.13530666,-0.037873644,227.43991,-84.43827,-2.804637,STD
20914539060000,2.444997,0.155024501358403,9.73701920809127,1.00636286450829,-0.089491755,0.14538592,-0.044898596,227.41496,-84.41933,-2.8172252,STD
20914544086000,2.450023,0.170113486823601,9.7505744918985,0.977718473402629,-0.083383106,0.14508049,-0.04428773,227.39221,-84.41438,-2.8200994,STD
20914549034000,2.454971,0.179771294046673,9.76506099347804,0.953573942739223,-0.065973446,0.14202617,-0.040011674,227.36787,-84.413506,-2.8240826,STD
20914554069000,2.460006,0.16692679558853,9.77210120914377,0.974410784239021,-0.07360926,0.14446963,-0.035430185,227.34462,-84.41685,-2.8199182,STD
20914559078000,2.465015,0.147688684993984,9.77691083346701,1.00807747652396,-0.06047566,0.15393804,-0.024740042,227.32048,-84.43066,-2.8130436,STD
20914564082000,2.470019,0.124251760704915,9.76910167006755,1.02748718032145,-0.063224554,0.1554652,-0.022296581,227.30046,-84.442314,-2.804983,STD
20914569061000,2.474998,0.0998160689897042,9.75799454516655,1.04303717837876,-0.048258353,0.15821409,-0.018936822,227.27773,-84.4626,-2.7941456,STD
20914574083000,2.48002,0.0751693439859306,9.74679149610995,1.05872147045423,-0.043066,0.15607607,-0.010079277,227.25346,-84.47366,-2.7850409,STD
20914579087000,2.485024,0.0506109584982996,9.73562860135104,1.07434954642907,-0.03268129,0.15210545,-0.013744468,227.22978,-84.487785,-2.7788072,STD
20914584088000,2.490025,0.0241106510222894,9.72175462043687,1.08809443582149,-0.016187929,0.15393804,-0.01863139,227.20284,-84.50608,-2.767757,STD
20914589059000,2.494996,-0.00418573197097429,9.7052483101689,1.09988458709198,-0.014660766,0.15393804,-0.013744468,227.17807,-84.523415,-2.755171,STD
20914594041000,2.499978,-0.0325447301750458,9.6887054741691,1.11170082801526,-0.009773844,0.1572978,-0.022296581,227.143,-84.53447,-2.7547812,STD
20914599043000,2.50498,-0.0610175742169498,9.67209622774778,1.12356450467086,-0.020158553,0.15699236,-0.02443461,227.10951,-84.543076,-2.7512822,STD
20914604007000,2.509944,-0.0724476108486745,9.66924839068767,1.14881400223027,-0.013133603,0.14660765,-0.028099801,227.07892,-84.55506,-2.7506187,STD
20914609096000,2.515033,-0.0629129594111318,9.68355065606965,1.19171995211777,-0.008552114,0.15057829,-0.01985312,227.0448,-84.564735,-2.7476,STD
20914613994000,2.519931,-0.0473643091603323,9.696777191621,1.22635102381121,-0.019242255,0.14508049,-0.028099801,227.0127,-84.55912,-2.7590435,STD
20914619031000,2.524968,-0.0217827066254198,9.70956780590419,1.25193260853809,-0.027183503,0.14477506,-0.025350908,226.97818,-84.55771,-2.7651856,STD
20914624047000,2.529984,0.00662589045363223,9.72487627260231,1.27592393630115,-0.032070424,0.15027285,-0.025961773,226.94312,-84.54518,-2.7671654,STD
20914629050000,2.534987,0.0522233181558634,9.75527464238131,1.29112312119065,-0.03848451,0.1572978,-0.027794369,226.90819,-84.53052,-2.7689586,STD
20914634046000,2.539983,0.0941641538940956,9.78247591218369,1.30927970395501,-0.050701816,0.15210545,-0.030543262,226.87888,-84.51001,-2.7680082,STD
20914639144000,2.545081,0.126193951429241,9.80077854442362,1.33673379565136,-0.062308256,0.15424347,-0.03145956,226.84593,-84.48818,-2.7676783,STD
20914644010000,2.549947,0.157250882647059,9.81852525671355,1.36335400906863,-0.07513642,0.14874569,-0.028099801,226.81868,-84.46628,-2.7608519,STD
20914649045000,2.554982,0.193220034117647,9.83907893797954,1.39418474558824,-0.06994407,0.15057829,-0.027183503,226.78922,-84.44567,-2.7556074,STD
20914654024000,2.559961,0.221381034738331,9.85341955191923,1.41458128669951,-0.095294975,0.15149458,-0.026267206,226.75415,-84.417854,-2.7387364,STD
20914659056000,2.564993,0.226081862234795,9.84871887904209,1.40282921182266,-0.1001819,0.1563815,-0.022602014,226.71788,-84.396935,-2.7217746,STD
20914664027000,2.569964,0.230725704342291,9.84407518967956,1.39121960049261,-0.109650314,0.16249016,-0.022907447,226.682,-84.36774,-2.70254,STD
20914669158000,2.575095,0.235519016322489,9.83928203536068,1.37923631428571,-0.11453723,0.17195857,-0.025350908,226.64423,-84.33882,-2.6840234,STD
20914674056000,2.579993,0.23907650168398,9.83469363044883,1.37085810680451,-0.118507855,0.1872302,-0.03176499,226.60126,-84.31057,-2.6724505,STD
20914679047000,2.584984,0.236700742022963,9.82994202182017,1.38036110079527,-0.10995574,0.19486602,-0.03023783,226.5582,-84.2852,-2.6600642,STD
20914684079000,2.590016,0.234305466003281,9.82515137974054,1.38994215985387,-0.11575896,0.20250183,-0.03634648,226.51347,-84.25775,-2.6507308,STD
20914689068000,2.595005,0.231930658359759,9.82040167518266,1.39944134579253,-0.12003502,0.20799962,-0.028405234,226.46745,-84.23495,-2.6377037,STD
20914694020000,2.599957,0.233552048966728,9.81410776212313,1.40620106329398,-0.1301143,0.20891592,-0.034513887,226.42174,-84.20664,-2.6310766,STD
20914699042000,2.604979,0.266400436957752,9.79533736949946,1.39212319532637,-0.12492194,0.20463985,-0.039095376,226.37639,-84.18247,-2.622374,STD
20914704081000,2.610018,0.295833059923007,9.77757067292238,1.37696418130504,-0.12064589,0.20677789,-0.030543262,226.33243,-84.152245,-2.6192205,STD
20914709058000,2.614995,0.282071325613782,9.77298333554689,1.3494407318464,-0.110872045,0.20830505,-0.032986723,226.29082,-84.123085,-2.6206667,STD
20914714136000,2.620073,0.26803031962177,9.7683029057312,1.321358739411,-0.103847094,0.2134974,-0.033292156,226.25037,-84.10042,-2.6136363,STD
20914719024000,2.624961,0.254514676201338,9.76379760030797,1.29432747138733,-0.0852157,0.22052236,-0.025961773,226.20937,-84.084015,-2.6056144,STD
20914724091000,2.630028,0.240504085937154,9.75912730927289,1.26630631036524,-0.070554934,0.22693644,-0.024740042,226.17058,-84.06578,-2.6001055,STD
20914729049000,2.634986,0.227117531272625,9.77516942886617,1.25593674274594,-0.06719518,0.2284636,-0.02687807,226.13167,-84.049904,-2.593943,STD
20914734011000,2.639948,0.213747898555754,9.79299549413861,1.24702366357498,-0.04795292,0.24037547,-0.028405234,226.08858,-84.04201,-2.5881007,STD
20914739075000,2.645012,0.186335527738943,9.81330947594391,1.24904393421791,-0.04184427,0.23426682,-0.024740042,226.0528,-84.037384,-2.5847697,STD
20914744034000,2.649971,0.155596767700108,9.83380239633225,1.2541670573247,-0.026572637,0.24984388,-0.018325957,226.00812,-84.03986,-2.5822022,STD
20914749043000,2.65498,0.110415493585507,9.83966198086956,1.26740567083092,-0.02321288,0.24801129,-0.025350908,225.96948,-84.040115,-2.5820825,STD
20914754006000,2.659943,0.0644930847536232,9.84425383478261,1.28118233545894,-0.022296581,0.24312437,-0.033292156,225.92804,-84.04376,-2.581033,STD
20914759052000,2.664989,0.0195992288121349,9.82392278620478,1.31694682992723,-0.016187929,0.24190263,-0.032375857,225.88545,-84.046265,-2.5841389,STD
20914763981000,2.669918,-0.0239425074326125,9.79973294957466,1.35565066957056,-0.0076358155,0.23915374,-0.02565634,225.84555,-84.04891,-2.5876853,STD
20914769023000,2.67496,-0.0527592072874268,9.78105390326178,1.39995455093393,0.0033597588,0.24098633,-0.040317107,225.80267,-84.04433,-2.6043408,STD
20914774017000,2.679954,-0.0794258214459623,9.76327626568163,1.44439887692594,-0.004276057,0.23182335,-0.032986723,225.7637,-84.04032,-2.6123116,STD
20914779048000,2.684985,-0.106752397157524,9.76219292537314,1.45224778197547,0.0018325958,0.22724187,-0.03604105,225.7166,-84.03281,-2.638152,STD
20914784698000,2.690635,-0.137615953198973,9.76733695522388,1.44710391326172,-0.0021380284,0.21960606,-0.030848695,225.67328,-84.02238,-2.6587412,STD
20914789054000,2.694991,-0.137342607031108,9.76203337855912,1.45871684640794,-0.0021380284,0.22510384,-0.03726278,225.62434,-84.00063,-2.684715,STD
20914794016000,2.699953,-0.127712430435708,9.75240300587699,1.47797713926436,-0.0018325958,0.22907446,-0.03573562,225.57831,-83.97965,-2.7063122,STD
20914799047000,2.704984,-0.117560265920361,9.74225099688741,1.48787411022861,0.0012217305,0.22327125,-0.036957346,225.5332,-83.95735,-2.736582,STD
20914804063000,2.71,-0.107248523110443,9.73193958248363,1.49302997894172,-0.0030543262,0.21563543,-0.035430185,225.48802,-83.9338,-2.765092,STD
20914809020000,2.714957,-0.126947626319716,9.72643546959523,1.47957997914568,0.005497787,0.20922135,-0.034513887,225.44424,-83.91205,-2.79279,STD
20914814064000,2.720001,-0.153979194773363,9.72193011723559,1.46155894605484,-0.005192355,0.18906279,-0.03359759,225.4071,-83.884636,-2.8189352,STD
20914819179000,2.725116,-0.182504628505338,9.74015796678529,1.43269255207592,-0.011911872,0.17959438,-0.03390302,225.36948,-83.86048,-2.843651,STD
20914824103000,2.73004,-0.21047389767497,9.76812731870304,1.40006175508106,-0.013439035,0.15515977,-0.019242255,225.34183,-83.83727,-2.862389,STD
20914829011000,2.734948,-0.244763484372364,9.78710621409922,1.37945065800362,-0.017104227,0.14721853,-0.019242255,225.30818,-83.8124,-2.8874872,STD
20914834027000,2.739964,-0.283355388521792,9.80157796344647,1.36497870717011,-0.018936822,0.14721853,-0.015882496,225.27908,-83.790215,-2.9065952,STD
20914839019000,2.744956,-0.325042514257426,9.8285535049505,1.33487410693069,-0.028099801,0.13805555,-0.019242255,225.25587,-83.767105,-2.92959,STD
20914844009000,2.749946,-0.368495160004041,9.86235019317034,1.29624945003031,-0.03481932,0.13927728,-0.0106901415,225.22955,-83.7464,-2.9480422,STD
20914849003000,2.75494,-0.413301396603917,9.88880255409774,1.28026912074539,-0.036651913,0.13500121,-0.013439035,225.2063,-83.72149,-2.9736779,STD
20914854694000,2.760631,-0.465118871427077,9.91471126716106,1.27508743223997,-0.035124753,0.1337795,-0.016187929,225.1818,-83.6972,-2.996501,STD
20914859028000,2.764965,-0.4931806699179,9.91260930473069,1.26833768283842,-0.03848451,0.13530666,-0.011301007,225.15761,-83.67408,-3.0217798,STD
20914864019000,2.769956,-0.51849815725792,9.89678588340451,1.25884363004271,-0.041233405,0.1282817,-0.015271631,225.13672,-83.65018,-3.049473,STD
20914869015000,2.774952,-0.543841007738935,9.88094661012348,1.24934006607409,-0.05467244,0.11178834,-0.01160644,225.10747,-83.625015,-3.0744252,STD
20914874039000,2.779976,-0.569325891809514,9.86501856589532,1.23978323953719,-0.0571159,0.089186326,-0.013744468,225.083179669717,-83.6014868662953,-3.09820993155591,STD
20914879067000,2.785004,-0.594831066392889,9.84907784010329,1.23021880406197,-0.052839845,0.06169739,-0.014660766,225.05887,-83.57794,-3.1220136,STD
20914884101000,2.790038,-0.620366676745456,9.83311809196544,1.22064295517926,-0.047036625,0.049785517,-0.004886922,225.03712,-83.5564,-3.1397612,STD
20914889150000,2.795087,-0.634608833804642,9.81310594119923,1.19593757940039,-0.047036625,0.030543262,-0.016187929,225.02275,-83.52611,-3.170658,STD
20914894063000,2.8,-0.639159188834623,9.79035409477756,1.15953457761122,-0.036957346,0.022602014,-0.01985312,225.00807,-83.50261,-3.1960099,STD
20914899044000,2.804981,-0.634928249352818,9.77232187056368,1.13180261878914,-0.03726278,0.014660766,-0.01740966,224.99312,-83.482445,-3.2266715,STD
20914903976000,2.809913,-0.620497959199552,9.76029662039819,1.11496726855746,-0.030543262,0.005497787,-0.014049901,224.98085,-83.46629,-3.2570148,STD
20914908991000,2.814928,-0.60582482353073,9.74806899882886,1.09784859836041,-0.032375857,-0.01282817,-0.018020526,224.97508,-83.45177,-3.2871032,STD
20914913988000,2.819925,-0.591204353154438,9.73588526503386,1.08079137104741,-0.025045475,-0.0009162979,-0.01740966,224.96304,-83.44232,-3.3147275,STD
20914918947000,2.824884,-0.574469910655835,9.73489350743016,1.06288705543887,-0.024740042,-0.008552114,-0.01740966,224.9493,-83.438255,-3.341472,STD
20914924087000,2.830024,-0.554963350957004,9.74464647156727,1.04338046518724,-0.014966198,0.00061086525,-0.014049901,224.92749,-83.438545,-3.3671632,STD
20914928957000,2.834894,-0.534094964042934,9.75154565394554,1.0366517293381,-0.023823744,0.00030543262,-0.01740966,224.91412,-83.44014,-3.388656,STD
20914933968000,2.839905,-0.510248117039356,9.75631511796859,1.04142114355993,-0.023823744,0.0015271631,-0.02443461,224.898,-83.44573,-3.4099536,STD
20914938971000,2.844908,-0.481315140009564,9.76432559984698,1.04053622848125,-0.012217305,-0.004276057,-0.025350908,224.87886,-83.46216,-3.4279459,STD
20914943966000,2.849903,-0.447002678764824,9.77576307976282,1.03367371664594,-0.0143553335,-0.006414085,-0.027794369,224.85898,-83.473206,-3.447918,STD
20914948929000,2.854866,-0.412910037091622,9.78712728653405,1.02685516885042,-0.01740966,-0.011911872,-0.034208454,224.84344,-83.48728,-3.4651353,STD
20914954019000,2.859956,-0.377944986493879,9.79878229609793,1.019862138772,-0.004886922,-0.012217305,-0.036651913,224.82741,-83.50411,-3.4814742,STD
20914958981000,2.864918,-0.350210440765172,9.80802716754617,1.01651863878628,-0.009773844,-0.010079277,-0.036651913,224.80582,-83.517815,-3.4937863,STD
20914964047000,2.869984,-0.336494995258198,9.81259907500942,1.02109045077271,-0.0030543262,-0.008246681,-0.035430185,224.78493,-83.536354,-3.50602,STD
20914968994000,2.874931,-0.32179635496777,9.81813458036098,1.02090321895144,-0.004581489,-0.0018325958,-0.03604105,224.76782,-83.560844,-3.5075784,STD
20914974091000,2.880028,-0.300819560567254,9.82862318564676,0.999926446454663,-0.01282817,0.004886922,-0.03573562,224.75056,-83.58474,-3.5084493,STD
20914978981000,2.884918,-0.288827914376858,9.83080977095304,0.992505944779077,0.00061086525,0.011911872,-0.03481932,224.73257,-83.61356,-3.507444,STD
20914984048000,2.889985,-0.293635299649297,9.81638734406578,1.01173544571032,-0.005497787,0.013439035,-0.031154128,224.71469,-83.635376,-3.5055556,STD
20914989046000,2.894983,-0.301372729362546,9.80365562298007,1.01723212294042,-0.002443461,0.018325957,-0.03359759,224.69678,-83.66573,-3.5018709,STD
20914994191000,2.900128,-0.316027037967681,9.79388639674829,0.992808292267275,-0.00030543262,0.03756821,-0.03359759,224.67477,-83.69443,-3.4969249,STD
20914999002000,2.904939,-0.330747960782641,9.78878102225519,0.983254947626113,0.005497787,0.03940081,-0.033292156,224.64902,-83.72292,-3.488972,STD
20915004034000,2.909971,-0.348622768928042,9.79324934866469,1.00559844614243,-0.00061086525,0.04337143,-0.03176499,224.61797,-83.74826,-3.4814625,STD
20915009020000,2.914957,-0.357719756815507,9.79820009588093,1.02753598674282,-0.00580322,0.055588737,-0.033292156,224.5915,-83.77194,-3.478989,STD
20915014047000,2.919984,-0.311893453420734,9.80653231793008,1.04836615035479,-0.004276057,0.062002823,-0.037873644,224.5663,-83.79464,-3.4769905,STD
20915019052000,2.924989,-0.266267702776047,9.8148280751125,1.06910515351333,-0.0125227375,0.06505715,-0.045814894,224.53271,-83.81026,-3.483026,STD
20915024073000,2.93001,-0.238558604229961,9.80421807275093,1.08060846296407,-0.008246681,0.057726767,-0.042455133,224.50093,-83.8294,-3.4869418,STD
20915028983000,2.93492,-0.215031081143801,9.79010176133293,1.09001946826779,-0.01160644,0.050701816,-0.036651913,224.46909,-83.843124,-3.4923594,STD
20915034074000,2.940011,-0.228894203461119,9.78385603479288,1.08447422165698,-0.0076358155,0.04734206,-0.03756821,224.44113,-83.861046,-3.4916925,STD
20915039039000,2.944976,-0.250491601653343,9.77953646675145,1.07583526598837,-0.005192355,0.040317107,-0.024740042,224.41641,-83.88027,-3.4852738,STD
20915044121000,2.950058,-0.272049333410998,9.78206630255825,1.0715658189485,-0.0067195175,0.03145956,-0.026267206,224.39644,-83.896904,-3.4818678,STD
20915048998000,2.954935,-0.292434048905862,9.7883384854294,1.06999776504398,-0.013439035,0.021380283,-0.027488936,224.3791,-83.914314,-3.4746983,STD
20915054033000,2.95997,-0.313479167322232,9.79481386799167,1.06837891095145,-0.020463986,0.021685716,-0.023518313,224.3608,-83.92979,-3.4698317,STD
20915059044000,2.964981,-0.334423971370778,9.80125838477808,1.06676777334318,-0.013133603,0.024129177,-0.01863139,224.34521,-83.94647,-3.4649127,STD
20915064086000,2.970023,-0.35549834814443,9.80774276985832,1.06514666860941,-0.008552114,0.02687807,-0.014049901,224.32983,-83.960594,-3.457535,STD
20915069079000,2.975016,-0.376367916417109,9.81416413731283,1.06354131836433,-0.014660766,0.029626964,-0.014966198,224.31422,-83.9733,-3.450578,STD
20915074063000,2.98,-0.38953390643178,9.82268877462821,1.0565639603154,-0.02107485,0.03481932,-0.008857546,224.30234,-83.98607,-3.4441972,STD
20915079050000,2.984987,-0.399067702513225,9.83222275985627,1.04703017418904,-0.024129177,0.032070424,-0.0106901415,224.29248,-83.99633,-3.4402966,STD
20915084079000,2.990016,-0.42033725674538,9.84443655441478,1.05594624065708,-0.022907447,0.03604105,-0.005192355,224.27591,-84.00196,-3.4415338,STD
20915089142000,2.995079,-0.447490913974239,9.85801318219152,1.07404866305768,-0.024740042,0.033292156,-0.014049901,224.26274,-84.00323,-3.4470792,STD
20915094082000,3.000019,-0.462288119068061,9.86324385280533,1.08738197451433,-0.021991149,0.029321533,-0.015271631,224.25417,-84.00618,-3.455783,STD
20915099044000,3.004981,-0.467129864212743,9.86162990517593,1.09706545806276,-0.024740042,0.040927973,-0.011301007,224.24219,-84.00666,-3.4654813,STD
20915104074000,3.010011,-0.472037961366662,9.85999383976362,1.10688164553729,-0.03176499,0.047036625,-0.013439035,224.23062,-83.999886,-3.4812896,STD
20915109803000,3.01574,-0.477628118144953,9.85813041655346,1.11806195131096,-0.03359759,0.048563786,-0.018020526,224.21722,-83.99385,-3.4964328,STD
20915114059000,3.019996,-0.481780973311371,9.85674610355251,1.12636765586198,-0.042455133,0.032986723,-0.019547688,224.21396,-83.98181,-3.5166779,STD
20915119065000,3.025002,-0.486665652109088,9.85511784441652,1.1361370066567,-0.054367006,0.039095376,-0.024740042,224.20428,-83.96736,-3.5391953,STD
20915124076000,3.030013,-0.485346156999701,9.84839220640144,1.1365690069997,-0.060170226,0.043676864,-0.020158553,224.19978,-83.95544,-3.5676973,STD
20915129084000,3.035021,-0.480563963919633,9.83882811985243,1.13178681391963,-0.059253927,0.042760566,-0.017715093,224.19522,-83.94122,-3.5973163,STD
20915134093000,3.04003,-0.481684627641824,9.83822504004449,1.11299753414905,-0.06352998,0.04062254,-0.022907447,224.18784,-83.91924,-3.6352417,STD
20915139102000,3.045039,-0.486131252706711,9.84267129365962,1.08631778375973,-0.0571159,0.040927973,-0.026572637,224.17986,-83.90081,-3.6709867,STD
20915144072000,3.050009,-0.494272470113857,9.83558854651282,1.05386537685847,-0.06505715,0.035430185,-0.018325957,224.17445,-83.88124,-3.7070465,STD
20915149075000,3.055012,-0.506503854886143,9.81601845348719,1.01472494814153,-0.0580322,0.025350908,-0.021991149,224.17056,-83.86398,-3.746206,STD
20915154071000,3.060008,-0.518718125987951,9.79647574216277,0.975639283166548,-0.05009095,0.035124753,-0.029626964,224.15723,-83.85299,-3.782111,STD
20915159090000,3.065027,-0.530988627721332,9.7768430623915,0.936373680182273,-0.054061573,0.03359759,-0.028405234,224.14992,-83.84175,-3.8149152,STD
20915164084000,3.070021,-0.528586700768608,9.76191425623453,0.914230448274795,-0.04886922,0.03176499,-0.030848695,224.14023,-83.83227,-3.8500328,STD
20915169073000,3.07501,-0.514943440695793,9.75054488273367,0.905134937602322,-0.042760566,0.03573562,-0.028099801,224.12923,-83.82317,-3.8823416,STD
20915174059000,3.079996,-0.501308384627832,9.73918234589758,0.896044896268799,-0.043066,0.043982297,-0.03268129,224.12373,-83.817085,-3.925068,STD
20915179812000,3.085749,-0.485575837985437,9.72607190177042,0.88555652727727,-0.03970624,0.04795292,-0.02443461,224.11797,-83.81562,-3.9619682,STD
20915184000000,3.089937,-0.477258277863436,9.72362312444934,0.888976560682819,-0.0421497,0.051618114,-0.031154128,224.11044,-83.80889,-4.003293,STD
20915189118000,3.095055,-0.472564338619996,9.7330109441199,0.912446256900019,-0.046731193,0.052534413,-0.031154128,224.10233,-83.80485,-4.039138,STD
20915193986000,3.099923,-0.46809968519345,9.74194019502969,0.934769524032752,-0.03726278,0.058643065,-0.027794369,224.09465,-83.80776,-4.0713134,STD
20915199047000,3.104984,-0.463458023116261,9.75122346102279,0.957977834418694,-0.03268129,0.06658431,-0.032375857,224.08646,-83.80679,-4.1047053,STD
20915204021000,3.109958,-0.455538800033162,9.76457313053965,0.980982225635615,-0.036957346,0.06352998,-0.028405234,224.07953,-83.80784,-4.1335382,STD
20915209095000,3.115032,-0.43112279463672,9.79875570636117,1.00539820553713,-0.04062254,0.06536258,-0.027488936,224.06932,-83.80814,-4.16379,STD
20915214048000,3.119985,-0.410910354739247,9.82714246925598,1.02694911781067,-0.038789943,0.07238753,-0.03145956,224.05705,-83.80363,-4.193403,STD
20915219084000,3.125021,-0.406119576473627,9.83432853660475,1.03892608848714,-0.043676864,0.08032878,-0.035430185,224.04414,-83.79693,-4.221886,STD
20915224066000,3.130003,-0.401380168745406,9.84143754922022,1.0507746325519,-0.038789943,0.08827003,-0.036957346,224.03,-83.79282,-4.246965,STD
20915229085000,3.135022,-0.396605562686004,9.8485993585974,1.06271117262839,-0.03145956,0.08857546,-0.03756821,224.01607,-83.7875,-4.272081,STD
20915234052000,3.139989,-0.389585715613618,9.85223650989707,1.07413408139351,-0.043676864,0.0852157,-0.03176499,223.9907,-83.7856,-4.2943482,STD
20915239103000,3.14504,-0.370435896906176,9.83787435332541,1.08370898574822,-0.03940081,0.07360926,-0.03940081,223.96843,-83.78544,-4.319753,STD
20915244103000,3.15004,-0.358708095819243,9.82362083725845,1.09030058856683,-0.03359759,0.07666359,-0.03573562,223.94269,-83.78454,-4.3385997,STD
20915249653000,3.15559,-0.390804266411031,9.80757242240338,1.07960186876006,-0.038789943,0.0729984,-0.034513887,223.92279,-83.78005,-4.359291,STD
20915254042000,3.159979,-0.417711266410035,9.79742057090874,1.06947432351815,-0.043982297,0.06291912,-0.03848451,223.90248,-83.778435,-4.37775,STD
20915259074000,3.165011,-0.456935549807527,9.79972792818156,1.04870851763861,-0.038179077,0.0711658,-0.02687807,223.87794,-83.78115,-4.391246,STD
20915264064000,3.170001,-0.495832444512113,9.80201602690798,1.02811603525807,-0.03970624,0.06811147,-0.025045475,223.85191,-83.779396,-4.4069657,STD
20915269067000,3.175004,-0.534830673812123,9.80431008661304,1.00746990512784,-0.03634648,0.069027774,-0.03390302,223.82292,-83.779625,-4.4223533,STD
20915274394000,3.180331,-0.575904465443561,9.80686601530561,0.985979078411036,-0.03940081,0.076358154,-0.03268129,223.79323,-83.78037,-4.4340997,STD
20915279089000,3.185026,-0.603069765700332,9.81139365753701,0.976923983053066,-0.03176499,0.069027774,-0.02565634,223.76804,-83.78303,-4.446027,STD
20915284401000,3.190338,-0.632944269695431,9.81535197461929,0.969299254314721,-0.040317107,0.07574729,-0.024740042,223.73814,-83.77374,-4.4667983,STD
20915289102000,3.195039,-0.646656141722843,9.80164032690355,1.0012935444264,-0.04062254,0.073303826,-0.024129177,223.71332,-83.76881,-4.4847827,STD
20915294332000,3.200269,-0.661646712581828,9.78800520047356,1.03683614128325,-0.02687807,0.06719518,-0.02687807,223.69182,-83.75932,-4.506455,STD
20915299048000,3.204985,-0.672130994303357,9.79429568192581,1.06828903023817,-0.03176499,0.063224554,-0.025961773,223.67065,-83.747,-4.5263596,STD
20915304000000,3.209937,-0.683139934736989,9.80090095422257,1.10131589752078,-0.036957346,0.061391957,-0.02443461,223.64848,-83.73063,-4.5496554,STD
20915309082000,3.215019,-0.694437882088305,9.80767962825572,1.13520978676355,-0.036957346,0.050701816,-0.026267206,223.63033,-83.713974,-4.5727735,STD
20915314041000,3.219978,-0.705462384432889,9.81429423756906,1.168283339844,-0.046120327,0.04550946,-0.028710667,223.61134,-83.69488,-4.595141,STD
20915319046000,3.224983,-0.712054157323832,9.8195975277118,1.18131775732383,-0.043066,0.03726278,-0.024740042,223.60135,-83.67668,-4.617668,STD
20915324097000,3.230034,-0.716841609501188,9.82438507986936,1.18610520950119,-0.05467244,0.02321288,-0.02443461,223.59464,-83.65296,-4.6410317,STD
20915329080000,3.235017,-0.704914617609434,9.81913091944833,1.19419704119528,-0.05222898,0.01740966,-0.027183503,223.5861,-83.62034,-4.6665854,STD
20915334048000,3.239985,-0.685895012412552,9.80962091824905,1.20370684379372,-0.04550946,0.015882496,-0.023518313,223.58002,-83.58849,-4.689393,STD
20915339108000,3.245045,-0.657120339545609,9.80175729452886,1.20993954906063,-0.04642576,0.008246681,-0.023823744,223.57677,-83.55391,-4.714018,STD
20915344056000,3.249993,-0.624914670124763,9.79485618088257,1.21454035554639,-0.05131268,-0.0021380284,-0.0290161,223.57455,-83.520355,-4.7382793,STD
20915349073000,3.25501,-0.592259891732608,9.78785883101121,1.21920532040876,-0.053145275,-0.002443461,-0.025350908,223.5718,-83.4909,-4.7572556,STD
20915354092000,3.260029,-0.559592095689111,9.78085869168406,1.22387214493422,-0.0571159,-0.007330383,-0.024129177,223.57317,-83.45925,-4.777503,STD
20915359091000,3.265028,-0.533206936923546,9.77651207584384,1.22723919475397,-0.048563786,-0.008857546,-0.021991149,223.57326,-83.431404,-4.7959905,STD
20915364066000,3.270003,-0.511409378553782,9.77409007630134,1.22966114371696,-0.046120327,-0.01160644,-0.028099801,223.57494,-83.40086,-4.81585,STD
20915369071000,3.275008,-0.489480377620984,9.77165347173648,1.23209769739732,-0.05681047,-0.01863139,-0.027794369,223.58409,-83.37765,-4.8235745,STD
20915374115000,3.280052,-0.467380501356242,9.76919788064254,1.23455323721025,-0.054061573,-0.014049901,-0.027183503,223.59045,-83.35692,-4.832855,STD
20915379085000,3.285022,-0.456643139057649,9.77443030900821,1.20801574973796,-0.06505715,-0.02565634,-0.024129177,223.60297,-83.33262,-4.8405304,STD
20915384079000,3.290016,-0.451913925253634,9.78388893414417,1.16545277611985,-0.04642576,-0.02565634,-0.027794369,223.61061,-83.314,-4.85005,STD
20915389104000,3.295041,-0.438258802583044,9.79342237035201,1.15514238691125,-0.04428773,-0.033292156,-0.021991149,223.6253,-83.29813,-4.8493133,STD
20915394093000,3.30003,-0.419308394030739,9.80289726544373,1.16461762828954,-0.051618114,-0.0290161,-0.016493361,223.63626,-83.283676,-4.849844,STD
20915399044000,3.304981,-0.425618512484725,9.80941322131704,1.16008098031229,-0.047036625,-0.027183503,-0.01740966,223.65334,-83.27777,-4.8466997,STD
20915404082000,3.310019,-0.449014870151295,9.81409258568519,1.14604313151004,-0.04917465,-0.018936822,-0.022296581,223.66693,-83.26969,-4.8433948,STD
20915409083000,3.31502,-0.472676548005319,9.82921680851064,1.13574305744681,-0.04734206,-0.015882496,-0.02107485,223.68175,-83.26616,-4.8359694,STD
20915414079000,3.320016,-0.496685845361802,9.85322608831794,1.12854027350462,-0.053450707,-0.014660766,-0.01863139,223.6945,-83.26009,-4.829797,STD
20915419052000,3.324989,-0.520584611525492,9.87712483701325,1.12137064889603,-0.05100725,-0.018325957,-0.013439035,223.70613,-83.25626,-4.823226,STD
20915424142000,3.330079,-0.54504564506122,9.90158585266961,1.11403234419912,-0.04795292,-0.014966198,-0.020158553,223.71536,-83.24962,-4.819659,STD
20915429082000,3.335019,-0.567206797483411,9.90546611250921,1.10438071250922,-0.04795292,-0.014049901,-0.013744468,223.72563,-83.24679,-4.810846,STD
20915434091000,3.340028,-0.588427329348734,9.89367692813959,1.09259152813959,-0.05131268,-0.018325957,-0.020463986,223.73665,-83.24002,-4.807734,STD
20915439096000,3.345033,-0.609630915291226,9.88189715817154,1.08081175817154,-0.04886922,-0.015271631,-0.013744468,223.73996,-83.2368,-4.8063974,STD
20915444089000,3.350026,-0.630783663465225,9.87014563140821,1.06906023140821,-0.0421497,-0.010995574,-0.008857546,223.74416,-83.23224,-4.8073273,STD
20915449081000,3.355018,-0.646185305378233,9.85276279580283,1.0698345225183,-0.042760566,-0.01160644,-0.015882496,223.74887,-83.2258,-4.8096733,STD
20915454079000,3.360016,-0.655529394455832,9.82940269507077,1.08385058295754,-0.044898596,-0.008552114,-0.008857546,223.75076,-83.22436,-4.806808,STD
20915458985000,3.364922,-0.676509491000196,9.80640838062488,1.08782855224995,-0.04520403,-0.006414085,-0.005497787,223.74701,-83.2204,-4.8143277,STD
20915464088000,3.370025,-0.714922075319316,9.78240051542543,1.07822540617017,-0.048258353,-0.0036651916,-0.009773844,223.74226,-83.21538,-4.821883,STD
20915469078000,3.375015,-0.729977756123339,9.75718844536022,1.06144786477262,-0.035430185,0.00580322,-0.009468411,223.73343,-83.211624,-4.8294415,STD
20915474160000,3.380097,-0.711100883205663,9.72887303742849,1.03313250611849,-0.03634648,0.0021380284,-0.004581489,223.72763,-83.204666,-4.8364077,STD
20915479039000,3.384976,-0.694343041091348,9.70453022128429,1.023081281429,-0.033292156,0.007941248,-0.0067195175,223.71468,-83.1955,-4.8510633,STD
20915484101000,3.390038,-0.679728099397045,9.68504373409708,1.04743956845543,-0.034208454,0.007941248,-0.010995574,223.710333480608,-83.1902629248301,-4.85781619218313,STD
20915489043000,3.39498,-0.667192024670507,9.67098272908328,1.05984112467051,-0.037873644,0.002443461,-0.01160644,223.70609,-83.18515,-4.864409,STD
20915494091000,3.400028,-0.657752663858245,9.66626295011227,1.05040176385824,-0.03604105,-0.003970624,-0.008552114,223.69832,-83.18331,-4.872546,STD
20915499030000,3.404967,-0.647342288584897,9.65782389106693,1.03740431655932,-0.036651913,-0.007330383,-0.004886922,223.69226,-83.17706,-4.880916,STD
20915504585000,3.410522,-0.632444709862784,9.63796060487259,1.01257502733128,-0.044593163,-0.014966198,-0.004276057,223.68935,-83.16981,-4.888799,STD
20915509047000,3.414984,-0.618181863290381,9.6275646946359,0.99239575919988,-0.03726278,-0.0070249503,-0.004581489,223.68024,-83.17042,-4.890887,STD
20915514079000,3.420016,-0.589299344405154,9.64681959664369,0.968326980896014,-0.045814894,-0.01282817,-0.0030543262,223.67726,-83.16678,-4.8917403,STD
20915519056000,3.424993,-0.564408509034051,9.66549035085129,0.945611486786831,-0.029932396,-0.011911872,-0.009468411,223.67221,-83.17211,-4.8926706,STD
20915524136000,3.430073,-0.560182471507992,9.68239441269979,0.928707341095379,-0.03573562,-0.014049901,-0.0061086523,223.66953,-83.17366,-4.8902006,STD
20915528997000,3.434934,-0.556138619457957,9.69856973644892,0.91253193711779,-0.030543262,-0.015271631,-0.008246681,223.66685,-83.186584,-4.8842883,STD
20915534100000,3.440037,-0.563088778363281,9.70893913778978,0.890711690177823,-0.029321533,-0.008552114,-0.0033597588,223.66248,-83.199394,-4.8757095,STD
20915539045000,3.444982,-0.571906816907178,9.71775736048785,0.868666566194954,-0.021380283,-0.0036651916,-0.003970624,223.6593,-83.2127,-4.8693805,STD
20915544086000,3.450023,-0.59954402273421,9.7553688822429,0.876873971904692,-0.017104227,-0.0067195175,-0.005497787,223.65784,-83.229546,-4.857676,STD
20915549032000,3.454969,-0.634521785083444,9.80433776414119,0.897860626879338,-0.02443461,-0.0036651916,0.00061086525,223.65332,-83.24664,-4.844499,STD
20915554071000,3.460008,-0.67015723685817,9.85422741150987,0.919241895463496,-0.02321288,0.006414085,-0.0015271631,223.65051,-83.26468,-4.8388395,STD
20915559119000,3.465056,-0.705856335996652,9.90420616521439,0.940661352461478,-0.021685716,0.01282817,-0.0061086523,223.648,-83.28162,-4.832235,STD
20915564085000,3.470022,-0.733284374004085,9.92430352632981,0.954932886879496,-0.01863139,0.026572637,-0.004886922,223.64069,-83.2994,-4.8251085,STD
20915569060000,3.474997,-0.756554539997336,9.92853433065447,0.96551024007859,-0.03573562,0.027183503,0.00030543262,223.63559,-83.31291,-4.8180685,STD
20915574183000,3.48012,-0.780516964195009,9.93289099609271,0.976402256247225,-0.029321533,0.027794369,0.0021380284,223.62836,-83.31449,-4.8284154,STD
20915579092000,3.485029,-0.80347842044845,9.93706567316402,0.986839286770713,-0.038789943,0.043066,0.0076358155,223.61667,-83.31135,-4.83631,STD
20915584117000,3.490054,-0.826486984013336,9.93568220837675,0.994547089497812,-0.040011674,0.047647487,0.004886922,223.61201,-83.30767,-4.8472342,STD
20915589116000,3.495053,-0.846438837812044,9.90076681319025,0.984571173015212,-0.032375857,0.049480084,0.0021380284,223.60378,-83.305016,-4.856636,STD
20915594076000,3.500013,-0.863897609454546,9.86475547818182,0.971871771181818,-0.040011674,0.04337143,-0.0033597588,223.59258,-83.28841,-4.8756003,STD
20915599045000,3.504982,-0.873005192076555,9.82377145148325,0.949102790851675,-0.0421497,0.05100725,-0.0033597588,223.586239880726,-83.2816614834119,-4.88427047536334,STD
20915604053000,3.50999,-0.882760638808856,9.7829784705598,0.92725581531954,-0.04520403,0.040927973,-0.0018325958,223.57985,-83.27486,-4.8930087,STD
20915609093000,3.51503,-0.896760592245963,9.7456450469883,0.913255895992459,-0.04062254,0.047036625,-0.0012217305,223.56564,-83.2586,-4.91476,STD
20915614159000,3.520096,-0.908464016092147,9.7092161977243,0.898554055637008,-0.044898596,0.04337143,-0.0021380284,223.55495,-83.24065,-4.9386716,STD
20915619048000,3.524985,-0.890996734415221,9.68738212982652,0.876719960380526,-0.05589417,0.03756821,-0.010079277,223.54338,-83.22116,-4.963866,STD
20915624037000,3.529974,-0.873172175551203,9.66510146614438,0.854439268780078,-0.051923547,0.035430185,-0.009773844,223.53464,-83.20273,-4.990747,STD
20915629082000,3.535019,-0.875793022382473,9.66514984938842,0.843728573210198,-0.053450707,0.040317107,-0.005192355,223.52557,-83.18077,-5.0179076,STD
20915634404000,3.540341,-0.88080042909859,9.66765359719016,0.833713780692636,-0.055283304,0.040011674,-0.00580322,223.51863,-83.15892,-5.0455127,STD
20915639097000,3.545034,-0.885216017170506,9.66986143041706,0.8248826229916,-0.05467244,0.043676864,-0.010079277,223.50832,-83.144264,-5.0675836,STD
20915644280000,3.550217,-0.890092640434249,9.67229978533183,0.815129396832539,-0.057421334,0.046731193,-0.0030543262,223.49803,-83.13112,-5.0860305,STD
20915649077000,3.555014,-0.878261357318259,9.69321114958817,0.830537501218601,-0.051618114,0.055588737,-0.012217305,223.4856,-83.115616,-5.10996,STD
20915653999000,3.559936,-0.86379252051875,9.71732585240702,0.849829288654014,-0.054061573,0.06536258,-0.0143553335,223.47177,-83.101204,-5.129482,STD
20915659096000,3.565033,-0.848809249253594,9.74229794510667,0.869806988889344,-0.051618114,0.06291912,-0.029626964,223.45993,-83.08541,-5.1553802,STD
20915664011000,3.569948,-0.834360989832711,9.76637835233028,0.889071339812759,-0.05131268,0.06291912,-0.020463986,223.44427,-83.07366,-5.1746225,STD
20915669042000,3.574979,-0.816034131267524,9.78120386241903,0.882069005489703,-0.049480084,0.049785517,-0.018325957,223.43445,-83.05746,-5.202603,STD
20915674042000,3.579979,-0.79751569851107,9.79509248274195,0.872809767357633,-0.03726278,0.055588737,-0.017104227,223.41913,-83.04521,-5.2279515,STD
20915679084000,3.585021,-0.752592463622642,9.81398634339623,0.892630659811321,-0.03970624,0.049785517,-0.020463986,223.41145,-83.03055,-5.249127,STD
20915683995000,3.589932,-0.704625406838348,9.83317355277919,0.916614195716471,-0.026267206,0.043676864,-0.021991149,223.40228,-83.02196,-5.2689786,STD
20915689075000,3.595012,-0.682007838408305,9.84820511764706,0.923648215397924,-0.021380283,0.05467244,-0.019242255,223.39166,-83.015724,-5.28487,STD
20915693988000,3.599925,-0.66340148412259,9.86215968907563,0.928299803969352,-0.021685716,0.058643065,-0.023823744,223.3851,-83.00916,-5.3024473,STD
20915699048000,3.604985,-0.647075052254703,9.85999366730026,0.966006796046077,-0.009773844,0.06627888,-0.031154128,223.37646,-83.0098,-5.3134165,STD
20915704016000,3.609953,-0.631482998744838,9.85531612125582,1.0081053372665,-0.00061086525,0.0693332,-0.025045475,223.36797,-83.01174,-5.3215003,STD
20915709096000,3.615033,-0.615539433561644,9.85053312328767,1.05115295993151,-0.0061086523,0.0842994,-0.02076942,223.35379,-83.01361,-5.333824,STD
20915713995000,3.619932,-0.600163936350528,9.84592054316052,1.09266679919054,-0.0076358155,0.07971791,-0.017715093,223.34453,-83.018715,-5.3439565,STD
20915719060000,3.624997,-0.584267448623583,9.84115166821787,1.1355873127335,0.014966198,0.089186326,-0.018020526,223.33377,-83.02403,-5.354896,STD
20915724059000,3.629996,-0.568578101704136,9.8364449345874,1.17794854613948,0.0018325958,0.0870483,-0.01740966,223.32774,-83.02326,-5.363967,STD
20915729081000,3.635018,-0.58008073476128,9.81656960119108,1.20633549880892,-0.0033597588,0.082161374,-0.030543262,223.32037,-83.02475,-5.376813,STD
20915734002000,3.639939,-0.599108687525992,9.79278468507116,1.23012041492884,-0.007330383,0.08093964,-0.022602014,223.31232,-83.02868,-5.3831553,STD
20915739087000,3.645024,-0.632712795533887,9.79300453782602,1.24825921968394,-0.0036651916,0.08277224,-0.029321533,223.29889,-83.02044,-5.388131,STD
20915744080000,3.650017,-0.66946152015947,9.79989482506364,1.26433680439502,-0.005192355,0.08979719,-0.025045475,223.2841,-83.01475,-5.387853,STD
20915749075000,3.655012,-0.70622496488304,9.80678787228013,1.28042082915606,-0.011301007,0.09865474,-0.018325957,223.26607,-83.00205,-5.392922,STD
20915754078000,3.660015,-0.743047289998559,9.81369195941208,1.29653061411691,-0.025045475,0.09254608,-0.02076942,223.25064,-82.986725,-5.399167,STD
20915759078000,3.665015,-0.759563291218354,9.82820930231408,1.32341493852848,-0.020158553,0.09254608,-0.017715093,223.21913,-82.98289,-5.3953424,STD
20915764085000,3.670022,-0.764305284651899,9.8471771770174,1.35660889256329,-0.025961773,0.08857546,-0.014966198,223.19106,-82.97385,-5.3923616,STD
20915769076000,3.675013,-0.777798159790472,9.85307726400599,1.37531020707907,-0.03359759,0.07574729,-0.014049901,223.16002,-82.95157,-5.401184,STD
20915774105000,3.680042,-0.797019627513096,9.85067453349963,1.38492090330756,-0.03726278,0.06994407,-0.011301007,223.12848,-82.93012,-5.4088116,STD
20915779119000,3.685056,-0.816183763357446,9.84827896961836,1.39450293370915,-0.05100725,0.05375614,-0.0027488936,223.10606,-82.90074,-5.4187946,STD
20915784091000,3.690028,-0.835187369942629,9.84590347228736,1.40400469979546,-0.04886922,0.044593163,-0.0027488936,223.096524725815,-82.8864844411028,-5.42419745682206,STD
20915789094000,3.695031,-0.854005901622462,9.83371015709706,1.3965436277373,-0.054367006,0.032986723,-0.0009162979,223.08693,-82.87214,-5.429634,STD
20915794161000,3.700098,-0.872863628465948,9.81485252870883,1.37768595012144,-0.062308256,0.0143553335,-0.0018325958,223.07181,-82.84185,-5.438525,STD
20915799042000,3.704979,-0.846001307896416,9.78561112820279,1.37415871569253,-0.06078109,0.0143553335,0.009468411,223.070466605505,-82.8238888648049,-5.44554263695937,STD
20915804080000,3.710017,-0.780010674195313,9.74601686742044,1.38295746072764,-0.05467244,-0.015882496,0.003970624,223.06908,-82.80535,-5.452786,STD
20915809057000,3.714994,-0.696202127779221,9.7230347107219,1.38691983561145,-0.049480084,-0.0143553335,-0.0018325958,223.06258,-82.76507,-5.470673,STD
20915814086000,3.720023,-0.576054296881659,9.73054384070474,1.38191367925783,-0.050701816,-0.01740966,-0.0125227375,223.0648,-82.72591,-5.485739,STD
20915819100000,3.725037,-0.456264830959929,9.73803057320306,1.37692245476846,-0.058643065,-0.019547688,-0.016798794,223.06932,-82.694824,-5.4910607,STD
20915824149000,3.730086,-0.33563918009459,9.74556956649862,1.37189638926251,-0.056199603,-0.007941248,-0.021380283,223.07062,-82.6638,-5.499664,STD
20915829672000,3.735609,-0.22777344690297,9.75800458108911,1.34009871268317,-0.06047566,-0.004581489,-0.021685716,223.07701,-82.62983,-5.5039434,STD
20915834086000,3.740023,-0.156622511449505,9.77056088148515,1.29824520838614,-0.057726767,0.008246681,-0.027794369,223.07718,-82.59616,-5.51166,STD
20915839042000,3.744979,-0.0880169008795336,9.78688820664097,1.26250498317027,-0.05467244,0.019547688,-0.027488936,223.09029,-82.59564,-5.4835386,STD
20915844052000,3.749989,-0.0311182333432157,9.80585431692855,1.23879722153375,-0.061086524,0.02321288,-0.029626964,223.10184,-82.59193,-5.4587054,STD
20915849016000,3.754953,0.00839858762302839,9.80782846214511,1.2195323637224,-0.05955936,0.0421497,-0.01985312,223.1184,-82.606415,-5.4201756,STD
20915854067000,3.760004,0.0274728979125591,9.78875426488565,1.20522664108833,-0.060170226,0.061391957,-0.024129177,223.13387,-82.61552,-5.387299,STD
20915859021000,3.764958,0.0343300052984762,9.76996560352555,1.18119200322677,-0.050701816,0.07269296,-0.019547688,223.14996,-82.64132,-5.3407407,STD
20915864163000,3.7701,0.0245214326417687,9.75034857394682,1.14195768801912,-0.05131268,0.087964594,-0.015577064,223.1594,-82.66334,-5.2972546,STD
20915868996000,3.774933,0.00394172938989051,9.739613,1.11985257192683,-0.038179077,0.09560041,-0.006414085,223.1676,-82.69588,-5.2462816,STD
20915878997000,3.784934,-0.0714094632726677,9.739613,1.11671294113945,-0.044593163,0.12583824,0.0033597588,223.1701,-82.758736,-5.147577,STD
20915884108000,3.790045,-0.109917607028126,9.739613,1.1151084362945,-0.03176499,0.12980886,0.005192355,223.16925,-82.79577,-5.1005898,STD
20915889007000,3.794944,-0.146828465227693,9.739613,1.11357048496689,-0.028405234,0.1328632,0.01038471,223.16463,-82.82916,-5.053397,STD
20915894096000,3.800033,-0.185170852934898,9.739613,1.11197288661903,-0.02565634,0.15149458,0.018020526,223.15472,-82.86485,-5.00678,STD
20915899597000,3.805534,-0.233673752083661,9.750220845603,1.11974959441097,-0.027794369,0.15454891,0.027488936,223.14577,-82.90225,-4.965595,STD
20915904085000,3.810022,-0.28246854931709,9.77274119142433,1.1385168105493,-0.01740966,0.15790866,0.03268129,223.13191,-82.94235,-4.9250245,STD
20915909323000,3.81526,-0.342274251382521,9.80042956101712,1.16252308151967,-0.022602014,0.15027285,0.03268129,223.1156,-82.96542,-4.8997936,STD
20915914085000,3.820022,-0.429018688923816,9.84151939022925,1.20817807122835,-0.01985312,0.14935656,0.037873644,223.09683,-82.99343,-4.872635,STD
20915919302000,3.825239,-0.524123726329855,9.88392937735676,1.2565548979773,-0.021380283,0.14508049,0.03756821,223.08267,-83.00459,-4.859508,STD
20915924137000,3.830074,-0.613120720801757,9.89240500933553,1.28198263470621,-0.02076942,0.13897185,0.04917465,223.06932,-83.01967,-4.841869,STD
20915929046000,3.834983,-0.703479820256269,9.90101036143145,1.30779954465495,-0.03359759,0.115453534,0.052534413,223.05618,-83.01287,-4.8447294,STD
20915934124000,3.840061,-0.788364708904109,9.89073413869863,1.30033849469178,-0.028405234,0.10048734,0.048258353,223.04257,-83.01059,-4.8465986,STD
20915939074000,3.845011,-0.869538003424658,9.87720545719178,1.28680953065069,-0.03634648,0.07696902,0.05955936,223.03783,-83.006714,-4.842361,STD
20915944074000,3.850011,-0.952905000823453,9.873688,1.27973419593276,-0.03848451,0.060170226,0.061391957,223.0289,-82.98632,-4.857316,STD
20915948978000,3.854915,-1.0351383856331,9.873688,1.2750351732703,-0.04062254,0.03145956,0.061391957,223.0298,-82.966606,-4.868416,STD
20915954070000,3.860007,-1.12052427377558,9.873688,1.27015600862975,-0.047036625,0.014049901,0.06780604,223.02892,-82.937416,-4.887556,STD
20915958989000,3.864926,-1.20300918810646,9.873688,1.26544261293712,-0.049480084,-0.020463986,0.06536258,223.041,-82.90761,-4.9075036,STD
20915964084000,3.870021,-1.27610751533415,9.87033618464711,1.2674902453557,-0.05955936,-0.045814894,0.064446285,223.0548,-82.877266,-4.9244776,STD
20915969474000,3.875411,-1.34868084170025,9.86549786521698,1.27232846374543,-0.06566802,-0.07544186,0.07147124,223.0789,-82.84922,-4.938349,STD
20915974060000,3.879997,-1.4091389882421,9.85221428833061,1.27173252162309,-0.07269296,-0.10262536,0.067500606,223.1053,-82.79495,-4.984665,STD
20915979090000,3.885027,-1.47473175669254,9.83253639957789,1.26845288491285,-0.074830994,-0.12980886,0.065973446,223.13884,-82.74383,-5.0261526,STD
20915984052000,3.889989,-1.53943778393927,9.81312453397331,1.26521758523965,-0.08307768,-0.14110987,0.06841691,223.16998,-82.68185,-5.0766287,STD
20915989105000,3.895042,-1.57708008947784,9.79701378047577,1.25129002841773,-0.08124508,-0.16157386,0.06780604,223.21028,-82.62241,-5.1258383,STD
20915994081000,3.900018,-1.60059906924292,9.78290258908301,1.23247484460567,-0.092240654,-0.19853121,0.06505715,223.25711,-82.56054,-5.17267,STD
20915999027000,3.904964,-1.60593610637388,9.76605033253984,1.19318993912748,-0.089491755,-0.23457226,0.07696902,223.29942,-82.49581,-5.230318,STD
20916004083000,3.91002,-1.60123145219588,9.74723156845123,1.14143869404392,-0.1001819,-0.25717425,0.0711658,223.3474,-82.42402,-5.291235,STD
20916009070000,3.915007,-1.59659100314808,9.72866962689467,1.09039370606296,-0.09590584,-0.2764165,0.06505715,223.40204,-82.35918,-5.3492136,STD
20916014057000,3.919994,-1.59195055410027,9.71010768533813,1.03934871808201,-0.093767814,-0.2910773,0.05955936,223.46014,-82.29274,-5.406283,STD
20916019063000,3.925,-1.55822640501662,9.6934242428334,0.983618021474865,-0.10720685,-0.30207285,0.055588737,223.5209,-82.22517,-5.462319,STD
20916024203000,3.93014,-1.4968743549543,9.67808645720814,0.922266003444121,-0.10567969,-0.30573806,0.049480084,223.58203,-82.1616,-5.5184326,STD
20916029064000,3.935001,-1.44089926590393,9.66578930765614,0.884386343250529,-0.111177474,-0.31642818,0.04062254,223.6478,-82.10985,-5.5705514,STD
20916034132000,3.940069,-1.38384822476295,9.65437925828697,0.857762500222553,-0.11026118,-0.31306845,0.032986723,223.70886,-82.06036,-5.6225395,STD
20916039220000,3.945157,-1.32298376610448,9.64421737139326,0.831134091234492,-0.09193522,-0.29871312,0.026572637,223.77368,-82.02771,-5.6650767,STD
20916044053000,3.94999,-1.22617683941246,9.64861754484955,0.806932356115416,-0.092240654,-0.2864958,0.019547688,223.8366,-81.99117,-5.7083626,STD
20916049020000,3.954957,-1.12668583902363,9.65313971773542,0.782059602476589,-0.09254608,-0.28313604,0.015271631,223.90198,-81.97188,-5.7398458,STD
20916054026000,3.959963,-1.02641365300661,9.65769739791795,0.756991552402909,-0.07666359,-0.28771752,0.0067195175,223.96497,-81.95438,-5.7732925,STD
20916059011000,3.964948,-0.926562105404763,9.6622359587869,0.732028661947996,-0.08155051,-0.27366763,0.011301007,224.01994,-81.93541,-5.8034654,STD
20916064056000,3.969993,-0.828219318985926,9.65911328667823,0.747260501542317,-0.06169739,-0.24801129,0.0018325958,224.07877,-81.917274,-5.840809,STD
20916069003000,3.97494,-0.732315539043763,9.65454634827453,0.770094764382109,-0.05589417,-0.24037547,-0.0015271631,224.13696,-81.89854,-5.8735857,STD
20916074071000,3.980008,-0.636814911318625,9.66098628948179,0.794634212933812,-0.03848451,-0.23762658,-0.0027488936,224.20323,-81.91971,-5.8748045,STD
20916078985000,3.984922,-0.545060370507953,9.67064485859415,0.818780111285788,-0.03268129,-0.22388211,-0.012217305,224.26338,-81.93745,-5.8791957,STD
20916084127000,3.990064,-0.458371789937932,9.672575,0.829636476233537,-0.02321288,-0.19700404,-0.01160644,224.32362,-81.97075,-5.8688035,STD
20916089086000,3.995023,-0.376890878087501,9.672575,0.836825972724428,-0.014049901,-0.17715092,-0.015577064,224.38136,-82.00203,-5.862197,STD
20916094049000,3.999986,-0.295344242573548,9.672575,0.844021268365545,-0.0076358155,-0.15271631,-0.016798794,224.43372,-82.04441,-5.842509,STD
20916098981000,4.004918,-0.214306965451885,9.672575,0.851171620592421,0.0030543262,-0.14294247,-0.0061086523,224.48373,-82.09056,-5.8206615,STD
20916104037000,4.009974,-0.159256460400972,9.67638021122945,0.86375119529148,0.014966198,-0.12003502,-0.007941248,224.52289,-82.13468,-5.8037133,STD
20916109057000,4.014994,-0.109851445684978,9.68087166676009,0.877225280493274,0.018936822,-0.10476339,-0.013744468,224.5609,-82.18,-5.7849703,STD
20916114044000,4.019981,-0.0922994232356895,9.71683839315543,0.888003500362599,0.020463986,-0.090713486,-0.0067195175,224.60133,-82.2486,-5.740466,STD
