timestamp,rel_time,acc_x,acc_y,acc_z,gyro_x,gyro_y,gyro_z,azimuth,pitch,roll,label
3178947218000,0,-0.576612189364073,9.77078872781512,0.00489177425727399,-0.0729984,-0.03604105,0.006414085,191.3778,-88.732,1.2670511,STD
3178952235000,0.005017,-0.576371698209593,9.76934578189272,0.00200589049844084,-0.067500606,-0.043066,0.002443461,191.3616,-88.82047,1.1792002,STD
3178957263000,0.010045,-0.576130679767352,9.76789967224594,-0.000886320691396341,-0.053450707,-0.04428773,0.008246681,191.34412,-88.904686,1.0952998,STD
3178962223000,0.015005,-0.575892920922182,9.76647312016798,-0.00373941685320866,-0.056199603,-0.04550946,0.004276057,191.32814,-91.00966,1.0095623,STD
3178967215000,0.019997,-0.575653628148979,9.76503736452822,-0.00661092008703269,-0.047647487,-0.05375614,-0.003970624,191.31407,-90.92708,0.9262698,STD
3178972263000,0.025045,-0.575411651001717,9.76358550265533,-0.00951463569687718,-0.035430185,-0.0571159,-0.009162978,191.2985,-90.847046,0.8446984,STD
3178977378000,0.03016,-0.575166462192635,9.76211437082493,-0.0124568911137461,-0.02443461,-0.06414085,-0.004276057,191.28583,-90.77074,0.7656567,STD
3178982254000,0.035036,-0.574932729908553,9.76071197809667,-0.0152616687115278,-0.0061086523,-0.0711658,-0.0125227375,191.2736,-90.69353,0.68336666,STD
3178987214000,0.039996,-0.574694971063383,9.75928542601871,-0.0181147648733401,0.016798794,-0.06994407,-0.010995574,191.26057,-90.62583,0.6072144,STD
3178992228000,0.04501,-0.571697312224538,9.76075780518457,-0.0200729049101427,0.027183503,-0.07849618,-0.016187929,191.2518,-90.5602,0.5287302,STD
3178997223000,0.050005,-0.567164617885876,9.76385913526467,-0.0215042821221636,0.035124753,-0.080634214,-0.016798794,191.24039,-90.50579,0.4539105,STD
3179002207000,0.054989,-0.562641905456667,9.76695363558883,-0.022932507152136,0.04428773,-0.08093964,-0.016798794,191.23198,-90.467094,0.38147572,STD
3179007235000,0.060017,-0.558079265389641,9.77007545493671,-0.0243733409103023,0.04062254,-0.09040806,-0.021380283,191.22627,-90.43996,0.30936083,STD
3179012218000,0.065,-0.553557460406746,9.77316933437397,-0.0258012793782703,0.040317107,-0.09560041,-0.011301007,191.21893,-90.432724,0.24322417,STD
3179017202000,0.069984,-0.549034747977538,9.77626383469813,-0.0272295044082427,0.054367006,-0.09896017,-0.013133603,191.21321,-90.4403,0.17412524,STD
3179022236000,0.075018,-0.544466663232627,9.77938937936744,-0.0286720575384355,0.052839845,-0.10140363,-0.013133603,191.20824,-90.458176,0.110099725,STD
3179027263000,0.080045,-0.539904930611915,9.78251057782843,-0.0301126047345974,0.04886922,-0.099265605,-0.011911872,191.2024,-90.48906,0.04755092,STD
3179032210000,0.084992,-0.535415793696327,9.78558210533718,-0.0315302269704066,0.043066,-0.09712757,-0.016798794,191.19675,-90.526375,-0.015145516,STD
3179037203000,0.089985,-0.530884914250292,9.78868219364346,-0.0329610310584187,0.042760566,-0.105068825,-0.0106901415,191.19296,-90.569176,-0.07282178,STD
3179042241000,0.095023,-0.526313199720125,9.79181022186038,-0.0344047304366291,0.032070424,-0.09987647,-0.02076942,191.1843,-90.61187,-0.13496849,STD
3179047214000,0.099996,-0.521800469200371,9.79489789242861,-0.035829803284553,0.020463986,-0.09101892,-0.021991149,191.17647,-90.65595,-0.19138093,STD
3179052203000,0.104985,-0.517273219539592,9.79799549718728,-0.0372594611245474,0.015577064,-0.093462385,-0.01985312,191.16995,-90.70111,-0.24827215,STD
3179057233000,0.110015,-0.512708764579938,9.80111855830898,-0.0387008680067226,0.015882496,-0.095294975,-0.02076942,191.16035,-90.746216,-0.30495527,STD
3179062218000,0.115,-0.508185144704416,9.80421367952004,-0.0401293795986994,-0.002443461,-0.09468412,-0.021991149,191.15042,-90.78593,-0.35976166,STD
3179067207000,0.119989,-0.503657895043637,9.80731128427872,-0.0415590374386938,-0.0021380284,-0.09162979,-0.028710667,191.13995,-90.831894,-0.41508144,STD
3179072235000,0.125017,-0.499095254976611,9.81043310362661,-0.0429998711968601,-0.01282817,-0.07971791,-0.025350908,191.12648,-90.86976,-0.46654546,STD
3179077290000,0.130072,-0.494508113859105,9.81357168692087,-0.0444484421291455,-0.015271631,-0.07147124,-0.032375857,191.11282,-90.912636,-0.52162564,STD
3179082208000,0.13499,-0.490045292886624,9.81662520870944,-0.0458577540668269,-0.016187929,-0.07941248,-0.021991149,191.10025,-90.95017,-0.56958556,STD
3179087946000,0.140728,-0.484838365936624,9.82018785775841,-0.0475020468481234,-0.013439035,-0.08368854,-0.012217305,191.08406,-90.98922,-0.61851,STD
3179092252000,0.145034,-0.480930902108339,9.82286139676238,-0.0487359828391067,-0.004581489,-0.07971791,-0.014660766,191.0676,-91.02963,-0.66686344,STD
3179097224000,0.150006,-0.4764190790349,9.82594844644371,-0.0501607691250262,-0.008246681,-0.07696902,-0.015882496,191.0526,-91.06563,-0.7110788,STD
3179102206000,0.154988,-0.471898181498319,9.82904170499407,-0.0515884210309897,-0.016493361,-0.09560041,-0.020158553,191.04243,-91.10317,-0.7559458,STD
3179107222000,0.160004,-0.467346430787062,9.83215607369912,-0.0530258160451032,-0.008246681,-0.09987647,-0.013744468,191.02731,-91.14101,-0.7970686,STD
3179112239000,0.165021,-0.46279377262949,9.83527106329108,-0.054463497621221,-0.005497787,-0.110872045,-0.013133603,191.0192,-91.17748,-0.84016335,STD
3179117206000,0.169988,-0.45828648678762,9.83835500853789,-0.0558868510971185,-0.0021380284,-0.12034045,-0.027488936,191.01164,-91.216965,-0.8847632,STD
3179122216000,0.174998,-0.453740180754246,9.84146565192152,-0.0573225267392055,-0.0033597588,-0.10995574,-0.015577064,191.00142,-91.24982,-0.92066574,STD
3179127351000,0.180133,-0.449080443931617,9.84465390616802,-0.0587940226318435,-0.0012217305,-0.11484267,-0.0143553335,190.99785,-91.28844,-0.9627834,STD
3179132208000,0.18499,-0.444672977184293,9.84766955385551,-0.060185854287256,-0.00030543262,-0.118507855,-0.011911872,190.9908,-91.32305,-1.0001706,STD
3179137214000,0.189996,-0.440130300936175,9.85077771369154,-0.0616203836813254,0.0030543262,-0.106901415,-0.004276057,190.98058,-91.35634,-1.0347761,STD
3179142305000,0.195087,-0.435510491751364,9.85393864891431,-0.0630792708457695,-0.0027488936,-0.10445796,-0.013439035,190.97372,-91.3905,-1.0726819,STD
3179147223000,0.200005,-0.431047670778883,9.85699217070288,-0.0644885827834509,-0.0061086523,-0.09865474,-0.0021380284,190.9626,-91.418785,-1.1017141,STD
3179152203000,0.204985,-0.426528588134931,9.86008418747943,-0.0659156615654056,-0.0033597588,-0.10140363,0.0015271631,190.95302,-91.45012,-1.1347935,STD
3179157427000,0.210209,-0.421788088590351,9.86332770066029,-0.067412661476436,-0.007330383,-0.0870483,0.004276057,190.93686,-91.476715,-1.1641219,STD
3179162280000,0.215062,-0.417384251628283,9.86634086480017,-0.0688033468838309,-0.007330383,-0.052839845,0.005497787,190.91576,-91.503395,-1.1921216,STD
3179167254000,0.220036,-0.412870613662215,9.8694291562553,-0.0702287062937592,-0.002443461,-0.028405234,0.005192355,190.89339,-91.529396,-1.2191905,STD
3179172300000,0.225082,-0.408291639561536,9.87256215156744,-0.0716746981680049,-0.014660766,-0.015577064,0.005192355,190.878147606923,-91.5400601543664,-1.23297103867118,STD
3179177308000,0.23009,-0.40374714842079,9.87567155317727,-0.073109800686083,-0.027183503,-0.009468411,0.00030543262,190.86302,-91.550644,-1.2466478,STD
3179182242000,0.235024,-0.399269808307284,9.87873500915629,-0.074523697615835,-0.039095376,-0.006414085,-0.00061086525,190.83058,-91.5737,-1.2726507,STD
3179187223000,0.240005,-0.394749818217018,9.88182764681974,-0.0759510629597941,-0.056505036,-0.006414085,-0.004886922,190.811829698211,-91.5826197082043,-1.28555943909264,STD
3179192249000,0.245031,-0.39003001826087,9.89112205941693,-0.0556619890757591,-0.057421334,-0.002443461,0.0021380284,190.79291,-91.59162,-1.2985848,STD
3179197214000,0.249996,-0.385233396521739,9.90551169423989,-0.0172890682536064,-0.06078109,0.017715093,0.003970624,190.75017,-91.61044,-1.3246449,STD
3179202203000,0.254985,-0.385605216140317,9.92212675050456,0.0202636210867852,-0.050396383,0.028099801,0.002443461,190.74855,-91.62808,-1.3488307,STD
3179207239000,0.260021,-0.390240378612206,9.94066726487266,0.0573448695580971,-0.0571159,0.03359759,0.002443461,190.74243,-91.64153,-1.3714477,STD
3179212213000,0.264995,-0.397214256984528,9.93888905753868,0.0994403546534533,-0.03940081,0.04184427,0.004886922,190.73236,-91.657364,-1.3928018,STD
3179217230000,0.270012,-0.406931479271918,9.91459600182021,0.148026499574274,-0.027183503,0.04550946,0.0070249503,190.722,-91.67131,-1.4137838,STD
3179222267000,0.275049,-0.433307862324891,9.88091288504155,0.193887697334784,-0.013439035,0.054061573,0.009162978,190.73196,-91.68984,-1.4457141,STD
3179227321000,0.280103,-0.476403497324891,9.83781738504155,0.236983322334784,-0.0067195175,0.058337633,0.009162978,190.74155,-91.70916,-1.4767479,STD
3179232307000,0.285089,-0.521327438171168,9.80689366223193,0.284240604795473,0.008552114,0.064446285,0.0125227375,190.74615,-91.72964,-1.5078114,STD
3179237248000,0.29003,-0.568308190026807,9.7881014772637,0.335919427421565,0.006414085,0.06505715,0.0067195175,190.75066,-91.750854,-1.5406728,STD
3179242308000,0.29509,-0.612434201143636,9.78206923627273,0.376366767429091,0.0027488936,0.071776666,0.009468411,190.7469,-91.77596,-1.5778927,STD
3179247227000,0.300009,-0.650977365501818,9.79063410963636,0.402062210334545,-0.0125227375,0.070554934,0.01160644,190.74486,-91.80088,-1.6160282,STD
3179252240000,0.305022,-0.683920170642587,9.79839531782864,0.434602407664847,-0.012217305,0.07880162,0.016187929,190.76393,-91.84374,-1.6764629,STD
3179257277000,0.310059,-0.699114944351113,9.80346034817304,0.48525167451491,-0.03634648,0.089186326,0.016493361,190.78168,-91.88292,-1.7358463,STD
3179262223000,0.315005,-0.705198369566109,9.80490729838958,0.524118211785824,-0.047647487,0.0852157,0.009773844,190.8087,-91.939156,-1.8098857,STD
3179267221000,0.320003,-0.695378932413581,9.79999747727972,0.543757116850959,-0.05009095,0.08399397,0.014966198,190.83081,-91.99089,-1.8784627,STD
3179272199000,0.324981,-0.695206956956651,9.80653442826108,0.551670228695566,-0.061391957,0.093462385,0.017715093,190.86047,-92.05141,-1.9576428,STD
3179278130000,0.330912,-0.712033263108522,9.83457827184754,0.540452691260986,-0.057421334,0.09468412,0.021685716,190.89143,-92.11169,-2.0328841,STD
3179282212000,0.334994,-0.723451448372271,9.85014805677901,0.544952787847568,-0.058643065,0.087659165,0.02321288,190.93834,-92.17562,-2.1126292,STD
3179287226000,0.340008,-0.737244461164305,9.8639413576216,0.567941161704328,-0.053145275,0.082161374,0.01740966,190.98274,-92.24147,-2.1910932,STD
3179292206000,0.344988,-0.750367551712141,9.87301265654137,0.575405950625675,-0.05375614,0.08460484,0.01985312,191.0242,-92.30644,-2.2668517,STD
3179297261000,0.350043,-0.762245752411424,9.87063697026205,0.544522646667975,-0.052534413,0.08735373,0.02076942,191.06549,-92.37338,-2.3424695,STD
3179302183000,0.354965,-0.773811430718422,9.86832378967514,0.5144519004603,-0.04550946,0.077579886,0.02443461,191.12315,-92.44834,-2.4253721,STD
3179307273000,0.360055,-0.785771874152517,9.86593165452939,0.483354765515752,-0.04520403,0.06872234,0.021380283,191.17784,-92.52385,-2.5074432,STD
3179312228000,0.36501,-0.790649443584694,9.85988550336734,0.454404826117347,-0.04734206,0.061391957,0.02076942,191.23297,-92.59671,-2.5853553,STD
3179317233000,0.370015,-0.77108537354898,9.84032157122449,0.42994975772449,-0.03848451,0.058643065,0.02076942,191.28743,-92.66925,-2.6615734,STD
3179322266000,0.375048,-0.754081614741193,9.82331792772092,0.400615289845503,-0.040011674,0.049785517,0.017715093,191.36568,-92.75752,-2.7524233,STD
3179327374000,0.380156,-0.744453924444007,9.81369028768943,0.35729065837532,-0.035430185,0.051923547,0.020158553,191.43916,-92.84212,-2.838746,STD
3179332285000,0.385067,-0.735197544833694,9.80443395640622,0.315636925965361,-0.040317107,0.043982297,0.016493361,191.5325,-92.93168,-2.9295666,STD
3179337250000,0.390032,-0.72583938462901,9.79507584506003,0.273525180615036,-0.03268129,0.03023783,0.016493361,191.62425,-93.01692,-3.0155938,STD
3179342327000,0.395109,-0.717426154582955,9.78916563856117,0.229408027154525,-0.027183503,0.030848695,0.011301007,191.71281,-93.10367,-3.102846,STD
3179347230000,0.400012,-0.713552295132415,9.79691311475951,0.182921677342628,-0.029626964,0.027183503,0.016493361,191.8039,-93.18458,-3.1841347,STD
3179352252000,0.405034,-0.709584413802491,9.804848628826,0.135307064094547,-0.03268129,0.01863139,0.005497787,191.89626,-93.264336,-3.264004,STD
3179357280000,0.410062,-0.720725937516171,9.81869248900388,0.0683013409340233,-0.0290161,0.017104227,0.0106901415,191.98514,-93.33525,-3.3349907,STD
3179362200000,0.414982,-0.735964571410091,9.83393144113842,-0.00281233535316947,-0.027183503,0.014049901,0.004886922,192.07439,-93.4097,-3.4095151,STD
3179367263000,0.420045,-0.728668120471032,9.84849978664414,-0.0576797277428202,-0.033292156,0.014966198,0.004886922,192.16173,-93.47651,-3.4763439,STD
3179372192000,0.424974,-0.719286415770645,9.86257214776905,-0.109279139351386,-0.029321533,0.0125227375,0.0018325958,192.24854,-93.5433,-3.5431082,STD
3179377374000,0.430156,-0.692950710188787,9.88942087790532,-0.148668088438478,-0.029321533,0.013133603,0.0106901415,192.3317,-93.60548,-3.6052222,STD
3179382193000,0.434975,-0.666681514173228,9.91569016535433,-0.183693705984252,-0.038179077,0.0021380284,0.0076358155,192.41664,-93.66941,-3.669104,STD
3179387244000,0.440026,-0.671792585926211,9.91790762816684,-0.202529023578653,-0.035124753,0.0067195175,0.005497787,192.50026,-93.72569,-3.7253013,STD
3179392220000,0.445002,-0.68556413687506,9.91331701531644,-0.216300584114247,-0.041233405,0.003970624,0.012217305,192.58691,-93.77789,-3.7774901,STD
3179397234000,0.450016,-0.682720902978259,9.89837667705748,-0.230480352642708,-0.053450707,-0.005192355,0.006414085,192.67505,-93.82598,-3.8255098,STD
3179402225000,0.455007,-0.673230620281942,9.87939621076144,-0.244715786596843,-0.042760566,-0.0067195175,0.011301007,192.75972,-93.86712,-3.8664937,STD
3179407272000,0.460054,-0.667323975703371,9.85842537851685,-0.236786866438652,-0.054061573,-0.0070249503,0.01160644,192.8436,-93.91143,-3.9107926,STD
3179412970000,0.465752,-0.662418932431461,9.8339001621573,-0.217166683107416,-0.04886922,-0.011911872,0.009773844,192.92725,-93.95312,-3.9523249,STD
3179417239000,0.470021,-0.663143596525571,9.82814782310136,-0.196626360322435,-0.05467244,-0.015577064,0.010995574,193.00955,-93.99015,-3.989291,STD
3179422277000,0.475059,-0.668088550753305,9.83309262242493,-0.1669566127531,-0.051618114,-0.022907447,0.0061086523,193.0924,-94.02775,-4.026725,STD
3179427274000,0.480056,-0.672993262201496,9.83799718022958,-0.137528322041714,-0.05375614,-0.025045475,0.0125227375,193.17293,-94.059685,-4.058624,STD
3179432237000,0.485019,-0.677864601588603,9.84286836701855,-0.108300263846674,-0.04642576,-0.0290161,0.012217305,193.25418,-94.09333,-4.092144,STD
3179437220000,0.490002,-0.682334364530175,9.84733811425586,-0.0767195353271793,-0.04337143,-0.02443461,0.004886922,193.33333,-94.12629,-4.1250157,STD
3179442322000,0.495104,-0.686589422755377,9.85159326134285,-0.0426790473101106,-0.04184427,-0.024740042,0.008552114,193.41318,-94.154625,-4.1532283,STD
3179447220000,0.500002,-0.690919627241963,9.85175503257191,-0.0177640857423858,-0.038789943,-0.025961773,0.0067195175,193.49162,-94.189125,-4.187739,STD
3179452246000,0.505028,-0.696009834179357,9.84157493760575,-0.0126738750843909,-0.03359759,-0.03359759,0.00580322,193.57016,-94.22076,-4.219351,STD
3179457235000,0.510017,-0.697273751625694,9.83904718189929,0.00875468956790246,-0.045814894,-0.018325957,0.0061086523,193.64287,-94.25438,-4.2531214,STD
3179462236000,0.515018,-0.692526172640761,9.84854204242664,0.0562305126316416,-0.049480084,-0.02687807,0.005497787,193.72278,-94.287025,-4.2858257,STD
3179467185000,0.519967,-0.682805524946152,9.8511718177991,0.10972728848737,-0.05100725,-0.01740966,0.010079277,193.7983,-94.32054,-4.3195267,STD
3179472301000,0.525083,-0.663618170804778,9.8415784412571,0.176883073061484,-0.056505036,-0.025350908,0.006414085,193.87935,-94.35494,-4.354144,STD
3179477228000,0.53001,-0.648133782694641,9.83383641473601,0.238801200609526,-0.054061573,-0.024740042,0.008857546,193.95322,-94.38464,-4.384083,STD
3179482243000,0.535025,-0.638582658596997,9.82906077040867,0.296107780638361,-0.061086524,-0.016798794,0.0076358155,194.02544,-94.41497,-4.414643,STD
3179487191000,0.539973,-0.629221167960296,9.82722806150253,0.346580500054496,-0.06383542,-0.014660766,0.008552114,194.09796,-94.44058,-4.4404707,STD
3179492248000,0.54503,-0.619795350071039,9.83194107133126,0.384283810980926,-0.06414085,-0.014966198,0.008246681,194.16722,-94.465744,-4.4657354,STD
3179497205000,0.549987,-0.611706300934617,9.8359856190215,0.419058721968979,-0.06688975,-0.014049901,-0.0030543262,194.2338,-85.50783,-4.4921327,STD
3179502210000,0.554992,-0.606925304076605,9.83837591775971,0.44774473307067,-0.060170226,-0.009773844,0.009773844,194.29788,-85.48919,-4.5105834,STD
3179507232000,0.560014,-0.602128068068426,9.84077433539474,0.476528179175103,-0.06291912,-0.009468411,0.008857546,194.34857,-85.47249,-4.5268307,STD
3179512236000,0.565018,-0.597348026454541,9.8431641565508,0.505208458806045,-0.053450707,-0.014049901,0.005497787,194.39827,-85.459366,-4.539413,STD
3179517231000,0.570013,-0.595469054601905,9.84268099162158,0.525017381833198,-0.05100725,-0.013744468,0.007941248,194.44698,-85.44644,-4.551675,STD
3179522249000,0.575031,-0.602371390840714,9.83347792148226,0.518115031179681,-0.052839845,-0.0027488936,0.0143553335,194.49274,-85.43437,-4.563017,STD
3179527463000,0.580245,-0.609543328096424,9.82391538507205,0.510943078946234,-0.0421497,0.0027488936,0.008552114,194.53984,-85.4191,-4.577581,STD
3179532208000,0.58499,-0.616070148633121,9.81521300009575,0.504416244779049,-0.04642576,-0.0021380284,0.014660766,194.58566,-85.40944,-4.586262,STD
3179537323000,0.590105,-0.620753851925308,9.80578073796683,0.499297886165666,-0.047036625,-0.00030543262,0.011301007,194.62695,-85.396164,-4.5986834,STD
3179542276000,0.595058,-0.601446279719141,9.79612725175537,0.513778594301414,-0.05589417,0.003970624,0.014966198,194.66791,-85.387,-4.606751,STD
3179547218000,0.6,-0.583211261867827,9.78847094558765,0.525263433310249,-0.062002823,0.008857546,0.013133603,194.70609,-85.3734,-4.619316,STD
3179552230000,0.605012,-0.5737140276296,9.79796786248516,0.511017586911357,-0.053145275,0.016187929,0.0125227375,194.7414,-85.36183,-4.6299143,STD
3179557255000,0.610037,-0.56587546499453,9.80960353893585,0.495040426484336,-0.064751714,0.01985312,0.012217305,194.77675,-85.35277,-4.637422,STD
3179562243000,0.615025,-0.575377041953257,9.84285918727002,0.461784951775236,-0.06658431,0.018936822,0.010079277,194.8105,-85.34374,-4.645173,STD
3179567301000,0.620083,-0.583467763756258,9.87476419713447,0.42808639952011,-0.05955936,0.009773844,0.014049901,194.85307,-85.33648,-4.650719,STD
3179572294000,0.625076,-0.575213480611082,9.88714542361471,0.395069318653547,-0.05375614,0.0061086523,0.010995574,194.89339,-85.32697,-4.658402,STD
3179577279000,0.630061,-0.566972422834455,9.89950681235975,0.362105139178319,-0.036651913,-0.004581489,0.0070249503,194.93727,-85.31894,-4.665265,STD
3179582209000,0.634991,-0.568747172854044,9.88755578617911,0.343195133678339,-0.028710667,-0.004276057,0.006414085,194.9781,-85.311455,-4.6715302,STD
3179587194000,0.639976,-0.57367851754984,9.86783051038116,0.328401089292428,-0.022907447,-0.0076358155,0.008246681,195.02208,-85.30447,-4.677629,STD
3179592279000,0.645061,-0.5949496025237,9.8505502761978,0.308660432586899,-0.010995574,-0.010079277,-0.0033597588,195.0662,-85.29743,-4.684554,STD
3179597239000,0.650021,-0.619290341852421,9.83432320983859,0.288376476792211,-0.0125227375,-0.014049901,0.00061086525,195.11075,-85.295685,-4.685986,STD
3179602209000,0.654991,-0.636436347974366,9.82362040339212,0.242790558806977,-0.013744468,-0.015882496,0.0009162979,195.1542,-85.28976,-4.6920547,STD
3179607228000,0.66001,-0.64570032308567,9.81898833603161,0.168678975566156,-0.016798794,-0.018325957,0.004581489,195.19804,-85.28639,-4.6954517,STD
3179612211000,0.664993,-0.652153244415711,9.81901799438887,0.10868262356687,-0.009468411,-0.021685716,0.0067195175,195.2287,-85.2826,-4.700514,STD
3179617201000,0.669983,-0.654484946391803,9.82601300292754,0.0690436614868505,-0.008552114,-0.022602014,-0.0009162979,195.25876,-85.27722,-4.706877,STD
3179622234000,0.675016,-0.656836741190534,9.8330682890949,0.0290631211764821,-0.014049901,-0.028099801,0.004276057,195.29074,-85.276886,-4.7087955,STD
3179627252000,0.680034,-0.659181526865089,9.84010254818248,-0.010798263937253,-0.014049901,-0.011301007,0.004276057,195.301477051513,-85.2735839166166,-4.7128827711365,STD
3179632212000,0.684994,-0.665381017511717,9.85106555091606,-0.0367801200465488,-0.018936822,0.002443461,-0.0061086523,195.31209,-85.27032,-4.7169228,STD
3179637203000,0.689985,-0.680655136216447,9.87143146783127,-0.0316887434235194,-0.019547688,0.013133603,-0.0036651916,195.34148,-85.26888,-4.719579,STD
3179642227000,0.695009,-0.686547239036074,9.89022494662235,-0.035690433484016,-0.034513887,0.0125227375,-0.0021380284,195.36574,-85.26575,-4.72412,STD
3179647217000,0.699999,-0.679539481875061,9.90657623364943,-0.0520418775919445,-0.05222898,0.004581489,0.01038471,195.38866,-85.26665,-4.724421,STD
3179652194000,0.704976,-0.672549981396031,9.92288492213315,-0.0683507227472871,-0.06994407,0.0033597588,0.009468411,195.41945,-85.25779,-4.7336206,STD
3179657233000,0.710015,-0.665473410587545,9.93939677290058,-0.0848627321380389,-0.07422013,0.01038471,0.016798794,195.44946,-85.255264,-4.7363896,STD
3179662200000,0.714982,-0.657745033485939,9.94266534766955,-0.078967417390289,-0.06658431,0.013439035,0.0106901415,195.4803,-85.24899,-4.7428055,STD
3179667199000,0.719981,-0.648428207431157,9.91937332509487,-0.0277249327033181,-0.064446285,0.010995574,0.01282817,195.5101,-85.24738,-4.7444,STD
3179672235000,0.725017,-0.639042423071908,9.89590890707405,0.0238968222243845,-0.07147124,0.0143553335,0.016798794,195.53864,-85.24883,-4.743164,STD
3179677267000,0.730049,-0.629664093664494,9.87246312639875,0.0754775749639,-0.046731193,0.011301007,0.017715093,195.56917,-85.25086,-4.7418723,STD
3179682215000,0.734997,-0.621975273937162,9.85143104958272,0.114404523397153,-0.039095376,0.011301007,0.016493361,195.5941,-85.25626,-4.7365327,STD
3179687204000,0.739986,-0.619629736121257,9.83735775900835,0.112058983132057,-0.029321533,0.007941248,0.014660766,195.62047,-85.2623,-4.730964,STD
3179692232000,0.745014,-0.617265862772214,9.82317445473736,0.109695107314678,-0.03970624,0.007941248,0.014966198,195.634693649985,-85.2643642373389,-4.72884531902907,STD
3179697215000,0.749997,-0.61492314580756,9.80911808934708,0.10735238790378,-0.021685716,-0.004581489,0.0067195175,195.64879,-85.26641,-4.7267456,STD
3179702218000,0.755,-0.611527917473559,9.79637919669862,0.101875570785806,-0.008857546,-0.01160644,0.010995574,195.67603,-85.27383,-4.719451,STD
3179707211000,0.759993,-0.602075122692498,9.79165319412869,0.0782435640921222,-0.017104227,-0.005497787,0.009162978,195.70622,-85.27693,-4.7159348,STD
3179712241000,0.765023,-0.594963370035336,9.78929896996466,0.0568601744805654,-0.018325957,-0.00580322,0.013133603,195.7399,-85.28397,-4.7088013,STD
3179717230000,0.770012,-0.604342768386337,9.80336787161366,0.0521704713875147,-0.03145956,-0.003970624,0.004276057,195.77066,-85.286674,-4.70571,STD
3179722226000,0.775008,-0.614158958804963,9.81747030322581,0.0507851153278412,-0.03268129,-0.00061086525,0.015882496,195.8059,-85.29793,-4.694119,STD
3179727270000,0.780052,-0.628542674521092,9.83185383870968,0.0843471894233251,-0.03481932,0.0061086523,0.010995574,195.83899,-85.30189,-4.6896157,STD
3179732277000,0.785059,-0.640884404192443,9.84457621362737,0.117587269899146,-0.044593163,0.007941248,0.011911872,195.871075489392,-85.3084393885108,-4.68244509672738,STD
3179737262000,0.790044,-0.631669464627708,9.83996888336631,0.149839613703132,-0.04642576,0.0030543262,0.010079277,195.90302,-85.31496,-4.675306,STD
3179742596000,0.795378,-0.621809386866766,9.83503899377503,0.184349945067317,-0.04520403,0.0076358155,0.014049901,195.9233,-85.32199,-4.667431,STD
3179747238000,0.80002,-0.613228494297158,9.83074867741157,0.21438312058148,-0.037873644,0.0076358155,0.009773844,195.94586,-85.32625,-4.6624017,STD
3179752154000,0.804936,-0.604141103544854,9.82620511962554,0.246189042776142,-0.04184427,0.0067195175,0.007941248,195.96696,-85.33213,-4.6555557,STD
3179757164000,0.809946,-0.593938703406264,9.83520384212784,0.286597550729301,-0.02687807,0.014966198,0.011301007,195.98505,-85.33885,-4.648443,STD
3179762313000,0.815095,-0.584948111831545,9.84419415206595,0.328281493003576,-0.025961773,0.012217305,0.016187929,196.00616,-85.34514,-4.6413693,STD
3179767125000,0.819907,-0.594102573810091,9.83503997685737,0.360322129046484,-0.032375857,0.006414085,0.0143553335,196.03328,-85.348175,-4.637123,STD
3179772358000,0.82514,-0.603699796266826,9.8247211085851,0.393370992533652,-0.03359759,0.00030543262,0.007330383,196.06024,-85.35352,-4.629958,STD
3179777170000,0.829952,-0.608294826838169,9.81093572898594,0.402561053676339,-0.014660766,0.004276057,0.015271631,196.08542,-85.36291,-4.619069,STD
3179782403000,0.835185,-0.613282260407112,9.79743962825495,0.409236334279052,-0.021380283,0.00030543262,0.009162978,196.11269,-85.36274,-4.6166506,STD
3179787150000,0.839932,-0.617699384956762,9.80185684735717,0.378316427839098,-0.01282817,-0.004581489,0.009773844,196.13853,-85.367645,-4.6100187,STD
3179792154000,0.844936,-0.622355650228819,9.80651321230082,0.345722534469491,-0.004276057,-0.004581489,0.002443461,196.16295,-85.36705,-4.6085935,STD
3179797128000,0.84991,-0.62698400024145,9.81114166138748,0.313324048134473,-0.0009162979,-0.0027488936,0.004276057,196.18765,-85.36944,-4.60426,STD
3179802216000,0.854998,-0.631718428239895,9.81587619073066,0.280183015068014,-0.0030543262,0.004581489,0.010079277,196.21024,-85.3711,-4.6007495,STD
3179807329000,0.860111,-0.638848538749938,9.81396718873001,0.248350445755568,-0.013744468,-0.0027488936,0.00061086525,196.23297,-85.37053,-4.5992785,STD
3179812199000,0.864981,-0.645819660711973,9.81164343854317,0.218142302349659,-0.008246681,0.007941248,0.009468411,196.24799,-85.37728,-4.59097,STD
3179817213000,0.869995,-0.652996910304918,9.80925097787853,0.187040940740372,-0.015271631,0.008857546,0.004581489,196.26035,-85.38141,-4.585403,STD
3179822253000,0.875035,-0.660211377386777,9.8068461111554,0.155778303622141,-0.013439035,0.013439035,0.009162978,196.26842,-85.391075,-4.5747924,STD
3179827282000,0.880064,-0.654478722846117,9.81507790500238,0.146907943846594,-0.02443461,0.008552114,0.0070249503,196.28017,-85.396286,-4.5677547,STD
3179832194000,0.884976,-0.647755327484516,9.82404236350643,0.140184560185803,-0.038179077,0.0106901415,0.004581489,196.28844,-85.40251,-4.5596924,STD
3179837201000,0.889983,-0.640901899028585,9.83318019814197,0.13333114365698,-0.04153884,0.014049901,0.010079277,196.29733,-85.4098,-4.5514345,STD
3179842283000,0.895065,-0.633945812866603,9.8424549086708,0.126375069600762,-0.034208454,0.019547688,0.010995574,196.30484,-85.414925,-4.5452895,STD
3179847211000,0.899993,-0.639339489757763,9.83405180204888,0.149944321339238,-0.04917465,0.013439035,0.011911872,196.31459,-85.42052,-4.5376873,STD
3179852191000,0.904973,-0.649518262204674,9.81878391174901,0.185569915960943,-0.047036625,0.014660766,0.005497787,196.32059,-85.425095,-4.532114,STD
3179857241000,0.910023,-0.643993547025962,9.8234564775291,0.198765464102059,-0.058643065,0.0067195175,0.0061086523,196.33598,-85.43215,-4.523133,STD
3179862220000,0.915002,-0.635455845778872,9.83199432587287,0.207303143061773,-0.044593163,0.013133603,0.013133603,196.3467,-85.44027,-4.51428,STD
3179867202000,0.919984,-0.628956330032429,9.83849363993082,0.216915553185602,-0.052839845,0.007941248,0.012217305,196.36133,-85.44177,-4.510109,STD
3179872236000,0.925018,-0.623745043555291,9.84370449108205,0.227338131581451,-0.04734206,0.01160644,0.0070249503,196.37134,-85.44514,-4.5052843,STD
3179877877000,0.930659,-0.626542325094484,9.83685746354266,0.233893263552205,-0.04520403,0.010079277,0.0076358155,196.3814,-85.45282,-4.4953165,STD
3179882221000,0.935003,-0.630512702952854,9.82891695657568,0.237863649702233,-0.03848451,0.01038471,0.0106901415,196.38974,-85.46002,-4.48632,STD
3179887200000,0.939982,-0.629054277395733,9.82881901556794,0.24545008206035,-0.03268129,0.009468411,0.004581489,196.39081,-85.46934,-4.4753466,STD
3179892275000,0.945057,-0.624383677741687,9.83348971276187,0.254791276491447,-0.027794369,0.0033597588,0.004581489,196.39334,-85.481186,-4.462092,STD
3179897209000,0.949991,-0.625298129318205,9.83818646494352,0.247350966867813,-0.029321533,-0.003970624,0.01160644,196.39314,-85.49252,-4.4499807,STD
3179902211000,0.954993,-0.630172776066958,9.84306070448764,0.227852369692683,-0.02443461,0.007330383,0.0070249503,196.38948,-85.50085,-4.4414954,STD
3179907236000,0.960018,-0.637745541869195,9.84779521001973,0.208913939597671,-0.027183503,0.006414085,0.014049901,196.39616,-85.512985,-4.4275084,STD
3179912214000,0.964996,-0.646922768398864,9.85238391072718,0.190559508099524,-0.02321288,0.0106901415,0.0125227375,196.39815,-85.52172,-4.417601,STD
3179917203000,0.969985,-0.656120274055056,9.85698275119111,0.172164518395977,-0.017715093,0.0143553335,0.007330383,196.40053,-85.531044,-4.4074125,STD
3179922247000,0.975029,-0.665419175343857,9.86163229043746,0.153566737665431,-0.029932396,0.008246681,0.005192355,196.40453,-85.539894,-4.397041,STD
3179927285000,0.980067,-0.67772490043554,9.86656051796603,0.151000505550958,-0.019242255,0.010079277,0.0012217305,196.40027,-85.55047,-4.386405,STD
3179932214000,0.984996,-0.693144340940767,9.87170043880662,0.16641995679007,-0.0036651916,0.01038471,-0.0021380284,196.39833,-85.55998,-4.3764925,STD
3179937202000,0.989984,-0.687905496736243,9.87088759070209,0.163981461703985,-0.01160644,0.0125227375,0.006414085,196.39961,-85.56721,-4.3681736,STD
3179942252000,0.995034,-0.669551477760911,9.86629899013283,0.150215937889943,-0.002443461,0.00030543262,0.0061086523,196.40498,-85.572464,-4.363406,STD
3179947238000,1.00002,-0.663349952081397,9.85391004493337,0.146202354744345,-0.004886922,-0.0018325958,0.00061086525,196.40909,-85.572655,-4.3625054,STD
3179952248000,1.00503,-0.66830602769342,9.83408584598698,0.151158435531453,-0.0067195175,-0.0012217305,0.009162978,196.41574,-85.57721,-4.3576326,STD
3179957269000,1.010051,-0.681448906870681,9.81473165093781,0.17260563358539,0.013744468,-0.007941248,0.008552114,196.41724,-85.58702,-4.3492923,STD
3179962249000,1.015031,-0.700281074294176,9.79589958183613,0.205561946240869,0.02076942,-0.009773844,0.0030543262,196.41727,-85.59684,-4.3401966,STD
3179967244000,1.020026,-0.698272461579928,9.79270245614035,0.222869362322846,0.02565634,-0.01985312,0.004886922,196.42108,-85.60786,-4.330549,STD
3179972271000,1.025053,-0.679398572096442,9.80213910526316,0.2275878396207,0.035124753,-0.029932396,0.0027488936,196.42552,-85.61655,-4.3237486,STD
3179977310000,1.030092,-0.660285767141001,9.8142181938643,0.204616558145298,0.040011674,-0.030848695,-0.0036651916,196.4356,-85.61492,-4.327139,STD
3179982245000,1.035027,-0.64139435338563,9.82838702418307,0.157388080469671,0.048258353,-0.03756821,-0.0009162979,196.44998,-85.616005,-4.3282433,STD
3179987240000,1.040022,-0.633686541473966,9.83295499099188,0.132457992747971,0.056505036,-0.035430185,-0.007941248,196.4635,-85.61621,-4.330345,STD
3179992304000,1.045086,-0.636887035926549,9.82815416660067,0.129257506650168,0.06352998,-0.028099801,-0.0021380284,196.47716,-85.6212,-4.3277974,STD
3179997249000,1.050031,-0.640012321287534,9.82346615779053,0.126132229447634,0.07147124,-0.035430185,-0.007330383,196.49678,-85.6266,-4.326167,STD
3180002251000,1.055033,-0.643173631171385,9.8187241112651,0.122970927816274,0.076052725,-0.038179077,-0.015271631,196.5128,-85.632866,-4.323597,STD
3180007274000,1.060056,-0.646348213247872,9.8139621561077,0.119796354026925,0.060170226,-0.03573562,-0.014966198,196.52924,-85.63941,-4.3199806,STD
3180012233000,1.065015,-0.64948234673728,9.80926087487626,0.116662228719066,0.06291912,-0.031154128,-0.004276057,196.5456,-85.64753,-4.3154397,STD
3180017217000,1.069999,-0.65329551878882,9.82323108016304,0.116994300953028,0.06169739,-0.034208454,-0.0076358155,196.56029,-85.65186,-4.3141317,STD
3180022270000,1.075052,-0.657991905667702,9.86080246942935,0.121690692735831,0.05131268,-0.034208454,-0.008246681,196.57265,-85.659645,-4.308929,STD
3180027311000,1.080093,-0.662705249251379,9.8908871572104,0.134026242226162,0.059253927,-0.03023783,0.003970624,196.58386,-85.66901,-4.3026137,STD
3180032316000,1.085098,-0.667426672025217,9.90977274970449,0.15763337088554,0.06169739,-0.04642576,0.0009162979,196.60077,-85.67325,-4.3006787,STD
3180037205000,1.089987,-0.667083628188116,9.91827905942043,0.170736084094058,0.064446285,-0.057421334,-0.004581489,196.614,-85.67955,-4.297027,STD
3180042287000,1.095069,-0.657586253302761,9.90878148619377,0.165987396651381,0.08155051,-0.058643065,0.00030543262,196.62888,-85.68832,-4.2911534,STD
3180047234000,1.100016,-0.656668115929204,9.89288895741151,0.157360499806416,0.09162979,-0.057421334,0.0027488936,196.64534,-85.6933,-4.2884297,STD
3180052212000,1.104994,-0.67424677020649,9.86212658775811,0.139781831762537,0.09590584,-0.063224554,0.00061086525,196.66396,-85.6986,-4.285447,STD
3180057227000,1.110009,-0.690224261384258,9.83399264823803,0.121721842288457,0.1020145,-0.06291912,0.0021380284,196.6811,-85.70753,-4.278949,STD
3180062230000,1.115012,-0.695279413357248,9.82388213315045,0.101501218560878,0.116980694,-0.06505715,-0.008246681,196.70042,-85.71258,-4.2763314,STD
3180067243000,1.120025,-0.69083772813916,9.82213354516162,0.0885538805316685,0.11301007,-0.06719518,0.00030543262,196.71793,-85.71975,-4.271157,STD
3180072237000,1.125019,-0.657126508324439,9.84621296274292,0.098185657621589,0.12339478,-0.06811147,0.0027488936,196.7355,-85.72271,-4.2704263,STD
3180077292000,1.130074,-0.635258967910322,9.864111,0.0906720964039482,0.12461651,-0.07452556,0.002443461,196.75493,-85.72652,-4.268399,STD
3180082210000,1.134992,-0.646939631382372,9.864111,0.0369410839502009,0.12095132,-0.064446285,0.0036651916,196.76968,-85.731415,-4.265041,STD
3180087400000,1.140182,-0.659266317722335,9.864111,-0.0197616315103418,0.10598512,-0.055283304,-0.00061086525,196.81012,-85.73118,-4.266222,STD
3180092239000,1.145021,-0.670759349552602,9.864111,-0.0726295390466743,0.105068825,-0.043066,-0.0018325958,196.8461,-85.73254,-4.2657323,STD
3180097241000,1.150023,-0.6799533,9.86303755596849,-0.109017857029731,0.095294975,-0.02687807,-0.007941248,196.88074,-85.72731,-4.2716594,STD
3180102211000,1.154993,-0.6799533,9.85832047653734,-0.0830744439773549,0.081855945,-0.0036651916,-0.011911872,196.90921,-85.72268,-4.2767816,STD
3180107258000,1.16004,-0.6799533,9.85353031559388,-0.056729090722759,0.06627888,-0.0036651916,0.0018325958,196.923711891003,-85.7210990726313,-4.27855581887018,STD
3180112248000,1.16503,-0.6799533,9.84879425395174,-0.0306812776178584,0.047647487,-0.0106901415,-0.0009162979,196.93805,-85.719536,-4.28031,STD
3180117345000,1.170127,-0.680957772803264,9.84194362354463,-0.0055589129550204,0.033292156,-0.0143553335,0.0036651916,196.95894,-85.71369,-4.2863045,STD
3180122280000,1.175062,-0.685660878385909,9.82783450323415,0.0132535226350881,0.029626964,-0.013439035,0.0012217305,196.98018,-94.29082,-4.290762,STD
3180127244000,1.180026,-0.688678158728597,9.81452308187365,0.0329901293816178,0.034208454,-0.014049901,0.003970624,197.00299,-94.29469,-4.2945147,STD
3180132869000,1.185651,-0.683377086105097,9.80392071521354,0.0594955113192285,0.04520403,-0.0036651916,0.011911872,197.02196,-94.29747,-4.2970853,STD
3180137215000,1.189997,-0.680291433029613,9.79842556036446,0.0772907204123007,0.052534413,-0.009773844,0.004886922,197.04457,-94.304825,-4.304214,STD
3180142260000,1.195042,-0.682683973190056,9.80799592086758,0.0820758032314549,0.056505036,-0.018020526,0.0076358155,197.06451,-94.30691,-4.3059697,STD
3180147209000,1.199991,-0.68503098632267,9.81738416945628,0.0867698319474101,0.05681047,-0.023518313,0.00061086525,197.08354,-94.31197,-4.310729,STD
3180152197000,1.204979,-0.68739649481034,9.8268464010102,0.0915008513927899,0.06414085,-0.03481932,0.012217305,197.10625,-94.310745,-4.309087,STD
3180157243000,1.210025,-0.69004057647632,9.83487051286299,0.0932156799126876,0.08032878,-0.034208454,0.010995574,197.1267,-94.314995,-4.312789,STD
3180162244000,1.215026,-0.694707656655623,9.83020333521731,0.0698802634215553,0.07666359,-0.029626964,0.010079277,197.14886,-94.31549,-4.3128095,STD
3180167393000,1.220175,-0.699302721566231,9.825804,0.0449467065435743,0.07788532,-0.04550946,0.01038471,197.1813,-94.32011,-4.3166933,STD
3180172243000,1.225025,-0.701486019488578,9.825804,0.0121972158225063,0.080634214,-0.046731193,0.009773844,197.20772,-94.324875,-4.3206754,STD
3180177606000,1.230388,-0.703900251809721,9.825804,-0.0240162931954498,0.08552113,-0.041233405,0.007330383,197.23619,-94.33027,-4.3250613,STD
3180182214000,1.234996,-0.70597460991821,9.825804,-0.0551316856166212,0.06719518,-0.034208454,0.009468411,197.26402,-94.33384,-4.327863,STD
3180187183000,1.239965,-0.708211477418445,9.825804,-0.0886847205430102,0.06078109,-0.03970624,0.0070249503,197.29337,-94.339264,-4.332243,STD
3180192259000,1.245041,-0.696842811575069,9.83764472356975,-0.0799802028754478,0.0580322,-0.040927973,-0.0015271631,197.31897,-94.34525,-4.337378,STD
3180197191000,1.249973,-0.6823408841572,9.85214644908402,-0.0606442875374066,0.059864793,-0.040927973,0.013133603,197.34532,-94.34492,-4.3361883,STD
3180202213000,1.254995,-0.671953631746032,9.85853391765873,-0.053461002531746,0.042760566,-0.038179077,0.0036651916,197.3777,-94.354866,-4.3453565,STD
3180207234000,1.260016,-0.662412934761905,9.86330436577381,-0.0486906500547619,0.043066,-0.047036625,0.0009162979,197.41284,-94.358665,-4.3479934,STD
3180212235000,1.265017,-0.664679383247146,9.87574988769636,-0.0517637184880476,0.044593163,-0.04184427,0.00030543262,197.43286,-94.35795,-4.346168,STD
3180217308000,1.27009,-0.669419660971802,9.88997052288028,-0.0565040001725046,0.040927973,-0.038179077,0.008246681,197.45547,-94.35525,-4.342451,STD
3180222265000,1.275047,-0.662921282378643,9.88538583492503,-0.0518694331090108,0.032070424,-0.03023783,-0.0012217305,197.47269,-94.35554,-4.341567,STD
3180227316000,1.280098,-0.653346834322332,9.87581145435202,-0.0446886051897669,0.04184427,-0.028710667,0.0036651916,197.49048,-94.34975,-4.334222,STD
3180232204000,1.284986,-0.644081361722995,9.86654604705824,-0.0377395086011183,0.029321533,-0.029321533,0.007330383,197.4978,-94.345245,-4.3283043,STD
3180237223000,1.290005,-0.634567571425108,9.85703232381612,-0.0306041739492305,0.027794369,-0.018020526,0.010995574,197.5013,-94.33991,-4.3209763,STD
3180242298000,1.29508,-0.625620620121875,9.85130962604176,-0.0416276565901963,0.028099801,-0.019547688,0.004276057,197.5073,-94.336426,-4.3155985,STD
3180247209000,1.299991,-0.617191255439556,9.8470948534815,-0.0584864079594946,0.025350908,-0.02565634,0.003970624,197.51149,-94.33008,-4.307441,STD
3180252203000,1.304985,-0.605342747076664,9.83990856286858,-0.0645133497230413,0.032986723,-0.0030543262,0.01282817,197.50919,-94.32053,-4.2957973,STD
3180257242000,1.310024,-0.590097118854255,9.82974512910699,-0.05943146834246,0.027183503,-0.007330383,0.005497787,197.51634,-94.31532,-4.2890577,STD
3180262236000,1.315018,-0.588422803242929,9.83145405482509,-0.0560483177390714,0.03756821,-0.0106901415,0.004276057,197.51198,-94.30413,-4.274665,STD
3180267233000,1.320015,-0.595388297823492,9.84074133244384,-0.0537264842726699,0.028710667,-0.014660766,0.0030543262,197.50928,-94.29451,-4.262651,STD
3180272350000,1.325132,-0.60252106463733,9.85025163854253,-0.0513488933486003,0.042760566,-0.010995574,-0.002443461,197.50667,-94.28559,-4.250144,STD
3180277318000,1.3301,-0.609446135094852,9.85948501761196,-0.0490405346011353,0.050701816,-0.0106901415,-0.007330383,197.50638,-94.27663,-4.238093,STD
3180282256000,1.335038,-0.621964104481096,9.85958668036265,-0.0569324889224537,0.045814894,-0.018936822,-0.01038471,197.51308,-94.27178,-4.2301216,STD
3180287237000,1.340019,-0.640367698429784,9.85038470563272,-0.0753360674976852,0.04642576,-0.02107485,-0.004886922,197.51805,-94.26651,-4.221131,STD
3180292295000,1.345077,-0.656355057735086,9.84598345298281,-0.0892705567846309,0.056199603,-0.016187929,-0.010995574,197.52217,-94.26785,-4.2187276,STD
3180297214000,1.349996,-0.668263116177958,9.84836511440849,-0.0964153968240647,0.05375614,-0.017715093,-0.008857546,197.52881,-94.26482,-4.2124166,STD
3180302200000,1.354982,-0.680333370171891,9.85077921562184,-0.103657554261881,0.054061573,-0.028099801,-0.01038471,197.53528,-94.26839,-4.2119565,STD
3180307236000,1.360018,-0.69252466562184,9.85321752563195,-0.110972336623862,0.05497787,-0.018020526,-0.002443461,197.53639,-94.268524,-4.2080183,STD
3180312254000,1.365036,-0.701342588789602,9.85676973547928,-0.108214608962226,0.05222898,-0.02076942,-0.004886922,197.53946,-94.27424,-4.2083616,STD
3180317244000,1.370026,-0.706195171242892,9.86162241927295,-0.0936568514683185,0.05497787,-0.013744468,-0.003970624,197.53705,-94.27708,-4.205344,STD
3180322302000,1.375084,-0.715787417186109,9.87121461828436,-0.0838233527877709,0.058948494,-0.022602014,0.0036651916,197.53227,-94.28196,-4.203403,STD
3180327322000,1.380104,-0.730057389284654,9.88548439170872,-0.0790666924414762,0.04550946,-0.03145956,0.0036651916,197.52579,-94.2879,-4.203312,STD
3180332221000,1.385003,-0.73308764416968,9.88851467969896,-0.0852673715335744,0.061391957,-0.022602014,0.0070249503,197.51648,-94.293365,-4.2010965,STD
3180337246000,1.390028,-0.723680270501417,9.87910760072329,-0.104082131640113,0.06383542,-0.02687807,0.0021380284,197.51364,-94.29956,-4.201295,STD
3180342303000,1.395085,-0.712138370609107,9.87164724758525,-0.121043813652671,0.05467244,-0.023823744,0.006414085,197.50531,-94.304634,-4.200258,STD
3180347227000,1.400009,-0.698195093494973,9.86699939148433,-0.134987100473093,0.042455133,-0.027183503,0.009162978,197.50026,-94.311295,-4.201008,STD
3180352186000,1.404968,-0.682645897028485,9.85894791965553,-0.145373152539983,0.03268129,-0.025350908,0.009468411,197.48975,-94.31616,-4.198657,STD
3180357289000,1.410071,-0.664146640702186,9.84507367057822,-0.149997971450743,0.0290161,-0.024129177,0.013439035,197.48074,-94.31884,-4.19453,STD
3180362189000,1.414971,-0.650596334220779,9.83475442342563,-0.152915627928204,0.03145956,-0.01282817,0.007941248,197.47601,-94.326385,-4.1944146,STD
3180367248000,1.42003,-0.648221954987013,9.83238000328351,-0.151728441410439,0.022296581,-0.016493361,0.01160644,197.47548,-94.329124,-4.1905804,STD
3180372243000,1.425025,-0.645877613363636,9.8300356212693,-0.150556273658662,0.010995574,-0.01160644,0.010079277,197.47713,-94.331116,-4.187334,STD
3180377307000,1.430089,-0.643500887441559,9.82765885439843,-0.149367913799804,0.011301007,-0.0070249503,0.009773844,197.47998,-94.331856,-4.1827116,STD
3180382212000,1.434994,-0.641198786207792,9.82535671350159,-0.148216866187699,0.013439035,-0.00580322,0.010079277,197.48859,-94.33238,-4.179902,STD
3180387243000,1.440025,-0.638837548428571,9.82299543504043,-0.147036250380054,0.0125227375,0.01038471,0.01038471,197.49152,-94.33267,-4.177016,STD
3180392246000,1.445028,-0.636489452103896,9.82064729826023,-0.145862205282529,0.009468411,0.007330383,0.006414085,197.5002,-94.33801,-4.17785,STD
3180397250000,1.450032,-0.634140886441559,9.81829869213428,-0.144687925516785,0.016187929,0.010079277,0.009468411,197.50261,-94.34185,-4.176369,STD
3180402272000,1.455054,-0.632600447604233,9.81675823036219,-0.143120880731685,0.030543262,0.007330383,0.010995574,197.50745,-94.34737,-4.1763935,STD
3180407294000,1.460076,-0.636988235118146,9.82114612325518,-0.138733079472676,0.031154128,0.0076358155,0.009773844,197.51062,-94.352066,-4.1762066,STD
3180412264000,1.465046,-0.641330589547487,9.82548858197245,-0.134390711440562,0.028405234,0.014660766,0.014049901,197.51335,-94.354004,-4.1724286,STD
3180417248000,1.47003,-0.646135809218132,9.80335518831761,-0.147544596385762,0.043066,0.005497787,0.012217305,197.52063,-94.359276,-4.170778,STD
3180422873000,1.475655,-0.650523280340727,9.77966904275602,-0.163505337467673,0.032986723,-0.0012217305,0.004581489,197.52522,-94.362564,-4.1694927,STD
3180427263000,1.480045,-0.642587026324681,9.79950960528551,-0.171441566622935,0.034513887,-0.0027488936,0.009773844,197.5306,-94.36551,-4.1659036,STD
3180432241000,1.485023,-0.633587784299198,9.82200762812647,-0.180440780457763,0.04795292,-0.0012217305,0.004886922,197.53671,-94.369736,-4.165504,STD
3180437202000,1.489984,-0.639851942884047,9.82969542348649,-0.17806798371623,0.03756821,0.0009162979,0.009773844,197.54314,-94.367836,-4.160796,STD
3180442212000,1.494994,-0.649313576358706,9.83442632173141,-0.173337179328535,0.043676864,-0.008246681,0.011301007,197.55228,-94.37063,-4.1584473,STD
3180447218000,1.5,-0.66293613073783,9.82757201643025,-0.191904583460557,0.03359759,-0.0070249503,0.007941248,197.55887,-94.36931,-4.153817,STD
3180452188000,1.50497,-0.677508034809674,9.81785721083784,-0.216191105462802,0.03023783,-0.004886922,0.0067195175,197.5678,-94.36804,-4.1482034,STD
3180457978000,1.51076,-0.682283439957779,9.82787769978889,-0.210945985302666,0.032986723,-0.0009162979,0.004581489,197.57336,-94.36511,-4.14308,STD
3180462195000,1.514977,-0.68426612764986,9.8377911382493,-0.203015230393736,0.02687807,0.005192355,0.00030543262,197.57764,-94.36203,-4.138953,STD
3180467227000,1.520009,-0.686632000181649,9.84962050090824,-0.19355173532574,0.014660766,0.0067195175,0.002443461,197.58128,-94.36029,-4.135785,STD
3180472203000,1.524985,-0.688971543448378,9.86131821724189,-0.184193557372969,0.014966198,0.010079277,0.0036651916,197.5826,-94.36049,-4.134045,STD
3180477331000,1.530113,-0.712966492546584,9.87973518012422,-0.201489669358178,0.0015271631,0.013439035,-0.003970624,197.5834,-94.36016,-4.134243,STD
3180482224000,1.535006,-0.74207163689441,9.89913850838509,-0.225743971510352,-0.005192355,0.0033597588,-0.004276057,197.5872,-94.35817,-4.1321087,STD
3180487243000,1.540025,-0.739047499604274,9.91830471784725,-0.21792825111199,-0.004581489,-0.006414085,-0.00030543262,197.59686,-94.35729,-4.1340775,STD
3180492237000,1.545019,-0.729584393312228,9.93723083161852,-0.203733581792639,-0.004886922,0.002443461,0.008552114,197.60382,-94.3545,-4.1345453,STD
3180497254000,1.550036,-0.708390212823564,9.92127791282357,-0.177776419143112,0.00580322,-0.006414085,0.016187929,197.61656,-94.35675,-4.1385694,STD
3180502234000,1.555016,-0.684740275304969,9.89762797530497,-0.149396474364772,0.0106901415,-0.0076358155,0.02076942,197.62437,-94.35685,-4.1406846,STD
3180507298000,1.56008,-0.681836529942791,9.87965850838747,-0.134235943206826,0.016493361,-0.017715093,0.011911872,197.63765,-94.357544,-4.142873,STD
3180512237000,1.565019,-0.68412974313003,9.86360615974983,-0.122769868650247,0.0290161,-0.017104227,0.008246681,197.64806,-94.356636,-4.14216,STD
3180517243000,1.570025,-0.686454064898672,9.84733605299137,-0.111148251069718,0.024129177,-0.024740042,0.006414085,197.6647,-94.352554,-4.1401653,STD
3180522279000,1.575061,-0.688792315882866,9.83096844259672,-0.0994569873590614,0.049480084,-0.013744468,0.004886922,197.67554,-94.35312,-4.1389184,STD
3180528169000,1.580951,-0.693741737709611,9.82159227433538,-0.104191346455624,0.04734206,-0.030543262,0.0076358155,197.69623,-94.3501,-4.1370964,STD
3180532364000,1.585146,-0.697849577791411,9.81748434846626,-0.112407033482209,0.047036625,-0.03268129,0.008857546,197.70932,-94.35018,-4.135866,STD
3180537243000,1.590025,-0.6825339742274,9.8327999257726,-0.131494619616829,0.03268129,-0.038789943,0.01282817,197.72049,-94.34523,-4.1317196,STD
3180542245000,1.595027,-0.659474787936844,9.85585911206316,-0.154553825169924,0.052839845,-0.033292156,0.011911872,197.72876,-94.344315,-4.1285515,STD
3180547237000,1.600019,-0.6512229,9.85792890161786,-0.179806592222166,0.033292156,-0.014049901,0.015577064,197.73445,-94.337296,-4.1235847,STD
3180552210000,1.604992,-0.6512229,9.84832753520488,-0.206210507762714,0.027794369,-0.0076358155,0.021380283,197.7421,-94.33295,-4.1183076,STD
3180557241000,1.610023,-0.6512229,9.83861418824656,-0.232922371644574,0.015882496,-0.0018325958,0.0067195175,197.74686,-94.32723,-4.1127987,STD
3180562216000,1.614998,-0.6512229,9.82900896043546,-0.259336906093443,0.01740966,0.013439035,0.0015271631,197.74715,-94.31831,-4.1030574,STD
3180567245000,1.620027,-0.654416272514475,9.82740071960212,-0.24260359987727,0.009468411,0.026572637,0.0012217305,197.74773,-94.31088,-4.0968914,STD
3180572299000,1.625081,-0.659206805220963,9.82979603597763,-0.204279308212006,0.005192355,0.014966198,0.005497787,197.75105,-94.30424,-4.091097,STD
3180577317000,1.630099,-0.663963214623645,9.83217429034493,-0.166228003190973,0.002443461,0.004276057,0.0018325958,197.74663,-94.30317,-4.087129,STD
3180582331000,1.635113,-0.668715832548127,9.83455064893354,-0.1282070300193,-0.003970624,-0.0030543262,0.0033597588,197.7448,-94.298904,-4.0806727,STD
3180587240000,1.640022,-0.664501836131352,9.83831808656369,-0.123733681937239,0.010995574,-0.009773844,0.00580322,197.73524,-94.29279,-4.0701733,STD
3180592294000,1.645076,-0.655097163596619,9.8430200300204,-0.137840700559604,0.018020526,-0.02565634,0.00580322,197.732176047375,-94.2905701561779,-4.06576318660042,STD
3180597203000,1.649985,-0.640299496326407,9.85314971101473,-0.160037191252774,0.03359759,-0.020463986,0.0018325958,197.7292,-94.288414,-4.0614796,STD
3180602244000,1.655026,-0.620821294020577,9.86775864494654,-0.189254469287876,0.032070424,-0.026267206,0.009773844,197.72945,-94.283516,-4.0562296,STD
3180607279000,1.660061,-0.632713640764747,9.87651634235747,-0.218082648612785,0.03634648,-0.02107485,0.010995574,197.73065,-94.28272,-4.051991,STD
3180612253000,1.665035,-0.665659527617824,9.88122299170042,-0.246321969669993,0.031154128,-0.018325957,0.009162978,197.73427,-94.279594,-4.0464907,STD
3180617240000,1.670022,-0.69066296190335,9.88861966320783,-0.282670528852653,0.028099801,-0.02443461,0.009468411,197.73149,-94.27301,-4.033281,STD
3180622303000,1.675085,-0.709829811750173,9.89820278792371,-0.325795976032217,0.018936822,-0.015271631,0.0067195175,197.72382,-94.26688,-4.0216494,STD
3180627331000,1.680113,-0.713134205642349,9.89601013205294,-0.337075593110697,0.0036651916,-0.015882496,0.0106901415,197.71875,-94.26387,-4.0135937,STD
3180632274000,1.685056,-0.704087696177918,9.8847019952224,-0.323505819467775,-0.0015271631,-0.0015271631,0.009773844,197.70699,-94.263054,-4.0077257,STD
3180637239000,1.690021,-0.695000923066265,9.87334352883283,-0.309875650311977,-0.004276057,0.00061086525,0.0070249503,197.70229,-94.273674,-4.009789,STD
3180642284000,1.695066,-0.685767736691988,9.86180204586498,-0.296025861109359,-0.010079277,0.008857546,0.0070249503,197.69199,-94.28275,-4.011128,STD
3180647210000,1.699992,-0.681673700903862,9.86055543909203,-0.2873042,-0.015577064,0.0033597588,0.009773844,197.68524,-94.29134,-4.012493,STD
3180652261000,1.705043,-0.686642108545604,9.87794496959737,-0.2873042,-0.017715093,-0.0015271631,0.009468411,197.67622,-94.3003,-4.0146384,STD
3180657280000,1.710062,-0.691579039441249,9.89522433083402,-0.2873042,-0.01985312,0.0021380284,0.008246681,197.6675,-94.304695,-4.0137634,STD
3180662244000,1.715026,-0.69646186967954,9.9123143386401,-0.2873042,-0.028405234,-0.0015271631,0.010995574,197.66249,-94.30711,-4.0119667,STD
3180667249000,1.720031,-0.70016233034975,9.9152393958601,-0.2851933393005,-0.026572637,-0.00061086525,0.013439035,197.65533,-94.310684,-4.0105715,STD
3180672285000,1.725067,-0.702457298934095,9.90146953642636,-0.280603402131811,-0.029321533,-0.004581489,0.008552114,197.65074,-94.31404,-4.010603,STD
3180677255000,1.730037,-0.704722190487747,9.8878801398049,-0.276073619024506,-0.015882496,0.009162978,0.010079277,197.63742,-94.319855,-4.0094175,STD
3180682270000,1.735052,-0.70700758910778,9.87416770035689,-0.27150282178444,-0.026572637,0.004276057,0.004276057,197.6307,-94.325905,-4.0119104,STD
3180687233000,1.740015,-0.701628747964839,9.85823187330403,-0.263447293732085,-0.042760566,0.007941248,0.010079277,197.618,-94.32914,-4.010497,STD
3180692280000,1.745062,-0.673919531683547,9.83514085973629,-0.244974463588764,-0.041233405,0.003970624,0.010079277,197.60904,-94.336044,-4.012496,STD
3180697240000,1.750022,-0.6512229,9.81544245155212,-0.227882028611524,-0.045814894,0.018936822,0.01740966,197.59322,-94.337845,-4.011999,STD
3180702260000,1.755042,-0.6512229,9.81067437260736,-0.215962072715462,-0.046120327,0.018020526,0.008552114,197.58318,-94.34448,-4.016317,STD
3180707250000,1.760032,-0.6512229,9.80593478815829,-0.204113351615591,-0.048563786,0.01282817,0.01038471,197.57324,-94.33922,-4.0104766,STD
3180712269000,1.765051,-0.6512229,9.80116765903005,-0.192195770212734,-0.056199603,-0.0030543262,0.0125227375,197.56685,-94.33575,-4.0073423,STD
3180717269000,1.770051,-0.650612978170264,9.79737796616906,-0.183484129957018,-0.043066,0.010079277,0.0076358155,197.55379,-94.33578,-4.005651,STD
3180722279000,1.775061,-0.646177987797292,9.79959549956094,-0.194571572315016,-0.056199603,0.016798794,0.013133603,197.54735,-94.32892,-4.0006876,STD
3180727245000,1.780027,-0.641781947439571,9.80179355760965,-0.20556163992975,-0.03970624,0.022907447,0.0070249503,197.53099,-94.32926,-3.99872,STD
3180732258000,1.78504,-0.637344301383741,9.80401241886583,-0.216655721474789,-0.04734206,0.021380283,0.0036651916,197.51534,-94.323616,-3.994676,STD
3180737222000,1.790004,-0.632950031481259,9.80620959167167,-0.227641362964829,-0.05589417,0.021685716,0.0033597588,197.50685,-94.317276,-3.9925427,STD
3180742273000,1.795055,-0.647046508496241,9.82537156390977,-0.237331989473684,-0.064751714,0.017715093,0.005497787,197.50015,-94.31061,-3.99086,STD
3180747259000,1.800041,-0.665457926292655,9.84838579410063,-0.246537686356275,-0.06169739,0.027488936,0.016798794,197.4896,-94.30225,-3.9866638,STD
3180752210000,1.804992,-0.668655709612234,9.85797565264883,-0.261042511698525,-0.06719518,0.03390302,0.014966198,197.48244,-94.294304,-3.983555,STD
3180757245000,1.810027,-0.666261628484186,9.86276391489995,-0.277801092094236,-0.05955936,0.03481932,0.010995574,197.47429,-94.28606,-3.9780712,STD
3180762220000,1.815002,-0.663896076624795,9.86749511742217,-0.294359967460404,-0.07452556,0.031154128,0.003970624,197.46234,-94.28302,-3.9783382,STD
3180767214000,1.819996,-0.661521490496996,9.87224438885855,-0.310982082752594,-0.071776666,0.029932396,0.00580322,197.44972,-94.281525,-3.97732,STD
3180772260000,1.825042,-0.664191964096385,9.87708033493976,-0.309250091807229,-0.06963864,0.042760566,0.01038471,197.4418,-94.28112,-3.9803555,STD
3180777328000,1.83011,-0.669064978393574,9.88195345100402,-0.299504063212851,-0.087659165,0.03390302,0.011301007,197.44044,-94.27948,-3.9840672,STD
3180782306000,1.835088,-0.6703765,9.8809607306348,-0.29688102,-0.09010262,0.029626964,0.013439035,197.43532,-94.27813,-3.9843135,STD
3180787216000,1.839998,-0.6703765,9.87783013777837,-0.29688102,-0.09560041,0.04184427,0.01038471,197.42801,-94.275894,-3.985776,STD
3180792266000,1.845048,-0.6703765,9.87461028158184,-0.29688102,-0.09712757,0.051923547,0.022602014,197.42212,-94.269844,-3.983358,STD
3180797228000,1.85001,-0.6703765,9.87144653377051,-0.29688102,-0.1001819,0.04886922,0.015882496,197.4164,-94.26915,-3.9872973,STD
3180802211000,1.854993,-0.6703765,9.86826939645817,-0.29688102,-0.106901415,0.049480084,0.017715093,197.40706,-94.26268,-3.9853466,STD
3180807255000,1.860037,-0.6703765,9.86505336583336,-0.29688102,-0.11178834,0.05131268,0.013439035,197.39824,-94.259796,-3.9871914,STD
3180812225000,1.865007,-0.671980518686748,9.85609090656626,-0.284048858781716,-0.11484267,0.05589417,0.0106901415,197.38228,-94.254234,-3.9856315,STD
3180817788000,1.87057,-0.674535832533935,9.84331433733033,-0.263606329326586,-0.11453723,0.053145275,0.012217305,197.36815,-94.248856,-3.98432,STD
3180822256000,1.875038,-0.676588168012854,9.83305265993573,-0.247187630494028,-0.112704635,0.050396383,0.019242255,197.35295,-94.24304,-3.9824991,STD
3180827287000,1.880069,-0.678899112461029,9.82149793769485,-0.228700058017171,-0.116980694,0.049480084,0.0070249503,197.33815,-94.24176,-3.9859474,STD
3180832235000,1.885017,-0.676185727897781,9.81748288359448,-0.211475543182739,-0.115453534,0.050396383,0.006414085,197.324,-94.23656,-3.9842873,STD
3180837215000,1.889997,-0.669113542044387,9.81984032811033,-0.194973766345213,-0.12217305,0.051923547,0.018325957,197.31015,-94.23034,-3.9826705,STD
3180842239000,1.895021,-0.661978871014779,9.82221860145322,-0.17832619067619,-0.12217305,0.059864793,0.015882496,197.30133,-94.231735,-3.9907248,STD
3180847226000,1.900008,-0.654896744337897,9.82457935964609,-0.161801218570016,-0.12522738,0.057726767,0.0067195175,197.29501,-94.23114,-3.9973867,STD
3180852245000,1.905027,-0.642413135808984,9.83681618799054,-0.155431349897872,-0.12736541,0.061086524,0.01160644,197.29018,-94.227325,-4.001761,STD
3180857265000,1.910047,-0.624228507421277,9.85954693787234,-0.159977504621277,-0.13530666,0.064751714,0.012217305,197.28566,-94.22668,-4.0099053,STD
3180862241000,1.915023,-0.60933062779798,9.87727289989899,-0.16459822610101,-0.13316862,0.07147124,0.014660766,197.27988,-94.22239,-4.0141673,STD
3180867219000,1.920001,-0.599699656,9.88690357,-0.169413712,-0.13408493,0.0693332,0.016187929,197.27551,-94.217705,-4.018578,STD
3180872269000,1.925051,-0.593129820565183,9.89347323263796,-0.171118080470208,-0.13775012,0.061086524,0.01740966,197.27281,-94.20956,-4.0186343,STD
3180878939000,1.931721,-0.591001146344975,9.89560195131298,-0.166860729807051,-0.13897185,0.07269296,0.015882496,197.26501,-94.20241,-4.01906,STD
3180882242000,1.935024,-0.589947021764863,9.89665609790723,-0.164752479546121,-0.1255328,0.07574729,0.011301007,197.26291,-94.19555,-4.018316,STD
3180887221000,1.940003,-0.58835801592642,9.89824513693015,-0.161574466210011,-0.12675454,0.07819075,0.014049901,197.25769,-94.186295,-4.0160108,STD
3180892219000,1.945001,-0.586762946398294,9.89984023976939,-0.158384325488203,-0.124311075,0.086437434,0.017715093,197.24905,-94.18486,-4.0174446,STD
3180897212000,1.949994,-0.585169472577979,9.9014337468675,-0.155197376183684,-0.121256754,0.07727446,0.012217305,197.24475,-94.1853,-4.020853,STD
3180902186000,1.954968,-0.602264036458731,9.90406156033778,-0.148298328523563,-0.11362094,0.07452556,0.012217305,197.23117,-94.18118,-4.0187974,STD
3180907233000,1.960015,-0.650541118854082,9.90845047516571,-0.135131849840189,-0.12186762,0.07452556,0.01160644,197.2196,-94.17796,-4.0186687,STD
3180912185000,1.964967,-0.694830822493682,9.91376194439764,-0.131566124604044,-0.113926366,0.080634214,0.0143553335,197.20753,-94.174904,-4.0169816,STD
3180917223000,1.970005,-0.725316027885425,9.92392389174389,-0.172213091653328,-0.1328632,0.06841691,0.014660766,197.20088,-94.17019,-4.016415,STD
3180922254000,1.975036,-0.752473360987703,9.92977835720282,-0.204539477580621,-0.13316862,0.064751714,0.0143553335,197.18765,-94.17284,-4.023785,STD
3180927363000,1.980145,-0.771803860080992,9.92494563529063,-0.216621037621611,-0.14110987,0.06352998,0.02076942,197.17732,-94.17179,-4.0291862,STD
3180932218000,1.985,-0.790173320464221,9.92035317788533,-0.228101948562892,-0.13683382,0.071776666,0.02076942,197.15569,-94.17474,-4.036393,STD
3180937289000,1.990071,-0.809360042112697,9.91555640105684,-0.240093647714949,-0.15577064,0.06566802,0.017104227,197.13878,-94.17502,-4.0430026,STD
3180942279000,1.995061,-0.820125035970334,9.91141493448702,-0.248416917206428,-0.16493362,0.057726767,0.02321288,197.12039,-94.17394,-4.0468884,STD
3180947249000,2.000031,-0.806004864192831,9.90906152583436,-0.24606356015822,-0.18448131,0.04734206,0.017715093,197.10461,-94.17544,-4.0552764,STD
3180952228000,2.00501,-0.791859122687763,9.9067038554759,-0.243705941497651,-0.17837265,0.03970624,0.021685716,197.08626,-94.177414,-4.0633373,STD
3180957225000,2.010007,-0.777662241727565,9.90433766170581,-0.241339799612361,-0.18173242,0.03390302,0.02321288,197.07045,-94.180145,-4.0737224,STD
3180962244000,2.015026,-0.769690107701899,9.89798599731441,-0.236760975611932,-0.18936823,0.019547688,0.019242255,197.05571,-94.180336,-4.0816436,STD
3180967291000,2.020073,-0.788233819693075,9.87480639363131,-0.222853198879724,-0.183565,0.0027488936,0.017715093,197.0435,-94.18064,-4.088581,STD
3180972280000,2.025062,-0.806055332413124,9.8539994654436,-0.21229332185498,-0.16829337,-0.018325957,0.0076358155,197.03531,-94.176735,-4.091316,STD
3180977240000,2.030022,-0.819887887489808,9.84938852387886,-0.226125872117065,-0.14996742,-0.032070424,0.0018325958,197.02989,-94.17321,-4.0935073,STD
3180982380000,2.035162,-0.833718397298109,9.84602939832883,-0.238526516903332,-0.15027285,-0.05222898,0.006414085,197.0272,-94.1709,-4.0975623,STD
3180987202000,2.039984,-0.840650148964275,9.85989294991494,-0.226973585396277,-0.13652839,-0.07422013,0.0076358155,197.02888,-94.17323,-4.104265,STD
3180992484000,2.045266,-0.8482431627139,9.87507903027119,-0.214318549265986,-0.13316862,-0.087659165,-0.00030543262,197.03271,-94.179054,-4.114564,STD
3180997203000,2.049985,-0.855026849174422,9.88864645041529,-0.203012393359352,-0.108123146,-0.1001819,-0.00061086525,197.04234,-94.18421,-4.122232,STD
3181002420000,2.055202,-0.865364129939979,9.90165101781862,-0.194604157636688,-0.1133155,-0.12034045,0.0009162979,197.05457,-94.186386,-4.1286407,STD
3181007250000,2.060032,-0.904406025982369,9.89297531773422,-0.229308076805777,-0.10445796,-0.12950343,0.0030543262,197.0669,-94.190315,-4.1347623,STD
3181012222000,2.065004,-0.944595737601988,9.88404455565976,-0.265032276828285,-0.11759156,-0.13500121,0.0021380284,197.08205,-94.19555,-4.1438465,STD
3181017216000,2.069998,-0.968020959185442,9.85139740901213,-0.236283229462738,-0.11881329,-0.13164146,-0.0015271631,197.09682,-94.2018,-4.1528053,STD
3181022249000,2.075031,-0.990004031670163,9.81622425430995,-0.201110318078081,-0.1133155,-0.13622294,-0.0030543262,197.11494,-94.20731,-4.1611595,STD
3181027358000,2.08014,-0.983326700154064,9.78675380587968,-0.17706618866798,-0.13347405,-0.13500121,-0.012217305,197.12631,-94.2213,-4.178636,STD
3181032268000,2.08505,-0.966700198083043,9.76062641536596,-0.158064473786937,-0.14905111,-0.15027285,-0.0125227375,197.14328,-94.23338,-4.1936355,STD
3181037209000,2.089991,-0.949968722170026,9.73433406576754,-0.138942788811941,-0.15882497,-0.15241088,-0.01282817,197.15724,-94.25407,-4.2184,STD
3181042284000,2.095066,-0.932783488359347,9.70732866722231,-0.119302523430823,-0.1695151,-0.1386664,-0.01160644,197.17033,-94.27351,-4.242129,STD
3181047224000,2.100006,-0.86064711927892,9.71568470920203,-0.086162466738824,-0.17348573,-0.124005646,-0.014049901,197.17726,-94.289276,-4.262167,STD
3181052239000,2.105021,-0.770694335516782,9.73462227266006,-0.0482876099886145,-0.15607607,-0.1151481,-0.02076942,197.18143,-94.30628,-4.282647,STD
3181057251000,2.110033,-0.680795361994184,9.75354850756568,-0.0104354101816255,-0.1600467,-0.10842858,-0.011301007,197.18939,-94.31348,-4.2946734,STD
3181062236000,2.115018,-0.591380680627434,9.77237278549953,0.0272128771363793,-0.14966199,-0.100792766,-0.007941248,197.19408,-94.32541,-4.310007,STD
3181067205000,2.119987,-0.522444351528627,9.78856674819344,0.0462923362273485,-0.124311075,-0.0983493,-0.009162978,197.20177,-94.33857,-4.325848,STD
3181072262000,2.125044,-0.460911861380132,9.80394977836893,0.0578296783309775,-0.10934488,-0.089491755,-0.00061086525,197.20505,-94.348015,-4.3376064,STD
3181077240000,2.130022,-0.399703477672547,9.82088053636645,0.0726218975270814,-0.083383106,-0.086132,0.002443461,197.2234,-94.328255,-4.319449,STD
3181082217000,2.134999,-0.335778074292789,9.84546721417518,0.102125931436088,-0.070249505,-0.08368854,0.008246681,197.23923,-94.30591,-4.298471,STD
3181087190000,2.139972,-0.2789349640202,9.86889339202416,0.130476514986464,-0.05497787,-0.08368854,0.008246681,197.26102,-94.27169,-4.265015,STD
3181092233000,2.145015,-0.24373391560808,9.88900815680966,0.155620117994586,-0.05375614,-0.07574729,0.007330383,197.27966,-94.236885,-4.230899,STD
3181097193000,2.149975,-0.215752617921542,9.89940872923016,0.17238252,-0.043982297,-0.07849618,0.002443461,197.3103,-94.19607,-4.190409,STD
3181102197000,2.154979,-0.20161762660702,9.88998545580572,0.17238252,-0.03604105,-0.08093964,-0.007330383,197.33833,-94.15778,-4.152423,STD
3181107331000,2.160113,-0.187115419291122,9.88031737311965,0.17238252,-0.029626964,-0.07880162,-0.004581489,197.36815,-94.112404,-4.1072984,STD
3181112260000,2.165042,-0.17319228336201,9.87103533580769,0.17238252,-0.020463986,-0.059253927,-0.002443461,197.39334,-94.070984,-4.0659437,STD
3181117199000,2.169981,-0.165227264361851,9.8653217968343,0.166328658463234,-0.027488936,-0.046120327,-0.005192355,197.4195,-94.03086,-4.026021,STD
3181122307000,2.175089,-0.175028570701262,9.87022254978962,0.141825390056101,-0.017715093,-0.032375857,-0.0018325958,197.43971,-93.9896,-3.9845655,STD
3181127278000,2.18006,-0.185845528942968,9.87239257420125,0.125793890098537,-0.019242255,-0.025045475,0.0015271631,197.46645,-93.94384,-3.9393325,STD
3181132244000,2.185026,-0.200046311835374,9.86765888434358,0.130527486043595,-0.011301007,-0.005497787,-0.0027488936,197.48555,-93.90057,-3.8962798,STD
3181137232000,2.190014,-0.214244898507477,9.85581561264783,0.1423706428052,-0.013439035,0.0125227375,-0.0027488936,197.491928313163,-93.8806629242893,-3.87647179170654,STD
3181142903000,2.195685,-0.230170054262535,9.81865673296843,0.179529322938129,-0.014049901,0.036651913,0.0009162979,197.49918,-93.85803,-3.8539515,STD
3181147233000,2.200015,-0.238424636600442,9.79906412422236,0.204099566040538,-0.010079277,0.050701816,0.0033597588,197.51517,-93.81814,-3.8140812,STD
3181152244000,2.205026,-0.233609320022075,9.80869493839053,0.218545495663255,-0.025045475,0.062002823,0.004276057,197.52335,-93.78304,-3.779341,STD
3181157280000,2.210062,-0.223967340748879,9.81035096438707,0.238657388876682,-0.013133603,0.07147124,0.0021380284,197.52614,-93.75286,-3.7492936,STD
3181162245000,2.215027,-0.197848777112515,9.78423232802344,0.277835234331228,-0.014966198,0.08368854,-0.0018325958,197.52504,-93.723434,-3.7203217,STD
3181167539000,2.220321,-0.17008299009541,9.75922591529736,0.316954432346019,-0.017715093,0.099571034,0.0027488936,197.52057,-93.69243,-3.6896498,STD
3181172286000,2.225068,-0.145986150234284,9.76404538089685,0.326593172316336,-0.0106901415,0.12186762,0.004581489,197.51102,-93.664246,-3.6616848,STD
3181177441000,2.230223,-0.118326259792291,9.7665794701418,0.331661252099061,-0.004581489,0.14355333,-0.00030543262,197.50212,-93.63422,-3.632126,STD
3181182317000,2.235099,-0.0856844002556421,9.75725303674855,0.313008765108848,-0.0009162979,0.1704314,0.0106901415,197.48572,-93.60017,-3.598435,STD
3181187228000,2.24001,-0.0581188610528917,9.75313713593673,0.292274873316856,0.015271631,0.17837265,0.009773844,197.47083,-93.56796,-3.5664053,STD
3181192289000,2.245071,-0.0629105798279783,9.78188751863569,0.258732846894711,0.020158553,0.20891592,0.008552114,197.44237,-93.533806,-3.5324483,STD
3181197275000,2.250057,-0.0664445385944291,9.80842936951798,0.225691582018965,0.030543262,0.2321288,0.009162978,197.41304,-93.49028,-3.4889853,STD
3181202248000,2.25503,-0.0617403232516792,9.82254229553536,0.192762089355986,0.027794369,0.24984388,0.011911872,197.37744,-93.44787,-3.4466867,STD
3181207260000,2.260042,-0.0583840880869222,9.83722748518372,0.161882471623864,0.03940081,0.27885997,0.016493361,197.3363,-93.41017,-3.4086113,STD
3181212214000,2.264996,-0.0677565696906361,9.85597233682339,0.152509987084156,0.023823744,0.29993483,0.021991149,197.29346,-93.372475,-3.3707776,STD
3181217336000,2.270118,-0.0773909040092132,9.87524089110006,0.141710974531048,0.035430185,0.3136793,0.020158553,197.24675,-93.3357,-3.3333273,STD
3181222275000,2.275057,-0.0861065553626313,9.89267209369818,0.119921841142067,0.029932396,0.34269542,0.031154128,197.19095,-93.29483,-3.2920427,STD
3181227298000,2.28008,-0.0949704380814446,9.91039975732449,0.0977621292544684,0.020463986,0.36682457,0.030848695,197.13129,-93.25998,-3.256561,STD
3181232230000,2.285012,-0.106331412497144,9.90143165944455,0.116894759670672,0.019242255,0.38912117,0.03481932,197.06543,-93.22234,-3.2181897,STD
3181237563000,2.290345,-0.118906041411267,9.88885703998424,0.142044015923281,0.015271631,0.4083634,0.035430185,196.99518,-93.18714,-3.182377,STD
3181242290000,2.295072,-0.130051788809927,9.87771130096514,0.16433550932401,0.008857546,0.41630468,0.03359759,196.92331,-93.15414,-3.1486552,STD
3181247227000,2.300009,-0.141692693169391,9.86607040535749,0.187617316584302,0.00061086525,0.43127087,0.032070424,196.84796,-93.11955,-3.1140573,STD
3181252232000,2.305014,-0.15998952495351,9.86002656166343,0.187451776960253,0.014966198,0.441961,0.038789943,196.77328,-93.08499,-3.0792077,STD
3181257224000,2.310006,-0.179528678132216,9.85514167518136,0.18256699249106,0.010995574,0.45937067,0.035430185,196.69414,-93.05487,-3.0492485,STD
3181262243000,2.315025,-0.194035826909108,9.85855958023511,0.210137819985664,0.011301007,0.4746423,0.03573562,196.61127,-93.028755,-3.0233645,STD
3181267181000,2.319963,-0.207595113343209,9.86307943362324,0.241776151852241,0.01160644,0.4822781,0.039095376,196.52742,-93.00412,-2.9990199,STD
3181272306000,2.325088,-0.203875104386402,9.86751839040669,0.225145721026075,0.008857546,0.48991394,0.04428773,196.4338,-92.98434,-2.978935,STD
3181277311000,2.330093,-0.195344013516953,9.8717840204681,0.19528691634511,0.0070249503,0.48502702,0.03726278,196.3436,-92.96842,-2.9627304,STD
3181282218000,2.335,-0.223461475808564,9.87634849896071,0.165996658484723,0.013439035,0.4877759,0.029626964,196.2492,-92.95558,-2.9497712,STD
3181287243000,2.340025,-0.283478259455415,9.88134999812929,0.135988269272501,0.02076942,0.5027421,0.030848695,196.15462,-92.94338,-2.9374807,STD
3181292237000,2.345019,-0.321713528053134,9.88936708696555,0.121447347752179,0.01160644,0.52106804,0.03756821,196.06166,-92.93048,-2.924428,STD
3181297213000,2.349995,-0.346440695242839,9.89925763574097,0.116501913281445,0.014049901,0.5305365,0.04337143,195.96889,-92.91892,-2.9123917,STD
3181302205000,2.354987,-0.357590142512463,9.89267328813559,0.144156242963111,0.007330383,0.5503896,0.04795292,195.86578,-92.91614,-2.909344,STD
3181307257000,2.360039,-0.362413870687936,9.87820230508474,0.187569826763709,0.009162978,0.5564982,0.045814894,195.76591,-92.91478,-2.9075432,STD
3181312284000,2.365066,-0.370241815700005,9.86262241727651,0.210597673550007,-0.0033597588,0.5674938,0.042760566,195.65924,-92.91698,-2.9097228,STD
3181317222000,2.370004,-0.379289553412733,9.84678879007031,0.224169280119099,-0.013133603,0.5699373,0.04520403,195.55533,-92.919174,-2.9118505,STD
3181322252000,2.375034,-0.388505859750323,9.83066016616444,0.237993739625484,-0.0067195175,0.5739079,0.05100725,195.4409,-92.919235,-2.9122593,STD
3181327285000,2.380067,-0.397727662890898,9.81452192280097,0.251826444336347,-0.008246681,0.58032197,0.044593163,195.32724,-92.92285,-2.9165537,STD
3181332248000,2.38503,-0.404817443918861,9.80146703452741,0.274123167043591,-0.004886922,0.58001655,0.04886922,195.21082,-92.921524,-2.915366,STD
3181337213000,2.389995,-0.409947872490289,9.79120649881312,0.304905765257877,-0.0018325958,0.5858198,0.055283304,195.09308,-92.92244,-2.9164639,STD
3181342226000,2.395008,-0.408758762532471,9.79206281263272,0.319078540645958,0.016493361,0.58093286,0.05222898,194.9709,-92.9263,-2.9204443,STD
3181347211000,2.399993,-0.404043433577954,9.7991357075905,0.323793874524174,0.016798794,0.57971114,0.05497787,194.84843,-92.92757,-2.9220936,STD
3181352214000,2.404996,-0.399311078360413,9.80623414158724,0.328526234683194,0.02076942,0.5766568,0.05375614,194.72923,-92.93361,-2.9283605,STD
3181357292000,2.410074,-0.394507780380266,9.81343898824633,0.333329537678898,0.038179077,0.5726862,0.051618114,194.61295,-92.94036,-2.9351213,STD
3181362252000,2.415034,-0.40404799941381,9.81052742424242,0.318089857903626,0.04520403,0.58032197,0.052839845,194.49332,-92.94848,-2.942783,STD
3181367234000,2.420016,-0.423009407266766,9.80104652727273,0.289647741174367,0.043982297,0.5726862,0.049785517,194.38147,-92.95938,-2.9531102,STD
3181372303000,2.425085,-0.450685714024089,9.79989154447626,0.238268571951822,0.0571159,0.5684101,0.04917465,194.26936,-92.96876,-2.9615605,STD
3181377343000,2.430125,-0.484042388523053,9.80465687965248,0.171555222953895,0.06078109,0.5726862,0.05375614,194.15912,-92.978065,-2.9701574,STD
3181382312000,2.435094,-0.514100889454759,9.81067681580365,0.118149448035713,0.0693332,0.57971114,0.047647487,194.0397,-92.98865,-2.9795976,STD
3181387241000,2.440023,-0.541850314331553,9.81761431146818,0.0742128623901435,0.086132,0.591623,0.049480084,193.91998,-92.996826,-2.986317,STD
3181392252000,2.445034,-0.57006138514868,9.82466722093764,0.0295453374013129,0.0729984,0.6056729,0.0580322,193.78831,-93.006294,-2.9937892,STD
3181397228000,2.45001,-0.598075411966884,9.83167086841718,-0.0148102012824671,0.070554934,0.6200282,0.06078109,193.65572,-93.018524,-3.0032098,STD
3181402245000,2.455027,-0.615196216976046,9.83081974841226,-0.0314654876180427,0.047647487,0.63407815,0.06658431,193.51366,-93.02374,-3.006324,STD
3181407292000,2.460074,-0.62003035053258,9.82115127434115,-0.0169630690289043,0.040011674,0.64599,0.067500606,193.37093,-93.031075,-3.0111334,STD
3181412240000,2.465022,-0.624769659594939,9.811672453318,-0.00274512427379107,0.025350908,0.64843345,0.07727446,193.22688,-93.04353,-3.0209606,STD
3181417233000,2.470015,-0.629552070700105,9.80210742636395,0.0116021267695154,0.024129177,0.64996064,0.071776666,193.08249,-93.06123,-3.0358367,STD
3181422197000,2.474979,-0.636259824091973,9.80126366629203,0.0359159400466423,0.013439035,0.63529986,0.06872234,192.93967,-93.073456,-3.045929,STD
3181427349000,2.480131,-0.645502093253723,9.81050609468952,0.0728849057111548,0.030848695,0.6301075,0.07086037,192.79655,-93.0878,-3.0571122,STD
3181432245000,2.485027,-0.66012461642988,9.81460847230335,0.0901033316447701,0.039095376,0.63132924,0.065973446,192.6528,-93.10395,-3.0719223,STD
3181437232000,2.490014,-0.686130978372358,9.80987994411168,0.0735538177282313,0.04337143,0.6310238,0.07360926,192.5137,-93.117386,-3.0835166,STD
3181442203000,2.494985,-0.712053903019652,9.80516658665413,0.0570574003071135,0.051923547,0.62949663,0.07086037,192.36607,-93.13437,-3.0984356,STD
3181447227000,2.500009,-0.738253213707242,9.80040297613979,0.0403851007449136,0.05009095,0.63041294,0.067500606,192.22069,-93.150055,-3.1123853,STD
3181452192000,2.504974,-0.752419307751168,9.80329564612939,0.0238906256498559,0.05222898,0.623388,0.074830994,192.08076,-93.16491,-3.1250412,STD
3181457281000,2.510063,-0.737889942194177,9.82508989675047,0.00693968728242075,0.043676864,0.60903263,0.069027774,191.94534,-93.18468,-3.1433442,STD
3181462215000,2.514997,-0.72380310987777,9.8462203413495,-0.00949496194236311,0.038789943,0.59956425,0.074830994,191.78741,-93.2014,-3.1563237,STD
3181467909000,2.520691,-0.707546437155918,9.87060557676637,-0.0284610934149856,0.043676864,0.59895337,0.086437434,191.63403,-93.21911,-3.1703103,STD
3181472252000,2.525034,-0.709162190641559,9.86064054683952,-0.0533901541689061,0.026267206,0.6035349,0.087659165,191.47713,-93.233864,-3.1827865,STD
3181477344000,2.530126,-0.74607750422975,9.77758091057911,-0.108763092268452,0.03390302,0.6206391,0.09896017,191.31987,-93.24506,-3.1901674,STD
3181482259000,2.535041,-0.771941919197324,9.71541738327759,-0.147181748924415,0.023823744,0.61727935,0.09193522,191.17325,-93.255104,-3.197524,STD
3181487232000,2.540014,-0.749187248456761,9.74272302618251,-0.110774325160631,0.002443461,0.6197228,0.06994407,191.02304,-93.26714,-3.2071779,STD
3181492377000,2.545159,-0.724404068908372,9.76883347182722,-0.0795572258629317,-0.008552114,0.6068946,0.06994407,190.86127,-93.278366,-3.2130818,STD
3181497242000,2.550024,-0.689534195712606,9.77381498631455,-0.109445712529242,-0.021991149,0.60994893,0.0711658,190.69736,-93.2952,-3.226097,STD
3181502245000,2.555027,-0.662227172638209,9.78029912106368,-0.121703861525542,-0.040011674,0.61086524,0.08368854,190.54227,-93.304405,-3.2332592,STD
3181507262000,2.560044,-0.669432032020394,9.79230722003399,-0.0592617017404779,-0.0421497,0.6053675,0.079107046,190.39107,-93.31926,-3.246174,STD
3181512227000,2.565009,-0.67656221476557,9.80419085794262,0.00253326005598319,-0.028405234,0.6114761,0.07819075,190.23761,-93.323715,-3.2470806,STD
3181517238000,2.57002,-0.683758457612716,9.81618459602119,0.064900743150055,-0.015882496,0.61758476,0.06994407,190.08864,-93.33254,-3.2527597,STD
3181522256000,2.575038,-0.685763476692913,9.82297897352362,0.123396588340551,-0.00030543262,0.61758476,0.073303826,189.93257,-93.33508,-3.251444,STD
3181527355000,2.580137,-0.666538239212598,9.80855974429134,0.166653402783465,0.008857546,0.6044512,0.08002335,189.7816,-93.34065,-3.252953,STD
3181532312000,2.585094,-0.650803292348363,9.79371619136437,0.203630560935526,0.029626964,0.5870415,0.07238753,189.63083,-93.35196,-3.2627068,STD
3181537221000,2.590003,-0.648501779541783,9.77530437729476,0.217439500793068,0.040927973,0.57757306,0.07849618,189.48457,-93.358696,-3.2679014,STD
3181542259000,2.595041,-0.646139786973124,9.75640873270671,0.23161131562344,0.049785517,0.56046885,0.067500606,189.34421,-93.37199,-3.277518,STD
3181547228000,2.60001,-0.643810144044647,9.73777188118666,0.245589034538111,0.05589417,0.548557,0.06841691,189.20796,-93.38183,-3.283146,STD
3181552305000,2.605087,-0.643257136328802,9.71925066773105,0.255754287102454,0.063224554,0.5320636,0.06047566,189.07405,-93.394005,-3.2918534,STD
3181557272000,2.610054,-0.660616169181644,9.70623160833865,0.225376040785512,0.07696902,0.52656585,0.063224554,188.94308,-93.40474,-3.2983022,STD
3181562197000,2.614979,-0.677828417379801,9.69332263561719,0.19525466709698,0.08307768,0.5140431,0.061391957,188.81326,-93.417915,-3.3062713,STD
3181567235000,2.620017,-0.671068436335079,9.7628075382199,0.169323956921466,0.0852157,0.50243664,0.0571159,188.68736,-93.43253,-3.3151677,STD
3181572636000,2.625418,-0.661063764449024,9.8470695321362,0.141011453634776,0.08307768,0.505491,0.056199603,188.5633,-93.447586,-3.324521,STD
3181577340000,2.630122,-0.665484259709548,9.88243377117064,0.0968064696418408,0.077579886,0.48716503,0.05681047,188.44087,-93.4636,-3.3342273,STD
3181582748000,2.63553,-0.671925625580568,9.9222604966634,0.0463349053590177,0.09101892,0.47861293,0.053145275,188.30405,-93.47584,-3.336506,STD
3181587251000,2.640033,-0.706458855725598,9.9376085188184,0.0118016515751401,0.099571034,0.47128254,0.05955936,188.17485,-93.48534,-3.3369374,STD
3181592230000,2.645012,-0.744642500605036,9.95457893905152,-0.0263820194419432,0.09162979,0.4633413,0.05467244,188.04573,-93.50125,-3.3404274,STD
3181597239000,2.650021,-0.766776016364572,9.94626801573912,-0.0621265926477729,0.1020145,0.44226643,0.05467244,187.92514,-93.51739,-3.3418539,STD
3181602202000,2.654984,-0.78144419068923,9.92671059973254,-0.0963522764085999,0.10720685,0.42424592,0.049785517,187.80836,-93.53595,-3.3470938,STD
3181607225000,2.660007,-0.811061624166581,9.91421086266405,-0.127427846204402,0.10751228,0.40958515,0.042760566,187.69121,-93.563965,-3.3587995,STD
3181612223000,2.665005,-0.845685378919086,9.90431815914023,-0.157105357656298,0.111177474,0.39522982,0.040011674,187.58136,-93.59352,-3.3714683,STD
3181617244000,2.670026,-0.88291982452079,9.88712607755824,-0.170451725132213,0.11789699,0.37843102,0.043676864,187.46617,-93.6223,-3.3816507,STD
3181622289000,2.675071,-0.920914506546741,9.86812884812739,-0.179950394398899,0.102319926,0.35521814,0.0421497,187.3591,-93.65176,-3.3949275,STD
3181627340000,2.680122,-0.959482606586976,9.84884491137341,-0.223941320805242,0.09285152,0.32467487,0.038179077,187.24994,-93.68909,-3.4108284,STD
3181632306000,2.685088,-0.997540759902971,9.82981594648395,-0.276271282235671,0.093462385,0.30757064,0.033292156,187.14563,-93.72681,-3.4280705,STD
3181637222000,2.690004,-1.03710933791326,9.8187941251951,-0.296066596573807,0.09407325,0.2864958,0.03145956,187.04277,-93.76489,-3.4492733,STD
3181642317000,2.695099,-1.07864976959277,9.80956297706097,-0.307605601625124,0.093462385,0.26939157,0.030543262,186.94548,-93.80392,-3.4720912,STD
3181647217000,2.699999,-1.11860033195384,9.80068513096533,-0.318702976453673,0.090713486,0.25289822,0.034513887,186.8458,-93.849075,-3.497679,STD
3181652222000,2.705004,-1.15940697779407,9.79161704531051,-0.330038152171404,0.09101892,0.23579398,0.03145956,186.7528,-93.896355,-3.5259135,STD
3181657281000,2.710063,-1.20373059667025,9.77603751772288,-0.338053050741139,0.079107046,0.21960606,0.028099801,186.66588,-93.94054,-3.553423,STD
3181662241000,2.715023,-1.24964986111708,9.75562852953813,-0.343155191235231,0.06352998,0.19333886,0.024129177,186.58813,-93.984795,-3.5823236,STD
3181667235000,2.720017,-1.26734416645841,9.73957213451777,-0.335148033930105,0.04795292,0.17867808,0.025961773,186.49199,-94.03506,-3.6191344,STD
3181672273000,2.725055,-1.27205403744631,9.72544271827411,-0.321018411130418,0.035124753,0.15943582,0.02443461,186.40605,-94.08499,-3.6582625,STD
3181677313000,2.730095,-1.25164227388496,9.72991873662967,-0.319187916030272,0.023518313,0.15393804,0.023518313,186.31798,-94.13899,-3.704474,STD
3181682272000,2.735054,-1.21809641531786,9.74429533299697,-0.323980191547931,0.022907447,0.12767084,0.023518313,186.24254,-94.19222,-3.7509322,STD
3181687242000,2.740024,-1.16625786846375,9.75851684073598,-0.341157523058661,0.014660766,0.109650314,0.025350908,186.15317,-94.24469,-3.7926297,STD
3181692258000,2.74504,-1.10448276944307,9.77277291908201,-0.364917167367692,0.004886922,0.0852157,0.030543262,186.0745,-94.29533,-3.8335047,STD
3181697244000,2.750026,-1.04305391666832,9.78995847619519,-0.382524370571118,0.014049901,0.07574729,0.026267206,185.99048,-94.339714,-3.8652437,STD
3181702244000,2.755026,-0.981439297248342,9.80891670642384,-0.396743127376027,0.013133603,0.051923547,0.031154128,185.919,-94.37749,-3.8933315,STD
3181707265000,2.760047,-0.916528072569217,9.81916653170586,-0.416923246939565,0.042760566,0.028710667,0.025961773,185.85661,-94.41488,-3.9140146,STD
3181712247000,2.765029,-0.850242139863054,9.82390133511958,-0.440596794334623,0.03573562,0.009162978,0.027794369,185.80118,-94.444016,-3.9316702,STD
3181717243000,2.770025,-0.809691176875819,9.83276108720338,-0.468198366899112,0.06566802,0.0027488936,0.027794369,185.75233,-94.474884,-3.938948,STD
3181722234000,2.775016,-0.786496224313098,9.84435855621876,-0.498351803293056,0.07238753,-0.014049901,0.028099801,185.71294,-94.50097,-3.9461937,STD
3181732242000,2.785024,-0.739985487938079,9.86761390983646,-0.558815756695298,0.093462385,-0.04642576,0.028405234,185.65619,-94.5444,-3.9371567,STD
3181737235000,2.790017,-0.723316373876377,9.87820878450243,-0.585910722390118,0.111177474,-0.06261369,0.028405234,185.63948,-94.568596,-3.9279127,STD
3181742280000,2.795062,-0.713729121966465,9.88779573608493,-0.609878867181268,0.11453723,-0.06566802,0.018325957,185.62334,-94.591995,-3.9209235,STD
3181747218000,2.8,-0.715380810802532,9.88837639932612,-0.629189557119665,0.124311075,-0.0842994,0.018936822,185.61287,-94.61037,-3.905637,STD
3181752146000,2.804928,-0.729836948356136,9.8787392761895,-0.643645729894834,0.111177474,-0.0888809,0.018020526,185.59956,-94.62857,-3.8939931,STD
3181757179000,2.809961,-0.728109783553088,9.86322066828591,-0.645407694934074,0.10751228,-0.10140363,0.018325957,185.59079,-94.64737,-3.878382,STD
3181762147000,2.814929,-0.70924290840686,9.84199548299792,-0.633615883192228,0.110872045,-0.10323623,0.0125227375,185.58058,-94.666916,-3.8651931,STD
3181767131000,2.819913,-0.690315270377714,9.82070193962526,-0.621786094600972,0.10140363,-0.09254608,0.0076358155,185.56944,-94.68639,-3.8546534,STD
3181772176000,2.824958,-0.67115597385744,9.79914778105482,-0.609811519271339,0.09560041,-0.089491755,0.0061086523,185.56126,-94.7073,-3.8452573,STD
3181777156000,2.829938,-0.650037251159218,9.77458203262171,-0.592576395654429,0.08032878,-0.08552113,0.004276057,185.5492,-94.72404,-3.8368423,STD
3181782136000,2.834918,-0.626248083282123,9.74603496757781,-0.568787237713488,0.070249505,-0.08735373,0.0027488936,185.53825,-94.740654,-3.8291376,STD
3181787135000,2.839917,-0.604597152006294,9.74043409913454,-0.54297707018096,0.05681047,-0.09621128,-0.002443461,185.5395,-94.74779,-3.8203616,STD
3181792161000,2.844943,-0.585662043013375,9.7641029606609,-0.51457441163454,0.050396383,-0.090713486,0.008552114,185.5375,-94.750854,-3.807452,STD
3181797119000,2.849901,-0.570952526141079,9.78523170954357,-0.499821885020747,0.04642576,-0.09682214,0.0067195175,185.54306,-94.75163,-3.7963765,STD
3181802237000,2.855019,-0.561708078310072,9.80372050867597,-0.50444410410977,0.038789943,-0.106595986,0.0070249503,185.5484,-94.7477,-3.7818375,STD
3181807230000,2.860012,-0.546330098528627,9.82665516802987,-0.519302503895804,0.050701816,-0.106595986,0.011301007,185.55455,-94.74134,-3.7634134,STD
3181812233000,2.865015,-0.516512409788407,9.86073232325747,-0.557639548161451,0.054367006,-0.106901415,0.0012217305,185.5634,-94.7356,-3.7494674,STD
3181817445000,2.870227,-0.48888495224718,9.89260711829328,-0.597738362642472,0.06963864,-0.10323623,0.019242255,185.57016,-94.73317,-3.7248185,STD
3181822285000,2.875067,-0.493431464047082,9.89033405110348,-0.636383747360471,0.07086037,-0.1142318,0.013439035,185.58078,-94.73651,-3.7103903,STD
3181827597000,2.880379,-0.498421354683668,9.88783931289848,-0.678797855546837,0.070554934,-0.13041973,0.0106901415,185.59227,-94.74096,-3.6831717,STD
3181832265000,2.885047,-0.502806296229524,9.88564702412948,-0.716069891882295,0.08277224,-0.13988814,0.018020526,185.60518,-94.746994,-3.6553159,STD
3181837570000,2.890352,-0.508760818078476,9.88258494179048,-0.757587767076571,0.081855945,-0.15210545,0.0143553335,185.62332,-94.75359,-3.6321156,STD
3181842291000,2.895073,-0.532873945153524,9.86880573660952,-0.778256164795428,0.09621128,-0.15943582,0.017104227,185.64294,-94.762184,-3.6055088,STD
3181847212000,2.899994,-0.55800859847619,9.85444279047619,-0.799800156571429,0.093462385,-0.17134771,0.018936822,185.66653,-94.77506,-3.5820193,STD
3181852239000,2.905021,-0.578191893185934,9.8306231320278,-0.82477902459044,0.10567969,-0.17165314,0.014660766,185.68872,-94.79395,-3.5597768,STD
3181857230000,2.910012,-0.588256729703095,9.79036408022742,-0.854973492103601,0.09010262,-0.1704314,0.00580322,185.71362,-94.80726,-3.538798,STD
3181862216000,2.914998,-0.608422466614967,9.74949394067468,-0.884055479643273,0.086132,-0.17073683,0.0021380284,185.73282,-94.832214,-3.522836,STD
3181867241000,2.920023,-0.641077007279953,9.70750966624661,-0.912045085231679,0.07941248,-0.1826487,0.00030543262,185.75471,-94.85448,-3.5092127,STD
3181872247000,2.925029,-0.657285615053058,9.6724882657079,-0.923679127624965,0.07574729,-0.19822577,-0.003970624,185.77379,-94.88254,-3.4986115,STD
3181877414000,2.930196,-0.648073399466629,9.64715467104161,-0.909860817471842,0.08032878,-0.19700404,-0.005192355,185.7913,-94.909966,-3.4876647,STD
3181882257000,2.935039,-0.639438841679698,9.62340963543703,-0.896908993188588,0.09132435,-0.20250183,-0.00580322,185.81175,-94.9447,-3.4844909,STD
3181887213000,2.939995,-0.63060281682072,9.59911056534488,-0.883654968586521,0.09193522,-0.21013765,-0.0030543262,185.83221,-94.97685,-3.4806094,STD
3181892259000,2.945041,-0.617994536321111,9.5772567986203,-0.870140032319032,0.08857546,-0.2144137,-0.003970624,185.85294,-95.01025,-3.477858,STD
3181897243000,2.950025,-0.572888898301833,9.58176745520696,-0.856608345152145,0.08857546,-0.21105394,0.0012217305,185.86598,-95.04783,-3.4703557,STD
3181902558000,2.95534,-0.524684955935914,9.58740372096726,-0.842555055806548,0.08155051,-0.20891592,0.009468411,185.88838,-95.08521,-3.4635937,STD
3181907233000,2.960015,-0.48013168023684,9.60968033555578,-0.838099732888845,0.08735373,-0.20677789,0.016798794,185.9096,-95.12334,-3.455442,STD
3181912606000,2.965388,-0.428490639726639,9.63597499051604,-0.832044203682008,0.10476339,-0.20799962,0.013744468,185.94308,-95.15812,-3.4430785,STD
3181917209000,2.969991,-0.375206910908415,9.67286361655044,-0.807451729260809,0.10751228,-0.20708331,0.021991149,185.97531,-95.18659,-3.4253116,STD
3181922259000,2.975041,-0.31674876827708,9.71333451845653,-0.780471065383543,0.124005646,-0.22021692,0.01985312,186.0177,-95.22051,-3.4041655,STD
3181927333000,2.980115,-0.275267983900778,9.78283870476654,-0.799113758754864,0.15118915,-0.2171626,0.022602014,186.05502,-95.254234,-3.379096,STD
3181932237000,2.985019,-0.238719607262646,9.85593549620623,-0.826525019766537,0.18142697,-0.22113322,0.023518313,186.09758,-95.2922,-3.3556702,STD
3181937240000,2.990022,-0.225937636268321,9.89712239948647,-0.903485194543704,0.18417588,-0.22021692,0.026572637,186.14325,-95.31868,-3.3192263,STD
3181942217000,2.994999,-0.220838269266075,9.92771867604579,-0.99527375798652,0.20097467,-0.20952678,0.034208454,186.18694,-95.35348,-3.2814581,STD
3181947215000,2.999997,-0.228702431083226,9.92693097797837,-1.01400056787025,0.20861048,-0.18570304,0.034513887,186.24028,-95.39117,-3.2426207,STD
3181952187000,3.004969,-0.238149097917865,9.92220755331812,-1.02344721990874,0.21288654,-0.17898351,0.03390302,186.295,-95.43009,-3.2024012,STD
3181957267000,3.010049,-0.257431422875697,9.91880098346999,-1.0108634994572,0.20952678,-0.17012598,0.04337143,186.34286,-95.47318,-3.1573503,STD
3181962193000,3.014975,-0.277545542668416,9.91570644086586,-0.995391101480813,0.21013765,-0.16310102,0.058337633,186.38908,-95.516716,-3.111307,STD
3181967234000,3.020016,-0.298129236918334,9.91253965457527,-0.979557492427025,0.20097467,-0.16340645,0.05955936,186.43486,-95.57133,-3.0714002,STD
3181972241000,3.025023,-0.318574100459167,9.90939422728763,-0.963830676213513,0.21533,-0.16829337,0.05955936,186.48003,-95.62858,-3.0280886,STD
3181977282000,3.030064,-0.339157794709085,9.90622744099705,-0.947997067159724,0.21838433,-0.1685988,0.05589417,186.52367,-95.68043,-2.985943,STD
3181982226000,3.035008,-0.359345413112496,9.90312159068547,-0.932468131797311,0.24465153,-0.17623462,0.055588737,186.57063,-95.739914,-2.943682,STD
3181987231000,3.040013,-0.393252167381492,9.89875123691732,-0.914283507795407,0.25534168,-0.18295415,0.051923547,186.62299,-95.79209,-2.9058022,STD
3181992236000,3.045018,-0.431042181395486,9.89402738898197,-0.895388515585887,0.27672195,-0.18478674,0.04153884,186.67548,-95.853165,-2.8703806,STD
3181997250000,3.050032,-0.465400834348341,9.8466582407188,-0.869327849591232,0.29168814,-0.19639318,0.03481932,186.72646,-95.91462,-2.8474147,STD
3182002225000,3.055007,-0.498330559763033,9.78550326935229,-0.841102358033175,0.28160888,-0.20341812,0.03634648,186.77605,-95.97361,-2.8250082,STD
3182007250000,3.060032,-0.500924944215508,9.72514544363706,-0.856442518208242,0.26511553,-0.20311269,0.040317107,186.83559,-96.03801,-2.8171177,STD
3182012252000,3.065034,-0.49176477047232,9.66560447451955,-0.888503171742997,0.2602286,-0.21685717,0.038179077,186.90007,-96.10117,-2.8106174,STD
3182017237000,3.070019,-0.443237860174338,9.60167744351464,-0.945399159260809,0.23396139,-0.21013765,0.03726278,186.95448,-96.152596,-2.8084347,STD
3182022245000,3.075027,-0.37156922430265,9.53478636879857,-1.01706781009962,0.21380283,-0.19914207,0.040927973,187.01065,-96.20198,-2.805211,STD
3182027384000,3.080166,-0.304269863390101,9.50353917249278,-1.06567707933473,0.19792034,-0.18600847,0.041233405,187.07083,-96.25219,-2.8046517,STD
3182032339000,3.085121,-0.242832753744647,9.4940876123892,-1.09875857599841,0.17073683,-0.17562376,0.041233405,187.1277,-96.29215,-2.8023105,STD
3182037242000,3.090024,-0.203191683600964,9.50769091691566,-1.1279844872,0.1695151,-0.16523905,0.05131268,187.18652,-96.33436,-2.783117,STD
3182042281000,3.095063,-0.175283719999036,9.53559896308434,-1.1558924848,0.16890424,-0.14782938,0.054061573,187.23932,-96.36942,-2.7652836,STD
3182047213000,3.099995,-0.147132986304215,9.58987070922419,-1.16314623179597,0.1591304,-0.13103059,0.06047566,187.29791,-96.39235,-2.732133,STD
3182052246000,3.105028,-0.117688839723071,9.66838796884545,-1.15333147185909,0.15424347,-0.113926366,0.06566802,187.35081,-96.415405,-2.6981695,STD
3182057263000,3.110045,-0.110857706165347,9.73713852405941,-1.17402453357426,0.15668693,-0.11362094,0.065973446,187.40599,-96.43751,-2.6583421,STD
3182062262000,3.115044,-0.120337794916832,9.79875936574257,-1.21668496017822,0.15821409,-0.10598512,0.0693332,187.454,-96.45666,-2.6158953,STD
3182067234000,3.120016,-0.15078219585655,9.85997268642561,-1.23803646893894,0.16615535,-0.111177474,0.06536258,187.5077,-96.4747,-2.5705845,STD
3182072298000,3.12508,-0.198694609988145,9.92225858565501,-1.24282770735033,0.17501289,-0.113926366,0.05222898,187.55797,-96.493774,-2.527257,STD
3182078347000,3.131129,-0.269945063899921,10.0141743596638,-1.26982417362367,0.1777618,-0.116675265,0.047036625,187.60515,-96.52718,-2.4846027,STD
3182082253000,3.135035,-0.321429350260519,10.080368426219,-1.29556633408376,0.18234327,-0.11178834,0.04062254,187.65013,-96.564095,-2.446364,STD
3182087230000,3.140012,-0.381653337682441,10.1520969051305,-1.3225270068996,0.18875736,-0.110872045,0.030848695,187.69232,-96.6046,-2.4193912,STD
3182092268000,3.14505,-0.437135283071207,10.2118467829721,-1.34386620123839,0.19364429,-0.1282817,0.025350908,187.73788,-96.644936,-2.3936832,STD
3182097195000,3.149977,-0.501654184604535,10.2624635732943,-1.35648452748929,0.20861048,-0.12522738,0.023823744,187.77286,-96.69965,-2.3818758,STD
3182102245000,3.155027,-0.602715469475499,10.2877294023613,-1.34132534663045,0.21624629,-0.124311075,0.01740966,187.81252,-96.75299,-2.373421,STD
3182107202000,3.159984,-0.67784830039604,10.2941843390099,-1.32370439180198,0.21594086,-0.113926366,0.016187929,187.843,-96.81083,-2.373866,STD
3182112263000,3.165045,-0.701842451287129,10.2605920767822,-1.29971021585644,0.2134974,-0.10567969,0.022296581,187.87335,-96.867935,-2.3736277,STD
3182117185000,3.169967,-0.725177604554455,10.2279224236139,-1.27637503822277,0.18936823,-0.099571034,0.021380283,187.89212,-96.92123,-2.3921976,STD
3182122283000,3.175065,-0.749347172079208,10.194084574802,-1.2522054454604,0.18325958,-0.09315695,0.03268129,187.90865,-96.97482,-2.404579,STD
3182127280000,3.180062,-0.75843142732644,10.1577129459934,-1.24055014844904,0.16890424,-0.08552113,0.031154128,187.9259,-97.02743,-2.4229226,STD
3182132337000,3.185119,-0.73160542422452,10.1130031742522,-1.25843415051699,0.1518,-0.062308256,0.03940081,187.93721,-97.07366,-2.4339006,STD
3182137248000,3.19003,-0.704028443841401,10.0678176282183,-1.27546102554068,0.14446963,-0.05955936,0.03756821,187.95506,-97.11359,-2.4604094,STD
3182142293000,3.195075,-0.664222058553038,10.0081081567971,-1.29038845834192,0.13713925,-0.040927973,0.03634648,187.96167,-97.146805,-2.4823513,STD
3182147241000,3.200023,-0.62632540322701,9.95495570497595,-1.30901016194916,0.13469578,-0.013744468,0.04153884,187.97185,-97.18263,-2.4994736,STD
3182152280000,3.205062,-0.593171745599176,9.92653819795858,-1.34689998996958,0.13561209,0.008552114,0.035430185,187.97733,-97.21743,-2.5190494,STD
3182157295000,3.210077,-0.565731578052887,9.90171800732891,-1.38116003415866,0.14110987,0.022907447,0.033292156,187.97778,-97.25369,-2.5275502,STD
3182162253000,3.215035,-0.570434140635832,9.89701534653858,-1.3952677219075,0.15302174,0.03481932,0.02687807,187.97224,-97.29177,-2.5380619,STD
3182167255000,3.220037,-0.57799275504018,9.89622536505292,-1.41004674729518,0.16462818,0.03359759,0.013744468,187.9693,-97.33338,-2.5446727,STD
3182172288000,3.22507,-0.606334616799294,9.92456731066249,-1.42894141058408,0.1881465,0.03023783,0.0061086523,187.96371,-97.380104,-2.5510867,STD
3182177322000,3.230104,-0.637303196664855,9.94667849506206,-1.44972140914198,0.21166481,0.01863139,-0.007330383,187.97615,-97.440094,-2.571834,STD
3182182254000,3.235036,-0.692936652680076,9.90816313654073,-1.48823681234937,0.23640485,0.01038471,-0.008857546,187.98845,-97.50428,-2.5906966,STD
3182188158000,3.24094,-0.758769789751311,9.85774940965611,-1.53131029457937,0.23640485,-0.0033597588,-0.022907447,188.00204,-97.57148,-2.6214652,STD
3182192296000,3.245078,-0.793417118233923,9.75765716310472,-1.51591149978628,0.23243423,-0.030543262,-0.024129177,188.02184,-97.64063,-2.6488752,STD
3182197227000,3.250009,-0.834704207829804,9.6383833912959,-1.49756170347775,0.22266038,-0.042760566,-0.03023783,188.04018,-97.71909,-2.6943111,STD
3182202258000,3.25504,-0.838945711106762,9.52359514619826,-1.47872864442705,0.19639318,-0.06414085,-0.03573562,188.06805,-97.78947,-2.7398024,STD
3182207196000,3.259978,-0.834318033408357,9.41253097808005,-1.46021793363343,0.1740966,-0.08307768,-0.034208454,188.09789,-97.855705,-2.7839468,STD
3182212273000,3.265055,-0.836878458438187,9.33721940872778,-1.44458586328141,0.14996742,-0.09865474,-0.032375857,188.1314,-97.92015,-2.8400974,STD
3182217190000,3.269972,-0.841580787737168,9.27608883323347,-1.43047892448572,0.1301143,-0.11362094,-0.031154128,188.16891,-97.97765,-2.8949547,STD
3182222285000,3.275067,-0.849734615800886,9.27821103950222,-1.43391991580089,0.1255328,-0.13316862,-0.022907447,188.21104,-98.02981,-2.9466405,STD
3182227280000,3.280062,-0.858754341642312,9.30076035410578,-1.44293964164231,0.12003502,-0.13713925,-0.02107485,188.25145,-98.07548,-2.9981542,STD
3182232284000,3.285066,-0.88062920830081,9.36168647433203,-1.4492172994296,0.11453723,-0.14813483,-0.011301007,188.30614,-98.12096,-3.0501854,STD
3182237252000,3.290034,-0.909195755163615,9.44262515220655,-1.4539783367157,0.11636983,-0.15943582,-0.013744468,188.36005,-98.16663,-3.1036203,STD
3182242298000,3.29508,-0.932039432135648,9.53795838554703,-1.44934161719822,0.116980694,-0.15210545,-0.008552114,188.41013,-98.20843,-3.1515927,STD
3182247220000,3.300002,-0.951069335698426,9.63786534820347,-1.43982667783609,0.129198,-0.15699236,-0.0036651916,188.46515,-98.252716,-3.1995509,STD
3182252238000,3.30502,-0.954451648955254,9.73069748048109,-1.43975006790337,0.13561209,-0.16187929,-0.00580322,188.52269,-98.29789,-3.2544763,STD
3182257238000,3.31002,-0.949570979298746,9.81854887177658,-1.44463076304148,0.13439035,-0.17928895,-0.0033597588,188.58388,-98.341774,-3.3055868,STD
3182262266000,3.315048,-0.957951655936406,9.87450064060677,-1.46579344331972,0.14446963,-0.1966986,-0.0061086523,188.64908,-98.39035,-3.3626442,STD
3182267241000,3.320023,-0.971850332399844,9.91619698444185,-1.49359069949436,0.15332718,-0.20799962,-0.002443461,188.71602,-98.43586,-3.4156635,STD
3182272287000,3.325069,-0.959077830437666,9.937067632626,-1.55386861511936,0.16218472,-0.21013765,-0.0030543262,188.7885,-98.487686,-3.4701746,STD
3182278553000,3.331335,-0.924969296324365,9.94843677794619,-1.65050949640015,0.1695151,-0.23365596,-0.005497787,188.86841,-98.53948,-3.5233803,STD
3182282294000,3.335076,-0.914114489912458,9.93189569117498,-1.67030861491752,0.17837265,-0.23701571,0.0021380284,188.9408,-98.59404,-3.5730336,STD
3182287229000,3.340011,-0.90454833877644,9.89841425584455,-1.67748321890497,0.18784106,-0.2415972,-0.0012217305,189.0177,-98.65034,-3.62537,STD
3182292274000,3.345056,-0.894768960360793,9.86418652712276,-1.68481774314341,0.19822577,-0.23762658,-0.0012217305,189.09682,-98.71699,-3.668026,STD
3182297247000,3.350029,-0.885129148891813,9.83044728134804,-1.69204759230847,0.19853121,-0.24251351,0.0061086523,189.178,-98.78057,-3.7081647,STD
3182302226000,3.355008,-0.861622586708249,9.80511642847083,-1.68120648407445,0.18997909,-0.2489276,-0.00061086525,189.2575,-98.85027,-3.7522407,STD
3182307277000,3.360059,-0.827557484128773,9.78565076881288,-1.6568742316499,0.17959438,-0.25320363,0.0033597588,189.33665,-98.91483,-3.7895103,STD
3182312265000,3.365047,-0.802737470633587,9.7750971657606,-1.62180572239794,0.17654006,-0.24037547,0.0027488936,189.41196,-98.97939,-3.8248608,STD
3182317239000,3.370021,-0.783903842696452,9.7703886555303,-1.57943001529109,0.16065755,-0.2302962,0.00580322,189.48773,-99.034744,-3.8566687,STD
3182322333000,3.375115,-0.753725479042678,9.78209043265466,-1.53627409251175,0.14355333,-0.22449298,0.0015271631,189.56178,-99.08369,-3.8833194,STD
3182327287000,3.380069,-0.716573146133516,9.80531061041503,-1.49447772405051,0.116675265,-0.21960606,0.0061086523,189.6321,-99.12277,-3.9048994,STD
3182332339000,3.385121,-0.67832582600757,9.83441053162666,-1.44885185411894,0.09682214,-0.21960606,0.007941248,189.69443,-99.16076,-3.9230201,STD
3182337238000,3.39002,-0.64093820886144,9.86712486193844,-1.40211732658631,0.089491755,-0.2049453,0.009773844,189.75005,-99.19316,-3.9380267,STD
3182342255000,3.395037,-0.608257255345403,9.89275506193425,-1.37668759690329,0.08307768,-0.20097467,0.0125227375,189.80928,-99.21319,-3.9447734,STD
3182347223000,3.400005,-0.581057121620772,9.91088838027632,-1.37215429098618,0.07360926,-0.20861048,0.015271631,189.86656,-99.2295,-3.9501796,STD
3182352257000,3.405039,-0.546263001017983,9.92365744222819,-1.35697100793716,0.080634214,-0.19211712,0.025961773,189.91847,-99.2387,-3.9441211,STD
3182357283000,3.410065,-0.501492721718685,9.92863201870608,-1.32712417238528,0.09010262,-0.18417588,0.025961773,189.9735,-99.24673,-3.9405098,STD
3182362287000,3.415069,-0.44675250229894,9.90135302226977,-1.30056263986191,0.09162979,-0.17440203,0.01863139,190.03108,-99.25522,-3.9328995,STD
3182367242000,3.420024,-0.382146535066615,9.84136152708354,-1.27748905088009,0.09682214,-0.16401732,0.013133603,190.08527,-99.26641,-3.924101,STD
3182372241000,3.425023,-0.318198643249964,9.80763396048383,-1.25725092045203,0.087659165,-0.1563815,0.019242255,190.14027,-99.26766,-3.9060745,STD
3182377382000,3.430164,-0.254137740017349,9.81000663442726,-1.24064254969399,0.090713486,-0.13103059,0.018020526,190.18585,-99.27464,-3.8903668,STD
3182382242000,3.435024,-0.193578317782276,9.81224962127126,-1.22494196967375,0.0870483,-0.12095132,0.0125227375,190.24326,-99.285,-3.868401,STD
3182387202000,3.439984,-0.13177281690039,9.81453876010795,-1.20891833245145,0.08399397,-0.11881329,0.008552114,190.29492,-99.295784,-3.8456705,STD
3182392230000,3.445012,-0.0766353787160545,9.82441777827489,-1.20938701039434,0.08155051,-0.105068825,0.01282817,190.3398,-99.30497,-3.8213062,STD
3182397228000,3.45001,-0.0417738497692228,9.85429917230257,-1.2542088934242,0.077579886,-0.10629055,0.0070249503,190.387,-99.31416,-3.8015113,STD
3182402231000,3.455013,-0.029053866413118,9.88193820460108,-1.3014424845815,0.086132,-0.09407325,0.00030543262,190.43895,-99.31741,-3.7585006,STD
3182407255000,3.460037,-0.0573145869378365,9.90548878864415,-1.35325386784141,0.08155051,-0.076358154,0.00580322,190.48926,-99.31544,-3.7139847,STD
3182412236000,3.465018,-0.0865998808018451,9.9358368856429,-1.38721049654046,0.09865474,-0.055588737,-0.009773844,190.53763,-99.3281,-3.6711142,STD
3182417210000,3.469992,-0.118643437519508,9.98161336382856,-1.38263280092254,0.11453723,-0.01740966,-0.01160644,190.57632,-99.33703,-3.621987,STD
3182422243000,3.475025,-0.155121258661559,10.0183826174328,-1.38010276098184,0.12522738,0.004581489,-0.0143553335,190.60419,-99.35407,-3.5787787,STD
3182427351000,3.480133,-0.20602000969826,10.0230096285944,-1.38472996540863,0.13041973,0.017715093,-0.015271631,190.62378,-99.3734,-3.535113,STD
3182432287000,3.485069,-0.259257246325237,10.0275577467218,-1.39312586766982,0.13041973,0.028710667,-0.01038471,190.63528,-99.39378,-3.496201,STD
3182437206000,3.489988,-0.340268962607481,10.0326208167455,-1.42856846809974,0.12675454,0.03604105,-0.019547688,190.64369,-99.41555,-3.4618773,STD
3182442216000,3.494998,-0.421287850909091,10.030536138756,-1.45210049569378,0.12370021,0.043982297,-0.017104227,190.64532,-99.4383,-3.4324849,STD
3182447215000,3.499997,-0.497642652651515,10.0066752818979,-1.43778403140949,0.12003502,0.05589417,-0.0125227375,190.64377,-99.459915,-3.4051492,STD
3182452213000,3.504995,-0.571241379198214,9.98184342244225,-1.42581668804116,0.102319926,0.073303826,-0.014966198,190.64195,-99.48919,-3.3976033,STD
3182457235000,3.510017,-0.636600159687439,9.95383292739274,-1.42114820720249,0.0870483,0.07849618,-0.011911872,190.64087,-99.51598,-3.3873525,STD
3182462235000,3.515017,-0.69136842000823,9.91828068316017,-1.40909505036519,0.07238753,0.09285152,-0.01282817,190.62541,-99.5409,-3.391965,STD
3182467210000,3.519992,-0.701170823053184,9.84966345242259,-1.36498418548503,0.05375614,0.09621128,-0.008246681,190.61227,-99.55896,-3.3943663,STD
3182472246000,3.525028,-0.706384215087857,9.78902487484048,-1.32887671508786,0.02107485,0.09987647,-0.004276057,190.59276,-99.57607,-3.4110858,STD
3182477434000,3.530216,-0.696629736163738,9.75488450417198,-1.31912223616374,0.0076358155,0.106595986,-0.008246681,190.57153,-99.59305,-3.4281962,STD
3182482215000,3.534997,-0.685761994293824,9.7215577818342,-1.30166029947147,0.004581489,0.10842858,-0.00061086525,190.55014,-99.599655,-3.4436533,STD
3182487215000,3.539997,-0.667015199735735,9.67937759195459,-1.25010656549868,-0.01282817,0.112399206,0.004276057,190.52621,-99.599434,-3.4603975,STD
3182492232000,3.545014,-0.648959219041793,9.64233585152197,-1.20290489971616,0.00030543262,0.12095132,0.0125227375,190.50612,-99.60832,-3.4749892,STD
3182497217000,3.549999,-0.634941269257121,9.63299037926985,-1.17954165820691,0.016187929,0.12797627,0.011911872,190.48537,-99.61376,-3.4904265,STD
3182502214000,3.554996,-0.62003728049024,9.62616406827381,-1.1592846347216,0.036651913,0.13439035,0.019242255,190.46812,-99.61792,-3.5004613,STD
3182507247000,3.560029,-0.598358741047045,9.63917100269857,-1.16362038516686,0.04795292,0.1282817,0.014660766,190.45209,-99.625114,-3.514185,STD
3182512246000,3.565028,-0.576826649118467,9.65209006989296,-1.16792684582171,0.06566802,0.124005646,0.01160644,190.43594,-99.648674,-3.5259295,STD
3182517207000,3.569989,-0.560302726531527,9.67726378911412,-1.17790761564565,0.07727446,0.12583824,0.01985312,190.42033,-99.672165,-3.5355864,STD
3182522230000,3.575012,-0.548424772540136,9.70436113513247,-1.1915989326603,0.07819075,0.13255776,0.028405234,190.40462,-99.696945,-3.5457618,STD
3182527266000,3.580048,-0.572175784599626,9.73286242499754,-1.22960052021078,0.076358154,0.13072516,0.026572637,190.3931,-99.72232,-3.5521853,STD
3182532241000,3.585023,-0.595461946911794,9.76122143121903,-1.26508289404361,0.06383542,0.1414153,0.016798794,190.37785,-99.74388,-3.5546348,STD
3182537208000,3.58999,-0.616676614326065,9.7918649660555,-1.27686883679386,0.056505036,0.13744467,0.016798794,190.3679,-99.76468,-3.5556073,STD
3182542380000,3.595162,-0.638766861933598,9.82377323305253,-1.28914121366204,0.053145275,0.13622294,0.014966198,190.35239,-99.78818,-3.562725,STD
3182547251000,3.600033,-0.65957150155005,9.85382450307235,-1.30069936287413,0.042760566,0.12308934,0.013133603,190.34164,-99.807045,-3.5704749,STD
3182552484000,3.605266,-0.683288449990557,9.8853494687441,-1.31494085188857,0.03023783,0.113926366,0.015882496,190.33049,-99.8234,-3.5772197,STD
3182557260000,3.610042,-0.717840893276676,9.90694474579792,-1.34517419466478,0.037873644,0.10262536,0.01740966,190.32368,-99.84203,-3.5853744,STD
3182562248000,3.61503,-0.753927071482531,9.92949860717658,-1.37674955349386,0.047036625,0.096516706,0.018936822,190.32361,-99.866066,-3.6045787,STD
3182567209000,3.619991,-0.775357149512363,9.9166955889075,-1.38484149462122,0.052534413,0.087659165,0.00061086525,190.32648,-99.892265,-3.629065,STD
3182572221000,3.625003,-0.795847297675106,9.90093394913473,-1.39114618344662,0.05222898,0.070554934,0.005192355,190.33432,-99.91593,-3.6467588,STD
3182577278000,3.63006,-0.816521415643779,9.8850307942403,-1.39750747861623,0.03756821,0.059864793,0.006414085,190.34166,-99.94649,-3.6780431,STD
3182582231000,3.635013,-0.836770358949857,9.86945469651594,-1.40373795023479,0.03726278,0.0421497,0.002443461,190.35538,-99.979706,-3.7096992,STD
3182587215000,3.639997,-0.857146037011132,9.85378111059666,-1.41000741733491,0.03573562,0.036957346,0.005192355,190.36844,-100.00691,-3.7381256,STD
3182592213000,3.644995,-0.877578950123141,9.83806349775063,-1.41629449529767,0.029321533,0.028710667,0.004276057,190.38643,-100.03261,-3.7687097,STD
3182597219000,3.650001,-0.86871706408611,9.81479910681018,-1.42560021429311,0.009468411,0.02321288,0.0030543262,190.40848,-100.061615,-3.8012495,STD
3182602187000,3.654969,-0.853944488304699,9.7901781471745,-1.43544854672946,-0.0027488936,0.023823744,0.007330383,190.43063,-100.08936,-3.8315444,STD
3182607238000,3.66002,-0.848077975867508,9.78323908694795,-1.45355229652997,-0.023823744,0.035430185,0.011301007,190.4452,-100.11502,-3.872241,STD
3182612221000,3.665003,-0.84337359944795,9.77853461228312,-1.4723698022082,-0.03390302,0.04795292,0.013439035,190.45876,-100.13923,-3.910986,STD
3182617209000,3.669991,-0.844814862079889,9.78408750037123,-1.48921927749344,-0.043676864,0.05681047,0.01160644,190.47058,-100.157936,-3.9458325,STD
3182622204000,3.674986,-0.847182634984903,9.79119072019007,-1.50579373727664,-0.06261369,0.063224554,0.008246681,190.47903,-100.170975,-3.979117,STD
3182627262000,3.680044,-0.849580271692323,9.79838353016879,-1.52257724430035,-0.08093964,0.06994407,0.01160644,190.477,-100.17761,-4.0039287,STD
3182632207000,3.684989,-0.851924343166856,9.80541564668614,-1.53898579357521,-0.08857546,0.08368854,0.0061086523,190.47037,-100.18332,-4.03095,STD
3182637200000,3.689982,-0.862072650414079,9.8105448166223,-1.53602385640343,-0.09437868,0.080634214,0.0067195175,190.46681,-100.18365,-4.055226,STD
3182642232000,3.695014,-0.873950427694962,9.81529602080252,-1.52889714935423,-0.10934488,0.0888809,0.009162978,190.45587,-100.18009,-4.0788674,STD
3182647220000,3.700002,-0.885724345238095,9.82000568027211,-1.5218327585034,-0.11148291,0.0870483,0.011911872,190.44725,-100.178986,-4.1014037,STD
3182652259000,3.705041,-0.897618645659075,9.82476349383811,-1.51469613751356,-0.12217305,0.09254608,0.0030543262,190.43375,-100.17307,-4.1254144,STD
3182657255000,3.710037,-0.896584802080125,9.84397928959937,-1.49496011040062,-0.12064589,0.0870483,0.010079277,190.42764,-100.16345,-4.144809,STD
3182662257000,3.715039,-0.891915423622185,9.86732618188907,-1.47161321811093,-0.11881329,0.08827003,0.020463986,190.41774,-100.15229,-4.164773,STD
3182667218000,3.72,-0.883861446071639,9.87538343623303,-1.45677441357016,-0.11789699,0.09040806,0.023823744,190.40164,-100.140045,-4.186207,STD
3182672276000,3.725058,-0.874327982133438,9.87776684825822,-1.44485762719937,-0.11728613,0.0842994,0.016798794,190.3876,-100.12881,-4.2076917,STD
3182678930000,3.731712,-0.861786331472151,9.88090232149183,-1.42918062116709,-0.11759156,0.082161374,0.014966198,190.37257,-100.11407,-4.225488,STD
3182682236000,3.735018,-0.855555087545759,9.88246016256642,-1.42139159472545,-0.11759156,0.077579886,0.01740966,190.35988,-100.100525,-4.2441697,STD
3182687230000,3.740012,-0.847658188850022,9.88482407129763,-1.42984109608581,-0.11575896,0.057726767,0.00061086525,190.34831,-100.0818,-4.26619,STD
3182692248000,3.74503,-0.84051508089184,9.88720490506862,-1.44888933259179,-0.108123146,0.037873644,-0.004581489,190.33875,-100.0638,-4.284267,STD
3182697226000,3.750008,-0.833428912813754,9.8895667604915,-1.46778572982708,-0.10262536,0.017715093,-0.015577064,190.33519,-100.04571,-4.306174,STD
3182702228000,3.75501,-0.82630858080761,9.89194000292325,-1.48677323062478,-0.10720685,0.013744468,-0.013133603,190.33284,-100.02675,-4.3255053,STD
3182707231000,3.760013,-0.82213433925574,9.88842799920823,-1.50427896057007,-0.09773844,0.004276057,-0.022602014,190.3364,-100.016335,-4.3519263,STD
3182712232000,3.765014,-0.819764308733175,9.88131800663104,-1.52086919897565,-0.10903945,-0.008857546,-0.022296581,190.34232,-99.99855,-4.374699,STD
3182717254000,3.770036,-0.817384326072842,9.87417815805622,-1.53752910244953,-0.1133155,-0.008857546,-0.025961773,190.34596,-99.98637,-4.3957143,STD
3182722261000,3.775043,-0.815011452082344,9.86705963519398,-1.55413924516033,-0.11942416,-0.008246681,-0.033292156,190.35258,-99.971855,-4.417714,STD
3182727244000,3.780026,-0.80750818689978,9.84715810564995,-1.54667468353696,-0.14752395,-0.01985312,-0.029932396,190.3626,-99.95035,-4.4377384,STD
3182732241000,3.785023,-0.796307669752376,9.81803689112016,-1.52203355329776,-0.15118915,-0.02107485,-0.035124753,190.36836,-99.93624,-4.4612083,STD
3182737224000,3.790006,-0.78513853288115,9.78899726494406,-1.49746145964518,-0.16493362,-0.013744468,-0.030848695,190.37444,-99.91016,-4.4778924,STD
3182742295000,3.795077,-0.773772148559659,9.75944479768759,-1.47245542173384,-0.18203785,-0.0027488936,-0.02443461,190.37926,-99.883606,-4.494847,STD
3182747230000,3.800012,-0.748178538339085,9.7249134403874,-1.44260842901035,-0.19333886,-0.008552114,-0.027183503,190.3863,-99.86341,-4.5147223,STD
3182752201000,3.804983,-0.689882979973283,9.67721663174886,-1.40021160395191,-0.20219639,-0.002443461,-0.016798794,190.38742,-99.83785,-4.5277057,STD
3182757195000,3.809977,-0.639196018225324,9.65102079421735,-1.35985687465603,-0.20005837,0.0036651916,-0.013744468,190.39061,-99.80925,-4.5406904,STD
3182762167000,3.814949,-0.59646988227318,9.64627384785643,-1.32187818077767,-0.19883664,0.01038471,-0.011911872,190.392,-99.77818,-4.5505905,STD
3182767142000,3.819924,-0.560910875910963,9.64612772759365,-1.28189951148264,-0.18875736,0.016187929,-0.010079277,190.39156,-99.74036,-4.548134,STD
3182772179000,3.824961,-0.532529786303197,9.65085750911944,-1.23932787213179,-0.1826487,0.007941248,-0.0106901415,190.3931,-99.70334,-4.54633,STD
3182777169000,3.829951,-0.514964408267097,9.65997053197498,-1.2184376317329,-0.16462818,0.010079277,-0.0009162979,190.39383,-99.665,-4.5334234,STD
3182782146000,3.834928,-0.510156688517248,9.67439399243494,-1.22324535148275,-0.1572978,0.0036651916,-0.007330383,190.39854,-99.62912,-4.5262766,STD
3182787131000,3.839913,-0.511887795398438,9.68431056601563,-1.221514258125,-0.1459968,0.0061086523,-0.01038471,190.40276,-99.59209,-4.5106864,STD
3182792166000,3.844948,-0.521305635056641,9.68901956943359,-1.21209644796875,-0.12461651,0.01282817,-0.0070249503,190.40749,-99.56068,-4.495544,STD
3182797136000,3.849918,-0.528727700343088,9.70575197689203,-1.20267109931382,-0.12064589,0.010079277,-0.013744468,190.41278,-99.5351,-4.4840665,STD
3182802149000,3.854931,-0.533572150232089,9.73966282260343,-1.19298219953582,-0.09865474,0.00030543262,-0.019242255,190.41837,-99.51956,-4.4716644,STD
3182807193000,3.859975,-0.547942290052929,9.77428756415404,-1.18558391967512,-0.092240654,0.009162978,-0.01740966,190.42166,-99.5038,-4.462514,STD
3182812264000,3.865046,-0.574533266475634,9.80974245236357,-1.18115209335645,-0.09468412,-0.0030543262,-0.014660766,190.4334,-99.49227,-4.4560466,STD
3182817249000,3.870031,-0.595048577804505,9.84181368902253,-1.17408767315258,-0.06566802,-0.0021380284,-0.0076358155,190.43875,-99.48857,-4.4476714,STD
3182822289000,3.875071,-0.59996826713281,9.86641213566405,-1.15932855379676,-0.059253927,-0.009773844,-0.004276057,190.44984,-99.47894,-4.440519,STD
3182827254000,3.880036,-0.60190003618442,9.87463214705882,-1.15928844173291,-0.051618114,-0.008857546,-0.0036651916,190.45609,-99.477356,-4.436708,STD
3182832239000,3.885021,-0.5971563609062,9.84616999632353,-1.19249421821343,-0.049785517,-0.027183503,0.0012217305,190.47014,-99.474846,-4.4318705,STD
3182837218000,3.89,-0.595074770958159,9.8192403452092,-1.229381823289,-0.038179077,-0.02687807,0.00580322,190.47977,-99.47371,-4.4273705,STD
3182842288000,3.89507,-0.599788330418406,9.79567254790797,-1.27651746710999,-0.03573562,-0.032986723,-0.00030543262,190.49591,-99.47147,-4.4255013,STD
3182847206000,3.899988,-0.59917096981289,9.77896198821899,-1.31723243229383,-0.03176499,-0.02687807,-0.004276057,190.50905,-99.47488,-4.420154,STD
3182852241000,3.905023,-0.580076132331452,9.78373579229779,-1.34110095422235,-0.028710667,-0.04520403,-0.008246681,190.53033,-99.47922,-4.4177423,STD
3182857262000,3.910044,-0.561048195422257,9.79048451183899,-1.36986511144436,-0.031154128,-0.03481932,-0.004886922,190.54147,-99.48767,-4.413279,STD
3182862308000,3.91509,-0.541977740489345,9.80478715390687,-1.41754124877664,-0.036957346,-0.037873644,-0.002443461,190.5611,-99.49623,-4.411349,STD
3182867256000,3.920038,-0.528469637606155,9.81535436297332,-1.47050912876411,-0.03940081,-0.03756821,-0.00061086525,190.58203,-99.50815,-4.406457,STD
3182872257000,3.925039,-0.538039739874113,9.81056921190928,-1.55185504800679,-0.049785517,-0.03481932,-0.0033597588,190.6027,-99.51636,-4.402071,STD
3182879011000,3.931793,-0.558529666063618,9.81086730715706,-1.63534919835984,-0.05589417,-0.02321288,-0.0027488936,190.62271,-99.52667,-4.391367,STD
3182882236000,3.935018,-0.573880163827038,9.81598424304175,-1.65581654117793,-0.058948494,0.005192355,-0.012217305,190.63629,-99.53639,-4.383455,STD
3182887184000,3.939966,-0.597431873263751,9.82383497133864,-1.68721883955434,-0.067500606,0.02076942,-0.0027488936,190.64723,-99.54837,-4.36902,STD
3182892223000,3.945005,-0.606922002880504,9.81147142330805,-1.65926313377992,-0.087964594,0.03481932,0.00030543262,190.6499,-99.55807,-4.358068,STD
3182897215000,3.949997,-0.611631626129445,9.79263302866713,-1.61216685211309,-0.11453723,0.043676864,-0.0027488936,190.6499,-99.56312,-4.345962,STD
3182902205000,3.954987,-0.611156467738409,9.76462765038469,-1.59229001095363,-0.12095132,0.046731193,0.0036651916,190.64815,-99.567566,-4.334729,STD
3182907258000,3.96004,-0.608707005782547,9.73278449149625,-1.58249216313019,-0.12614368,0.062002823,-0.0018325958,190.63995,-99.56747,-4.3270774,STD
3182912226000,3.965008,-0.606298747916582,9.70147698835797,-1.57285913166633,-0.12950343,0.070554934,-0.006414085,190.63245,-99.56156,-4.3196096,STD
3182917209000,3.969991,-0.603883218740636,9.67007495773436,-1.56319701496254,-0.12858713,0.074830994,-0.003970624,190.62213,-99.55544,-4.31152,STD
3182922258000,3.97504,-0.607022619666879,9.65747240454612,-1.51313032009504,-0.11453723,0.07849618,-0.004886922,190.6083,-99.5504,-4.3044343,STD
3182927269000,3.980051,-0.611724458666046,9.65041974055749,-1.45200635664528,-0.112704635,0.09468412,0.00061086525,190.59042,-99.54163,-4.294467,STD
3182932310000,3.985092,-0.616454446771175,9.64332485347573,-1.39051645447999,-0.11453723,0.09560041,-0.00030543262,190.57582,-99.53575,-4.287538,STD
3182937205000,3.989987,-0.621047442560623,9.63643545211385,-1.33080745406359,-0.09743301,0.087964594,0.0021380284,190.55988,-99.53426,-4.278178,STD
3182942238000,3.99502,-0.639000430050336,9.63096633586656,-1.28560980405645,-0.09193522,0.08002335,0.0076358155,190.5466,-99.53162,-4.2701664,STD
3182947209000,3.999991,-0.662493492818792,9.62626763205685,-1.24802090951441,-0.06627888,0.07941248,0.007330383,190.53363,-99.538925,-4.263398,STD
3182952223000,4.005005,-0.683081018901774,9.65645229725444,-1.24811261890177,-0.04917465,0.067500606,0.008857546,190.53123,-99.53816,-4.2634263,STD
3182957285000,4.010067,-0.70230106513034,9.70450241282585,-1.26733266513034,-0.04520403,0.073303826,0.012217305,190.52415,-99.540344,-4.2623343,STD
3182962294000,4.015076,-0.702303001221221,9.74917207787788,-1.27052495061061,-0.049480084,0.059253927,0.004886922,190.52339,-99.54393,-4.270177,STD
3182967238000,4.02002,-0.692823982362362,9.79182756376376,-1.26578544118118,-0.025045475,0.06383542,0.003970624,190.5162,-99.55448,-4.274159,STD
3182972260000,4.025042,-0.680540967272727,9.81264288030303,-1.27612404159091,-0.023518313,0.06047566,0.0018325958,190.51369,-99.561226,-4.2839828,STD
