timestamp,rel_time,acc_x,acc_y,acc_z,gyro_x,gyro_y,gyro_z,azimuth,pitch,roll,label
12141220039000,0,0.0225252186138609,9.71508466014881,0.988952113877382,0.2779437,1.178359,-0.1432479,209.99947,-43.823875,45.00777,STD
12141224995000,0.004956,0.0471913688301843,9.71887945481394,1.03448962014022,0.2864958,1.1597277,-0.15454891,209.11789,-44.270237,44.498684,STD
12141230063000,0.010024,0.0724149461700405,9.72276000755058,1.08105622258979,0.3005457,1.1212431,-0.1563815,208.26135,-44.718575,43.98963,STD
12141235043000,0.015004,0.0972005450556924,9.72657317894532,1.12681424946406,0.3136793,1.0928379,-0.15393804,207.41292,-45.168304,43.479458,STD
12141240082000,0.020043,0.122279788586777,9.73043152646702,1.17311438950814,0.32925636,1.0552697,-0.14874569,206.58658,-45.617588,42.973015,STD
12141245126000,0.025087,0.147383917257304,9.73429370247405,1.21946047134626,0.3323107,1.0051788,-0.15027285,205.77956,-46.066833,42.468636,STD
12141250065000,0.030026,0.17196545799952,9.73807548028903,1.26484177550933,0.3387248,0.9822713,-0.1572978,204.97945,-46.51603,41.96571,STD
12141254934000,0.034895,0.180316402197477,9.74960747908557,1.27083313206986,0.34330627,0.94897914,-0.16187929,204.20459,-46.963516,41.46795,STD
12141260057000,0.040018,0.177374522039375,9.76750391961524,1.24852387642284,0.3454443,0.89552844,-0.16310102,203.4483,-47.41066,40.973186,STD
12141265061000,0.045022,0.174500977571068,9.78498465129794,1.22673283303855,0.34330627,0.84971356,-0.16646078,202.68571,-47.892693,40.424202,STD
12141269965000,0.049926,0.171684858052167,9.80211604781512,1.20537726214396,0.34025195,0.8063421,-0.17654006,201.95041,-48.371613,39.881706,STD
12141274997000,0.054958,0.168795234598026,9.81969459334416,1.18346428646256,0.34666604,0.75686204,-0.17715092,201.2406,-48.84392,39.34987,STD
12141280058000,0.060019,0.165888957908557,9.83737444607121,1.16142502375915,0.3368922,0.7147123,-0.17470746,200.5509,-49.311096,38.824184,STD
12141285033000,0.064994,0.163032066675578,9.8547538705559,1.13976026739688,0.33261612,0.68661255,-0.17654006,199.88016,-49.774834,38.305332,STD
12141289989000,0.06995,0.160186086182986,9.87206692135915,1.11817825080765,0.32895094,0.6404922,-0.17256944,199.23544,-50.22985,37.79866,STD
12141295124000,0.075085,0.157237315030956,9.89000528210868,1.09581673846186,0.3277292,0.61941737,-0.17928895,198.59781,-50.682484,37.29458,STD
12141300089000,0.08005,0.154386166292917,9.90734977307683,1.07419552934856,0.34391713,0.59773165,-0.18203785,197.98044,-51.1284,36.80173,STD
12141305067000,0.085028,0.151527552311455,9.92473967761649,1.05251770881159,0.3494149,0.591623,-0.19792034,197.37093,-51.573074,36.309612,STD
12141310130000,0.090091,0.148620127122998,9.94242651704685,1.03046973665839,0.33841935,0.57818395,-0.2125811,196.77553,-52.01242,35.824898,STD
12141315043000,0.095004,0.145798839358651,9.95958935372892,1.00907497323973,0.34513888,0.5928447,-0.22815818,196.17778,-52.45268,35.33994,STD
12141320057000,0.100018,0.142919552395403,9.97710501892817,0.987240382606471,0.35002577,0.5907067,-0.23182335,195.59428,-52.886864,34.862183,STD
12141325000000,0.104961,0.140081037146234,9.9943726561599,0.9657149774409,0.36132678,0.6072,-0.2321288,195.00417,-53.319965,34.384666,STD
12141330056000,0.110017,0.137177631704235,10.0120350421287,0.943697488361974,0.3811799,0.6261369,-0.24404067,194.41885,-53.75294,33.908703,STD
12141335034000,0.114995,0.134319017722773,10.0294249466683,0.92201966782501,0.40317106,0.64996064,-0.2556471,193.83005,-54.181858,33.43696,STD
12141340108000,0.120069,0.131405275789881,10.0471502129669,0.899923793697939,0.4352415,0.6795876,-0.26847526,193.23775,-54.611958,32.965496,STD
12141345164000,0.125125,0.128501870347883,10.0648125989357,0.877906304619013,0.45478916,0.70371675,-0.267559,192.64294,-55.037243,32.498947,STD
12141350092000,0.130053,0.125671968841124,10.0820278358926,0.856446220326896,0.4905248,0.72143185,-0.27855456,192.04619,-55.468845,32.029488,STD
12141355102000,0.135063,0.122794978875853,10.0995295276852,0.834629048593229,0.50488013,0.7324274,-0.27763826,191.44653,-55.89191,31.567785,STD
12141360063000,0.140024,0.11994612713579,10.1168600452467,0.813025258379513,0.53023106,0.7492262,-0.30024028,190.84566,-56.324036,31.100254,STD
12141365069000,0.14503,0.117071434168495,10.1343477636327,0.791225505545434,0.5699373,0.766025,-0.31215215,190.24411,-56.751274,30.640474,STD
12141370052000,0.150013,0.114209948939563,10.1517551349307,0.769525911383985,0.59803706,0.79259765,-0.32559118,189.63962,-57.18157,30.177523,STD
12141374994000,0.154955,0.111372007939888,10.1690192788107,0.74800486094331,0.6310238,0.8176431,-0.34788775,189.0355,-57.617252,29.713127,STD
12141380056000,0.160017,0.108465157000924,10.1867026248894,0.725961243515003,0.65087694,0.840856,-0.3652974,188.42784,-58.051983,29.25003,STD
12141385044000,0.165005,0.105600800524522,10.2041274629457,0.704239875729069,0.675617,0.8567385,-0.3817908,187.81984,-58.49159,28.785229,STD
12141389989000,0.16995,0.102761136776365,10.2214020868807,0.682705761113704,0.68936145,0.86590147,-0.39645153,187.2115,-58.931396,28.320417,STD
12141395080000,0.175041,0.0998376326020737,10.2391867401574,0.660535856663385,0.70096785,0.87781334,-0.39950588,186.60135,-59.370083,27.858494,STD
12141400048000,0.180009,0.0969847611155528,10.2565417111805,0.63890158337539,0.6844745,0.86620694,-0.40286562,186.00055,-59.80609,27.398836,STD
12141405106000,0.185067,0.0940802071745659,10.2742110838526,0.616875384846671,0.66798115,0.8503244,-0.40591997,185.40125,-60.2392,26.943344,STD
12141410128000,0.190089,0.0911963262153654,10.2917546958651,0.595005956414241,0.6404922,0.83260936,-0.4007276,184.80954,-60.663,26.495445,STD
12141415065000,0.195026,0.0883612564631605,10.3090013729869,0.573506679598051,0.6038403,0.8249735,-0.39400807,184.22354,-61.079357,26.052822,STD
12141420044000,0.200005,0.0855020682322049,10.3263947708782,0.55182450433619,0.5580254,0.82436264,-0.37568212,183.64346,-61.482292,25.620779,STD
12141424993000,0.204954,0.0826601074860712,10.3436833682199,0.530272970821237,0.505491,0.8045095,-0.35430184,183.07497,-61.872967,25.19824,STD
12141430050000,0.210011,0.0797561277945784,10.3613492475403,0.508251127017414,0.45998153,0.7800749,-0.3304781,182.51077,-62.249382,24.786596,STD
12141435060000,0.215021,0.0768791378293067,10.3788509393329,0.486433955283748,0.4098906,0.75625116,-0.30268374,181.95503,-62.608322,24.38778,STD
12141439991000,0.219952,0.0740475135740662,10.3960766563448,0.464960806816939,0.3753767,0.745561,-0.2593123,181.40443,-62.949818,24.004986,STD
12141445111000,0.225072,0.0711073561644472,10.4139626168195,0.44266461534461,0.32253686,0.74036866,-0.21930063,180.86229,-63.273075,23.634201,STD
12141450058000,0.230019,0.0682665439173017,10.4312442274578,0.42112179127945,0.27183503,0.72112644,-0.20097467,180.33086,-63.58369,23.274685,STD
12141457199000,0.23716,0.0438224816447125,10.4183768004787,0.357235068978882,0.25625798,0.6994407,-0.14569137,179.80133,-63.87004,22.940403,STD
12141460002000,0.239963,0.0308106606289415,10.4069746832505,0.326650583137612,0.19211712,0.68661255,-0.118202426,179.28064,-64.14343,22.607208,STD
12141465061000,0.245022,0.00732625016915358,10.3863955498016,0.271450114400192,0.17012598,0.6407976,-0.07971791,178.87642,-64.51517,22.228434,STD
12141470043000,0.250004,-0.0158007181863838,10.3661296389808,0.217089818837862,0.12705997,0.5992588,-0.051618114,178.47523,-64.865944,21.860168,STD
12141474991000,0.254952,-0.0387698549634209,10.3460020342555,0.163100508833365,0.112399206,0.56505036,-0.02107485,178.08444,-65.20247,21.510712,STD
12141479980000,0.259941,-0.0619293180557083,10.3257076486503,0.108663833891482,0.08460484,0.5320636,0.009468411,177.70549,-65.51962,21.176298,STD
12141485051000,0.265012,-0.0854694337784963,10.3050797012853,0.0533324290748273,0.06536258,0.48991394,0.027794369,177.33989,-65.82699,20.854141,STD
12141489989000,0.26995,-0.108392149503033,10.2849927748234,-0.000547767530307774,0.05222898,0.4465425,0.05375614,176.98357,-66.11772,20.54894,STD
12141495111000,0.275072,-0.132169012593572,10.2641573683151,-0.0564356506837103,0.047647487,0.41722095,0.05589417,176.63753,-66.404366,20.247955,STD
12141500056000,0.280017,-0.155124223054859,10.2440419670688,-0.110392226668399,0.04795292,0.3839288,0.071776666,176.30443,-66.6762,19.96481,STD
12141505123000,0.285084,-0.178645770356647,10.2234302910091,-0.165679986125309,0.045814894,0.3494149,0.082161374,175.98198,-66.94411,19.686375,STD
12141510092000,0.290053,-0.201712391343934,10.2032172619307,-0.219898434268467,0.047647487,0.30298916,0.074830994,175.67433,-67.20938,19.413832,STD
12141515060000,0.295021,-0.224774370225971,10.1830083006786,-0.274105971071689,0.04550946,0.25503623,0.08124508,175.37697,-67.464165,19.153774,STD
12141520035000,0.299996,-0.247868843844758,10.1627708646422,-0.328389887254465,0.042455133,0.21227567,0.08155051,175.09363,-67.71861,18.896055,STD
12141525581000,0.305542,-0.2736139595613,10.1402106997661,-0.388904178540832,0.0580322,0.17592919,0.087659165,174.82259,-67.96875,18.647808,STD
12141530058000,0.310019,-0.294396664765584,10.1219990412465,-0.437754247435362,0.06291912,0.13836098,0.09254608,174.56523,-68.21328,18.405457,STD
12141535036000,0.314997,-0.317505064700121,10.101749401731,-0.492070897637946,0.07238753,0.10262536,0.0983493,174.31813,-68.45527,18.170595,STD
12141539992000,0.319953,-0.340511338319158,10.081589254395,-0.546147498361934,0.09987647,0.08246681,0.09560041,174.07811,-68.697784,17.939413,STD
12141545080000,0.325041,-0.364130369831196,10.0608921539822,-0.601664395957504,0.10781772,0.071776666,0.10048734,173.84528,-68.93165,17.716883,STD
12141550065000,0.330026,-0.387271264502484,10.0406140396824,-0.656057425539643,0.118507855,0.06780604,0.1001819,173.61705,-69.168076,17.496239,STD
12141555093000,0.335054,-0.410611769699521,10.02016100885,-0.710919642739039,0.12339478,0.062308256,0.096516706,173.39246,-69.40056,17.279966,STD
12141560077000,0.340038,-0.433748022265559,9.99988696237645,-0.765301760981241,0.13652839,0.062002823,0.08979719,173.16786,-69.63289,17.065863,STD
12141565054000,0.345015,-0.456851780094846,9.97964139068731,-0.819607499843889,0.14874569,0.06994407,0.092240654,172.94229,-69.8607,16.856297,STD
12141570042000,0.350003,-0.480006601081883,9.95935107290844,-0.874033263445836,0.15302174,0.09468412,0.09101892,172.71265,-70.08799,16.64604,STD
12141574996000,0.354957,-0.503003590490421,9.9391990612251,-0.928088041489951,0.160963,0.13103059,0.08368854,172.47768,-70.31485,16.436743,STD
12141579994000,0.359955,-0.526204832529958,9.91886806518285,-0.98262291849126,0.16065755,0.17592919,0.07788532,172.2333,-70.53743,16.228693,STD
12141585055000,0.365016,-0.549698527200246,9.89828079608123,-1.03784520990855,0.16340645,0.22968534,0.06627888,171.97694,-70.76137,16.017443,STD
12141589982000,0.369943,-0.572570179767033,9.87823861570905,-1.09160538177439,0.16187929,0.2779437,0.04734206,171.7105,-70.984406,15.803257,STD
12141595668000,0.375629,-0.598965190218575,9.85510895514557,-1.15364726065183,0.15974127,0.32528573,0.02443461,171.43039,-71.20833,15.58471,STD
12141600068000,0.380029,-0.619390453318608,9.83721051925403,-1.20165715637127,0.15424347,0.36468655,-0.0021380284,171.14087,-71.43377,15.360549,STD
12141605093000,0.385054,-0.642717032199896,9.81676969190062,-1.25648663955086,0.1414153,0.410196,-0.037873644,170.83875,-71.662285,15.127484,STD
12141609996000,0.389957,-0.665477274240683,9.79682513936056,-1.30998493925822,0.13897185,0.43676865,-0.055283304,170.5325,-71.89048,14.894077,STD
12141615056000,0.395017,-0.688966326805721,9.77624193808529,-1.36519631933558,0.1328632,0.48166725,-0.089186326,170.21198,-72.12536,14.645843,STD
12141620051000,0.400012,-0.712153642529508,9.75592314552205,-1.41969846231708,0.13988814,0.50885075,-0.11301007,169.89088,-72.36063,14.398349,STD
12141624997000,0.404958,-0.735113495096045,9.73580367644942,-1.4736659496417,0.14385876,0.5338962,-0.1337795,169.5607,-72.59858,14.143363,STD
12141630051000,0.410012,-0.758574695029583,9.71524488213219,-1.52881186167944,0.15149458,0.5439755,-0.14874569,169.22968,-72.839355,13.886176,STD
12141635050000,0.415011,-0.781780579174371,9.69490981826359,-1.58335765002069,0.15302174,0.5375614,-0.15821409,168.89879,-73.080124,13.627819,STD
12141639989000,0.41995,-0.804707937004158,9.67481882397533,-1.63724875796576,0.15882497,0.5338962,-0.1600467,168.56636,-73.321335,13.370375,STD
12141645091000,0.425052,-0.828391957989696,9.65406477399382,-1.69291841432044,0.16279559,0.5299256,-0.1591304,168.238,-73.56077,13.115029,STD
12141650050000,0.430011,-0.851412157924483,9.63389242317879,-1.74702774906423,0.16798794,0.5103779,-0.15393804,167.91684,-73.797554,12.864946,STD
12141656395000,0.436356,-0.851565391586973,9.6274242189558,-1.77229489268849,0.17898351,0.46517387,-0.12858713,167.60493,-74.028,12.625823,STD
12141660087000,0.440048,-0.842209062059445,9.62989569688497,-1.77282449773525,0.18509217,0.44409904,-0.118507855,167.29388,-74.257614,12.387106,STD
12141665119000,0.44508,-0.829456881619975,9.63326419009721,-1.77354632129844,0.18509217,0.40317106,-0.10293079,167.05168,-74.650375,12.067135,STD
12141670051000,0.450012,-0.816958122890352,9.63656574187042,-1.77425380019622,0.19456059,0.36896262,-0.083383106,166.81186,-75.038414,11.755393,STD
12141674996000,0.454957,-0.804426419338449,9.6398759960307,-1.7749631439005,0.19608775,0.32711834,-0.05589417,166.5838,-75.415344,11.4561205,STD
12141680053000,0.460014,-0.791610883471518,9.6432612246027,-1.77568855363004,0.19364429,0.2947425,-0.03481932,166.3611,-75.78575,11.165175,STD
12141685051000,0.465012,-0.778944866413397,9.64660695772566,-1.77640550000699,0.1966986,0.24984388,-0.013439035,166.15164,-76.14652,10.887877,STD
12141689992000,0.469953,-0.766423299729888,9.64991453422838,-1.77711426992466,0.20158553,0.20433442,0.014049901,165.94937,-76.496506,10.622988,STD
12141695123000,0.475084,-0.75342023179767,9.65334929946527,-1.7778502947066,0.20097467,0.17134771,0.02565634,165.75499,-76.84018,10.364227,STD
12141700053000,0.480014,-0.740926541502244,9.65664951240969,-1.77855748671107,0.19425514,0.13775012,0.042760566,165.57132,-77.17149,10.119797,STD
12141705076000,0.485037,-0.728197169016661,9.66001198089242,-1.77927801925437,0.18906279,0.10476339,0.064751714,165.39507,-77.4945,9.88435,STD
12141710113000,0.490074,-0.715432317491699,9.66338382117661,-1.78000056005083,0.1826487,0.077579886,0.076358154,165.22528,-77.80989,9.654806,STD
12141715137000,0.495098,-0.702700410789018,9.66674695907373,-1.78072123604078,0.17379116,0.058643065,0.08002335,165.06082,-78.11609,9.432991,STD
12141720043000,0.500004,-0.690267541703955,9.67003110607279,-1.78142498532556,0.15332718,0.03176499,0.086132,164.90465,-78.41134,9.219172,STD
12141724995000,0.504956,-0.677718098632363,9.6733460461338,-1.78213533315642,0.1423316,0.010995574,0.09468412,164.75066,-78.70072,9.010229,STD
12141730055000,0.510016,-0.664894960114136,9.67673328294897,-1.78286117322592,0.12736541,-0.015577064,0.101098195,164.60458,-78.98053,8.806186,STD
12141735002000,0.514963,-0.652358188128036,9.68004487593803,-1.78357080382351,0.10781772,-0.02443461,0.09132435,164.45828,-79.25506,8.602659,STD
12141739984000,0.519945,-0.63973271854349,9.68337989843075,-1.784285455054,0.095294975,-0.035430185,0.09773844,164.31815,-79.51876,8.409049,STD
12141745077000,0.525038,-0.626825950861014,9.6867892259208,-1.78501602886308,0.09010262,-0.04184427,0.082161374,164.17883,-79.783516,8.209117,STD
12141750059000,0.53002,-0.614200481276468,9.69012424841353,-1.78573068009357,0.08307768,-0.03940081,0.082161374,164.03806,-80.03671,8.018048,STD
12141754999000,0.53496,-0.601681448810058,9.69343115550186,-1.78643930656458,0.06719518,-0.03970624,0.07544186,163.89917,-80.28863,7.8235188,STD
12141760063000,0.540024,-0.588848173423437,9.69682106997459,-1.7871657204207,0.055588737,-0.029626964,0.063224554,163.75534,-80.5374,7.6296425,STD
12141765075000,0.545036,-0.576146677325937,9.70017617489902,-1.7878846750508,0.04153884,-0.028405234,0.06291912,163.61263,-80.77804,7.440114,STD
12141770037000,0.549998,-0.56357189208336,9.70349780910394,-1.78859645734821,0.024740042,-0.025045475,0.05222898,163.46565,-81.017715,7.246441,STD
12141774991000,0.554952,-0.551017380577571,9.70681408799373,-1.78930709207238,0.040011674,0.0061086523,0.04520403,163.30894,-81.256035,7.0555873,STD
12141780056000,0.560017,-0.538181570973853,9.71020467188085,-1.79003364937515,0.04337143,0.023518313,0.03756821,163.15424,-81.48856,6.8644485,STD
12141785061000,0.565022,-0.525497814396042,9.71355509090455,-1.79075159987867,0.042455133,0.04062254,0.034208454,162.98953,-81.720055,6.6743865,STD
12141789992000,0.569953,-0.513001589883517,9.71685597326337,-1.7914589353298,0.043982297,0.0571159,0.025961773,162.81918,-81.95193,6.4829903,STD
12141795120000,0.575081,-0.500006124602595,9.72028873025708,-1.79219452977178,0.043982297,0.07574729,0.02107485,162.64224,-82.17996,6.2937627,STD
12141800053000,0.580014,-0.487504831655874,9.72359095144468,-1.79290215211621,0.054061573,0.09773844,0.01863139,162.45872,-82.40793,6.105059,STD
12141804994000,0.584955,-0.474983264972365,9.72689852794739,-1.79361092203388,0.056505036,0.10567969,0.01038471,162.27321,-82.63376,5.9158115,STD
12141810079000,0.59004,-0.462096771026677,9.73030250012232,-1.79434034826973,0.043676864,0.105068825,0.014660766,162.0828,-82.8531,5.73171,STD
12141815057000,0.595018,-0.449481438310524,9.73363484495749,-1.7950544257136,0.04642576,0.099265605,0.007330383,161.89122,-83.076836,5.5444565,STD
12141820036000,0.599997,-0.436863571377274,9.73696785920704,-1.79576864660412,0.05589417,0.10567969,0.00580322,161.69537,-83.29409,5.362358,STD
12141824989000,0.60495,-0.424311594088583,9.74028346868244,-1.79647913788164,0.06169739,0.10720685,0.0076358155,161.50195,-83.50897,5.181891,STD
12141830057000,0.610018,-0.411468181833569,9.74367606081273,-1.79720612552437,0.0571159,0.09987647,0.0067195175,161.30864,-83.72156,5.0027523,STD
12141835053000,0.615014,-0.398807233209644,9.74702045510692,-1.79792278500801,0.052534413,0.09407325,0.010079277,161.11371,-83.93065,4.827759,STD
12141839986000,0.619947,-0.386305940262923,9.75032267629452,-1.79863040735245,0.04917465,0.093462385,0.01863139,160.91872,-84.13516,4.656468,STD
12141845101000,0.625062,-0.373343419804281,9.75374673090116,-1.79936413698792,0.0421497,0.087659165,0.024740042,160.7263,-84.33508,4.4880238,STD
12141850751000,0.630712,-0.359025093197961,9.75752892220663,-1.80017461058331,0.040317107,0.065973446,0.022907447,160.53812,-84.532326,4.3223205,STD
12141856406000,0.636367,-0.355983240667797,9.76058975545118,-1.79898069373471,0.04917465,0.05589417,0.026572637,160.34764,-84.72484,4.162043,STD
12141860064000,0.640025,-0.357560380274522,9.76234213197873,-1.79757879068285,0.047036625,0.043982297,0.027488936,160.16353,-84.91339,4.003063,STD
12141865064000,0.645025,-0.359716120578958,9.76473739787205,-1.79566257546708,0.052534413,0.04153884,0.03268129,160.0738,-85.10173,3.870637,STD
12141870042000,0.650003,-0.361862375626054,9.76712212459544,-1.79375479159826,0.05009095,0.03145956,0.032986723,159.98926,-85.285866,3.739407,STD
12141875063000,0.655024,-0.364027170039768,9.76952745060552,-1.79183052827858,0.04734206,0.023823744,0.031154128,159.90422,-85.46691,3.6110232,STD
12141880057000,0.660018,-0.366180323455838,9.77191984217977,-1.78991661252107,0.05497787,0.016798794,0.029932396,159.82137,-85.64584,3.4849958,STD
12141885048000,0.665009,-0.368332183427725,9.77431079659448,-1.78800384649269,0.06811147,0.0067195175,0.040317107,159.74095,-85.81972,3.3638613,STD
12141889992000,0.669953,-0.370463779440751,9.7766792355098,-1.78610909288733,0.084910266,0.00061086525,0.03359759,159.6611,-85.99645,3.2394993,STD
12141895132000,0.675093,-0.372679880473711,9.77914156884814,-1.78413922364552,0.08246681,0.009773844,0.043066,159.57892,-86.16269,3.1245925,STD
12141900066000,0.680027,-0.374807165006128,9.78150521723167,-1.7822483024706,0.08307768,0.009468411,0.03940081,159.50087,-86.333435,3.0061243,STD
12141905082000,0.685043,-0.376969803679537,9.78390814797585,-1.78032595536614,0.090713486,0.013744468,0.04062254,159.41821,-86.498184,2.8934553,STD
12141910066000,0.690027,-0.379118645614999,9.78629574901831,-1.77841587203906,0.089186326,0.01282817,0.046731193,159.3366,-86.657875,2.783028,STD
12141915060000,0.695021,-0.381271799031069,9.78868814059256,-1.77650195628155,0.09682214,0.020463986,0.042760566,159.2509,-86.818954,2.6717439,STD
12141920707000,0.700668,-0.383706492130898,9.79139335389248,-1.77433778281685,0.09193522,0.015577064,0.03634648,159.16853,-86.973625,2.5633605,STD
12141924995000,0.704956,-0.385555255015982,9.7934475339226,-1.77269443664781,0.087659165,0.02565634,0.0290161,159.07924,-87.12739,2.455111,STD
12141930059000,0.71002,-0.387738588796314,9.79587345921935,-1.77075369387728,0.08460484,0.018325957,0.0290161,158.99585,-87.277,2.3490362,STD
12141934981000,0.714942,-0.389860699552001,9.79823135896474,-1.76886737161887,0.082161374,0.015271631,0.03481932,158.9079,-87.42312,2.2441585,STD
12141940058000,0.720019,-0.392049638257124,9.80066351195282,-1.76692164668878,0.087964594,0.02076942,0.028710667,158.8192,-87.56959,2.1375875,STD
12141945117000,0.725078,-0.394230816297152,9.80308704198368,-1.76498282013346,0.07849618,0.018325957,0.025350908,158.73315,-87.708206,2.0351942,STD
12141949991000,0.729952,-0.396332231945916,9.80542194717649,-1.76311489354113,0.0729984,0.009162978,0.022296581,158.64705,-87.84626,1.9327962,STD
12141954977000,0.734938,-0.398481936177499,9.80781050632531,-1.76120404372796,0.082161374,0.006414085,0.02107485,158.55937,-87.98192,1.8315941,STD
12141959990000,0.739951,-0.400643281406726,9.81021199990996,-1.75928284635263,0.08368854,0.004276057,0.02565634,158.4737,-88.11177,1.7328782,STD
12141964984000,0.744945,-0.402796434822796,9.81260439148421,-1.75736893059511,0.08124508,-0.011911872,0.02443461,158.39241,-88.240456,1.6338421,STD
12141969981000,0.749942,-0.404950881683049,9.814998220218,-1.75545386510847,0.076358154,-0.01863139,0.023823744,158.3086,-88.36388,1.537843,STD
12141975055000,0.755016,-0.40713852694399,9.81742893604654,-1.75350928990751,0.08155051,-0.029626964,0.025350908,158.23018,-88.48369,1.4437432,STD
12141980079000,0.76004,-0.409304614801887,9.81983569921615,-1.7515838768587,0.07147124,-0.026267206,0.023823744,158.14912,-88.59846,1.3501374,STD
12141985079000,0.76504,-0.411460355106322,9.82223096510947,-1.74966766164293,0.06963864,-0.038789943,0.025350908,158.07532,-88.708374,1.259432,STD
12141990131000,0.770092,-0.413638515109924,9.82465114176809,-1.74773151778892,0.07269296,-0.04337143,0.027794369,157.99783,-88.812935,1.1700382,STD
12141995084000,0.775045,-0.415773991455498,9.82702389216201,-1.74583331499617,0.058948494,-0.055283304,0.023823744,157.92561,-88.91249,1.0807527,STD
12142000066000,0.780027,-0.417921971094837,9.82941053509812,-1.74392399815518,0.056199603,-0.054061573,0.031154128,157.8505,-89.00237,0.99684465,STD
12142005092000,0.785053,-0.420088921248856,9.83181825637408,-1.74199781862029,0.05497787,-0.056199603,0.03023783,157.777827911956,-89.9249565392696,0.912921004851426,STD
12142010061000,0.790022,-0.422231295963404,9.83419867161887,-1.74009348393885,0.04550946,-0.053450707,0.034513887,157.70598,-90.83708,0.82994914,STD
12142015088000,0.795049,-0.424398677265483,9.83660687194802,-1.73816692116092,0.04550946,-0.059253927,0.036651913,157.63531,-90.77124,0.7494732,STD
12142019970000,0.799931,-0.426503542098734,9.83894560956626,-1.73629592862424,0.028710667,-0.073303826,0.03390302,157.56586,-90.71382,0.6701184,STD
12142025097000,0.805058,-0.428714038206902,9.84140171521327,-1.73433104154199,0.020463986,-0.077579886,0.03940081,157.49495,-90.67141,0.59501237,STD
12142029980000,0.809941,-0.430819334188214,9.84374093188469,-1.73245966576226,0.014049901,-0.07574729,0.043982297,157.42596,-90.638725,0.52014047,STD
12142035004000,0.814965,-0.432985422046111,9.8461476950543,-1.73053425271346,0.0125227375,-0.07238753,0.043982297,157.3574,-90.6189,0.44675785,STD
12142039994000,0.819955,-0.435136850869937,9.84853817041583,-1.72862186992812,-0.01038471,-0.07360926,0.034513887,157.28935,-90.60555,0.3731478,STD
12142044997000,0.824958,-0.437293884618555,9.85093487346869,-1.72670450498322,-0.018020526,-0.07696902,0.035430185,157.22067,-90.60951,0.30365965,STD
12142050056000,0.830017,-0.439475062658583,9.85335840349956,-1.7247656784279,-0.014966198,-0.08582657,0.03481932,157.15364,-90.62083,0.2321929,STD
12142055478000,0.835439,-0.439965591295085,9.85481776013018,-1.71786635874654,-0.030848695,-0.083383106,0.040317107,157.08409,-90.63621,0.16392988,STD
12142059959000,0.83992,-0.439108783172874,9.85524617291432,-1.708869873687,-0.03848451,-0.093767814,0.03634648,157.02048,-90.66288,0.09386988,STD
12142064926000,0.844887,-0.438159047412325,9.85572105046371,-1.69889764844915,-0.041233405,-0.10293079,0.040011674,157.02142,-90.71015,0.00027662268,STD
12142069918000,0.849879,-0.437204531423466,9.85619831817592,-1.68887523081531,-0.035124753,-0.099265605,0.03756821,157.02107,-90.768974,-0.09418406,STD
12142074920000,0.854881,-0.436248103343283,9.85667654195326,-1.67883273622306,-0.04062254,-0.106595986,0.03390302,157.02592,-90.83193,-0.18605296,STD
12142079946000,0.859907,-0.435287086243923,9.85715706028691,-1.66874205693065,-0.03023783,-0.10842858,0.034513887,157.02759,-90.90645,-0.27542585,STD
12142084948000,0.864909,-0.43433065816374,9.85763528406425,-1.6586995623384,-0.030848695,-0.118507855,0.030848695,157.0331,-90.98091,-0.36520752,STD
12142089929000,0.86989,-0.433378245475337,9.85811150010482,-1.6486992293588,-0.023518313,-0.116675265,0.030543262,157.03513,-91.06221,-0.45189855,STD
12142094948000,0.874909,-0.432418566839904,9.85859134919288,-1.63862260393727,-0.033292156,-0.10934488,0.029626964,157.03784,-91.14073,-0.53792113,STD
12142099940000,0.879901,-0.431464050851045,9.85906861690509,-1.62860018630342,-0.032375857,-0.105068825,0.023823744,157.04027,-91.225136,-0.62355644,STD
12142104940000,0.884901,-0.430508005189127,9.85954664946941,-1.61856170710285,-0.024740042,-0.103847094,0.02076942,157.0409,-91.3086,-0.70680505,STD
12142109975000,0.889936,-0.429545267207575,9.86002802826167,-1.60845295854788,-0.023823744,-0.09865474,0.020463986,157.03857,-91.390854,-0.7890553,STD
12142114945000,0.894906,-0.428594957819628,9.8605031926306,-1.59847471022252,-0.018020526,-0.0888809,0.013439035,157.03395,-91.47706,-0.87225217,STD
12142119939000,0.8999,-0.427640059412505,9.86098065155584,-1.58844827719699,-0.014660766,-0.08277224,0.01160644,157.02837,-91.56126,-0.95226437,STD
12142124952000,0.904913,-0.426681528031865,9.86145992700482,-1.5783836979505,-0.0106901415,-0.06872234,0.014660766,157.01717,-91.64619,-1.0310036,STD
12142130122000,0.910083,-0.425692976817442,9.86195421267632,-1.56800391045712,-0.005497787,-0.06169739,0.0027488936,157.0056,-91.73398,-1.1128222,STD
12142135035000,0.914996,-0.424753566350041,9.86242392747402,-1.55814010079464,-0.013439035,-0.055588737,0.016493361,156.99,-91.81319,-1.184673,STD
12142140076000,0.920037,-0.423789681113696,9.86290587990536,-1.54801930606463,-0.020158553,-0.052839845,0.01038471,156.97269,-91.89834,-1.2639079,STD
12142145125000,0.925086,-0.422824266204291,9.86338859718881,-1.5378824497679,-0.020463986,-0.042455133,0.015882496,156.95122,-91.97701,-1.334228,STD
12142150040000,0.930001,-0.421884473318625,9.86385850319953,-1.52801462471374,-0.025045475,-0.047036625,0.014966198,156.93277,-92.05444,-1.406666,STD
12142155047000,0.935008,-0.42092708919278,9.86433720500943,-1.51796209164229,-0.018936822,-0.032986723,0.01985312,156.90573,-92.130516,-1.4741806,STD
12142160094000,0.940055,-0.41996205670164,9.86481973107985,-1.50782925073724,-0.022907447,-0.025350908,0.026572637,156.88152,-92.20206,-1.5400597,STD
12142165049000,0.94501,-0.419014615450679,9.86529346135109,-1.49788111784948,-0.021380283,-0.020158553,0.020463986,156.85362,-92.27626,-1.6067553,STD
12142170032000,0.949993,-0.418061820344012,9.86576986860469,-1.48787676947819,-0.02107485,-0.02565634,0.020463986,156.82643,-92.34557,-1.6685224,STD
12142175822000,0.955783,-0.416954719467511,9.86632343031416,-1.47625221056394,-0.029321533,-0.023518313,0.018325957,156.79527,-92.4139,-1.7312623,STD
12142180058000,0.960019,-0.416144757582734,9.86672841950265,-1.46774761098522,-0.025350908,-0.022907447,0.026572637,156.76596,-92.48133,-1.7898229,STD
12142185043000,0.965004,-0.415191580057801,9.86720501796927,-1.45773924722225,-0.031154128,-0.0106901415,0.02107485,156.73238,-92.54727,-1.8515627,STD
12142189982000,0.969943,-0.414247198152958,9.8676772185363,-1.44782323746793,-0.03573562,-0.01038471,0.017104227,156.70187,-92.61105,-1.9094336,STD
12142195078000,0.975039,-0.413272796414331,9.86816442932585,-1.43759201946671,-0.029932396,-0.008552114,0.021991149,156.6673,-92.67389,-1.9650664,STD
12142200071000,0.980032,-0.41231808921634,9.86864179264458,-1.42756759413703,-0.032070424,0.010079277,0.01863139,156.62755,-92.73579,-2.022884,STD
12142205049000,0.98501,-0.411366250155334,9.86911772186561,-1.41757328424494,-0.027488936,-0.00030543262,0.01160644,156.59544,-92.79875,-2.0795062,STD
12142210001000,0.989962,-0.410419382531771,9.86959116531731,-1.4076311744447,-0.016493361,0.011911872,0.013744468,156.5515,-92.86025,-2.13302,STD
12142215047000,0.995008,-0.409454541249763,9.87007359578121,-1.39750034123549,-0.011911872,0.021380283,0.013744468,156.51108,-92.92225,-2.1881711,STD
12142220053000,1.000014,-0.408497348333051,9.87055220198461,-1.38744981585988,-0.0125227375,0.021685716,0.02076942,156.4698,-92.98226,-2.239628,STD
12142224994000,1.004955,-0.407552584009943,9.87102459376466,-1.37752979071388,-0.011301007,0.029932396,0.022296581,156.42343,-93.04354,-2.2914824,STD
12142230066000,1.010027,-0.406582771290493,9.8715095099979,-1.36734675741282,-0.011301007,0.030848695,0.026572637,156.37914,-93.10131,-2.3396678,STD
12142235042000,1.015003,-0.405631314647752,9.87198524800591,-1.35735646291242,-0.016798794,0.025045475,0.025961773,156.33438,-93.15797,-2.3879137,STD
12142239981000,1.019942,-0.40468693274291,9.87245744857294,-1.3474404531581,-0.01740966,0.02687807,0.022296581,156.2872,-93.21429,-2.4348795,STD
12142245530000,1.025491,-0.403625913267313,9.87298796911282,-1.33629974894131,-0.0143553335,0.02321288,0.025350908,156.24333,-93.26799,-2.4793758,STD
12142250063000,1.030024,-0.402759162270218,9.87342135343563,-1.32719886369808,-0.0143553335,0.022602014,0.020463986,156.19795,-93.322586,-2.5263028,STD
12142254955000,1.034916,-0.415508351916337,9.86420052572075,-1.31590691543245,-0.0106901415,0.027183503,0.022602014,156.15227,-93.37531,-2.5695143,STD
12142260138000,1.040099,-0.448243992402487,9.84081793932542,-1.30187736359525,-0.029932396,0.028405234,0.02565634,156.1077,-93.42373,-2.6130805,STD
12142264951000,1.044912,-0.473268089978412,9.81779484052938,-1.28485985446781,-0.02687807,0.019242255,0.028099801,156.1608,-93.479706,-2.6765902,STD
12142270065000,1.050026,-0.487058912112821,9.79021312905951,-1.25727819099869,-0.03848451,0.018020526,0.02076942,156.21051,-93.52993,-2.7402074,STD
12142274961000,1.054922,-0.499774842116086,9.7665620697623,-1.23273676043118,-0.0421497,0.02107485,0.021380283,156.32637,-93.60804,-2.8278112,STD
12142280073000,1.060034,-0.510599955668325,9.75573672448867,-1.21649908162521,-0.041233405,0.018936822,0.01985312,156.44281,-93.685265,-2.915722,STD
12142284939000,1.0649,-0.520382364146992,9.74595428731912,-1.21314732802742,-0.04184427,0.0143553335,0.013744468,156.64333,-93.790504,-3.0357275,STD
12142290055000,1.070016,-0.529711203118812,9.73662576980198,-1.23180494752475,-0.052534413,0.009468411,0.01740966,156.84244,-93.88994,-3.149921,STD
12142295000000,1.074961,-0.532603756471138,9.73414426725111,-1.24580655345022,-0.046120327,0.01038471,0.015577064,157.13158,-94.02677,-3.2974188,STD
12142300148000,1.080109,-0.518302900508267,9.75003409430496,-1.24898451886099,-0.0571159,0.002443461,0.016493361,157.42082,-94.15409,-3.4386785,STD
12142304971000,1.084932,-0.504904876361234,9.76492077571148,-1.2519618551423,-0.05955936,0.004886922,0.015577064,157.81285,-94.326096,-3.6177578,STD
12142310088000,1.090049,-0.490690136663873,9.78071491810359,-1.25512068362072,-0.06047566,-0.003970624,0.011911872,158.20332,-94.491905,-3.791432,STD
12142315319000,1.09528,-0.476158711344958,9.79686093312276,-1.25834988662455,-0.05681047,-0.011301007,0.015577064,158.71982,-94.70007,-4.007967,STD
12142320056000,1.100017,-0.462999590386115,9.81148216675799,-1.2612741333516,-0.057421334,-0.0106901415,0.013133603,159.22481,-94.902824,-4.219035,STD
12142325168000,1.105129,-0.448693218449645,9.82627624655244,-1.26744416176348,-0.05375614,-0.00061086525,0.016493361,159.93149,-95.17739,-4.5004,STD
12142330070000,1.110031,-0.4339798285771,9.83118080714584,-1.30177542016298,-0.058643065,-0.0021380284,0.014966198,160.6186,-95.44156,-4.7716107,STD
12142334987000,1.114948,-0.419366228523951,9.835381,-1.33184729002485,-0.05497787,-0.0015271631,0.011301007,161.51538,-95.77686,-5.112554,STD
12142340057000,1.120018,-0.405169724513425,9.835381,-1.33657945473417,-0.05497787,-0.004276057,0.011911872,162.37665,-96.09456,-5.4354234,STD
12142345098000,1.125059,-0.3910544233858,9.835381,-1.34128455183471,-0.048563786,0.008552114,0.016187929,163.30777,-96.4431,-5.7783895,STD
12142350111000,1.130072,-0.377017525041665,9.835381,-1.34596351469227,-0.053145275,-0.005497787,0.014966198,164.20917,-96.7756,-6.106789,STD
12142355289000,1.13525,-0.361619416746375,9.83630066772304,-1.35170933999808,-0.052839845,0.005192355,0.016187929,165.13312,-97.12302,-6.4412045,STD
12142360121000,1.140082,-0.33939952994334,9.84518833659848,-1.36504121453952,-0.054367006,0.003970624,0.013133603,166.02876,-97.456825,-6.7634854,STD
12142365406000,1.145367,-0.315760779618745,9.854534,-1.37951650222399,-0.06627888,0.009162978,0.0143553335,166.84418,-97.756744,-7.037479,STD
12142370042000,1.150003,-0.309537622719245,9.854534,-1.38988846649068,-0.065973446,0.018936822,0.01740966,167.63057,-98.04638,-7.300803,STD
12142375387000,1.155348,-0.302362736259403,9.854534,-1.40184665221231,-0.07269296,0.019242255,0.01863139,168.34961,-98.304855,-7.5231805,STD
12142380067000,1.160028,-0.29608051574826,9.854534,-1.41231705617437,-0.07727446,0.023518313,0.02076942,169.04347,-98.55347,-7.7361093,STD
12142385205000,1.165166,-0.289183496734103,9.854534,-1.4238121278746,-0.065973446,0.032986723,0.022907447,169.71562,-98.79399,-7.940658,STD
12142390060000,1.170021,-0.303818410241565,9.8710481964464,-1.43354997857856,-0.08460484,0.036957346,0.026267206,170.3691,-99.02074,-8.136518,STD
12142395085000,1.175046,-0.327836907047315,9.89506667318826,-1.4431573692753,-0.073303826,0.03726278,0.027488936,171.0029,-99.244095,-8.324711,STD
12142400043000,1.180004,-0.343233602240236,9.89759085187915,-1.46540676131172,-0.07391469,0.039095376,0.03268129,171.621,-99.45682,-8.499886,STD
12142404988000,1.184949,-0.354866443257185,9.89061124735937,-1.49332556809138,-0.07971791,0.03176499,0.034513887,172.22467,-99.662674,-8.668641,STD
12142410062000,1.190023,-0.366802749691968,9.88344956619995,-1.52197269156964,-0.0720821,0.032070424,0.038179077,172.81422,-99.86737,-8.834992,STD
12142415053000,1.195014,-0.378543803183493,9.8764050351265,-1.55015120817981,-0.07513642,0.03176499,0.041233405,173.39029,-100.06158,-8.993956,STD
12142420033000,1.199994,-0.420754535727165,9.87054774723623,-1.54531853128689,-0.079107046,0.03390302,0.053145275,173.93967,-100.24028,-9.136317,STD
12142424997000,1.204958,-0.481983608299882,9.86544522195986,-1.51980638441558,-0.07666359,0.03634648,0.048563786,174.4755,-100.41587,-9.276306,STD
12142430047000,1.210008,-0.536465233920576,9.85711626260463,-1.5131354,-0.08032878,0.036957346,0.050396383,175.01688,-100.59713,-9.420413,STD
12142435040000,1.215001,-0.587661161589936,9.84780796734475,-1.5131354,-0.086437434,0.038179077,0.05467244,175.54376,-100.77128,-9.558221,STD
12142440061000,1.220022,-0.639144188393031,9.83844747255207,-1.5131354,-0.07147124,0.0290161,0.055588737,176.05914,-100.95007,-9.702147,STD
12142445117000,1.225078,-0.690986089113296,9.82902172834339,-1.5131354,-0.07574729,0.021380283,0.058337633,176.5612,-101.11655,-9.837538,STD
12142450042000,1.230003,-0.717824281760318,9.79533539413227,-1.50704167882645,-0.07880162,0.0067195175,0.053450707,177.04324,-101.27241,-9.961867,STD
12142454965000,1.234926,-0.731890891327698,9.74844669557434,-1.49766393911487,-0.08368854,0.009468411,0.062308256,177.51204,-101.41667,-10.075272,STD
12142460051000,1.240012,-0.758410398994735,9.70604006327605,-1.47598498839774,-0.084910266,0.0076358155,0.056505036,177.98216,-101.584694,-10.216607,STD
12142465050000,1.245011,-0.791699488330188,9.66799512585676,-1.4474515087911,-0.09407325,-0.006414085,0.05589417,178.44417,-101.740135,-10.347461,STD
12142470040000,1.250001,-0.817350881404585,9.6505546216966,-1.4408207021463,-0.09132435,-0.021991149,0.053450707,178.8961,-101.896065,-10.479107,STD
12142474990000,1.254951,-0.838115320738794,9.64594045174478,-1.447742173894,-0.09468412,-0.01985312,0.04886922,179.33609,-102.04374,-10.604913,STD
12142480051000,1.260012,-0.859345386894437,9.64122281252738,-1.4548188544021,-0.09285152,-0.02687807,0.049785517,179.76642,-102.18474,-10.729589,STD
12142485044000,1.265005,-0.880290204186499,9.63656855988709,-1.461800452066,-0.089186326,-0.03359759,0.044898596,180.18607,-102.321815,-10.850977,STD
12142489977000,1.269938,-0.872191215195408,9.63945756558378,-1.46409816654861,-0.09010262,-0.042455133,0.03359759,180.6012,-102.4523,-10.969606,STD
12142495092000,1.275053,-0.833902701533952,9.65022617733268,-1.46170514865657,-0.0888809,-0.054061573,0.03604105,181.01013,-102.57517,-11.079853,STD
12142500956000,1.280917,-0.790007521844651,9.6625716591109,-1.45896171621886,-0.092240654,-0.05681047,0.032070424,181.4141,-102.70783,-11.201657,STD
12142505049000,1.28501,-0.759369225380068,9.67118865381045,-1.45704683406204,-0.09162979,-0.050701816,0.02565634,181.8096,-102.83478,-11.317102,STD
12142510088000,1.290049,-0.721649612410357,9.68179726272594,-1.45468937225208,-0.09621128,-0.06566802,0.025350908,182.20338,-102.95347,-11.426498,STD
12142515061000,1.295022,-0.684424044778212,9.69226692181241,-1.45236278809233,-0.095294975,-0.06994407,0.017104227,182.58324,-103.07054,-11.533353,STD
12142519950000,1.299911,-0.647827262121153,9.70255973566194,-1.45007550276014,-0.093462385,-0.07544186,0.0125227375,182.9608,-103.177086,-11.634183,STD
12142524989000,1.30495,-0.610107649151441,9.71316834457743,-1.44771804095017,-0.089186326,-0.07880162,0.014966198,183.33076,-103.27863,-11.729423,STD
12142529940000,1.309901,-0.563336242060821,9.72343748803428,-1.4341841811161,-0.09254608,-0.07727446,0.01160644,183.68745,-103.37353,-11.818521,STD
12142534997000,1.314958,-0.492480474198976,9.73355994367228,-1.39369515128018,-0.086132,-0.07819075,0.013744468,184.0389,-103.463165,-11.900224,STD
12142539958000,1.319919,-0.425331390216582,9.7431526776071,-1.36240382301307,-0.09437868,-0.070554934,0.0076358155,184.37761,-103.514946,-11.942281,STD
12142545107000,1.325068,-0.359464223802118,9.75256197032726,-1.34358464804885,-0.10781772,-0.058643065,0.0076358155,184.71004,-103.5614,-11.978393,STD
12142549964000,1.329925,-0.303405674107035,9.76437883162959,-1.32836976953297,-0.10598512,-0.04520403,0.004581489,185.0291,-103.58972,-11.995326,STD
12142555000000,1.334961,-0.259904052002405,9.78371277149729,-1.31870274912808,-0.1160644,-0.03940081,0.005192355,185.34236,-103.61143,-12.008604,STD
12142559993000,1.339954,-0.215724966276917,9.80413219243886,-1.30637523130664,-0.12644911,-0.029321533,0.0012217305,185.64893,-103.61668,-12.007253,STD
12142565048000,1.345009,-0.168554787644938,9.82771726697847,-1.28750712242034,-0.14477506,-0.021685716,0.013439035,185.95102,-103.61369,-11.999191,STD
12142570437000,1.350398,-0.126457384545455,9.86019281818182,-1.27980964318182,-0.15027285,-0.01863139,0.01282817,186.24635,-103.60389,-11.983218,STD
12142574996000,1.354957,-0.105955568395943,9.9011964162284,-1.296211125216,-0.1423316,-0.029626964,0.020158553,186.54057,-103.58738,-11.960462,STD
12142579984000,1.359945,-0.0866848324641057,9.94812858386929,-1.31646474516774,-0.15821409,-0.01985312,0.024740042,186.81932,-103.55236,-11.921827,STD
12142585038000,1.364999,-0.090891434881627,10.0112275937772,-1.35432410718755,-0.16126843,-0.01038471,0.029626964,187.09839,-103.51781,-11.880733,STD
12142589987000,1.369948,-0.0950106425120806,10.0730156824266,-1.39139691736485,-0.160963,-0.004886922,0.032375857,187.37529,-103.47641,-11.8321495,STD
12142595100000,1.375061,-0.11933441213993,10.0411721860363,-1.43749095646955,-0.15974127,0.0021380284,0.03848451,187.64606,-103.4326,-11.780496,STD
12142599940000,1.379901,-0.146472438548985,9.99141931913544,-1.48272101150468,-0.15302174,0.018020526,0.040011674,187.90945,-103.39004,-11.728574,STD
12142605002000,1.384963,-0.170733289083499,9.93352110634063,-1.46597484756895,-0.14508049,0.013744468,0.04642576,188.17833,-103.34753,-11.67393,STD
12142610000000,1.389961,-0.193415914610937,9.87454626954791,-1.42968271683253,-0.14110987,0.007330383,0.04153884,188.43977,-103.307846,-11.621363,STD
12142615046000,1.395007,-0.21784338435753,9.80099654171881,-1.37386833698373,-0.14508049,0.013133603,0.038789943,188.7027,-103.28372,-11.57939,STD
12142620084000,1.400045,-0.243003975006258,9.72048259699625,-1.30845078973717,-0.1459968,0.00580322,0.038789943,188.96786,-103.26047,-11.537876,STD
12142624999000,1.40496,-0.278579910212766,9.68738369845928,-1.29634934355588,-0.13041973,0.004886922,0.038789943,189.22807,-103.24212,-11.504876,STD
12142630054000,1.410015,-0.318833412978723,9.66844098532648,-1.30108504656395,-0.12767084,-0.005192355,0.046731193,189.48999,-103.21902,-11.469088,STD
12142635000000,1.414961,-0.358218937148936,9.64990673030081,-1.30571863451211,-0.13591751,0.0009162979,0.042760566,189.74448,-103.20211,-11.444682,STD
12142640424000,1.420385,-0.401410826170213,9.62958125531915,-1.31080002978723,-0.11911872,-0.004581489,0.03756821,190.00183,-103.18656,-11.417774,STD
12142645137000,1.425098,-0.418255382348754,9.63114383036774,-1.30556990438909,-0.112704635,-0.0033597588,0.03573562,190.25186,-103.16766,-11.389364,STD
12142650142000,1.430103,-0.427731842224199,9.64062047825228,-1.29609345440886,-0.10995574,-0.010995574,0.03390302,190.50241,-103.15101,-11.361657,STD
12142654937000,1.434898,-0.437983900275299,9.66211668293146,-1.27459724368711,-0.11026118,-0.004886922,0.03023783,190.74852,-103.15496,-11.355597,STD
12142660083000,1.440044,-0.449679899957281,9.69252615264857,-1.24418765184166,-0.09987647,-0.005497787,0.03573562,190.99518,-103.15738,-11.34593,STD
12142665048000,1.445009,-0.46096451682884,9.72186603161192,-1.21484765504557,-0.094989546,-0.002443461,0.027183503,191.23343,-103.16194,-11.340152,STD
12142670050000,1.450011,-0.472333228529049,9.75142455619898,-1.18528901174767,-0.08277224,-0.002443461,0.029626964,191.46973,-103.1635,-11.328019,STD
12142674981000,1.454942,-0.471725811276814,9.76122842625475,-1.14905960811865,-0.09285152,0.007941248,0.017715093,191.70488,-103.16773,-11.323978,STD
12142680043000,1.460004,-0.454311016781279,9.74381354603305,-1.10179087760443,-0.087964594,0.011911872,0.011301007,191.93852,-103.17233,-11.315987,STD
12142685002000,1.464963,-0.437250573102227,9.72675301837216,-1.0554839565021,-0.09468412,0.029321533,0.0125227375,192.15514,-103.170006,-11.306691,STD
12142689988000,1.469949,-0.420097241345068,9.70959960217592,-1.00892491060248,-0.1001819,0.04886922,0.009468411,192.36644,-103.169914,-11.298676,STD
12142695127000,1.475088,-0.396664764310961,9.686167300338,-0.976319146547562,-0.10720685,0.054061573,0.0021380284,192.57373,-103.16825,-11.290008,STD
12142700056000,1.480017,-0.369313303009174,9.6588162293578,-0.958084821559633,-0.12034045,0.06566802,-0.0021380284,192.77057,-103.16383,-11.279137,STD
12142705002000,1.484963,-0.33337918557741,9.65013370886076,-0.935526259355404,-0.13041973,0.070554934,-0.01282817,192.96225,-103.151436,-11.265382,STD
12142710264000,1.490225,-0.284310861372931,9.66485398734177,-0.906085297624148,-0.13225232,0.076052725,-0.021685716,193.14761,-103.13841,-11.250994,STD
12142715056000,1.495017,-0.230605289457961,9.68256373709065,-0.874661059794682,-0.14202617,0.089491755,-0.020158553,193.32544,-103.11695,-11.22979,STD
12142720037000,1.499998,-0.162046725688328,9.70704892382712,-0.835484709881942,-0.13713925,0.086132,-0.01863139,193.50363,-103.0992,-11.210687,STD
12142724992000,1.504953,-0.103225091482408,9.7339966882481,-0.815962503924556,-0.14538592,0.07360926,-0.020463986,193.67732,-103.06685,-11.179958,STD
12142730055000,1.510016,-0.0548608271381937,9.76477410881393,-0.820359252056583,-0.13622294,0.076052725,-0.022296581,193.84544,-103.037506,-11.148115,STD
12142734994000,1.514955,0.0084104799590414,9.79752024771242,-0.837387409334423,-0.13500121,0.07727446,-0.022907447,194.01492,-102.99044,-11.101093,STD
12142740055000,1.520016,0.124565250589107,9.83975809673203,-0.895464804572985,-0.13805555,0.074830994,-0.026267206,194.18254,-102.94576,-11.055618,STD
12142744980000,1.524941,0.214228754146989,9.88302150531287,-0.930841300531287,-0.13255776,0.08460484,-0.02076942,194.3571,-102.89459,-11.00202,STD
12142750073000,1.530034,0.271813973270366,9.93100915033451,-0.935640065033451,-0.12492194,0.092240654,-0.016798794,194.53049,-102.8451,-10.950126,STD
12142754935000,1.534896,0.322986037688616,9.97310149683241,-0.941832700095988,-0.11301007,0.09896017,-0.01160644,194.7073,-102.78277,-10.87578,STD
12142760065000,1.540026,0.370143855676713,10.0108275306201,-0.951264282405452,-0.10751228,0.102319926,-0.00580322,194.88106,-102.72044,-10.800748,STD
12142764942000,1.544903,0.396283871072121,10.0391339117004,-0.955700028289179,-0.10170906,0.10934488,-0.0012217305,195.05284,-102.64956,-10.712271,STD
12142770038000,1.549999,0.374452236251305,10.048836929743,-0.948422809083453,-0.08827003,0.11484267,0.0070249503,195.22247,-102.57979,-10.622281,STD
12142774968000,1.554929,0.353331757509817,10.0582238761618,-0.941382642151697,-0.07391469,0.12370021,0.018020526,195.3926,-102.4999,-10.520728,STD
12142780066000,1.560027,0.331491554543466,10.0679307022963,-0.934102566894478,-0.060170226,0.13683382,0.03359759,195.55847,-102.42068,-10.416764,STD
12142784973000,1.564934,0.301885888854137,10.0700842226329,-0.930129310108047,-0.06536258,0.1255328,0.035124753,195.72694,-102.34327,-10.315838,STD
12142789983000,1.569944,0.247316879584873,10.0518944230879,-0.934676724381575,-0.06078109,0.124005646,0.03848451,195.88774,-102.267204,-10.210928,STD
12142795144000,1.575105,0.188980684041946,10.0321600543521,-0.935060694386569,-0.059253927,0.12889257,0.043982297,196.04846,-102.19827,-10.116671,STD
12142800057000,1.580018,0.124121300448996,10.0089960043324,-0.91652945920835,-0.07238753,0.13255776,0.050396383,196.20842,-102.12828,-10.022745,STD
12142804984000,1.584945,0.0594591531829194,9.98511128346457,-0.898470973731072,-0.07849618,0.13194689,0.06169739,196.36685,-102.06587,-9.938953,STD
12142810121000,1.590082,-0.00510260162527761,9.95531398687664,-0.883572086892792,-0.08032878,0.1151481,0.057421334,196.5268,-102.0055,-9.859293,STD
12142815001000,1.594962,-0.0695783503658918,9.92402105754196,-0.870063811508391,-0.086437434,0.110872045,0.06688975,196.67871,-101.947945,-9.7865305,STD
12142820040000,1.600001,-0.155096746351506,9.87371615271552,-0.860002830543104,-0.09437868,0.106595986,0.0720821,196.83331,-101.89277,-9.717461,STD
12142824978000,1.604939,-0.235908549179993,9.82658230011157,-0.846470051455932,-0.09254608,0.108123146,0.0729984,196.97736,-101.84405,-9.656415,STD
12142830053000,1.610014,-0.308206496209557,9.78591435663816,-0.819358326627929,-0.09743301,0.10781772,0.077579886,197.12175,-101.79168,-9.593586,STD
12142835034000,1.614995,-0.378916841289003,9.74817250608943,-0.79521380566717,-0.10598512,0.103847094,0.08093964,197.26128,-101.752556,-9.548365,STD
12142840106000,1.620067,-0.448005398821229,9.73521859374166,-0.79953183205885,-0.10445796,0.09560041,0.06872234,197.39992,-101.71734,-9.506505,STD
12142845398000,1.625359,-0.520090699779536,9.72170280033781,-0.80403715454796,-0.10262536,0.09407325,0.06719518,197.5313,-101.68772,-9.475822,STD
12142850048000,1.630009,-0.552365496593164,9.70947011815509,-0.786136678983829,-0.1020145,0.089186326,0.06658431,197.66365,-101.66097,-9.448369,STD
12142856981000,1.636942,-0.593961929888747,9.69312821669784,-0.755768140445013,-0.1020145,0.08582657,0.062002823,197.7939,-101.63584,-9.422106,STD
12142860051000,1.640012,-0.596856561768239,9.71339045850153,-0.744189612927045,-0.10323623,0.077579886,0.058337633,197.92262,-101.623024,-9.4111395,STD
12142865048000,1.645009,-0.601568117306291,9.74637105208231,-0.725343390774835,-0.09437868,0.08277224,0.05131268,198.04285,-101.61629,-9.407269,STD
12142870043000,1.650004,-0.598813229454215,9.78591971998181,-0.739380002228623,-0.090713486,0.08002335,0.04795292,198.16563,-101.60812,-9.402953,STD
12142875056000,1.655017,-0.591534793244391,9.82959042844148,-0.773346015918739,-0.09010262,0.07727446,0.041233405,198.28459,-101.60294,-9.400432,STD
12142880045000,1.660006,-0.584291202929048,9.87305206109763,-0.807149415539721,-0.086132,0.08246681,0.038789943,198.39859,-101.59589,-9.395796,STD
12142885045000,1.665006,-0.577031641578735,9.91660952016374,-0.841027346609056,-0.089491755,0.07696902,0.03573562,198.51439,-101.589035,-9.392793,STD
12142890058000,1.670019,-0.56571344049625,9.92818395157856,-0.867160751082307,-0.07238753,0.07666359,0.041233405,198.62453,-101.57914,-9.383952,STD
12142895832000,1.675793,-0.550354739487084,9.92306427765947,-0.892758618172391,-0.0729984,0.09132435,0.031154128,198.72963,-101.56984,-9.379322,STD
12142900059000,1.68002,-0.535620798711715,9.91131486832965,-0.902784156305652,-0.07727446,0.08460484,0.027183503,198.84569,-101.56181,-9.368081,STD
12142905002000,1.684963,-0.515691024353226,9.89138522923903,-0.907766592091359,-0.08277224,0.08155051,0.029932396,198.95474,-101.553795,-9.356421,STD
12142910123000,1.690084,-0.486895144657534,9.86258929362716,-0.906843005284892,-0.082161374,0.08582657,0.021685716,199.05869,-101.54525,-9.341865,STD
12142915054000,1.695015,-0.454081703835616,9.82977567659321,-0.902155373678777,-0.08857546,0.0852157,0.02076942,199.16383,-101.53204,-9.324227,STD
12142920044000,1.700005,-0.418653840935808,9.79981750715391,-0.897484954044857,-0.07666359,0.06688975,0.013133603,199.2721,-101.52355,-9.307909,STD
12142924992000,1.704953,-0.382005711670534,9.77233132888631,-0.892903940278422,-0.09743301,0.063224554,0.013133603,199.37523,-101.50669,-9.28877,STD
12142930057000,1.710018,-0.341429883019994,9.75376865403362,-0.895640562516662,-0.105374254,0.06780604,0.015577064,199.48083,-101.490685,-9.265583,STD
12142934978000,1.714939,-0.299238776836765,9.74439315288969,-0.905016357363971,-0.10140363,0.06383542,0.013439035,199.58849,-101.47413,-9.243763,STD
12142939998000,1.719959,-0.252880806364732,9.73547181746168,-0.907726111971758,-0.10415252,0.057726767,0.017715093,199.69582,-101.44808,-9.212713,STD
12142945098000,1.725059,-0.202415801370759,9.72706081350095,-0.903520697816428,-0.11148291,0.04917465,0.008857546,199.8032,-101.42562,-9.186123,STD
12142949998000,1.729959,-0.157223637213786,9.72518230625812,-0.902796205770269,-0.10751228,0.05009095,0.0125227375,199.90967,-101.39828,-9.147138,STD
12142954979000,1.73494,-0.126226586647306,9.751410610017,-0.917102536073178,-0.10934488,0.058337633,0.0125227375,200.01483,-101.371864,-9.111816,STD
12142959978000,1.739939,-0.0951175210416375,9.77773369584125,-0.931460565622313,-0.100792766,0.046120327,0.013133603,200.12715,-101.33906,-9.065704,STD
12142965606000,1.745567,-0.0600941521221134,9.80736888828351,-0.947625196609017,-0.09437868,0.042455133,0.015271631,200.23361,-101.3058,-9.018984,STD
12142969985000,1.749946,-0.0324616560330718,9.8266390984209,-0.95851578098123,-0.099265605,0.03023783,0.011301007,200.3474,-101.27653,-8.977461,STD
12142974991000,1.754952,0.000867419434402623,9.83140049101202,-0.963277074138445,-0.09743301,0.035124753,0.011911872,200.45638,-101.24838,-8.933836,STD
12142980002000,1.759963,0.0332071841803433,9.83761934936804,-0.96352686188455,-0.08857546,0.026267206,0.015882496,200.5767,-101.21382,-8.879179,STD
12142984979000,1.76494,0.0601815853008866,9.85110635276363,-0.941048186460102,-0.076358154,0.02443461,0.018020526,200.69247,-101.18097,-8.824957,STD
12142990183000,1.770144,0.0853628520493379,9.86452521240923,-0.917302429042076,-0.07422013,0.03268129,0.025045475,200.81252,-101.140915,-8.763601,STD
12142994992000,1.774953,0.0755262746796241,9.86944360123879,-0.892710972778727,-0.081855945,0.03390302,0.02321288,200.930903683084,-101.100938072805,-8.70173863597431,STD
12142999990000,1.779951,0.0631249825758335,9.87760066448256,-0.867576732248988,-0.07849618,0.028710667,0.027183503,201.05394,-101.05939,-8.637445,STD
12143004923000,1.784884,0.0403641471944498,9.90036148275198,-0.844815894966275,-0.0720821,0.03359759,0.03023783,201.16975,-101.016075,-8.571062,STD
12143009943000,1.789904,0.0153251035860548,9.92284815142287,-0.824456141237005,-0.07086037,0.04153884,0.029932396,201.28354,-100.96895,-8.50538,STD
12143014927000,1.794888,-0.0297843429933844,9.93788441310511,-0.834480476190276,-0.070554934,0.044898596,0.03359759,201.39647,-100.92218,-8.438549,STD
12143019946000,1.799907,-0.0696114162541667,9.94601239166667,-0.844474843333333,-0.07422013,0.042455133,0.03756821,201.50208,-100.87743,-8.374966,STD
12143024929000,1.80489,-0.0838141596035714,9.92234116428572,-0.853943334285714,-0.07544186,0.04642576,0.04520403,201.60425,-100.83246,-8.309845,STD
12143029963000,1.809924,-0.102837750889952,9.90084700888585,-0.856413956390978,-0.07574729,0.05222898,0.042455133,201.70377,-100.795456,-8.255025,STD
12143034971000,1.814932,-0.144986550824334,9.8914809094815,-0.823631566874329,-0.07941248,0.06047566,0.04520403,201.80098,-100.75557,-8.197023,STD
12143039920000,1.819881,-0.185712141904954,9.88058442166734,-0.794338854333468,-0.08124508,0.0580322,0.050701816,201.89833,-100.720215,-8.1432085,STD
12143044958000,1.824919,-0.219716937547322,9.85629529641563,-0.789481029283125,-0.08246681,0.067500606,0.04917465,201.9889,-100.685875,-8.090557,STD
12143049950000,1.829911,-0.252605862336502,9.83598243128781,-0.78890706108038,-0.09468412,0.06536258,0.055283304,202.08463,-100.64806,-8.045183,STD
12143056043000,1.836004,-0.286228157453184,9.8415856741573,-0.822529344494382,-0.09254608,0.05497787,0.06505715,202.1791,-100.61285,-7.9995656,STD
12143060156000,1.840117,-0.306833232575638,9.84383077795317,-0.844636065230203,-0.09162979,0.05131268,0.064751714,202.27248,-100.58237,-7.9643,STD
12143065052000,1.845013,-0.310945134075243,9.83149524519863,-0.865195598489871,-0.09987647,0.053450707,0.059864793,202.3663,-100.54997,-7.9279623,STD
12143069949000,1.84991,-0.315057875424011,9.81915719293168,-0.885759331000614,-0.09682214,0.05131268,0.07147124,202.46231,-100.52337,-7.8931413,STD
12143075052000,1.855013,-0.331142780720721,9.79734181881882,-0.909528237237237,-0.093462385,0.04886922,0.058948494,202.55562,-100.50184,-7.8665075,STD
12143079950000,1.859911,-0.349924448540541,9.77386475855856,-0.933005292594595,-0.08674286,0.034513887,0.06780604,202.65305,-100.47478,-7.831072,STD
12143085046000,1.865007,-0.380760370407674,9.77589129896083,-0.934752979336531,-0.09590584,0.03634648,0.05955936,202.75217,-100.457054,-7.809351,STD
12143089971000,1.869932,-0.413750016390887,9.78531710331735,-0.930040175579536,-0.0888809,0.03268129,0.061086524,202.85623,-100.439705,-7.7827168,STD
12143095113000,1.875074,-0.447792070172244,9.80258980718504,-0.96290926316437,-0.07360926,0.03481932,0.058337633,202.95876,-100.43182,-7.7651772,STD
12143099941000,1.879902,-0.479648150310039,9.82079317293307,-1.00386707369587,-0.06780604,0.02565634,0.05100725,203.0639,-100.423904,-7.748438,STD
12143105046000,1.885007,-0.498615115091183,9.83260243278812,-1.01854082288024,-0.06352998,0.03023783,0.045814894,203.1611,-100.42192,-7.736608,STD
12143109985000,1.889946,-0.511954031824591,9.84149476847152,-1.02298713000564,-0.062308256,0.022296581,0.052839845,203.26315,-100.41886,-7.7233324,STD
12143115045000,1.895006,-0.535745839403632,9.83875776754024,-1.01851887333884,-0.054061573,0.03145956,0.05100725,203.35847,-100.4287,-7.7191014,STD
12143120069000,1.90003,-0.565531576159719,9.82882951000826,-1.00859030478745,-0.062002823,0.03573562,0.042455133,203.45586,-100.434715,-7.714186,STD
12143124989000,1.90495,-0.5746084,9.82419357760246,-0.991071192693758,-0.043066,0.029321533,0.040927973,203.53772,-100.43402,-7.695466,STD
12143130084000,1.910045,-0.5746084,9.82177247930932,-0.969281750461447,-0.05222898,0.03023783,0.03481932,203.61472,-100.4288,-7.6796174,STD
12143135038000,1.914999,-0.5746084,9.81941838295127,-0.948095313401806,-0.056199603,0.0290161,0.033292156,203.68916,-100.42449,-7.6643744,STD
12143140041000,1.920002,-0.5746084,9.81704100223281,-0.926699321353081,-0.056505036,0.03145956,0.03145956,203.761,-100.42014,-7.6503043,STD
12143145079000,1.92504,-0.549426208793001,9.8319658592329,-0.90363457433274,-0.06505715,0.035430185,0.027488936,203.83159,-100.41391,-7.6367993,STD
12143150045000,1.930006,-0.511815754196323,9.85547237801503,-0.880128031005338,-0.07422013,0.034208454,0.03145956,203.90219,-100.40593,-7.6212196,STD
12143155038000,1.934999,-0.491849903341434,9.88561529161604,-0.868417376670717,-0.08368854,0.025961773,0.025045475,203.96463,-100.392265,-7.605254,STD
12143160095000,1.940056,-0.482042313710004,9.91994206014581,-0.863513581855002,-0.086437434,0.018020526,0.027794369,204.02704,-100.37553,-7.585502,STD
12143164988000,1.944949,-0.477812778169452,9.93628678940923,-0.862940168611617,-0.07819075,0.028710667,0.024129177,204.08652,-100.355034,-7.561912,STD
12143170036000,1.949997,-0.476212783536323,9.94428665397981,-0.864540158232666,-0.07727446,0.015271631,0.020463986,204.15451,-100.33241,-7.5387673,STD
12143174987000,1.954948,-0.474643533649512,9.95213279690551,-0.866109403203707,-0.07819075,0.013133603,0.024740042,204.21452,-100.308365,-7.5106683,STD
12143180047000,1.960008,-0.473039735542611,9.9601516785868,-0.867713196286613,-0.07452556,0.014049901,0.022907447,204.27646,-100.28785,-7.4858828,STD
12143185034000,1.964995,-0.471459075234486,9.96805487284461,-0.869293851643224,-0.06994407,0.016798794,0.026572637,204.33798,-100.261734,-7.4564943,STD
12143190048000,1.970009,-0.469869857110376,9.97600085560152,-0.870883064789012,-0.058948494,0.007330383,0.023518313,204.40176,-100.23986,-7.430154,STD
12143195108000,1.975069,-0.478080594911502,9.96580686001268,-0.867080868682042,-0.06047566,0.01160644,0.026572637,204.46051,-100.21482,-7.4006906,STD
12143200053000,1.980014,-0.491935197846799,9.94502491220928,-0.86015357685894,-0.058337633,-0.012217305,0.027183503,204.52914,-100.19417,-7.374295,STD
12143205039000,1.985,-0.505904672110781,9.924070657053,-0.85316884945146,-0.051618114,-0.018936822,0.021991149,204.59328,-100.17239,-7.3467607,STD
12143210091000,1.990052,-0.520059061196548,9.90283902908479,-0.846091664761812,-0.064751714,-0.03940081,0.027488936,204.66779,-100.145256,-7.3175354,STD
12143215055000,1.995016,-0.541901295003576,9.86501692316338,-0.832641066475938,-0.049480084,-0.062002823,0.026267206,204.73898,-100.13115,-7.2913504,STD
12143220078000,2.000039,-0.571392027538572,9.81095102840503,-0.812980571276183,-0.055588737,-0.082161374,0.03481932,204.81506,-100.107445,-7.2616205,STD
12143224986000,2.004947,-0.591277529606513,9.76621993369516,-0.787903069440072,-0.043982297,-0.09040806,0.035430185,204.88698,-100.09528,-7.2389574,STD
12143230056000,2.010017,-0.604453751044776,9.72669090248756,-0.757158525233831,-0.03940081,-0.101098195,0.032070424,204.96461,-100.07976,-7.215755,STD
12143235037000,2.014998,-0.623607204672707,9.68908614367603,-0.711448878799926,-0.034513887,-0.122783914,0.03359759,205.04396,-100.068115,-7.197423,STD
12143240077000,2.020038,-0.65484516754253,9.65338583302515,-0.635585275989275,-0.0290161,-0.13805555,0.031154128,205.12329,-100.05907,-7.1811132,STD
12143245045000,2.025006,-0.67798580238602,9.61977225596505,-0.565754655600986,-0.022602014,-0.15363261,0.03145956,205.20192,-100.04261,-7.162027,STD
12143250073000,2.030034,-0.667197822011874,9.59280230502969,-0.517208715755573,-0.028710667,-0.16157386,0.025045475,205.28134,-100.02685,-7.1456122,STD
12143254955000,2.034916,-0.64506682748583,9.57156278826016,-0.481424766677875,-0.026572637,-0.16646078,0.02565634,205.35732,-100.00707,-7.1324496,STD
12143260056000,2.040017,-0.602828205014891,9.55748345979441,-0.462652057558843,-0.029932396,-0.18142697,0.014966198,205.43668,-99.98896,-7.124623,STD
12143264976000,2.044937,-0.558943425712038,9.55519743745083,-0.431596779244689,-0.02321288,-0.18784106,0.006414085,205.51308,-99.96911,-7.1149907,STD
12143270038000,2.049999,-0.506498915232101,9.5790358332022,-0.369616905485838,-0.019242255,-0.19211712,-0.00061086525,205.59166,-99.950325,-7.1080227,STD
12143274989000,2.05495,-0.448690489694271,9.61267652250915,-0.328183067109924,-0.010079277,-0.20097467,-0.01160644,205.67435,-99.931145,-7.098133,STD
12143279991000,2.059952,-0.372856814241615,9.67429114564164,-0.337662270355199,-0.006414085,-0.2012801,-0.0067195175,205.75499,-99.910194,-7.0852227,STD
12143285000000,2.064961,-0.292234160803114,9.73116917451715,-0.348335108941663,0.005497787,-0.19792034,-0.007330383,205.84464,-99.89139,-7.075517,STD
12143290080000,2.070041,-0.196352850160623,9.77431563490343,-0.362717305788333,0.008246681,-0.19364429,-0.024129177,205.93253,-99.87411,-7.0686193,STD
12143295048000,2.075009,-0.100071607660276,9.81109122498502,-0.375716086405033,0.007941248,-0.18142697,-0.021685716,206.02228,-99.85266,-7.0448456,STD
12143300060000,2.080021,0.00537846493808668,9.83026385170761,-0.385302459826243,0.0061086523,-0.1740966,-0.024129177,206.11032,-99.83604,-7.0270376,STD
12143305003000,2.084964,0.111165365967265,9.85120054387695,-0.400973780540327,0.008552114,-0.15699236,-0.01985312,206.20296,-99.80918,-6.991332,STD
12143310087000,2.090048,0.226381658832577,9.88000469729836,-0.439379204811674,0.01160644,-0.14477506,-0.022602014,206.29341,-99.78445,-6.9583855,STD
12143315043000,2.095004,0.335905474658631,9.90431050074104,-0.465478595585416,0.00580322,-0.119729586,-0.02687807,206.38252,-99.74754,-6.906095,STD
12143320032000,2.099993,0.435041168550538,9.91375218693805,-0.446595607681059,-0.004886922,-0.09162979,-0.022907447,206.46643,-99.709885,-6.852348,STD
12143325113000,2.105074,0.538931355903326,9.92338725986218,-0.432771619571557,-0.0033597588,-0.065973446,-0.01863139,206.55255,-99.66586,-6.7798223,STD
12143330056000,2.110017,0.652395425460901,9.93284229621492,-0.442226966928992,-0.016187929,-0.0711658,-0.018020526,206.63861,-99.61788,-6.708496,STD
12143334991000,2.114952,0.749301369276823,9.9414951717052,-0.465513053284924,-0.022296581,-0.06719518,-0.014660766,206.72159,-99.56036,-6.6198177,STD
12143339999000,2.11996,0.763516148316538,9.94623352539024,-0.560278214723375,-0.042760566,-0.060170226,-0.016493361,206.80418,-99.49983,-6.534114,STD
12143345101000,2.125062,0.777997738304683,9.95106081782257,-0.656822115214384,-0.03848451,-0.03176499,-0.009162978,206.88785,-99.43427,-6.428042,STD
12143350053000,2.130014,0.792053566141079,9.95574618672199,-0.750527602323651,-0.054061573,-0.0061086523,-0.0027488936,206.96927,-99.36296,-6.324516,STD
12143354968000,2.134929,0.797357350752979,9.9641356338931,-0.839803650803539,-0.070249505,0.026267206,-0.002443461,207.03987,-99.29425,-6.2214427,STD
12143360079000,2.14004,0.731069369653304,10.0039083136511,-0.901672453466956,-0.07666359,0.06291912,0.0033597588,207.10165,-99.22422,-6.1160383,STD
12143364946000,2.144907,0.667945987925244,10.0417822389852,-0.960587629080896,-0.07941248,0.11056661,0.0015271631,207.16049,-99.16933,-6.00693,STD
12143370001000,2.149962,0.626467640718336,10.0632359265745,-1.04879612174908,-0.09621128,0.15699236,0.0027488936,207.2094,-99.11082,-5.8966026,STD
12143374962000,2.154923,0.588652066540643,10.0821436001393,-1.13860808944384,-0.08674286,0.20525073,0.0143553335,207.2445,-99.058334,-5.7847114,STD
12143380048000,2.160009,0.575608129839785,10.1015313188377,-1.19639085214449,-0.09468412,0.25045475,0.022907447,207.26721,-99.01654,-5.6878867,STD
12143384939000,2.1649,0.566285764107871,10.1201761573788,-1.24766380526421,-0.10323623,0.2864958,0.030543262,207.27965,-98.97673,-5.589162,STD
12143390067000,2.170028,0.535873451172521,10.1060225826117,-1.29205076402647,-0.1142318,0.31673363,0.037873644,207.28741,-98.94558,-5.4963856,STD
12143395494000,2.175455,0.500472718804126,10.0857934493529,-1.33756601021699,-0.1142318,0.34422258,0.034513887,207.28653,-98.91733,-5.4058685,STD
12143400052000,2.180013,0.417442909050146,10.025794772328,-1.31878447346266,-0.12614368,0.34666604,0.046731193,207.29309,-98.891525,-5.317519,STD
12143404942000,2.184903,0.323164644271596,9.95722916837482,-1.29307214824305,-0.13530666,0.32742378,0.048258353,207.29854,-98.87018,-5.2352924,STD
12143410081000,2.190042,0.239049809189162,9.9005877727296,-1.26720723105568,-0.12308934,0.31123585,0.050396383,207.30174,-98.85687,-5.1554875,STD
12143414982000,2.194943,0.166925756318189,9.85490903687958,-1.24316592193823,-0.10934488,0.29077184,0.051618114,207.3126,-98.84296,-5.07845,STD
12143420032000,2.199993,0.0926089909645034,9.80784157798494,-1.21839370993188,-0.1020145,0.26633725,0.057726767,207.32309,-98.83823,-5.021681,STD
12143424974000,2.204935,0.0198815742560058,9.76178071029043,-1.19415127988526,-0.11148291,0.25503623,0.058643065,207.33618,-98.83375,-4.9675694,STD
12143430056000,2.210017,-0.0342284363237858,9.72180641220423,-1.18410125865504,-0.10995574,0.23304509,0.06352998,207.36038,-98.83156,-4.91283,STD
12143435097000,2.215058,-0.080474897730434,9.68480946096369,-1.17947661560494,-0.092240654,0.2144137,0.058948494,207.38692,-98.83272,-4.8619456,STD
12143440082000,2.220043,-0.144739369957875,9.64645712760711,-1.20733005984794,-0.08246681,0.1863139,0.051618114,207.41248,-98.84101,-4.8390503,STD
12143445119000,2.22508,-0.219081885964451,9.60680802476112,-1.25193553343265,-0.073303826,0.16737708,0.056505036,207.44101,-98.85178,-4.814509,STD
12143450003000,2.229964,-0.271545002054449,9.57843831877881,-1.27289984061059,-0.06811147,0.16187929,0.048563786,207.46925,-98.87004,-4.804335,STD
12143456168000,2.236129,-0.328033743630512,9.54762618822302,-1.28830590588849,-0.055588737,0.1591304,0.0421497,207.50206,-98.89056,-4.7926946,STD
12143460081000,2.240042,-0.355412173121671,9.536370530684,-1.29712784969103,-0.049480084,0.16493362,0.042455133,207.53078,-98.91265,-4.788779,STD
12143465053000,2.245014,-0.380777552077562,9.5312973531856,-1.30727399279778,-0.042455133,0.17379116,0.033292156,207.55846,-98.93945,-4.788782,STD
12143470001000,2.249962,-0.409516288107901,9.53374217284247,-1.29636019390899,-0.033292156,0.19394971,0.030543262,207.57759,-98.97105,-4.793529,STD
12143474990000,2.254951,-0.441622545738696,9.54291533320534,-1.26654724313142,-0.020463986,0.19394971,0.022296581,207.59912,-99.00624,-4.802118,STD
12143480057000,2.260018,-0.47423076530479,9.55223191038687,-1.23626818488528,-0.007941248,0.21655174,0.010079277,207.599,-99.049194,-4.8108077,STD
12143485037000,2.264998,-0.506279104250744,9.56138852265527,-1.2065090157387,0.004276057,0.23151793,0.004276057,207.60107,-99.09388,-4.8196454,STD
12143489981000,2.269942,-0.532107922460233,9.57979162735949,-1.17316802136797,0.013133603,0.25473082,0.006414085,207.59442,-99.13978,-4.8278537,STD
12143495114000,2.275075,-0.547746643902439,9.61628219512195,-1.1314647097561,0.009468411,0.2648101,-0.003970624,207.5868,-99.18662,-4.840551,STD
12143500214000,2.280175,-0.557798389411541,9.64364230870311,-1.09450447411922,0.014660766,0.2751948,-0.01160644,207.56366,-99.22421,-4.8563814,STD
12143505032000,2.284993,-0.562191935631308,9.66121640182822,-1.06374965058084,0.013133603,0.2855795,-0.016187929,207.53777,-99.2591,-4.87338,STD
12143510081000,2.290042,-0.559280169832402,9.68599508379888,-1.02661768947858,0.014660766,0.28955013,-0.026267206,207.50844,-99.29204,-4.895741,STD
12143515065000,2.295026,-0.544466150217256,9.72056133581626,-0.982175579070971,0.029321533,0.28496864,-0.027488936,207.4792,-99.32606,-4.916308,STD
12143519960000,2.299921,-0.530241992530191,9.74365233667158,-0.941522826067747,0.016798794,0.28710666,-0.026572637,207.44551,-99.35098,-4.939644,STD
12143524987000,2.304948,-0.516061528865979,9.75310566323024,-0.903708285910653,0.019242255,0.28710666,-0.02443461,207.41415,-99.382,-4.9626493,STD
12143529940000,2.309901,-0.501995672810347,9.77363296744232,-0.875491130869869,0.018020526,0.28191432,-0.02076942,207.37628,-99.409424,-4.9819202,STD
12143535040000,2.315001,-0.487362197428343,9.81265588764606,-0.860857650394487,0.006414085,0.267559,-0.026267206,207.34132,-99.43497,-5.003188,STD
12143539962000,2.319923,-0.475190616864506,9.84450532331121,-0.828612540335806,0.00061086525,0.2510656,-0.030848695,207.30305,-99.44799,-5.0146766,STD
12143545241000,2.325202,-0.465320257631784,9.86918119562671,-0.764455220782897,-0.005497787,0.23701571,-0.018936822,207.2692,-99.45604,-5.02349,STD
12143549938000,2.329899,-0.451921250396764,9.89724281625578,-0.726284205701079,-0.008857546,0.21624629,-0.0106901415,207.24222,-99.46107,-5.0327563,STD
12143555036000,2.334997,-0.428412690410246,9.9395580818567,-0.721582498613251,-0.016798794,0.18997909,-0.0061086523,207.22157,-99.46201,-5.040448,STD
12143560071000,2.340032,-0.407576143519146,9.97790902294426,-0.712625121948465,-0.027488936,0.1777618,0.0015271631,207.19072,-99.45477,-5.038987,STD
12143565047000,2.345008,-0.392899768411867,10.0072615994764,-0.693056635427574,-0.038789943,0.16615535,0.015577064,207.16805,-99.4438,-5.035622,STD
12143569986000,2.349947,-0.386600765698826,10.0262108215563,-0.679247599449743,-0.035124753,0.14874569,0.019242255,207.1523,-99.431526,-5.029719,STD
12143574996000,2.354957,-0.397601271953412,10.0240107910629,-0.677047500036684,-0.036957346,0.12492194,0.023823744,207.1426,-99.41335,-5.0207043,STD
12143580613000,2.360574,-0.409934574075569,10.0215442099688,-0.674580841672781,-0.055283304,0.11881329,0.038179077,207.12778,-99.391136,-5.004239,STD
12143585037000,2.364998,-0.419648394369039,10.0196015083914,-0.672638079236977,-0.06627888,0.11148291,0.03970624,207.12,-99.37194,-4.99155,STD
12143590379000,2.37034,-0.432140841579238,10.0176784295969,-0.671391820596356,-0.07269296,0.09682214,0.04550946,207.1175,-99.34211,-4.972548,STD
12143595093000,2.375054,-0.461223805144487,10.0259875812627,-0.696320056488128,-0.08032878,0.10323623,0.046731193,207.11107,-99.31065,-4.954443,STD
12143599941000,2.379902,-0.491133480020247,10.0345329285846,-0.721956901546107,-0.09590584,0.08582657,0.054367006,207.10773,-99.277306,-4.935596,STD
12143605044000,2.385005,-0.521271076710313,10.052011192499,-0.751114434812221,-0.10476339,0.0842994,0.054061573,207.09795,-99.245636,-4.918386,STD
12143610084000,2.390045,-0.550666395833333,10.0716082083333,-0.780509764166667,-0.119729586,0.08460484,0.058948494,207.09322,-99.20777,-4.8987517,STD
12143615078000,2.395039,-0.559149695192308,10.0526312445913,-0.792687956526442,-0.1328632,0.086132,0.06261369,207.08731,-99.17474,-4.8850203,STD
12143619940000,2.399901,-0.563454650961538,10.0268016448317,-0.801297863569712,-0.13836098,0.0729984,0.06811147,207.08582,-99.13996,-4.870449,STD
12143624992000,2.404953,-0.574732225690176,9.99308846109778,-0.794751129245181,-0.13988814,0.06078109,0.06383542,207.08675,-99.10335,-4.8615522,STD
12143629992000,2.409953,-0.589560452058528,9.95601793388558,-0.779922895135093,-0.13408493,0.04917465,0.061086524,207.09138,-99.06742,-4.8515706,STD
12143635042000,2.415003,-0.602927809807713,9.9191058102624,-0.765322439615425,-0.15149458,0.028099801,0.05955936,207.10193,-99.029144,-4.8445973,STD
12143639996000,2.419957,-0.597887602944863,9.88886446382662,-0.755242025889727,-0.14813483,0.016798794,0.056199603,207.11256,-98.9991,-4.839213,STD
12143645062000,2.425023,-0.599254347476499,9.86175718881685,-0.751698592824959,-0.14263703,0.0070249503,0.058337633,207.12984,-98.96446,-4.83873,STD
12143650820000,2.430781,-0.630534967110211,9.8483514076175,-0.778510556510535,-0.14782938,-0.016493361,0.046120327,207.15309,-98.93189,-4.8441076,STD
12143656871000,2.436832,-0.661789976604912,9.83587609694098,-0.810393424282637,-0.13591751,-0.02321288,0.04153884,207.16632,-98.90358,-4.841382,STD
12143660117000,2.440078,-0.668486722145627,9.83922419000431,-0.850573928993968,-0.14110987,-0.025961773,0.04917465,207.18465,-98.87086,-4.8392844,STD
12143664951000,2.444912,-0.678459632787591,9.8442102287807,-0.910411439707023,-0.13775012,-0.044593163,0.03970624,207.2067,-98.85308,-4.8491664,STD
12143670039000,2.45,-0.671665118502727,9.84081325542886,-0.960814379122459,-0.12767084,-0.05009095,0.036651913,207.2258,-98.834145,-4.8544145,STD
12143674971000,2.454932,-0.66229818194348,9.83613017838374,-1.00764908637085,-0.12644911,-0.044593163,0.034513887,207.24615,-98.81584,-4.8619823,STD
12143680000000,2.459961,-0.67666592330761,9.82348108400899,-1.0389408763798,-0.12095132,-0.04734206,0.03145956,207.27106,-98.80819,-4.871084,STD
12143684959000,2.46492,-0.695222668916675,9.80956323415063,-1.06677604323532,-0.1255328,-0.047036625,0.022296581,207.29265,-98.79991,-4.881737,STD
12143689999000,2.46996,-0.688769845176661,9.78597581839432,-1.09327650964668,-0.122783914,-0.049785517,0.017715093,207.31781,-98.79804,-4.8889685,STD
12143695066000,2.475027,-0.675681924939315,9.75979988681111,-1.11945235012137,-0.118507855,-0.04642576,0.01863139,207.34048,-98.79599,-4.896506,STD
12143700092000,2.480053,-0.664683480778078,9.7378030210021,-1.11583065194519,-0.11056661,-0.05589417,0.013744468,207.3661,-98.80087,-4.90932,STD
12143705001000,2.484962,-0.655280038193819,9.7189962340234,-1.09232204548455,-0.10903945,-0.056505036,0.011911872,207.3879,-98.80437,-4.9200006,STD
12143710087000,2.490048,-0.63381514223742,9.70701363294886,-1.07444241540608,-0.113926366,-0.06780604,0.01160644,207.41904,-98.8031,-4.926694,STD
12143715057000,2.495018,-0.604665359191589,9.70053594283964,-1.06148695063795,-0.11484267,-0.07147124,0.009773844,207.44751,-98.80356,-4.9336042,STD
12143719964000,2.499925,-0.575885080437889,9.69414036429519,-1.04869571007111,-0.115453534,-0.06994407,0.005192355,207.4803,-98.802605,-4.9432125,STD
12143724999000,2.50496,-0.54635406280494,9.68757795590487,-1.03557080763499,-0.11056661,-0.06994407,-0.0012217305,207.51375,-98.80331,-4.953463,STD
12143730056000,2.510017,-0.516694011927121,9.68098687363479,-1.02238855706509,-0.10873401,-0.07727446,0.0021380284,207.54982,-98.79628,-4.9596868,STD
12143735039000,2.515,-0.487467981963866,9.67449223986935,-1.00939920476336,-0.09987647,-0.08124508,0.0012217305,207.58386,-98.793915,-4.96827,STD
12143740057000,2.520018,-0.449497761009694,9.68887642508878,-0.982742687853921,-0.100792766,-0.086132,-0.0067195175,207.61945,-98.79035,-4.9776545,STD
12143745090000,2.525051,-0.407862223826663,9.71200726029369,-0.950359494414051,-0.10048734,-0.09560041,-0.003970624,207.65715,-98.78758,-4.984015,STD
12143750061000,2.530022,-0.35560732824946,9.72663274992282,-0.910745739410312,-0.093767814,-0.102319926,0.0012217305,207.69608,-98.77344,-4.9743533,STD
12143755045000,2.535006,-0.296662216268396,9.73645713358032,-0.866536910553669,-0.09162979,-0.1142318,0.0030543262,207.73857,-98.75883,-4.965302,STD
12143760070000,2.540031,-0.265401122274222,9.7673470460483,-0.849254232177427,-0.077579886,-0.116675265,0.0070249503,207.7785,-98.74518,-4.947461,STD
12143765063000,2.545024,-0.247426500578893,9.8077898299032,-0.844760579099709,-0.08552113,-0.12583824,0.014049901,207.82338,-98.72653,-4.929004,STD
12143770047000,2.550008,-0.225911036547071,9.83120762465501,-0.819793461208218,-0.07452556,-0.11728613,0.025350908,207.86699,-98.70742,-4.900078,STD
12143774996000,2.554957,-0.201687576058469,9.84089695016866,-0.77861358748339,-0.06658431,-0.13072516,0.012217305,207.91827,-98.68925,-4.8775644,STD
12143779993000,2.559954,-0.177229173944598,9.85068025176326,-0.737034313083921,-0.064751714,-0.12339478,0.026267206,207.96365,-98.664444,-4.8402996,STD
12143785113000,2.565074,-0.152168733915977,9.86070436706532,-0.694431574455688,-0.06414085,-0.12370021,0.023518313,208.0134,-98.64656,-4.812625,STD
12143790088000,2.570049,-0.131424783108041,9.85188375333004,-0.655498659832264,-0.06505715,-0.12797627,0.022296581,208.06369,-98.62245,-4.7794237,STD
12143795156000,2.575117,-0.11226928325999,9.83272836349285,-0.617187650135175,-0.0571159,-0.13836098,0.028710667,208.11545,-98.600525,-4.7455277,STD
12143800071000,2.580032,-0.0941525761628127,9.8369962366376,-0.594944607009098,-0.065973446,-0.13775012,0.025045475,208.16591,-98.56585,-4.709503,STD
12143805041000,2.585002,-0.076109841790182,9.85503886268006,-0.581412547987112,-0.043676864,-0.129198,0.02687807,208.21687,-98.53955,-4.670745,STD
12143810001000,2.589962,-0.0525056250670024,9.85926689415271,-0.557654368424622,-0.032070424,-0.1301143,0.023518313,208.26982,-98.50624,-4.633471,STD
12143815051000,2.595012,-0.0226857445665399,9.8493267338403,-0.522864502737643,-0.054367006,-0.13988814,0.019547688,208.32233,-98.47084,-4.5964646,STD
12143820001000,2.599962,-0.00195370958236952,9.85258025104481,-0.477078356697444,-0.0421497,-0.13683382,0.024129177,208.37485,-98.44302,-4.5565605,STD
12143824983000,2.604944,0.011957745118962,9.86649198610166,-0.421432549513072,-0.04062254,-0.13652839,0.021991149,208.42984,-98.409836,-4.520616,STD
12143830058000,2.610019,0.0263225865465987,9.87607770592348,-0.38548010695435,-0.040317107,-0.13591751,0.02565634,208.48602,-98.37823,-4.4816403,STD
12143835036000,2.614997,0.0406088737111178,9.88083989811208,-0.371193818795325,-0.051923547,-0.1282817,0.0290161,208.53935,-98.34522,-4.443562,STD
12143839995000,2.619956,0.0569132736056009,9.88100764410735,-0.361661351248541,-0.058643065,-0.12064589,0.022296581,208.59102,-98.30812,-4.4065886,STD
12143845086000,2.625047,0.0758769159381564,9.87626663798133,-0.356920444130688,-0.04428773,-0.109650314,0.020463986,208.63919,-98.27301,-4.367439,STD
12143849945000,2.629906,0.0882065157752718,9.87570329701973,-0.338219807905759,-0.04550946,-0.12064589,0.014966198,208.69122,-98.23247,-4.330265,STD
12143855530000,2.635491,0.093591780610149,9.88108867207008,-0.295137673481675,-0.04184427,-0.11911872,0.018020526,208.7362,-98.19647,-4.290934,STD
12143859976000,2.639937,0.0978201049381363,9.8771087589076,-0.265415164227682,-0.05497787,-0.122783914,0.015271631,208.78522,-98.15459,-4.2511277,STD
12143865047000,2.645008,0.102573827915427,9.86284731597494,-0.236892849197338,-0.047036625,-0.121256754,0.022907447,208.8322,-98.11763,-4.207876,STD
12143869928000,2.649889,0.101805064475806,9.85984382862903,-0.207877201209677,-0.050701816,-0.112399206,0.0143553335,208.87613,-98.07398,-4.1704803,STD
12143875045000,2.655006,0.0923955912096774,9.87395831854839,-0.174944059516129,-0.046731193,-0.10415252,0.0125227375,208.9197,-98.03301,-4.129591,STD
12143879943000,2.659904,0.0832525605496829,9.89355035064935,-0.159106308900634,-0.04550946,-0.1020145,0.018936822,208.96466,-97.99011,-4.092168,STD
12143885043000,2.665004,0.0734183301057083,9.92796983116883,-0.178774769788584,-0.042760566,-0.1001819,0.019242255,209.00652,-97.950676,-4.057236,STD
12143889969000,2.66993,0.0563987374423398,9.98069887035038,-0.205214732766709,-0.0421497,-0.09162979,0.02443461,209.0439,-97.90703,-4.0213685,STD
12143895070000,2.675031,0.0228371462508588,10.0765890593778,-0.248365352873687,-0.042455133,-0.08246681,0.025045475,209.07991,-97.865395,-3.9871376,STD
12143899994000,2.679955,-0.0110492110830769,10.1459813935484,-0.276346249588089,-0.03848451,-0.07819075,0.026267206,209.11444,-97.82738,-3.952625,STD
12143905815000,2.685776,-0.0553144951261538,10.1625806322581,-0.27081309298263,-0.0421497,-0.062308256,0.03145956,209.14276,-97.78766,-3.916695,STD
12143910104000,2.690065,-0.0976577961437933,10.1679376664513,-0.273411434643286,-0.05375614,-0.07544186,0.035430185,209.1833,-97.75395,-3.8905003,STD
12143915053000,2.695014,-0.167646707615321,10.1591893326258,-0.290908659542224,-0.048258353,-0.07422013,0.03634648,209.21483,-97.724266,-3.8632605,STD
12143919996000,2.699957,-0.237193831632633,10.1498398946283,-0.308032920985816,-0.04795292,-0.076358154,0.03359759,209.25002,-97.69175,-3.8439136,STD
12143925085000,2.705046,-0.305829703446333,10.1351321675888,-0.322740607071723,-0.046731193,-0.079107046,0.041233405,209.28487,-97.660225,-3.8217156,STD
12143930001000,2.709962,-0.375134573961538,10.1162754163462,-0.336256422653846,-0.051618114,-0.09773844,0.04886922,209.31906,-97.636215,-3.813446,STD
12143935064000,2.715025,-0.468379520410256,10.0629926732601,-0.345136896835165,-0.04917465,-0.11209377,0.05222898,209.35239,-97.614586,-3.8042343,STD
12143940524000,2.720485,-0.568457916332271,10.0062402015751,-0.355483965179074,-0.06078109,-0.13439035,0.057726767,209.38838,-97.59419,-3.8039384,STD
12143945074000,2.725035,-0.641994422520157,9.97355749953122,-0.379996128220514,-0.07086037,-0.16310102,0.057726767,209.42957,-97.57565,-3.8046782,STD
12143949954000,2.729915,-0.720864345640353,9.93850440371273,-0.406286096493531,-0.07422013,-0.18203785,0.063224554,209.46695,-97.5673,-3.8210511,STD
12143955051000,2.735012,-0.756619596515017,9.88505571531265,-0.427167074805515,-0.082161374,-0.19242255,0.051923547,209.50858,-97.55808,-3.8419847,STD
12143960095000,2.740056,-0.780403668310192,9.82797382776957,-0.446194329261448,-0.093462385,-0.2125811,0.055283304,209.55803,-97.54466,-3.857261,STD
12143965049000,2.74501,-0.803319684798655,9.7657668654493,-0.47173573797309,-0.09437868,-0.22968534,0.048258353,209.60725,-97.53957,-3.891757,STD
12143970049000,2.75001,-0.826329790517059,9.70133870591062,-0.499347852341182,-0.09621128,-0.2510656,0.042455133,209.66217,-97.53124,-3.9243233,STD
12143975639000,2.7556,-0.798237017469105,9.63167544053386,-0.523101938542758,-0.09010262,-0.26358834,0.041233405,209.72304,-97.523224,-3.9605498,STD
12143980072000,2.760033,-0.760462817478992,9.57711250756302,-0.539890478689076,-0.09315695,-0.28130344,0.036957346,209.78952,-97.51432,-3.9984531,STD
12143985056000,2.765017,-0.703966918421181,9.55924651315275,-0.555438885904557,-0.092240654,-0.2996294,0.030848695,209.85701,-97.51356,-4.0393753,STD
12143990067000,2.770028,-0.640613062502445,9.56159299990221,-0.569517522186583,-0.07971791,-0.29840767,0.023518313,209.92207,-97.51594,-4.080042,STD
12144000080000,2.780041,-0.514019137275083,9.56628175899668,-0.597649508834344,-0.07849618,-0.31948254,0.0076358155,210.0748,-97.506516,-4.1445084,STD
12144004944000,2.784905,-0.453376587449254,9.57599031672216,-0.609178926135753,-0.06078109,-0.32467487,0.0027488936,210.1533,-97.50651,-4.1685557,STD
12144009962000,2.789923,-0.391441560017184,9.59147438481366,-0.619501417234454,-0.049785517,-0.31887165,0.0018325958,210.23048,-97.50599,-4.1927996,STD
12144014926000,2.794887,-0.324727479612787,9.61950411121117,-0.617447471828005,-0.04795292,-0.32711834,-0.0061086523,210.31815,-97.50619,-4.2070513,STD
12144019925000,2.799886,-0.255271316092651,9.65303459922958,-0.610262359035469,-0.03848451,-0.3203988,-0.010079277,210.39848,-97.51021,-4.2187033,STD
12144024913000,2.804874,-0.185967986699084,9.68649130541798,-0.603093056653159,-0.021685716,-0.3118467,-0.013439035,210.49135,-97.51277,-4.225833,STD
12144029929000,2.80989,-0.116275624983341,9.72013581990095,-0.595883509590275,-0.0009162979,-0.301462,-0.011301007,210.58025,-97.51815,-4.2312,STD
12144034923000,2.814884,-0.0856272396343935,9.75031770944116,-0.590381766858634,0.0067195175,-0.2919936,-0.0106901415,210.66531,-97.52495,-4.2367096,STD
12144039905000,2.819866,-0.0712663564651349,9.77903956175379,-0.585594808134845,0.009468411,-0.28099802,-0.01740966,210.74548,-97.535934,-4.2423816,STD
12144045082000,2.825043,-0.0568014193911457,9.8011452252953,-0.573949003334294,0.02321288,-0.26725355,-0.028710667,210.82733,-97.541336,-4.22456,STD
12144049929000,2.82989,-0.0434281013962355,9.81897620858542,-0.560575677426294,0.032375857,-0.25595254,-0.027488936,210.90585,-97.54534,-4.2045946,STD
12144055474000,2.835435,-0.0347647782861727,9.84705875072696,-0.537742547183395,0.03390302,-0.24770586,-0.023823744,210.98401,-97.548325,-4.184826,STD
12144059982000,2.839943,-0.0304358656263913,9.87303229810488,-0.516097972583977,0.04428773,-0.24281894,-0.022907447,211.05888,-97.55573,-4.165076,STD
12144064956000,2.844917,-0.0181840605398465,9.87723838724911,-0.489491269876033,0.043066,-0.23151793,-0.03023783,211.13481,-97.56033,-4.148244,STD
12144069964000,2.849925,-0.00166868587554113,9.86780083982684,-0.461179204090909,0.054367006,-0.23304509,-0.028405234,211.21236,-97.56854,-4.1285534,STD
12144074941000,2.854902,0.014744457036649,9.85842171172767,-0.433042392706612,0.0571159,-0.22602014,-0.01863139,211.28308,-97.5709,-4.107412,STD
12144079954000,2.859915,0.031276320693231,9.84897474183392,-0.404702060082645,0.049480084,-0.23090707,-0.022602014,211.35635,-97.57505,-4.089881,STD
12144084962000,2.864923,0.0355973788170012,9.83953747737112,-0.384519535733963,0.05375614,-0.23640485,-0.016493361,211.42671,-97.57163,-4.061302,STD
12144089940000,2.869901,0.0309069670454545,9.83015695454545,-0.370448300909091,0.046731193,-0.23335053,-0.016493361,211.49486,-97.5653,-4.0355186,STD
12144095086000,2.875047,0.0389303359027321,9.82070393953619,-0.348618787477232,0.043982297,-0.23701571,-0.005192355,211.56737,-97.55121,-4.0019627,STD
12144099988000,2.879949,0.0565607970293869,9.81188853178105,-0.322173098088442,0.051618114,-0.2507602,-0.005192355,211.605086784889,-97.5443197176731,-3.98660682669547,STD
12144105039000,2.885,0.0649132237933181,9.81302340506329,-0.308582243988379,0.043676864,-0.26175576,0.00030543262,211.64395,-97.53722,-3.9707842,STD
12144110077000,2.890038,0.0599072091865532,9.82804174683544,-0.313588253367919,0.04184427,-0.27152961,0.0027488936,211.71883,-97.52789,-3.944518,STD
12144115068000,2.895029,0.0530245832661416,9.83094465363128,-0.309380234783405,0.030543262,-0.2666427,0.01038471,211.79663,-97.510704,-3.9133239,STD
12144120045000,2.900006,0.0442941563130323,9.82221405027933,-0.296284594125836,0.0421497,-0.2764165,0.014049901,211.8803,-97.49923,-3.8833818,STD
12144124975000,2.904936,0.0367211990284935,9.82732925393013,-0.293648313873362,0.03756821,-0.2864958,0.02321288,211.96255,-97.48246,-3.852015,STD
12144130041000,2.910002,0.0314246810959607,9.86440507358079,-0.314834392240175,0.03940081,-0.2751948,0.019547688,212.04015,-97.47174,-3.8229234,STD
12144135038000,2.914999,0.00345934594369548,9.89934643735131,-0.332503551062649,0.043982297,-0.2843578,0.03390302,212.12506,-97.45616,-3.7890353,STD
12144140074000,2.920035,-0.0491295503156225,9.93281177557494,-0.346845977224425,0.05955936,-0.2864958,0.04153884,212.20338,-97.44562,-3.7575727,STD
12144145059000,2.92502,-0.103287437194713,9.96363852919708,-0.369901099191162,0.048563786,-0.29626966,0.049480084,212.28973,-97.42931,-3.7245493,STD
12144150053000,2.930014,-0.159898095109884,9.9919439379562,-0.402923980840402,0.0720821,-0.30390546,0.051923547,212.37512,-97.42541,-3.691059,STD
12144154973000,2.934934,-0.218493003641515,10.0250923643404,-0.42523047878931,0.06811147,-0.29443705,0.048258353,212.45349,-97.416435,-3.6645129,STD
12144160048000,2.940009,-0.282751403702899,10.0664012060629,-0.43441024269525,0.06841691,-0.3023783,0.0571159,212.53847,-97.412476,-3.6345763,STD
12144164939000,2.9449,-0.361747615682501,10.0867267696933,-0.433305866674684,0.06811147,-0.3115413,0.06841691,212.61975,-97.41666,-3.6160452,STD
12144170041000,2.950002,-0.484169108598918,10.0622424874724,-0.4088215742273,0.07880162,-0.32070425,0.06627888,212.70209,-97.42429,-3.5988925,STD
12144174954000,2.954915,-0.591753138828612,10.0490391201527,-0.391164547826,0.077579886,-0.34055737,0.06505715,212.78421,-97.43172,-3.5885813,STD
12144180060000,2.960021,-0.680178399527828,10.0588643486036,-0.386252025933293,0.07513642,-0.35460728,0.070249505,212.86635,-97.440704,-3.5767646,STD
12144184985000,2.964946,-0.75864596568915,10.0561246041056,-0.384588823870968,0.07574729,-0.37568212,0.07238753,212.9442,-97.455284,-3.5855153,STD
12144190043000,2.970004,-0.82493656856305,10.0277142680352,-0.389323873290323,0.074830994,-0.3924809,0.069027774,213.02357,-97.468475,-3.5937233,STD
12144195264000,2.975225,-0.887764418725181,10.001253033296,-0.391021576428062,0.071776666,-0.42485678,0.0720821,213.11357,-97.48417,-3.618061,STD
12144200067000,2.980028,-0.934600197596986,9.98251883912025,-0.386337993650341,0.060170226,-0.44898596,0.07513642,213.2043,-97.4974,-3.642072,STD
12144204981000,2.984942,-0.979533563387332,9.95581594539498,-0.385800273769567,0.05955936,-0.47067168,0.07880162,213.29694,-97.51588,-3.6745107,STD
12144210002000,2.989963,-1.01891893991627,9.91205446669094,-0.394552578649436,0.05222898,-0.49449542,0.08277224,213.39536,-97.528786,-3.705008,STD
12144215003000,2.994964,-1.0557129484829,9.87085781439637,-0.405056067672307,0.04520403,-0.5119051,0.083383106,213.49614,-97.54628,-3.7455616,STD
12144220042000,3.000003,-1.07475976685579,9.84704929143026,-0.428864608040851,0.04642576,-0.5403103,0.08857546,213.60509,-97.562256,-3.7827113,STD
12144224996000,3.004957,-1.09348529537718,9.82364238077853,-0.45227153580147,0.037873644,-0.56016344,0.08857546,213.71207,-97.58355,-3.8297274,STD
12144230720000,3.010681,-1.11512133196507,9.79659733504366,-0.479316601304455,0.030543262,-0.59589905,0.08827003,213.82967,-97.60397,-3.8744361,STD
12144235085000,3.015046,-1.12925175699743,9.77589139249357,-0.500022559624679,0.025350908,-0.6273586,0.09315695,213.94958,-97.62133,-3.9158394,STD
12144239980000,3.019941,-1.11961094753728,9.75178936884319,-0.524124608442159,0.022907447,-0.66339964,0.10354166,214.07881,-97.63617,-3.9547246,STD
12144245202000,3.025163,-1.10947954990946,9.72824843738682,-0.553743279231091,0.016798794,-0.68844515,0.103847094,214.22069,-97.660446,-4.0070786,STD
12144250066000,3.030027,-1.10082810259553,9.71743412824442,-0.601326262042067,0.014966198,-0.71776664,0.10140363,214.37146,-97.68326,-4.055844,STD
12144256600000,3.036561,-1.08920627760598,9.70290684700748,-0.665246329823095,0.01740966,-0.7641924,0.09773844,214.54227,-97.70073,-4.1030025,STD
12144259991000,3.039952,-1.08317481012212,9.69536751265264,-0.698419416729349,0.009162978,-0.7663304,0.10293079,214.7058,-97.71372,-4.1450763,STD
12144265077000,3.045038,-1.07412849823095,9.68405962278869,-0.748174155745926,0.009162978,-0.7819075,0.11178834,214.88304,-97.72875,-4.186261,STD
12144270040000,3.050001,-1.03603612400785,9.69840357451426,-0.793133975992146,0.014049901,-0.79381937,0.099265605,215.05606,-97.74504,-4.2292986,STD
12144274968000,3.054929,-0.992138777335676,9.71791338187267,-0.837031322664324,0.014049901,-0.79473567,0.10781772,215.22809,-97.75504,-4.261379,STD
12144280058000,3.060019,-0.950093832207694,9.72852966875119,-0.854864750312678,0.018325957,-0.8029824,0.11148291,215.41495,-97.7792,-4.2959557,STD
12144285003000,3.064964,-0.909709553090771,9.73750413625166,-0.868326170437749,0.01282817,-0.81122905,0.106901415,215.5988,-97.80022,-4.327962,STD
12144289993000,3.069954,-0.864986771407977,9.76075253676117,-0.88558264279481,0.013439035,-0.82527894,0.10903945,215.79607,-97.82538,-4.3534365,STD
12144295151000,3.075112,-0.817512301460836,9.7892367924075,-0.904572440688131,0.016187929,-0.8246681,0.115453534,215.98816,-97.848946,-4.3763638,STD
12144300832000,3.080793,-0.769711155676187,9.7932132579913,-0.925236913809344,0.014049901,-0.829555,0.1001819,216.18614,-97.87799,-4.4002523,STD
12144305060000,3.085021,-0.735247693667486,9.78938430697938,-0.940553993374314,0.004886922,-0.82772243,0.11148291,216.3799,-97.89986,-4.41234,STD
12144309994000,3.089955,-0.686473009158285,9.7846071694018,-0.953883405584966,0.0076358155,-0.8258898,0.09865474,216.58061,-97.93024,-4.430455,STD
12144315069000,3.09503,-0.629868968448915,9.77946124298571,-0.964175070354685,-0.0076358155,-0.83077675,0.09101892,216.78006,-97.950745,-4.442002,STD
12144320003000,3.099964,-0.579732620269969,9.77460163219324,-0.957302587151121,-0.002443461,-0.83658,0.090713486,216.98009,-97.97605,-4.4461823,STD
12144324988000,3.104949,-0.531279968438039,9.76975627088197,-0.942766781482797,0.00061086525,-0.84696466,0.095294975,217.17958,-97.997,-4.449602,STD
12144330066000,3.110027,-0.490355034879861,9.78843743829007,-0.941876111391489,0.0076358155,-0.8680395,0.09743301,217.39366,-98.02179,-4.4522057,STD
12144335077000,3.115038,-0.45330833422947,9.81622254598089,-0.946506946555052,0.0125227375,-0.88361657,0.10415252,217.6062,-98.04471,-4.4505687,STD
12144340072000,3.120033,-0.434639268296129,9.83759160186493,-0.965785360497316,0.014660766,-0.8940013,0.10842858,217.83386,-98.06061,-4.4446955,STD
12144345125000,3.125086,-0.425523403098804,9.85582323707262,-0.993132979886032,0.020158553,-0.8943067,0.10842858,218.05966,-98.077774,-4.436613,STD
12144350108000,3.130069,-0.413384275370908,9.88809660153336,-1.01089484604227,0.015882496,-0.89888823,0.10751228,218.29568,-98.08978,-4.423662,STD
12144355042000,3.135003,-0.398697589473684,9.93215652631579,-1.02068596315789,0.008857546,-0.9101892,0.11728613,218.53055,-98.100655,-4.4063888,STD
12144360130000,3.140091,-0.386732425525119,9.96509362074194,-1.04246827578086,0.0106901415,-0.9242391,0.11178834,218.76549,-98.1168,-4.39009,STD
12144365058000,3.145019,-0.377191432968766,9.98894607722632,-1.07109127337511,0.01740966,-0.91782504,0.1151481,218.995,-98.129654,-4.366909,STD
12144369941000,3.149902,-0.376245957653308,9.98168295663931,-1.1096842052535,0.007330383,-0.91599244,0.11301007,219.23706,-98.13402,-4.3444104,STD
12144374991000,3.154952,-0.380916439546113,9.95365996774505,-1.15638907295027,0.004276057,-0.88789266,0.11759156,219.46657,-98.14056,-4.3167906,STD
12144380056000,3.160017,-0.380479715488811,9.92862647699518,-1.17362638345765,0.014660766,-0.8686504,0.118202426,219.70575,-98.14652,-4.2895994,STD
12144385046000,3.165007,-0.375747895038616,9.90654468116707,-1.16573999957093,0.0033597588,-0.8622363,0.11636983,219.93713,-98.14677,-4.2603016,STD
12144389990000,3.169951,-0.37105969457654,9.88466644497987,-1.15792631581623,0.007330383,-0.86193085,0.118507855,220.17255,-98.155174,-4.2309165,STD
12144395130000,3.175091,-0.366185635034656,9.86192086771404,-1.1498028662816,0.0061086523,-0.8402451,0.12736541,220.39684,-98.159454,-4.198233,STD
12144400159000,3.18012,-0.361416832420622,9.83966648871213,-1.14185484532642,0.011301007,-0.8237518,0.13133603,220.61908,-98.16731,-4.165656,STD
12144405001000,3.184962,-0.356825354540894,9.81823962390257,-1.13420236621229,0.010079277,-0.8222246,0.13103059,220.83647,-98.17333,-4.130883,STD
12144410102000,3.190063,-0.361322658120411,9.80897698130201,-1.12308240187959,0.0125227375,-0.8249735,0.13713925,221.05624,-98.182724,-4.098935,STD
12144415053000,3.195014,-0.375247690954479,9.81361875584924,-1.10915736904552,0.01282817,-0.8206975,0.1282817,221.26993,-98.19405,-4.0702763,STD
12144420055000,3.200016,-0.372564943166947,9.81202398724918,-1.10973864995552,0.004886922,-0.84207773,0.13072516,221.48926,-98.20016,-4.0361114,STD
12144424995000,3.204956,-0.349183796700603,9.80267133725413,-1.128443559316,0.0027488936,-0.83260936,0.13958271,221.69554,-98.20871,-4.0007067,STD
12144429999000,3.20996,-0.331196439945021,9.78310183944207,-1.12766461233965,0.0021380284,-0.8176431,0.13988814,221.91847,-98.21665,-3.9802969,STD
12144435038000,3.214999,-0.321370020562004,9.74870971533293,-1.09818538497251,-0.0021380284,-0.80939645,0.1469131,222.13782,-98.2215,-3.9543002,STD
12144440233000,3.220194,-0.311993200538871,9.73811879672216,-1.08622061946113,0.011301007,-0.8029824,0.15149458,222.36356,-98.22821,-3.926519,STD
12144445084000,3.225045,-0.304020477559636,9.75406415943024,-1.09419334244036,0.02107485,-0.7965683,0.14996742,222.58363,-98.23362,-3.8973236,STD
12144449999000,3.22996,-0.296314584924384,9.77400733892687,-1.10303210167806,0.016798794,-0.79412484,0.15088372,222.7994,-98.236015,-3.8650312,STD
12144455567000,3.235528,-0.290791098933085,9.82924208348871,-1.11960252504661,0.022907447,-0.79076505,0.15149458,223.00992,-98.244545,-3.8323572,STD
12144460000000,3.239961,-0.28992253868361,9.87371158671696,-1.13442710388166,0.02443461,-0.79168135,0.15974127,223.22893,-98.24645,-3.7972822,STD
12144465062000,3.245023,-0.30436048031371,9.92665076968133,-1.15849037343393,0.0106901415,-0.79290307,0.16401732,223.4438,-98.24735,-3.762415,STD
12144470104000,3.250065,-0.315194309038879,9.96693505834219,-1.17626667369054,0.014966198,-0.78893244,0.15974127,223.66592,-98.252495,-3.7304823,STD
12144474990000,3.254951,-0.31086790297351,9.95395579497018,-1.16761383897185,0.008246681,-0.7831292,0.16065755,223.8849,-98.251175,-3.6952193,STD
12144480135000,3.260096,-0.30631216019694,9.94028851906985,-1.1585023296334,0.009162978,-0.7816021,0.16523905,224.10081,-98.25606,-3.6605675,STD
12144485042000,3.265003,-0.301967159263095,9.92725347089825,-1.14981230508067,0.012217305,-0.7828238,0.17348573,224.31293,-98.26024,-3.6239989,STD
12144489997000,3.269958,-0.297579655772734,9.91409091461328,-1.14103727519301,0.007330383,-0.7852673,0.17287487,224.52173,-98.26419,-3.5882304,STD
12144495104000,3.275065,-0.30560612231037,9.89018224422407,-1.14400255115519,0.007941248,-0.7993172,0.17592919,224.73167,-98.26993,-3.5492496,STD
12144500472000,3.280433,-0.316214789202945,9.86302998327729,-1.15047798366809,-0.010079277,-0.8063421,0.17440203,224.93718,-98.271286,-3.5112817,STD
12144505000000,3.284961,-0.320155881719531,9.83938339525584,-1.17806561482323,-0.013744468,-0.81489426,0.17837265,225.14424,-98.274765,-3.4705994,STD
12144509999000,3.28996,-0.324506924451513,9.81327710251749,-1.20852289577388,-0.0143553335,-0.8240572,0.18051068,225.35,-98.27709,-3.4321573,STD
12144515059000,3.29502,-0.340854713960323,9.79140681358245,-1.23530858250236,-0.018325957,-0.82741696,0.18142697,225.55371,-98.278435,-3.392741,STD
12144519937000,3.299898,-0.360468718280676,9.77179292190616,-1.25982607510234,-0.026572637,-0.8210029,0.19517145,225.7549,-98.27795,-3.3487809,STD
12144524997000,3.304958,-0.355734451006711,9.78471131543624,-1.27232265771812,-0.035124753,-0.8219192,0.19486602,226.00043,-98.27607,-3.3318336,STD
12144529951000,3.309912,-0.346085576339231,9.80400894386821,-1.28197147193411,-0.036651913,-0.8164214,0.19853121,226.23914,-98.27311,-3.3082986,STD
12144535002000,3.314963,-0.329199394854116,9.82999853679614,-1.29107489977699,-0.048258353,-0.8078693,0.20219639,226.47351,-98.269905,-3.2857006,STD
12144539993000,3.319954,-0.311433985541721,9.85664672960416,-1.29995769254785,-0.04886922,-0.7993172,0.1957823,226.70245,-98.27114,-3.2637687,STD
12144545087000,3.325048,-0.313815867970065,9.91193810820081,-1.30980384028687,-0.06047566,-0.77488256,0.18478674,226.92209,-98.2683,-3.2386053,STD
12144549944000,3.329905,-0.323485250813845,9.97478882912379,-1.31947321303399,-0.07788532,-0.7706065,0.18784106,227.14192,-98.264145,-3.2109418,STD
12144555000000,3.334961,-0.314706622739126,10.0067836827829,-1.34340898138384,-0.08735373,-0.7846564,0.17867808,227.38155,-98.253,-3.1933851,STD
12144560001000,3.339962,-0.301031850642429,10.0295749537451,-1.37075845894166,-0.09468412,-0.7816021,0.172264,227.61153,-98.238815,-3.17243,STD
12144565053000,3.345014,-0.30376801778603,10.0037798135524,-1.35667736888131,-0.09896017,-0.78801614,0.17195857,227.84392,-98.22518,-3.1530674,STD
12144569964000,3.349925,-0.313338489242509,9.95832014783538,-1.32557335288701,-0.08399397,-0.782213,0.18020524,228.06834,-98.2161,-3.1315718,STD
12144574998000,3.354959,-0.32314866096149,9.91172190771735,-1.2936903114463,-0.093767814,-0.7834347,0.17715092,228.31444,-98.19663,-3.1161222,STD
12144580003000,3.359964,-0.332902317984433,9.86539211197029,-1.26199094267182,-0.098043874,-0.79045963,0.1777618,228.55704,-98.183044,-3.0963135,STD
12144585039000,3.365,-0.316974765549429,9.81082192605356,-1.22542016522253,-0.103847094,-0.80481493,0.17898351,228.80315,-98.163795,-3.0755827,STD
12144589990000,3.369951,-0.293631531792044,9.75479850433241,-1.1880710224104,-0.10170906,-0.8222246,0.18753563,229.04846,-98.14662,-3.0520635,STD
12144595063000,3.375024,-0.259348050207772,9.733400396853,-1.17173479415805,-0.1142318,-0.8414669,0.19120082,229.28946,-98.121216,-3.034232,STD
12144600068000,3.380029,-0.221845898047466,9.72506641702165,-1.16340094485786,-0.1020145,-0.87017757,0.1863139,229.53413,-98.10492,-3.016453,STD
12144605003000,3.384964,-0.191410325550652,9.72584933760839,-1.16634008390882,-0.111177474,-0.8848383,0.19211712,229.78821,-98.065765,-2.99,STD
12144610109000,3.39007,-0.168559057387196,9.73854447775066,-1.18411330662028,-0.10415252,-0.8961393,0.19792034,230.04495,-98.03713,-2.9649813,STD
12144615044000,3.395005,-0.146473078463056,9.75081445750039,-1.20129130389428,-0.09407325,-0.8958339,0.19883664,230.30884,-98.00692,-2.9389956,STD
12144620047000,3.400008,-0.124082773993458,9.7632535068799,-1.21870599900306,-0.095294975,-0.90316427,0.20616703,230.5741,-97.97682,-2.909418,STD
12144625563000,3.405524,-0.0921245423750613,9.77811305881776,-1.22257456838545,-0.093462385,-0.8949176,0.20158553,230.84047,-97.94912,-2.8847036,STD
12144630070000,3.410031,-0.0625060069828448,9.79080653102637,-1.21834335207333,-0.08735373,-0.8918633,0.19975294,231.1063,-97.923744,-2.8567848,STD
12144635038000,3.414999,-0.040057671139133,9.79837741983217,-1.21755889259149,-0.082161374,-0.8881981,0.20158553,231.3817,-97.899796,-2.8256316,STD
12144639992000,3.419953,-0.0259228582682854,9.80073326957644,-1.21991469313769,-0.07880162,-0.8671232,0.20158553,231.64668,-97.87982,-2.794014,STD
12144645104000,3.425065,-0.0113372378815731,9.8031642554248,-1.22234562821888,-0.0888809,-0.86193085,0.18692477,231.91225,-97.86002,-2.761454,STD
12144650170000,3.430131,0.00311713474735588,9.80557336620488,-1.22475468868861,-0.09437868,-0.852157,0.1863139,232.16685,-97.84327,-2.7235403,STD
12144656420000,3.436381,0.0170114453696562,9.81408478858701,-1.20724471669101,-0.09010262,-0.8246681,0.18875736,232.42685,-97.82193,-2.6920948,STD
12144660213000,3.440174,0.0240861025036518,9.82115958866491,-1.18955808586036,-0.09896017,-0.820392,0.18753563,232.68619,-97.79845,-2.6616828,STD
12144665051000,3.445012,0.0330543004899529,9.81715628958754,-1.16929952186328,-0.09407325,-0.8017606,0.18967366,232.93951,-97.777756,-2.625294,STD
12144670061000,3.450022,0.0422802976171522,9.79870440323046,-1.15084749100087,-0.095294975,-0.7846564,0.18295415,233.1875,-97.7565,-2.591229,STD
12144674996000,3.454957,0.0561547567074099,9.78933487979916,-1.13688309393924,-0.10629055,-0.77549344,0.183565,233.43561,-97.72702,-2.55375,STD
12144680075000,3.460036,0.0783571936994472,9.79426859623675,-1.12948228744738,-0.106901415,-0.7538077,0.18448131,233.671,-97.70316,-2.5167005,STD
12144685060000,3.465021,0.100148717307501,9.79911100152153,-1.12221845197545,-0.11728613,-0.754724,0.17989981,233.92264,-97.66749,-2.4870636,STD
12144690073000,3.470034,0.122062640646954,9.8039806058731,-1.11491381662525,-0.11453723,-0.743423,0.17715092,234.16058,-97.63766,-2.4550173,STD
12144695071000,3.475032,0.144715144706696,9.8002661860557,-1.11516553521628,-0.118507855,-0.74189585,0.16920967,234.40121,-97.60522,-2.4274514,STD
12144700120000,3.480081,0.168590956228521,9.78594090756468,-1.1247158538416,-0.118202426,-0.7348709,0.16279559,234.633,-97.57737,-2.399192,STD
12144704929000,3.48489,0.19865346633734,9.78533957138669,-1.13377300506205,-0.119729586,-0.72601336,0.16432275,234.86938,-97.54291,-2.365652,STD
12144710078000,3.490039,0.242022844743477,9.80461473438874,-1.14341063688068,-0.12095132,-0.72356987,0.15577064,235.101,-97.51276,-2.33642,STD
12144714943000,3.494904,0.275627238032868,9.81207331509545,-1.14838606301909,-0.112399206,-0.7244862,0.15790866,235.33665,-97.48601,-2.3040266,STD
12144720046000,3.500007,0.297268351975989,9.80005048238536,-1.14598149647707,-0.10995574,-0.7281514,0.15393804,235.56793,-97.46109,-2.2754161,STD
12144724953000,3.504914,0.318078257153119,9.78848943200157,-1.14366928640031,-0.1151481,-0.7296785,0.14538592,235.807,-97.43147,-2.2389026,STD
12144730057000,3.510018,0.339723611957292,9.7764642432592,-1.14126424865184,-0.10751228,-0.73364913,0.14385876,236.04398,-97.408455,-2.2016215,STD
12144734980000,3.514941,0.358451373557515,9.76149381073748,-1.13142097288497,-0.09437868,-0.74464476,0.13836098,236.29245,-97.37777,-2.1659145,STD
12144740062000,3.520023,0.372600796253513,9.73791143957748,-1.10312212749297,-0.09407325,-0.75808376,0.13561209,236.53868,-97.34848,-2.129928,STD
12144745060000,3.525021,0.384766878040244,9.71650487039863,-1.08161432771314,-0.10842858,-0.7687739,0.13713925,236.78563,-97.321175,-2.0890403,STD
12144750061000,3.530022,0.391617957118062,9.7005189349609,-1.07933063627694,-0.096516706,-0.7883216,0.12858713,237.03445,-97.30495,-2.052525,STD
12144755065000,3.535026,0.398473146021362,9.68452340987984,-1.07704557489987,-0.08124508,-0.7806858,0.12644911,237.29646,-97.27525,-2.0222447,STD
12144759993000,3.539954,0.405224219345794,9.66877082242991,-1.07479521869159,-0.082161374,-0.7861836,0.12156218,237.56274,-97.24826,-1.9958262,STD
12144765272000,3.545233,0.414977202842252,9.65750256299017,-1.07396290836891,-0.08155051,-0.7846564,0.1142318,237.82944,-97.22427,-1.9724686,STD
12144770045000,3.550006,0.446742396817234,9.69834386309937,-1.08757654871438,-0.08155051,-0.7611381,0.105374254,238.08664,-97.203125,-1.9497395,STD
12144775269000,3.55523,0.480020467841229,9.73980966970551,-1.10015268318566,-0.06994407,-0.75319684,0.09712757,238.35236,-97.18151,-1.9260353,STD
12144780062000,3.560023,0.494125966128041,9.74216038765685,-1.08604719717286,-0.06047566,-0.73792523,0.0842994,238.60443,-97.16311,-1.9045718,STD
12144785000000,3.564961,0.508658190317542,9.74458222058899,-1.07151498562868,-0.06505715,-0.72112644,0.08277224,238.86148,-97.13845,-1.8731476,STD
12144789997000,3.569958,0.523364047805378,9.74703298996159,-1.05680914093726,-0.06261369,-0.7079928,0.07666359,239.11035,-97.122314,-1.8458582,STD
12144795192000,3.575153,0.539217169016339,9.74736652031629,-1.0405915327633,-0.047036625,-0.6881397,0.06627888,239.3482,-97.111534,-1.8190721,STD
12144800159000,3.58012,0.557344350623541,9.73603703772686,-1.02019844044205,-0.035124753,-0.6597345,0.05589417,239.57576,-97.103264,-1.7929558,STD
12144804999000,3.58496,0.575008042787596,9.72499723588815,-1.00032677407707,-0.040011674,-0.6469063,0.051618114,239.79764,-97.0932,-1.76493,STD
12144810090000,3.590051,0.593587765268423,9.71338491540037,-0.979424572948126,-0.045814894,-0.636827,0.04917465,240.00845,-97.08875,-1.7382064,STD
12144814947000,3.594908,0.611313499326442,9.70230633739818,-0.959483109407898,-0.03573562,-0.6236934,0.04734206,240.2308,-97.070946,-1.705065,STD
12144820040000,3.600001,0.637445333222595,9.71022506964527,-0.948760804993246,-0.035430185,-0.6249151,0.04520403,240.45056,-97.051575,-1.6728108,STD
12144825076000,3.605037,0.663988421978286,9.7198772979937,-0.939108765617652,-0.05131268,-0.6203337,0.03726278,240.6611,-97.03337,-1.6420759,STD
12144830050000,3.610011,0.690204729260019,9.7294106943013,-0.929575555956372,-0.051923547,-0.61941737,0.032070424,240.86859,-97.016426,-1.6079932,STD
12144834941000,3.614902,0.715983571020163,9.73878500900586,-0.920201424783609,-0.051618114,-0.61727935,0.03634648,241.09064,-96.98755,-1.5799818,STD
12144839994000,3.619955,0.751773134847877,9.73567025716068,-0.913459461306072,-0.044898596,-0.61819565,0.03145956,241.30894,-96.96393,-1.5559323,STD
12144845119000,3.62508,0.788940902343089,9.73129748999956,-0.906900449824491,-0.041233405,-0.6218608,0.029321533,241.52391,-96.9417,-1.5297837,STD
12144849998000,3.629959,0.82432461699853,9.72713461566217,-0.900656270894027,-0.034513887,-0.6252206,0.03634648,241.73671,-96.92311,-1.4988339,STD
12144856416000,3.636377,0.870869540273509,9.72165863134215,-0.89244246880841,-0.03756821,-0.623388,0.028710667,241.94492,-96.90619,-1.4724708,STD
12144860106000,3.640067,0.902513081926136,9.71807596611831,-0.869196178073864,-0.0290161,-0.6270532,0.030543262,242.16261,-96.8886,-1.4419316,STD
12144865095000,3.645056,0.949360058252533,9.71287064386099,-0.822349201747467,-0.034208454,-0.6282749,0.025350908,242.37494,-96.8696,-1.4152616,STD
12144870044000,3.650005,0.978341346115812,9.70534025054673,-0.801680801364458,-0.02687807,-0.63224554,0.031154128,242.59985,-96.84999,-1.3775668,STD
12144874983000,3.654944,0.996331196909765,9.69634560692213,-0.797183343362176,-0.023823744,-0.63041294,0.025350908,242.81906,-96.83131,-1.3445265,STD
12144880061000,3.660022,1.0232343591107,9.69677730835406,-0.810020377409826,-0.037873644,-0.6414085,0.027488936,243.0384,-96.80605,-1.3042313,STD
12144885055000,3.665016,1.05793442894901,9.70669128866086,-0.839763265575249,-0.022907447,-0.6246097,0.0290161,243.24547,-96.79275,-1.2650878,STD
12144890055000,3.670016,1.08353164163539,9.72454355204424,-0.849603489591151,-0.017715093,-0.6102544,0.028099801,243.46848,-96.76826,-1.2323294,STD
12144895103000,3.675064,1.10262849583251,9.74841461979064,-0.844829276041872,-0.017104227,-0.59131753,0.027794369,243.68167,-96.74913,-1.1983467,STD
12144900116000,3.680077,1.121222234204,9.76650063717826,-0.845337158551001,-0.016798794,-0.5748242,0.028405234,243.89142,-96.738045,-1.1590339,STD
12144905039000,3.685,1.13919996019066,9.77998421325071,-0.849831590047665,-0.013133603,-0.5647449,0.03359759,244.09436,-96.73008,-1.118347,STD
12144910071000,3.690032,1.15808824978754,9.80745766359773,-0.867860808179887,-0.010079277,-0.54061574,0.027183503,244.28986,-96.71895,-1.0751536,STD
12144915100000,3.695061,1.17757908464185,9.85131182577904,-0.901969705574666,-0.0143553335,-0.5155703,0.03481932,244.47968,-96.708145,-1.026629,STD
12144920003000,3.699964,1.18949964785065,9.89146788939889,-0.923324545701298,-0.019547688,-0.50488013,0.03604105,244.66425,-96.70129,-0.9794318,STD
12144924990000,3.704951,1.19371533340101,9.92940897131256,-0.931755916802013,-0.003970624,-0.4792238,0.04520403,244.83511,-96.700485,-0.92718035,STD
12144929961000,3.709922,1.19503128281879,9.95780933959732,-0.942666289765101,0.00061086525,-0.45020768,0.03145956,245.01141,-96.696815,-0.8818001,STD
12144935001000,3.714962,1.18423328013423,9.9470111114094,-0.964262323322148,-0.003970624,-0.43310347,0.03145956,245.18182,-96.695984,-0.8303921,STD
12144939996000,3.719957,1.17614968754098,9.92274887540984,-0.973239075081967,0.0012217305,-0.41172317,0.042760566,245.34079,-96.7018,-0.7787732,STD
12144945067000,3.725028,1.17172674102004,9.87851941020037,-0.964393182040073,-0.0012217305,-0.39187005,0.03481932,245.49225,-96.70639,-0.7330393,STD
12144950661000,3.730622,1.16521675045266,9.83076523406262,-0.94664262762731,-0.002443461,-0.38026363,0.035124753,245.63962,-96.7166,-0.683245,STD
12144954962000,3.734923,1.15744797794229,9.79580602140702,-0.919452049577518,-0.006414085,-0.35796702,0.029932396,245.77573,-96.7271,-0.637251,STD
12144960047000,3.740008,1.14905177975328,9.75744584491874,-0.89064306,-0.014966198,-0.3368922,0.03940081,245.92633,-96.72363,-0.5931561,STD
12144964975000,3.744936,1.14751159078389,9.74512439749364,-0.89064306,-0.016798794,-0.3304781,0.035430185,246.07182,-96.72299,-0.5548078,STD
12144970056000,3.750017,1.14592358344756,9.73242040513021,-0.89064306,-0.025045475,-0.3210097,0.033292156,246.20763,-96.71465,-0.5173596,STD
12144974978000,3.754939,1.14438526970824,9.7201139594674,-0.89064306,-0.01985312,-0.30818152,0.042455133,246.3388,-96.71091,-0.47798902,STD
12144980174000,3.760135,1.14276132046211,9.70712243332681,-0.89064306,-0.018325957,-0.29810223,0.038179077,246.47382,-96.69889,-0.44252035,STD
12144985059000,3.76502,1.1412345706416,9.69490849853143,-0.89064306,-0.016798794,-0.28496864,0.03268129,246.60236,-96.68987,-0.40490726,STD
12144990373000,3.770334,1.13910905126344,9.68301478892485,-0.89064306,-0.0143553335,-0.27183503,0.028099801,246.7258,-96.68317,-0.3685151,STD
12144994979000,3.77494,1.1275734386192,9.70176009924488,-0.89064306,-0.015882496,-0.27152961,0.03940081,246.84749,-96.67707,-0.329736,STD
12145004933000,3.784894,1.10264389275277,9.7422704811219,-0.89064306,-0.009162978,-0.24373524,0.02443461,247.07068,-96.66997,-0.25513402,STD
12145009906000,3.789867,1.09018913772024,9.76250939302409,-0.89064306,-0.012217305,-0.23273966,0.023518313,247.17542,-96.666,-0.2173559,STD
12145014944000,3.794905,1.07757159180151,9.78301283926645,-0.89064306,-0.010995574,-0.21533,0.03573562,247.27863,-96.65971,-0.18215974,STD
12145020168000,3.800129,1.0644882135007,9.80427326069759,-0.89064306,0.0021380284,-0.19608775,0.04062254,247.3761,-96.65743,-0.14940542,STD
12145024920000,3.804881,1.04278412649087,9.81069837079107,-0.874449889647059,0.012217305,-0.19211712,0.03359759,247.47128,-96.65592,-0.11715319,STD
12145029874000,3.809835,1.01872552290061,9.81551018194726,-0.855203016823529,0.009468411,-0.17348573,0.03145956,247.55562,-96.65553,-0.0817147,STD
12145034941000,3.814902,0.982391035494223,9.83669602695764,-0.848241994608472,0.009468411,-0.14966199,0.027488936,247.64355,-96.65679,-0.057921715,STD
12145039903000,3.819864,0.944851695028143,9.86015809943715,-0.84354958011257,0.004276057,-0.14049901,0.027183503,247.72891,-96.65669,-0.033869207,STD
12145044986000,3.824947,0.920889281919148,9.86215120820083,-0.829040743895153,0.009773844,-0.11209377,0.023518313,247.80188,-96.6549,-0.016911548,STD
12145049899000,3.82986,0.900485619432398,9.85988408856124,-0.813171237833671,0.009162978,-0.09437868,0.01985312,247.87387,-96.65077,-0.00019636794,STD
12145054936000,3.834897,0.879566985614821,9.85755974872314,-0.796901198747229,0.0061086523,-0.09437868,0.012217305,247.94241,-96.642784,0.012854414,STD
12145060058000,3.840019,0.858295347255951,9.85519618536186,-0.780356600732389,0.0027488936,-0.08368854,0.014660766,248.00192,-96.6354,0.02848701,STD
12145065052000,3.845013,0.845481334198089,9.84425244444444,-0.799712030306687,0.004581489,-0.07452556,0.010995574,248.06477,-96.626144,0.039647542,STD
12145069981000,3.849942,0.835988313142283,9.83001311111111,-0.832937604002011,0.00580322,-0.06169739,0.014049901,248.12265,-96.61668,0.053794578,STD
12145074987000,3.854948,0.830913829180098,9.8269382067274,-0.846161549124037,0.01160644,-0.054367006,0.008552114,248.1801,-96.60237,0.049020264,STD
12145080072000,3.860033,0.827663712071278,9.82856329582541,-0.851036714606067,-0.004581489,-0.049785517,0.008857546,248.23386,-96.58303,0.04756544,STD
12145085003000,3.864964,0.824512025254447,9.8301391688524,-0.855764234958454,-0.0018325958,-0.04428773,0.00580322,248.28862,-96.575966,0.04165733,STD
12145090057000,3.870018,0.821281722035572,9.83175435081924,-0.860609679667634,-0.0036651916,-0.03940081,0.0067195175,248.34132,-96.56374,0.037656546,STD
12145095125000,3.875086,0.818042470608336,9.83337400697434,-0.865468546661327,-0.0015271631,-0.027794369,0.0076358155,248.39282,-96.55227,0.0318338,STD
12145100073000,3.880034,0.814879918109921,9.83495531294424,-0.870212365502052,-0.005192355,-0.009773844,0.010995574,248.44019,-96.53939,0.027918397,STD
12145105001000,3.884962,0.807524659184136,9.84513672049103,-0.86823744789424,-0.007941248,-0.014049901,0.016493361,248.49661,-96.52353,0.023031393,STD
12145110116000,3.890077,0.798273420954674,9.85901339187913,-0.863611826364495,-0.013133603,-0.016187929,0.016798794,248.54622,-96.50676,0.01878985,STD
12145115060000,3.895021,0.797803228315044,9.87289566181165,-0.856056077254589,-0.018020526,-0.010995574,0.008552114,248.59464,-96.49206,0.013481085,STD
12145120043000,3.900004,0.802563917118915,9.8871775442937,-0.846534689704709,-0.0012217305,0.0012217305,0.010079277,248.641,-96.48292,0.011664256,STD
12145124985000,3.904946,0.790432993643273,9.88442986783141,-0.831543989256737,-0.002443461,0.008857546,0.011301007,248.68839,-96.46478,0.0053343778,STD
12145130054000,3.910015,0.766474420931793,9.87005494235515,-0.812377135090317,-0.002443461,0.019242255,0.015577064,248.73071,-96.45254,0.001342132,STD
12145135039000,3.915,0.729109010837634,9.84488980289798,-0.809943497832473,-0.0009162979,0.016493361,0.013133603,248.77484,-96.439445,-0.007801783,STD
12145140049000,3.92001,0.681491138666137,9.81155709348948,-0.819467072266773,-0.005192355,0.022907447,0.010079277,248.81268,-96.42538,-0.01472418,STD
12145145121000,3.925082,0.655328564183522,9.78613084262457,-0.837283139555994,-0.0061086523,0.03634648,0.017715093,248.84653,-96.41012,-0.021576568,STD
12145150051000,3.930012,0.646011569511594,9.76749704785397,-0.860575524084854,-0.030848695,0.03390302,0.01863139,248.88196,-96.387505,-0.030880988,STD
12145155036000,3.934997,0.619694037703513,9.76364431571932,-0.869050293078168,-0.019242255,0.041233405,0.0061086523,248.9047,-96.38149,-0.048132345,STD
12145160067000,3.940028,0.578407935904027,9.77281919661049,-0.864462948433781,-0.006414085,0.044898596,0.008246681,248.92905,-96.36935,-0.060438644,STD
12145165048000,3.945009,0.550409509231957,9.77792,-0.860903543110768,-0.006414085,0.04062254,0.0030543262,248.96208,-96.35824,-0.08577012,STD
12145170044000,3.950005,0.538868175588576,9.77792,-0.858595279274411,-0.008857546,0.0571159,0.005192355,248.98781,-96.35056,-0.1066159,STD
12145175152000,3.955113,0.527068109085295,9.77792,-0.856235268930915,-0.003970624,0.0580322,0.0018325958,249.0163,-96.34373,-0.1348861,STD
12145180051000,3.960012,0.515750856579506,9.77792,-0.853971821265921,-0.006414085,0.07238753,0.004886922,249.03596,-96.33452,-0.15865013,STD
12145184997000,3.964958,0.499939416035061,9.78000124001031,-0.853723312657901,0.0030543262,0.0870483,-0.0021380284,249.05801,-96.32709,-0.18349504,STD
12145190049000,3.97001,0.472499239045115,9.78748481618974,-0.858712432905388,0.0018325958,0.09621128,-0.00580322,249.07722,-96.31633,-0.2052715,STD
12145194992000,3.974953,0.445651100711524,9.79480692962104,-0.863593909822119,0.00030543262,0.095294975,0.00030543262,249.091,-96.30924,-0.22752616,STD
12145200135000,3.980096,0.417716652916731,9.80242530497551,-0.868672897437484,0.004886922,0.098043874,-0.0021380284,249.10043,-96.30394,-0.25185037,STD
12145204934000,3.984895,0.400396311332974,9.80665,-0.874233755866163,-0.002443461,0.105068825,-0.004581489,249.1088,-96.29499,-0.27340832,STD
12145210143000,3.990104,0.395501486892018,9.80665,-0.88157600019428,0.004886922,0.108123146,-0.0143553335,249.11694,-96.29188,-0.29688063,STD
12145214939000,3.9949,0.390994752774371,9.80665,-0.888336108429574,-0.00061086525,0.11301007,-0.015882496,249.12381,-96.2801,-0.3192857,STD
12145220042000,4.000003,0.386199535050778,9.80665,-0.895528942525634,0.0036651916,0.110872045,-0.0106901415,249.13147,-96.27354,-0.34170443,STD
12145224962000,4.004923,0.387557338313395,9.80515494371445,-0.904704933630123,0.017715093,0.11453723,-0.010995574,249.13226,-96.27033,-0.36300817,STD
12145230062000,4.010023,0.401925365573642,9.80036550460875,-0.919072945887429,0.01282817,0.12980886,-0.0143553335,249.13028,-96.26306,-0.3826044,STD
12145234972000,4.014933,0.413153614922134,9.80247684125389,-0.926248387208882,0.008857546,0.124311075,-0.005497787,249.13435,-96.26199,-0.39930123,STD
12145240161000,4.020122,0.418146493348739,9.82244873033256,-0.916262656423189,0.009773844,0.122478485,-0.014049901,249.13235,-96.26127,-0.42054874,STD
12145245070000,4.025031,0.423550293428126,9.83682814877323,-0.913414648291303,0.01038471,0.12308934,-0.014660766,249.13254,-96.25936,-0.42844632,STD
12145250052000,4.030013,0.430532148082045,9.84148256787474,-0.925051070284377,0.006414085,0.11484267,-0.0070249503,249.1357,-96.25641,-0.43628597,STD
12145255537000,4.035498,0.438218914998293,9.84660691327252,-0.937862345802644,0.019242255,0.11942416,-0.017715093,249.13354,-96.25707,-0.44835532,STD
