timestamp,rel_time,acc_x,acc_y,acc_z,gyro_x,gyro_y,gyro_z,azimuth,pitch,roll,label
11912488912000,0,4.60936250019241,8.60208534776025,-2.10380860519369,-0.16982053,-0.21868975,0.0061086523,343.15454,-99.79455,-8.433936,STD
11912493944000,0.005032,4.61827377939317,8.59510084454418,-2.1172959440359,-0.16768251,-0.20341812,0.01160644,343.10318,-99.37741,-7.9471507,STD
11912498962000,0.01005,4.62716026568677,8.58813577357076,-2.13074575848547,-0.17470746,-0.20189096,0.013133603,343.05273,-98.972496,-7.469746,STD
11912503931000,0.015019,4.63595997680532,8.58123871544663,-2.14406423756079,-0.16737708,-0.19517145,0.0125227375,342.99637,-98.5833,-6.9981923,STD
11912508925000,0.020013,4.64480396097237,8.57430695688918,-2.15744972448011,-0.1600467,-0.18448131,0.00580322,342.9381,-98.20865,-6.5350795,STD
11912513926000,0.025014,4.65366034159299,8.56736548221042,-2.17085397359575,-0.14782938,-0.17654006,0.0125227375,342.87888,-97.84865,-6.0754137,STD
11912518924000,0.030012,4.6625114094478,8.56042817158365,-2.18425018177011,-0.14385876,-0.16982053,0.005497787,342.81622,-97.50929,-5.62845,STD
11912523909000,0.034997,4.67133945531738,8.55350890518219,-2.19761154586559,-0.12950343,-0.160963,0.0012217305,342.75076,-97.18947,-5.185604,STD
11912528933000,0.040021,4.68023656714262,8.54653550610478,-2.21107744219772,-0.1282817,-0.15332718,0.002443461,342.68353,-96.88656,-4.750013,STD
11912533924000,0.045012,4.68907523854385,8.53960791159934,-2.22445488817576,-0.12186762,-0.14049901,0.0012217305,342.61194,-96.608475,-4.322854,STD
11912538912000,0.05,4.69790859717926,8.53268448114589,-2.23782429321252,-0.113926366,-0.1337795,-0.009162978,342.53958,-96.3531,-3.904723,STD
11912544051000,0.055139,4.70700936502756,8.52555146007527,-2.2515984256271,-0.095294975,-0.12980886,-0.0012217305,342.4646,-96.12062,-3.488174,STD
11912549073000,0.060161,4.71590293500892,8.51858083703252,-2.26505896133171,-0.06627888,-0.112399206,-0.004276057,342.3832,-95.91932,-3.0838063,STD
11912553924000,0.065012,4.72449367733858,8.5118475649536,-2.27806116338329,-0.044593163,-0.102319926,-0.005497787,342.30286,-95.74379,-2.6832755,STD
11912558974000,0.070062,4.73343683313426,8.50483807742555,-2.2915967478732,-0.023518313,-0.08979719,-0.0021380284,342.21683,-95.600914,-2.2882454,STD
11912563960000,0.075048,4.74226664992578,8.49791742300676,-2.30496079228243,-0.004581489,-0.08124508,0.0067195175,342.1291,-95.48929,-1.8981937,STD
11912568955000,0.080043,4.75111240501477,8.49098427643199,-2.31834895951552,0.017104227,-0.06811147,0.0027488936,342.03622,-95.41201,-1.5166833,STD
11912573904000,0.084992,4.75987669769453,8.4841149786545,-2.33161383231562,0.030848695,-0.053450707,0.0070249503,341.94086,-95.36346,-1.1362689,STD
11912578943000,0.090031,4.76880037334886,8.4771207593171,-2.34511993335416,0.028099801,-0.054367006,0.011301007,341.84613,-95.343254,-0.7631835,STD
11912583925000,0.095013,4.77762310645263,8.47020565696765,-2.35847325650835,0.028099801,-0.02687807,0.014049901,341.73923,-95.35326,-0.39424503,STD
11912588925000,0.100013,4.78647771615131,8.46326557030621,-2.37187482531024,0.021991149,-0.030543262,0.01038471,341.64145,-95.38507,-0.032782353,STD
11912593961000,0.105049,4.79539607903983,8.45627551502082,-2.38537288540749,0.02076942,-0.0290161,0.016798794,341.53476,-95.44112,0.32727203,STD
11912598940000,0.110028,4.80421349937778,8.44936457672336,-2.39871816762041,0.019242255,-0.016187929,0.016187929,341.42566,-95.51626,0.67863953,STD
11912603922000,0.11501,4.80282180065521,8.45207109540004,-2.40407454802763,0.0106901415,-0.017715093,0.020158553,341.32053,-95.60862,1.0269858,STD
11912608929000,0.120017,4.79515885847054,8.46069189910658,-2.40455347878856,0.020158553,-0.018325957,0.030848695,341.21173,-95.723404,1.3717278,STD
11912613933000,0.125021,4.78750050762331,8.46930753756224,-2.40503212259278,0.011301007,-0.025045475,0.027794369,341.14548,-95.91088,1.765031,STD
11912618969000,0.130057,4.77979318251008,8.47797827202721,-2.40551382726864,0.013744468,-0.017715093,0.032986723,341.07684,-96.12273,2.1580575,STD
11912623913000,0.135001,4.77222665841161,8.48649060546541,-2.40598673193851,0.0070249503,-0.008857546,0.024740042,341.01,-96.34237,2.5402293,STD
11912628933000,0.140021,4.76454382043138,8.49513379192573,-2.40646690617855,-0.0015271631,-0.007941248,0.028099801,340.94464,-96.57593,2.9211907,STD
11912633922000,0.14501,4.75690842627134,8.50372360412703,-2.40694411519919,0.004581489,0.0012217305,0.032070424,340.87488,-96.82029,3.2945812,STD
11912638910000,0.149998,4.74927456255712,8.51231169457803,-2.40742122856758,-0.007330383,0.014049901,0.034513887,340.80447,-97.06624,3.662805,STD
11912643938000,0.155026,4.74157948101038,8.52096865504068,-2.40790216802553,-0.021685716,0.02565634,0.040317107,340.7326,-97.32065,4.027568,STD
11912648923000,0.160011,4.7339502086336,8.52955158024081,-2.4083789944372,-0.026267206,0.043676864,0.035124753,340.65555,-97.578255,4.3847384,STD
11912653920000,0.165008,4.72630257090706,8.53815516644443,-2.40885696867575,-0.048258353,0.0580322,0.030543262,340.57693,-97.83347,4.738258,STD
11912658928000,0.170016,4.71863809827658,8.54677769190126,-2.40933599508892,-0.059253927,0.064446285,0.029626964,340.4959,-98.09299,5.08602,STD
11912663926000,0.175014,4.71098893010422,8.55538299985517,-2.4098140649797,-0.054367006,0.06536258,0.031154128,340.41278,-98.352974,5.427886,STD
11912668968000,0.180056,4.70327242231611,8.56406406482189,-2.410296343569,-0.06963864,0.062308256,0.01863139,340.32898,-98.60493,5.7600703,STD
11912673956000,0.185044,4.69563855860188,8.5726521552729,-2.41077345693739,-0.06963864,0.058948494,0.019242255,340.2459,-98.864815,6.091003,STD
11912678957000,0.190045,4.68798479909209,8.58126262847768,-2.41125181378489,-0.069027774,0.054367006,0.014049901,340.16388,-99.11832,6.411256,STD
11912683953000,0.195041,4.68033869181137,8.58986449293102,-2.41172969237119,-0.07086037,0.05467244,0.01282817,340.08194,-99.37198,6.7275934,STD
11912688923000,0.200011,4.67273237612177,8.59842159187679,-2.41220508399928,-0.067500606,0.062308256,0.01740966,339.99957,-99.62624,7.0390215,STD
11912693968000,0.205056,4.66501127699622,8.60710782209438,-2.4126876495453,-0.053450707,0.061391957,0.014660766,339.9196,-99.87927,7.3426356,STD
11912698971000,0.210059,4.6573544565948,8.61572173879975,-2.41316619769727,-0.05009095,0.05222898,0.015271631,339.8404,-100.13109,7.6434226,STD
11912703918000,0.215006,4.6497833411589,8.62423923748883,-2.41363938932386,-0.04642576,0.032375857,0.01038471,339.76453,-100.381935,7.9364862,STD
11912708941000,0.220029,4.64209591184123,8.63288758920001,-2.41411985052062,-0.0290161,0.027794369,0.007330383,339.68723,-100.63425,8.225527,STD
11912713945000,0.225033,4.634437560994,8.64150322765567,-2.41459849432484,-0.035430185,0.006414085,0.00061086525,339.6204,-100.878555,8.506063,STD
11912718924000,0.230012,4.62681747129209,8.65007582235406,-2.41507474682308,-0.026267206,-0.0018325958,0.01038471,339.5517,-101.12906,8.785949,STD
11912723911000,0.234999,4.61918513802368,8.65866219105478,-2.41555176453923,-0.01740966,-0.0027488936,0.009468411,339.48657,-101.371605,9.055749,STD
11912728929000,0.240017,4.61150536093507,8.66730193401451,-2.41603174747479,-0.00061086525,-0.02107485,0.0018325958,339.42902,-101.6147,9.320882,STD
11912734625000,0.245713,4.60278794158539,8.67710902367148,-2.41657658262843,0.0027488936,-0.03726278,0.0012217305,339.3714,-101.85524,9.583216,STD
11912738915000,0.250003,4.5962223290485,8.68449533241943,-2.41698693073397,0.00580322,-0.039095376,0.006414085,339.31485,-102.09481,9.840422,STD
11912743883000,0.254971,4.58861907425053,8.69304898786462,-2.41746213105758,0.009468411,-0.034208454,0.008552114,339.26086,-102.330765,10.091851,STD
11912748931000,0.260019,4.58089338378754,8.70174038333308,-2.41794498356031,0.02107485,-0.03023783,0.008857546,339.20773,-102.5658,10.339772,STD
11912753919000,0.265007,4.57325952007331,8.71032847378409,-2.4184220969287,0.028710667,-0.014049901,0.015882496,339.1499,-102.79933,10.586511,STD
11912758913000,0.270001,4.56561647368421,8.71892689473684,-2.41889978421053,0.025961773,-0.022602014,0.016493361,339.09784,-103.02802,10.826522,STD
11912763966000,0.275054,4.55788313099215,8.72762689895676,-2.41938311497446,0.036651913,-0.018936822,0.018020526,339.03778,-103.25831,11.065604,STD
11912768955000,0.280043,4.55024773683212,8.73621671115805,-2.41986032399509,0.03726278,-0.013439035,0.023823744,338.9798,-103.4841,11.30168,STD
11912773952000,0.28504,4.54260009910558,8.74482029736168,-2.42033829823363,0.042760566,-0.013133603,0.030848695,338.92233,-103.70932,11.534384,STD
11912778959000,0.290047,4.53493715692091,8.75344110106821,-2.42081722899456,0.046731193,-0.009162978,0.030848695,338.86206,-103.93043,11.763023,STD
11912783963000,0.295051,4.52727880607368,8.76205673952387,-2.42129587279878,0.03359759,-0.002443461,0.03481932,338.8013,-104.14875,11.990864,STD
11912788970000,0.300058,4.51961586388901,8.77067754323041,-2.42177480355971,0.021991149,-0.00030543262,0.038789943,338.74063,-104.36426,12.214717,STD
11912793972000,0.30506,4.51196057393341,8.77928973818548,-2.42225325605945,0.010079277,0.0061086523,0.038179077,338.6767,-104.574036,12.434885,STD
11912798957000,0.310045,4.50433130155662,8.78787266338562,-2.42273008247112,0.016187929,0.011301007,0.03940081,338.61267,-104.782684,12.65285,STD
11912804662000,0.31575,4.50058291434949,8.79030478877218,-2.41759919458657,-0.00030543262,0.02443461,0.038789943,338.54434,-104.98225,12.866852,STD
11912808962000,0.32005,4.49996527775134,8.78886362309457,-2.41121692537484,0.00030543262,0.02565634,0.03940081,338.47803,-105.18243,13.077523,STD
11912813934000,0.325022,4.49925111748016,8.78719723338549,-2.40383724106769,-0.009773844,0.029626964,0.039095376,338.44608,-105.358696,13.267318,STD
11912818958000,0.330046,4.49852948811525,8.78551341562636,-2.39638037583054,-0.024740042,0.039095376,0.038789943,338.4119,-105.53136,13.453979,STD
11912823910000,0.334998,4.49781820057244,8.78385372901345,-2.38903037649647,-0.02443461,0.04153884,0.03359759,338.37814,-105.70038,13.635546,STD
11912828910000,0.339998,4.49710001848156,8.78217795496973,-2.38160913322701,-0.027183503,0.041233405,0.035430185,338.34247,-105.865555,13.815836,STD
11912833923000,0.345011,4.49637996911724,8.78049782391349,-2.37416859472505,-0.0421497,0.03756821,0.03145956,338.30643,-106.02346,13.989634,STD
11912838914000,0.350002,4.49566307975413,8.77882506626304,-2.36676070969348,-0.045814894,0.042455133,0.038179077,338.26825,-106.18286,14.164023,STD
11912843974000,0.355062,4.49493627947815,8.77712918293079,-2.35925041150479,-0.040011674,0.043982297,0.032070424,338.23126,-106.33456,14.330169,STD
11912848979000,0.360067,4.49421737920518,8.77545173311302,-2.35182174699207,-0.043066,0.030848695,0.029932396,338.1974,-106.48455,14.495781,STD
11912853932000,0.36502,4.49350594802596,8.77379171134531,-2.34447026340934,-0.04062254,0.034208454,0.02107485,338.15753,-106.63017,14.655382,STD
11912858936000,0.370024,4.4927871913894,8.77211459668235,-2.33704308314527,-0.03756821,0.02565634,0.016493361,338.12488,-106.773384,14.81158,STD
11912863934000,0.375022,4.49206929657136,8.77043949294824,-2.32962480837312,-0.026572637,0.026572637,0.010995574,338.08792,-106.91295,14.962607,STD
11912868923000,0.380011,4.49135269448108,8.76876740560741,-2.32221989183886,-0.021685716,0.021991149,0.013439035,338.05505,-107.05045,15.111206,STD
11912874439000,0.385527,4.49056039599842,8.76691869168237,-2.31403277626399,-0.022602014,0.019547688,0.01282817,338.02075,-107.18397,15.254757,STD
11912878910000,0.389998,4.48991819757275,8.76542021453247,-2.30739670053244,-0.015577064,0.016187929,0.010995574,337.98795,-107.31698,15.395732,STD
11912883924000,0.395012,4.48919800457202,8.76373974832143,-2.29995467778183,-0.015882496,0.025961773,0.007330383,337.95172,-107.445854,15.533797,STD
11912888947000,0.400035,4.48847651884352,8.7620562657171,-2.29249929679334,-0.023823744,0.025350908,0.00030543262,337.91913,-107.5709,15.667252,STD
11912893984000,0.405072,4.48775302220517,8.76036809094545,-2.28502313632369,-0.009162978,0.03268129,0.003970624,337.8815,-107.698235,15.800897,STD
11912898963000,0.410051,4.48703785647907,8.75869935515271,-2.27763306227596,-0.016798794,0.029932396,0.0125227375,337.8468,-107.81892,15.931075,STD
11912903960000,0.415048,4.48632010529744,8.75702458657341,-2.27021627175247,-0.02687807,0.03573562,0.01038471,337.807,-107.93708,16.0575,STD
11912908976000,0.420064,4.48559962502387,8.75534345005275,-2.26277128050455,-0.014966198,0.03634648,0.01038471,337.76993,-108.05753,16.184233,STD
11912913928000,0.425016,4.48488833748106,8.75368376343984,-2.25542128117048,-0.024129177,0.039095376,0.014966198,337.7305,-108.17254,16.309631,STD
11912918957000,0.430045,4.48416598993406,8.75199826990666,-2.24795699469006,-0.025961773,0.034513887,0.011301007,337.69263,-108.28566,16.430119,STD
11912923975000,0.435063,4.48344522238765,8.75031646307638,-2.24050903494483,-0.043982297,0.01985312,0.004581489,337.65695,-108.39391,16.548454,STD
11912928963000,0.440051,4.48272876393379,8.74864471089036,-2.23310560265922,-0.037873644,0.011911872,0.0125227375,337.62103,-108.50572,16.667776,STD
11912933961000,0.445049,4.48201086911574,8.74696960715625,-2.22568732788707,-0.06383542,-0.0021380284,0.013439035,337.59058,-108.60589,16.780216,STD
11912938966000,0.450054,4.48129196884277,8.74529215733848,-2.21825866337435,-0.04550946,-0.005497787,0.014966198,337.55957,-108.71247,16.893047,STD
11912944272000,0.45536,4.48052983400793,8.74351382592328,-2.2103832400168,-0.071776666,-0.015577064,0.018020526,337.5347,-108.80927,17.00362,STD
11912949008000,0.460096,4.47984957193145,8.74192653274906,-2.20335383839197,-0.080634214,-0.025350908,0.018325957,337.51053,-108.90821,17.11165,STD
11912953961000,0.465049,4.47913814075222,8.74026651098135,-2.19600235480925,-0.076052725,-0.029932396,0.0143553335,337.48755,-109.003494,17.217083,STD
11912958939000,0.470027,4.47842311866254,8.73859811034341,-2.18861376501017,-0.080634214,-0.022296581,0.0125227375,337.4638,-109.09554,17.321299,STD
11912963930000,0.475018,4.47770622929942,8.73692535269297,-2.1812058799786,-0.09193522,-0.01740966,0.008246681,337.44177,-109.183975,17.421452,STD
11912968931000,0.480019,4.47698790357212,8.73524924349443,-2.17378315246049,-0.08582657,-0.025350908,0.008552114,337.42123,-109.27302,17.520267,STD
11912973912000,0.485,4.47627245057319,8.73357983739207,-2.16639010991546,-0.086437434,-0.014660766,0.007330383,337.3933,-109.35687,17.61656,STD
11912978927000,0.490015,4.47555211393604,8.73189903602622,-2.15894660291619,-0.081855945,-0.0012217305,0.0067195175,337.36685,-109.44076,17.711096,STD
11912983925000,0.495013,4.47483421911799,8.73022393229211,-2.15152832814404,-0.070249505,0.004581489,0.0036651916,337.3392,-109.52293,17.802956,STD
11912988908000,0.499996,4.47411847884622,8.72855385588013,-2.1441323171017,-0.061391957,0.004581489,0.005192355,337.30942,-109.60486,17.89453,STD
11912993934000,0.505022,4.47339656220847,8.72686936781138,-2.13667248336725,-0.06169739,-0.00030543262,-0.0061086523,337.27863,-109.68144,17.979961,STD
11912998941000,0.510029,4.47267737466266,8.72519124768399,-2.12924085035721,-0.051923547,0.015577064,-0.009468411,337.24203,-109.7612,18.067276,STD
11913003922000,0.51501,4.47209769363793,8.72514851236791,-2.11588850457695,-0.038789943,0.028710667,-0.0021380284,337.20764,-109.839745,18.152555,STD
11913008977000,0.520065,4.47161395876496,8.72635784323649,-2.0977485238695,-0.0421497,0.02565634,-0.011301007,337.17252,-109.910934,18.230694,STD
11913013936000,0.525024,4.47113941054833,8.72754420758412,-2.07995304131198,-0.019547688,0.03481932,-0.010995574,337.17233,-110.0029,18.33853,STD
11913018924000,0.530012,4.47066208719592,8.72873750973496,-2.06205349160501,-0.019547688,0.027183503,-0.0076358155,337.17722,-110.08891,18.441835,STD
11913023909000,0.534997,4.47018505092653,8.72993009418201,-2.04416470746521,-0.02565634,0.028405234,-0.013439035,337.17575,-110.172935,18.54138,STD
11913028930000,0.540018,4.46970456966101,8.73113129107442,-2.0261467365192,-0.016187929,0.023518313,-0.019547688,337.17795,-110.25795,18.639284,STD
11913033926000,0.545014,4.46922648075391,8.73232650710199,-2.00821847863306,-0.0125227375,0.020158553,-0.0061086523,337.1794,-110.34388,18.739332,STD
11913038920000,0.550008,4.46874858323549,8.73352124466039,-1.99029739779171,-0.018325957,0.015271631,-0.005497787,337.18146,-110.42339,18.831957,STD
11913043934000,0.555022,4.46826877183033,8.73472076691064,-1.97230454650246,-0.014966198,0.009162978,-0.005192355,337.18494,-110.50631,18.926283,STD
11913048925000,0.560013,4.46779116139492,8.73591478676526,-1.9543942312283,-0.017104227,0.0125227375,-0.003970624,337.18655,-110.586975,19.019426,STD
11913053914000,0.565002,4.46731374234818,8.73710832815068,-1.93649109299893,-0.03145956,0.0030543262,-0.0070249503,337.19315,-110.664215,19.108915,STD
11913059862000,0.57095,4.46674455243237,8.73853129551098,-1.91514656179261,-0.026267206,0.002443461,-0.005192355,337.19586,-110.74353,19.198881,STD
11913063936000,0.575024,4.46635469370388,8.73950593724364,-1.90052692155479,-0.034208454,0.002443461,-0.0036651916,337.20056,-110.81769,19.285841,STD
11913068924000,0.580012,4.46587737035148,8.74069923939447,-1.88262737184782,-0.04642576,0.004581489,0.00030543262,337.20453,-110.89176,19.372408,STD
11913073914000,0.585002,4.4653998556104,8.74189302001449,-1.86472064509605,-0.048258353,0.009162978,0.00030543262,337.205427302697,-110.92817354046,19.4154226973027,STD
11913078934000,0.590022,4.46491947003922,8.7430939776723,-1.84670626267243,-0.058337633,0.01282817,0.0067195175,337.20633,-110.964806,19.458696,STD
11913083920000,0.595008,4.46444233807549,8.74428680135395,-1.82881389001024,-0.055283304,0.01160644,-0.0015271631,337.2094,-111.034035,19.540031,STD
11913088913000,0.600001,4.4639645362514,8.74548129967775,-1.81089639769129,-0.058337633,0.018936822,-0.0018325958,337.20764,-111.10398,19.62446,STD
11913093935000,0.605023,4.46348395929155,8.74668273580475,-1.79287483822288,-0.06566802,0.030543262,0.0015271631,337.20435,-111.17143,19.706152,STD
11913098927000,0.610015,4.4630062531618,8.74787699489396,-1.77496093442632,-0.06383542,0.03604105,-0.0027488936,337.2,-111.23624,19.784103,STD
11913103919000,0.615007,4.46252854703205,8.74907125398316,-1.75704703062976,-0.052534413,0.040317107,-0.002443461,337.19257,-111.30228,19.863203,STD
11913108924000,0.620012,4.46204959687592,8.75026862312208,-1.73908647604207,-0.05222898,0.042760566,-0.002443461,337.187050513972,-111.333578732535,19.9018443972056,STD
11913113939000,0.625027,4.46156968977642,8.75146838460693,-1.72109003623042,-0.05955936,0.049785517,-0.00030543262,337.18152,-111.36494,19.940563,STD
11913118925000,0.630013,4.46109255781269,8.75266120828858,-1.70319766356823,-0.057726767,0.047647487,0.0009162979,337.1724,-111.42838,20.016031,STD
11913123911000,0.634999,4.46061542584897,8.75385403197022,-1.68530529090605,-0.05589417,0.056505036,0.0018325958,337.15698,-111.49056,20.09139,STD
11913129650000,0.640738,4.46006623604956,8.75522699930054,-1.66471076088032,-0.05222898,0.05955936,0.0021380284,337.1438,-111.552216,20.165213,STD
11913133926000,0.645014,4.45965704706502,8.75624996642102,-1.64936623911868,-0.040011674,0.055283304,0.008552114,337.1303,-111.61575,20.23972,STD
11913138914000,0.650002,4.45917972371262,8.75744326857185,-1.63146668941171,-0.035430185,0.04428773,0.008246681,337.1175,-111.67613,20.310907,STD
11913144432000,0.65552,4.45865168236167,8.75876336505708,-1.6116652228353,-0.03481932,0.029321533,0.0033597588,337.1071,-111.736725,20.380936,STD
11913149011000,0.660099,4.45821349799306,8.7598588202593,-1.59523337878794,-0.026572637,0.021991149,0.009468411,337.09796,-111.800285,20.452538,STD
11913153931000,0.665019,4.45774268185556,8.76103585445779,-1.57757784860383,-0.026572637,0.008246681,0.0067195175,337.0945,-111.85832,20.518133,STD
11913158950000,0.670038,4.45726239197872,8.76223657288102,-1.55956705470261,-0.0067195175,0.008246681,0.009773844,337.09147414817,-111.89090185063,20.5530753161368,STD
11913163933000,0.675021,4.456785547098,8.76342867885888,-1.5416854476076,-0.00061086525,0.011911872,0.015271631,337.08847,-111.92325,20.587767,STD
11913168925000,0.680013,4.45630784096825,8.76462293794809,-1.52377154381105,-0.005192355,0.009162978,0.0106901415,337.0876,-111.97984,20.65086,STD
11913173910000,0.684998,4.45583080469886,8.76581552239514,-1.50588275967125,-0.016187929,0.00580322,0.009773844,337.086,-112.04044,20.716267,STD
11913178902000,0.68999,4.45535309856911,8.76700978148435,-1.4879688558747,-0.014966198,-0.0036651916,0.01863139,337.08704,-112.10203,20.781576,STD
11913183926000,0.695014,4.45487233022058,8.76821169608054,-1.46994011936149,-0.015271631,0.01038471,0.0143553335,337.0811,-112.15756,20.84248,STD
11913188901000,0.699989,4.45439625089456,8.76940188818166,-1.45208722044565,-0.027488936,0.008857546,0.016493361,337.08307,-112.21508,20.905527,STD
11913193950000,0.705038,4.4539130901876,8.77060978364268,-1.43396877087257,-0.029932396,0.0061086523,0.008857546,337.08032,-112.26865,20.963905,STD
11913199361000,0.710449,4.4533952881307,8.77190428202643,-1.41455127619245,-0.03573562,0.02107485,0.020463986,337.07327,-112.3255,21.027811,STD
11913203972000,0.71506,4.45517101527907,8.77013818404536,-1.41378895230235,-0.04550946,0.015882496,0.019242255,337.0721,-112.37527,21.083933,STD
11913208944000,0.720032,4.45873731816412,8.76609637659157,-1.42472562441355,-0.057421334,0.027794369,0.02443461,337.06177,-112.42821,21.145262,STD
11913213890000,0.724978,4.46228497183858,8.76207570489679,-1.43560510556038,-0.05100725,0.028405234,0.023823744,337.11127,-112.48673,21.237362,STD
11913218907000,0.729995,4.46588355220348,8.75799731632164,-1.44664076203301,-0.055283304,0.028405234,0.022602014,337.1556,-112.54367,21.328886,STD
11913223923000,0.735011,4.46948141529105,8.75391974066029,-1.45767421885317,-0.0580322,0.032375857,0.03176499,337.19708,-112.6032,21.421116,STD
11913228927000,0.740015,4.47307067105066,8.74985191996465,-1.46868127984361,-0.054367006,0.030543262,0.03268129,337.23825,-112.65957,21.50827,STD
11913233920000,0.745008,4.47665203675964,8.74579304132089,-1.47966414465682,-0.06169739,0.03604105,0.032986723,337.27463,-112.71625,21.596115,STD
11913238908000,0.749996,4.48022981608197,8.74173822724617,-1.49063601120765,-0.059864793,0.03268129,0.035124753,337.31284,-112.77401,21.682291,STD
11913243925000,0.755013,4.48382839644687,8.73765983867102,-1.50167166768028,-0.0693332,0.03390302,0.04184427,337.34674,-112.83076,21.768211,STD
11913248927000,0.760015,4.48741621765182,8.73359364380299,-1.51267432936577,-0.069027774,0.042760566,0.032986723,337.37744,-112.88403,21.848497,STD
11913253845000,0.764933,4.49094378756104,8.72959573369484,-1.52349222024327,-0.076052725,0.036651913,0.03726278,337.41174,-112.94057,21.93201,STD
11913258866000,0.769954,4.49454523703526,8.72551409346445,-1.5345366753258,-0.07238753,0.03756821,0.029626964,337.4392,-112.9916,22.008345,STD
11913263844000,0.774932,4.49811584358429,8.72146740852782,-1.54548654535187,-0.082161374,0.020463986,0.028710667,337.47327,-113.04325,22.085173,STD
11913268842000,0.77993,4.50170079567992,8.71740446531502,-1.55648040842745,-0.09254608,0.011911872,0.034208454,337.5033,-113.094124,22.160265,STD
11913273845000,0.784933,4.5052893341622,8.71333745753318,-1.56748526976542,-0.076052725,0.004276057,0.03176499,337.53683,-113.1432,22.230633,STD
11913278846000,0.789934,4.50887643808982,8.70927207557896,-1.57848573179844,-0.07269296,0.0036651916,0.02443461,337.56973,-113.18989,22.299477,STD
11913283839000,0.794927,4.5124578037988,8.7052131969352,-1.58946859661164,-0.06811147,-0.0021380284,0.017715093,337.6054,-113.23667,22.36578,STD
11913288818000,0.799906,4.51602912762515,8.70116569908475,-1.60042066629018,-0.06994407,-0.013133603,0.02687807,337.6421,-113.28485,22.432823,STD
11913293894000,0.804982,4.51967002735253,8.69703934859492,-1.61158610225891,-0.06780604,-0.014966198,0.018020526,337.67587,-113.32611,22.491493,STD
11913298843000,0.809931,4.52321983285898,8.69301623815872,-1.62247218236316,-0.07147124,-0.011301007,0.010079277,337.71066,-113.36882,22.551401,STD
11913303890000,0.814978,4.52683993154379,8.68891346216933,-1.63357382841008,-0.06505715,0.00030543262,0.01282817,337.7426,-113.41219,22.610653,STD
11913308954000,0.820042,4.5304722239432,8.6847968666452,-1.64471286854909,-0.06841691,0.0036651916,0.009162978,337.77454,-113.44997,22.664398,STD
11913313899000,0.824987,4.53401916034033,8.68077700786423,-1.65559015004344,-0.070554934,0.008857546,0.016187929,337.80194,-113.49133,22.721119,STD
11913318931000,0.830019,4.53762849986518,8.67668642558195,-1.66665880130321,-0.07086037,0.009162978,0.007330383,337.82834,-113.52654,22.771027,STD
11913323919000,0.835007,4.54120627918751,8.67263161150724,-1.67763066785404,-0.0711658,0.015882496,0.007941248,337.85098,-113.56553,22.824776,STD
11913328928000,0.840016,4.54479912133377,8.66855972624255,-1.68864872710686,-0.07086037,0.025961773,0.009468411,337.8715,-113.60173,22.87523,STD
11913333926000,0.845014,4.5483840734294,8.66449678302975,-1.69964259018245,-0.0693332,0.029932396,0.013133603,337.89124,-113.638176,22.925386,STD
11913338912000,0.85,4.55196041819707,8.66044359478265,-1.71061005742832,-0.070554934,0.03176499,0.00580322,337.90765,-113.67126,22.972004,STD
11913343872000,0.85496,4.55551811375416,8.65641154229456,-1.72152033370982,-0.06414085,0.04062254,0.009773844,337.9206,-113.708534,23.022131,STD
11913348951000,0.860039,4.55916116531352,8.6522827530633,-1.73269236863597,-0.07086037,0.044898596,0.008246681,337.93347,-113.740746,23.067518,STD
11913353928000,0.865016,4.56273105458522,8.64823688104048,-1.74364003900956,-0.061086524,0.050396383,0.0061086523,337.94287,-113.77486,23.113153,STD
11913358935000,0.870023,4.56632246217682,8.6441666216034,-1.75465369895743,-0.047647487,0.05681047,0.0106901415,337.9504,-113.80968,23.159456,STD
11913363999000,0.875087,4.56995475457623,8.64005002607927,-1.76579273909644,-0.044898596,0.0571159,0.007330383,337.95746,-113.84111,23.201942,STD
11913368924000,0.880012,4.57348734542676,8.63604642557446,-1.77662602754127,-0.038789943,0.06291912,0.011301007,337.96082,-113.87638,23.247232,STD
11913373915000,0.885003,4.57706727658108,8.63198917275832,-1.78760449304952,-0.034208454,0.064446285,0.014049901,337.96497,-113.9099,23.290215,STD
11913378949000,0.890037,4.58067805066059,8.62789696464843,-1.79867754361425,-0.04337143,0.063224554,0.007941248,337.9677,-113.940994,23.331005,STD
11913383923000,0.895011,4.5842457881003,8.62385353136703,-1.80961861503041,-0.052839845,0.064446285,0.0106901415,337.96933,-113.97504,23.37433,STD
11913388906000,0.899994,4.58781998103598,8.61980278186135,-1.82057948331885,-0.053450707,0.07269296,0.015271631,337.96875,-114.00734,23.41577,STD
11913393924000,0.905012,4.59141927867821,8.61572358037239,-1.83161733944396,-0.051618114,0.06352998,0.015577064,337.9729,-114.03828,23.455513,STD
11913398934000,0.910022,4.5950128381018,8.61165088219389,-1.84263759834926,-0.05100725,0.070249505,0.0125227375,337.96942,-114.06893,23.49543,STD
11913403924000,0.915012,4.59652149741234,8.61104668429356,-1.84728718742675,-0.06780604,0.061391957,0.011911872,337.97348,-114.0989,23.534649,STD
11913408938000,0.920026,4.59580118557263,8.61416804897044,-1.84512624187901,-0.061086524,0.061086524,0.010079277,337.97247,-114.128624,23.572285,STD
11913413927000,0.925015,4.59508446523591,8.61727385040102,-1.84297607089025,-0.05589417,0.06078109,0.015577064,338.06683,-114.22009,23.660547,STD
11913418923000,0.930011,4.59436673927836,8.62038400954057,-1.84082288302498,-0.05467244,0.06627888,0.013744468,338.15762,-114.307076,23.74431,STD
11913423899000,0.934987,4.59365188652319,8.62348171808308,-1.83867831480689,-0.06078109,0.060170226,0.022296581,338.25095,-114.396286,23.830256,STD
11913428936000,0.940024,4.59292827050073,8.62661740094656,-1.8365074566649,-0.05497787,0.064446285,0.019242255,338.33734,-114.48049,23.910828,STD
11913433926000,0.945014,4.59221140650389,8.62972382490699,-1.83435685469378,-0.047647487,0.065973446,0.01863139,338.4253,-114.56548,23.99232,STD
11913438918000,0.950006,4.59149425518681,8.63283149392714,-1.83220539075795,-0.040927973,0.064751714,0.014660766,338.5111,-114.64706,24.07014,STD
11913443939000,0.955027,4.59077293772626,8.63595721631298,-1.8300414283337,-0.028099801,0.06719518,0.016493361,338.59406,-114.729,24.147745,STD
11913448935000,0.960023,4.59005521176871,8.63906737545253,-1.82788824046843,-0.026267206,0.06780604,0.014966198,338.6763,-114.806786,24.221397,STD
11913454745000,0.965833,4.58922054647379,8.64268427389143,-1.82538423296298,-0.02321288,0.06627888,0.01160644,338.75705,-114.8836,24.293306,STD
11913458925000,0.970013,4.58862004717383,8.64528644867192,-1.8235827267026,-0.010079277,0.074830994,0.011911872,338.83316,-114.95994,24.364418,STD
11913463938000,0.975026,4.58789987899424,8.64840719081895,-1.82142221213723,-0.0070249503,0.08460484,0.014966198,338.90802,-115.03396,24.433708,STD
11913468925000,0.980013,4.58718344597776,8.65151174718983,-1.81927290311319,0.002443461,0.07452556,0.011911872,338.9849,-115.105835,24.499414,STD
11913473911000,0.984999,4.5864671566214,8.65461568103086,-1.8171240250715,0.01038471,0.08307768,0.013744468,339.0519,-115.17835,24.5666,STD
11913478925000,0.990013,4.58574684478169,8.65773704570774,-1.81496307952377,0.008246681,0.08582657,0.016493361,339.12256,-115.24859,24.63119,STD
11913483929000,0.995017,4.58502796954317,8.6608521850861,-1.81280644379963,0.016187929,0.093462385,0.0036651916,339.18735,-115.31446,24.69074,STD
11913488902000,0.99999,4.58431354776837,8.66394802603906,-1.81066316852861,-0.003970624,0.092240654,0.011301007,339.25357,-115.38338,24.75524,STD
11913494004000,1.005092,4.58358059383813,8.6671241733429,-1.80846429653329,0.002443461,0.09254608,0.012217305,339.3152,-115.44746,24.813065,STD
11913498948000,1.010036,4.58287033820679,8.67020196093016,-1.80633351975069,-0.00061086525,0.08735373,0.013133603,339.37805,-115.510376,24.871477,STD
11913503930000,1.015018,4.58215462349091,8.67330340465178,-1.80418636563844,-0.013439035,0.089491755,0.016798794,339.43753,-115.572655,24.929794,STD
11913508932000,1.02002,4.58143603557263,8.67641729897044,-1.80203059187901,-0.0143553335,0.09437868,0.019547688,339.4967,-115.63405,24.9867,STD
11913513933000,1.025021,4.58071759131448,8.67953057075925,-1.79987524910195,-0.018020526,0.0870483,0.021380283,339.55804,-115.69384,25.042759,STD
11913518925000,1.030013,4.5800004399974,8.68263823977939,-1.79772378516611,-0.01985312,0.09101892,0.020158553,339.61328,-115.75223,25.097895,STD
11913524278000,1.035366,4.57923142737714,8.68597064207603,-1.7954167365987,-0.023518313,0.08857546,0.017104227,339.67178,-115.8089,25.151318,STD
11913528931000,1.040019,4.57856297684061,8.68886727347641,-1.79341137568254,-0.028710667,0.0870483,0.01740966,339.72784,-115.864655,25.204237,STD
11913533933000,1.045021,4.57784438892234,8.69198116779507,-1.79125560192312,-0.040011674,0.086437434,0.02076942,339.78336,-115.918526,25.255896,STD
11913538890000,1.049978,4.57713226570944,8.6950670482704,-1.78911922236984,-0.03970624,0.07452556,0.017715093,339.84177,-115.96985,25.304235,STD
11913544518000,1.055606,4.57632374655629,8.69857064627628,-1.78669365365372,-0.03481932,0.084910266,0.017715093,339.89258,-116.02134,25.35387,STD
11913548952000,1.06004,4.57568675758596,8.70133094363912,-1.78478267787417,-0.03573562,0.08979719,0.015271631,339.9477,-116.06976,25.40027,STD
11913553924000,1.065012,4.57497247947127,8.70442616206222,-1.78263983358552,-0.03145956,0.09590584,0.018325957,339.9984,-116.11922,25.447474,STD
11913558996000,1.070084,4.57424383534462,8.70758363347051,-1.78045389106096,-0.02443461,0.09101892,0.016798794,340.04996,-116.1657,25.491415,STD
11913563935000,1.075023,4.57353429801388,8.7106583084085,-1.77832526919015,-0.019547688,0.10323623,0.019547688,340.09354,-116.21329,25.537094,STD
11913568924000,1.080012,4.57281757767716,8.71376410983909,-1.77617509820139,-0.015271631,0.11453723,0.013744468,340.13776,-116.25737,25.578691,STD
11913573910000,1.084998,4.5721012883208,8.71686804368012,-1.77402622015971,-0.014660766,0.12064589,0.010995574,340.17917,-116.30208,25.621141,STD
11913578937000,1.090025,4.57137910889953,8.71999750124507,-1.77185967184131,-0.01863139,0.12614368,0.01038471,340.21634,-116.34477,25.66193,STD
11913583926000,1.095014,4.57066238856281,8.72310330267566,-1.76970950085255,-0.0125227375,0.12980886,0.019242255,340.2517,-116.38904,25.703848,STD
11913588918000,1.100006,4.56994523724573,8.7262109716958,-1.76755803691672,-0.014049901,0.14110987,0.021991149,340.28207,-116.429794,25.74338,STD
11913594097000,1.105185,4.56920122148629,8.72943505379823,-1.76532597927976,-0.013133603,0.13836098,0.016493361,340.3151,-116.470314,25.781858,STD
11913598937000,1.110025,4.56850590650739,8.7324480982809,-1.76324002466248,-0.0070249503,0.14110987,0.013439035,340.34244,-116.51158,25.82143,STD
11913603928000,1.115016,4.56697537281087,8.73335120126123,-1.76027427528475,-0.0061086523,0.13591751,0.018020526,340.37268,-116.55229,25.860432,STD
11913608920000,1.120008,4.56458076507518,8.73191443161896,-1.75644290040722,0.0009162979,0.13744467,0.015882496,340.39905,-116.59019,25.896132,STD
11913613937000,1.125025,4.56217416511325,8.73047046661591,-1.75259233795518,0.0027488936,0.12614368,0.015882496,340.54227,-116.669586,25.97094,STD
11913618933000,1.130021,4.55977763862136,8.72903254571592,-1.74875789306573,0.009468411,0.12522738,0.018020526,340.67868,-116.74721,26.043648,STD
11913623901000,1.134989,4.55739454342286,8.72760268362001,-1.74494493825972,0.0012217305,0.113926366,0.016798794,340.81876,-116.8206,26.112309,STD
11913628924000,1.140012,4.55498506532663,8.72615699173036,-1.7410897707898,0.0018325958,0.115453534,0.016798794,340.9522,-116.89349,26.179964,STD
11913633925000,1.145013,4.55258614038949,8.72471763175821,-1.73725148838544,0.0067195175,0.11362094,0.018020526,341.08737,-116.96382,26.2449,STD
11913638894000,1.149982,4.55020256550194,8.72328748184787,-1.73343776607646,0.004581489,0.09682214,0.009162978,341.2236,-117.02869,26.304361,STD
11913643942000,1.15503,4.54778109517947,8.72183459459744,-1.72956341103203,-0.01038471,0.10567969,0.008857546,341.34982,-117.09358,26.365255,STD
11913648935000,1.160023,4.54538600775473,8.72039753714074,-1.72573126865151,-0.012217305,0.09162979,0.008246681,341.48553,-117.15456,26.420261,STD
11913653920000,1.165008,4.54299475784238,8.71896278219949,-1.72190526629484,-0.022907447,0.09621128,0.00030543262,341.60962,-117.209885,26.472055,STD
11913658928000,1.170016,4.54059247508189,8.71752140752632,-1.71806161136962,-0.018020526,0.09285152,0.004276057,341.7384,-117.26734,26.52449,STD
11913663957000,1.175045,4.53818011885137,8.71607398875009,-1.71420183888182,-0.03573562,0.09285152,0.004581489,341.86176,-117.31764,26.572132,STD
11913668912000,1.18,4.53580325961051,8.71464786824179,-1.71039886161456,-0.04153884,0.09773844,-0.0021380284,341.98196,-117.36639,26.617233,STD
11913673917000,1.185005,4.53340241591717,8.71320735701191,-1.70655750919828,-0.042455133,0.09193522,-0.009773844,342.10315,-117.41246,26.660149,STD
11913678895000,1.189983,4.53101452382818,8.71177461677168,-1.70273687936247,-0.055283304,0.09285152,-0.003970624,342.21854,-117.4577,26.703796,STD
11913683888000,1.194976,4.52861943640343,8.71033755931499,-1.69890473698196,-0.0571159,0.09712757,-0.0009162979,342.33206,-117.49922,26.742947,STD
11913688907000,1.199995,4.5262118770634,8.70889301868307,-1.69505263952396,-0.05497787,0.09560041,-0.011301007,342.44464,-117.536606,26.778309,STD
11913693943000,1.205031,4.52379616300953,8.70744358520581,-1.69118749451529,-0.06261369,0.10445796,-0.009468411,342.55096,-117.576096,26.817085,STD
11913698959000,1.210047,4.52139004273664,8.70599990801719,-1.68733769956623,-0.061086524,0.101098195,-0.008552114,342.65915,-117.61186,26.850885,STD
11913703825000,1.214913,4.5190558758212,8.7045994029933,-1.68360303006421,-0.05955936,0.103847094,-0.0076358155,342.76065,-117.64641,26.88444,STD
11913708905000,1.219993,4.51661905544915,8.70313730568106,-1.67970411492442,-0.04153884,0.10995574,-0.0106901415,342.86008,-117.68004,26.91589,STD
11913713850000,1.224938,4.51424699309878,8.70171406331707,-1.67590881268696,-0.041233405,0.112399206,-0.019242255,342.9577,-117.71018,26.944809,STD
11913718860000,1.229948,4.5118437509602,8.70027211301504,-1.67206362275578,-0.0290161,0.10903945,-0.018325957,343.05365,-117.74288,26.974426,STD
11913723861000,1.234949,4.50944482602306,8.69883275304289,-1.66822534035142,-0.025350908,0.11362094,-0.014966198,343.1443,-117.77231,27.001621,STD
11913728866000,1.239954,4.50704398232972,8.69739224181301,-1.66438398793515,-0.004886922,0.11056661,-0.022907447,343.23627,-117.79966,27.024475,STD
11913733867000,1.244955,4.50464505739258,8.69595288184086,-1.66054570553079,-0.0033597588,0.11362094,-0.022602014,343.32358,-117.82822,27.049986,STD
11913738861000,1.249949,4.50224949027879,8.69451553656973,-1.6567127956473,0.013744468,0.113926366,-0.026267206,343.41058,-117.854805,27.070995,STD
11913743950000,1.255038,4.49980835270529,8.6930508489276,-1.65280697298068,0.015882496,0.115453534,-0.015577064,343.49518,-117.88365,27.095428,STD
11913748863000,1.259951,4.49745164040452,8.69163681662543,-1.64903623083858,0.019242255,0.12034045,-0.015577064,343.57645,-117.90875,27.115068,STD
11913753857000,1.264945,4.49505607329072,8.6901994713543,-1.64520332095509,0.032070424,0.119729586,-0.02321288,343.6575,-117.934494,27.134567,STD
11913758889000,1.269977,4.49264227799305,8.68875118913477,-1.64134124595835,0.035124753,0.11575896,-0.021380283,343.7369,-117.96153,27.155973,STD
11913763863000,1.274951,4.49025630466025,8.68731960015227,-1.63752368613446,0.044593163,0.12003502,-0.021380283,343.81204,-117.98633,27.174187,STD
11913768862000,1.27995,4.48785833910121,8.68588081580898,-1.63368693873606,0.03604105,0.12156218,-0.018325957,343.88803,-118.01062,27.1928,STD
11913773851000,1.284939,4.48546517043267,8.68444490961001,-1.62985786636747,0.028405234,0.124311075,-0.016493361,343.96075,-118.03441,27.210535,STD
11913779234000,1.290322,4.48288300427857,8.68289560452501,-1.62572639782465,0.02565634,0.12736541,-0.014966198,344.03162,-118.057884,27.228395,STD
11913783869000,1.294957,4.48065964553359,8.6815615846348,-1.62216902151107,0.008857546,0.12492194,-0.007330383,344.10233,-118.081345,27.247719,STD
11913788863000,1.299951,4.4782640784198,8.68012423936367,-1.61833611162758,0.0061086523,0.116980694,-0.0125227375,344.1721,-118.10163,27.263056,STD
11913793887000,1.304975,4.47585412063452,8.6786782596596,-1.61448017665468,-0.0030543262,0.12064589,-0.013133603,344.2381,-118.123,27.281473,STD
11913798865000,1.309953,4.47346622854552,8.67724551941937,-1.61065954681887,-0.005192355,0.13164146,-0.012217305,344.30286,-118.1429,27.298162,STD
11913803865000,1.314953,4.4674276903548,8.67411645648245,-1.60643300807572,-0.007941248,0.12950343,-0.010995574,344.36945,-118.16139,27.313793,STD
11913808934000,1.320022,4.45819244776943,8.66949876286502,-1.60181541089128,-0.024129177,0.12614368,-0.0070249503,344.4319,-118.17921,27.330193,STD
11913813929000,1.325017,4.453215,8.66916231650032,-1.60578352589503,-0.025961773,0.12034045,0.00030543262,344.63895,-118.2511,27.395933,STD
11913818923000,1.330011,4.453215,8.67391205958588,-1.62003248237748,-0.018020526,0.121256754,-0.0061086523,344.83853,-118.31648,27.455711,STD
11913823901000,1.334989,4.453215,8.67864658523263,-1.63423578741745,-0.018936822,0.12797627,-0.005497787,345.2316,-118.461,27.58527,STD
11913828913000,1.340001,4.453215,8.68341344793684,-1.64853610177268,-0.020463986,0.12583824,-0.005497787,345.61264,-118.59593,27.704643,STD
11913833853000,1.344941,4.44765149258699,8.69914554311649,-1.65493307170953,-0.032375857,0.124311075,-0.006414085,346.10422,-118.77692,27.861378,STD
11913838902000,1.34999,4.4339355995556,8.73114935717663,-1.65036104371218,-0.026267206,0.122783914,-0.0021380284,346.5809,-118.95061,28.009916,STD
11913843924000,1.355012,4.43046367672466,8.75170680654461,-1.65318967672466,-0.021685716,0.12370021,-0.008857546,347.20044,-119.17334,28.197054,STD
11913849225000,1.360313,4.45100454232248,8.74657176441432,-1.67373054232248,-0.014660766,0.12889257,-0.0061086523,347.79993,-119.38787,28.375896,STD
11913853855000,1.364943,4.462792,8.74431221957612,-1.68208178730173,-0.018020526,0.121256754,-0.00580322,348.5556,-119.65132,28.590347,STD
11913858951000,1.370039,4.462792,8.74651755393375,-1.6710547470559,-0.0125227375,0.12614368,-0.0033597588,349.28134,-119.901474,28.791441,STD
11913863864000,1.374952,4.462792,8.74864369359212,-1.66042369353789,-0.003970624,0.12675454,-0.0033597588,349.735013754013,-120.062228858347,28.9180784051966,STD
11913868919000,1.380007,4.462792,8.75083128487505,-1.64948537162999,0.004886922,0.12858713,0.004276057,350.2018,-120.22763,29.048376,STD
11913873886000,1.384974,4.462792,8.75298079346107,-1.63873746956934,0.015271631,0.121256754,-0.002443461,351.09024,-120.52951,29.281212,STD
11913878983000,1.390071,4.46753946816168,8.74370651410353,-1.61864382906084,0.018325957,0.121256754,-0.0021380284,352.29218,-120.94321,29.59898,STD
11913884010000,1.395098,4.47283648090835,8.73358021583529,-1.59917077248782,0.016798794,0.12950343,0.00580322,353.43796,-121.32539,29.885729,STD
11913888898000,1.399986,4.47917031215497,8.72724634049702,-1.59705948805701,0.015271631,0.11881329,0.006414085,354.58893,-121.69806,30.15504,STD
11913894398000,1.405486,4.48629716809941,8.72011943494046,-1.59468386114018,0.01985312,0.11178834,0.008552114,355.6861,-122.047134,30.402843,STD
11913899017000,1.410105,4.49228243130074,8.71413413007397,-1.5926887664622,0.025045475,0.11759156,0.0070249503,356.7393,-122.37047,30.626245,STD
11913903890000,1.414978,4.49859682566751,8.70781969175086,-1.59058396101389,0.01038471,0.10995574,0.003970624,357.73685,-122.6634,30.82168,STD
11913908916000,1.420004,4.49132539277863,8.72812262887448,-1.59300778041328,0.014660766,0.10903945,0.0067195175,358.69327,-122.93884,30.999748,STD
11913913901000,1.424989,4.47558341151901,8.7648539915366,-1.5982551257639,0.00580322,0.10140363,0.0030543262,359.61844,-123.189835,31.156633,STD
11913918885000,1.429973,4.4629612623421,8.76859204458315,-1.59744521246842,0.020158553,0.101098195,0.008857546,0.47638243,-123.42278,31.297478,STD
11913923913000,1.435001,4.45103473774706,8.76382145965225,-1.59505990754941,0.016798794,0.0983493,0.015271631,1.307725,-123.63646,31.422684,STD
11913928931000,1.440019,4.43913193336801,8.75906036275821,-1.5926793466736,0.010995574,0.093767814,0.0021380284,2.114051,-123.82826,31.525883,STD
11913933928000,1.445016,4.42727894144251,8.75431919074157,-1.5903087482885,0.011911872,0.094989546,-0.0070249503,2.8925729,-124.00899,31.619911,STD
11913938911000,1.449999,4.42113949266501,8.75989194960066,-1.57971417320297,0.004581489,0.09896017,0.009162978,3.6314294,-124.17336,31.703058,STD
11913944407000,1.455495,4.41630762419903,8.76955573698705,-1.56521841644175,0.004581489,0.093462385,0.009468411,4.346616,-124.3198,31.768633,STD
11913948997000,1.460085,4.4192103696004,8.75944787622378,-1.56388775638362,0.011301007,0.09254608,0.005497787,5.040945,-124.45653,31.826738,STD
11913953922000,1.46501,4.42627813820679,8.7382445458042,-1.56859961852148,0.004276057,0.092240654,0.0106901415,5.7150316,-124.583534,31.878359,STD
11913958938000,1.470026,4.43347649908591,8.71664943811189,-1.57339854247752,0.0036651916,0.09682214,0.0106901415,6.330133,-124.68634,31.911898,STD
11913963928000,1.475016,4.44063754788711,8.69516626678322,-1.57817259162837,0.0018325958,0.09560041,0.0070249503,6.9286036,-124.77998,31.938587,STD
11913968922000,1.48001,4.44959599753563,8.68914289542484,-1.57123660035358,0.004886922,0.09407325,0.0012217305,7.4892955,-124.8604,31.955168,STD
11913973918000,1.485006,4.45984906570235,8.69426950980392,-1.55585707839923,0.00061086525,0.09896017,0.004886922,8.032454,-124.93399,31.968157,STD
11913978904000,1.489992,4.46946978091873,8.68572406713781,-1.55478160789164,0.0027488936,0.10262536,0.00580322,8.55923,-125.00627,31.97954,STD
11913983923000,1.495011,4.47890553047703,8.67157007332155,-1.55949950730271,0.017104227,0.10476339,-0.0009162979,9.069434,-125.07176,31.98517,STD
11913989103000,1.500191,4.47540997802145,8.67681353888144,-1.57082283415055,-0.00030543262,0.09773844,0.007330383,9.550256,-125.12778,31.98806,STD
11913993947000,1.505035,4.4665247497127,8.69014172926642,-1.58415074619805,0.008552114,0.10354166,-0.0030543262,10.010963,-125.17604,31.981112,STD
11913998926000,1.510014,4.46185117351842,8.69856338120662,-1.59351312733582,-0.0033597588,0.09590584,-0.0030543262,10.466807,-125.222534,31.976673,STD
11914003921000,1.515009,4.46025490032702,8.70335203410304,-1.59989808675921,0.015882496,0.09315695,0.008246681,10.907174,-125.26874,31.969807,STD
11914008908000,1.519996,4.45866118372931,8.70813301748532,-1.60627282002136,0.014966198,0.09193522,0.01160644,11.346817,-125.30507,31.954887,STD
11914013932000,1.52502,4.45705564288575,8.71294947237053,-1.61269484927923,0.009468411,0.08857546,0.006414085,11.776017,-125.338806,31.93704,STD
11914018918000,1.530006,4.45546224586225,8.71772949706353,-1.61906830427122,0.0143553335,0.090713486,0.007330383,12.180068,-125.36766,31.917316,STD
11914023908000,1.534996,4.45386757054191,8.72251335651361,-1.62544687234383,0.01985312,0.089491755,0.008552114,12.574742,-125.3904,31.892986,STD
11914028958000,1.540046,4.46158672759857,8.72168037556912,-1.61968540154025,0.016187929,0.077579886,0.004886922,12.953997,-125.405365,31.863531,STD
11914033958000,1.545046,4.47550249820789,8.71704170464012,-1.60576967936646,0.004886922,0.07666359,0.003970624,13.320234,-125.417336,31.833652,STD
11914038964000,1.550052,4.47937404033127,8.7251799192277,-1.60704107900619,0.0036651916,0.076358154,0.0009162979,13.68778,-125.425705,31.797754,STD
11914043987000,1.555075,4.47457417339852,8.7443795373179,-1.62144067980443,0.0036651916,0.0729984,0.0033597588,14.046897,-125.43054,31.760756,STD
11914048944000,1.560032,4.47717229941775,8.75079971910059,-1.63045889343905,0.00030543262,0.07360926,0.00580322,14.387129,-125.43071,31.723345,STD
11914053964000,1.565052,4.48627538325207,8.7462482128284,-1.63501042347456,-0.01038471,0.06688975,-0.0027488936,14.720974,-125.42471,31.681,STD
11914058876000,1.569964,4.49518262384852,8.74179462740828,-1.63946403214675,-0.009468411,0.0729984,0.0018325958,15.042774,-125.418625,31.63933,STD
11914063977000,1.575065,4.50443259011124,8.73716968049704,-1.64408900320473,-0.017104227,0.076052725,0.0015271631,15.357706,-125.40398,31.591766,STD
11914068854000,1.579942,4.51475432609384,8.73540747515344,-1.65264850124728,-0.00030543262,0.07941248,0.0009162979,15.662608,-125.390976,31.544596,STD
11914073963000,1.585051,4.52928442931103,8.74025096089883,-1.67202209020986,-0.015577064,0.08674286,-0.0021380284,15.95695,-125.36998,31.496058,STD
11914078884000,1.589972,4.5381376522735,8.74299066288966,-1.685518,-0.0030543262,0.086132,-0.0067195175,16.25204,-125.35751,31.451109,STD
11914083959000,1.595047,4.53341049573019,8.7406270352575,-1.685518,-0.009468411,0.08674286,-0.0067195175,16.395549947148,-125.349346881731,31.4295680845632,STD
11914088912000,1.6,4.52879697723581,8.73832022783641,-1.685518,-0.004276057,0.092240654,0.00030543262,16.53561,-125.34138,31.408545,STD
11914093966000,1.605054,4.52408938134027,8.73596638073238,-1.685518,0.007330383,0.0888809,0.007941248,16.809137,-125.32602,31.364584,STD
11914098918000,1.610006,4.51706807948104,8.73484417175649,-1.68153721603792,0.016798794,0.09407325,0.003970624,17.070127,-125.30704,31.319664,STD
11914104645000,1.615733,4.49517333552894,8.74031797205589,-1.65416872894212,0.029321533,0.09193522,0.005192355,17.328602,-125.29123,31.276464,STD
11914108923000,1.620011,4.47965646240382,8.74515097194896,-1.63458186049479,0.031154128,0.102319926,0.012217305,17.570736,-125.27115,31.234396,STD
11914113931000,1.625019,4.46564240337976,8.75449335278075,-1.61589651349956,0.0290161,0.10415252,0.007941248,17.808233,-125.24777,31.187946,STD
11914118955000,1.630043,4.45226352671268,8.76230227577539,-1.59789948261759,0.025961773,0.09682214,0.0076358155,18.036135,-125.220055,31.140236,STD
11914123917000,1.635005,4.44416539557771,8.75825331590832,-1.58575222249489,0.018325957,0.08460484,0.0033597588,18.258055,-125.187965,31.0895,STD
11914128873000,1.639961,4.43607705662065,8.75420925200238,-1.57361965071575,0.01863139,0.081855945,-0.0027488936,18.477743,-125.151184,31.036352,STD
11914133926000,1.645014,4.42691031058087,8.76035268941913,-1.55629380915314,0.022907447,0.082161374,0.0070249503,18.695265,-125.11565,30.985157,STD
11914138906000,1.649994,4.4175826722081,8.7696803277919,-1.53763838630941,0.025961773,0.0852157,0.0018325958,18.904673,-125.07345,30.927862,STD
11914144436000,1.655524,4.4274241098768,8.78069927655055,-1.54063314585811,0.01985312,0.07696902,0.0012217305,19.107693,-125.03009,30.871622,STD
11914148859000,1.659947,4.44091966179907,8.78969653037383,-1.54963025876168,0.019242255,0.07513642,0.006414085,19.302557,-124.98714,30.816193,STD
11914153964000,1.665052,4.44099767739973,8.79546987875417,-1.55276301130014,0.01740966,0.07452556,0.006414085,19.491062,-124.936615,30.755795,STD
11914158942000,1.67003,4.43787830879409,8.80014886651835,-1.55432269560296,0.018325957,0.077579886,0.0067195175,19.67482,-124.88712,30.696991,STD
11914163925000,1.675013,4.43475580703396,8.80483255394883,-1.55588394648302,0.0076358155,0.07452556,0.009773844,19.863655,-124.839676,30.64013,STD
11914168924000,1.680012,4.43162327917948,8.80953128031146,-1.55745021041026,0.008246681,0.06719518,0.0070249503,20.047657,-124.79175,30.58161,STD
11914174778000,1.685866,4.427954981908,8.81503364961068,-1.559284359046,-0.0036651916,0.064751714,0.004276057,20.22388,-124.74035,30.52325,STD
11914178935000,1.690023,4.42535007726886,8.81894095216908,-1.56058681136557,-0.008552114,0.06780604,0.0036651916,20.396492,-124.689316,30.46465,STD
11914183923000,1.695011,4.4227564187722,8.81505417436334,-1.55583458412968,-0.0067195175,0.067500606,-0.00030543262,20.571411,-124.63695,30.404682,STD
11914188915000,1.700003,4.42036451971782,8.80787850217641,-1.54865878706159,-0.009468411,0.06658431,-0.00030543262,20.6562323587604,-124.611467396901,30.3765516734207,STD
11914193991000,1.705079,4.41793237236204,8.80058208550558,-1.54136224340822,-0.01038471,0.06688975,0.0070249503,20.742481,-124.585556,30.347948,STD
11914198950000,1.710038,4.41555628514034,8.79345384865162,-1.53423388249862,-0.02565634,0.067500606,0.0027488936,20.91024,-124.52633,30.284414,STD
11914203922000,1.71501,4.43189743098039,8.77791734877451,-1.52549322760784,-0.020158553,0.06688975,0.004886922,21.06357,-124.46954,30.222431,STD
11914208934000,1.720022,4.45542631411765,8.75909409485294,-1.51608167435294,-0.017104227,0.070249505,0.0070249503,21.211689,-124.4093,30.159983,STD
11914213900000,1.724988,4.45169905504896,8.75161684558429,-1.52581304900872,-0.023518313,0.06841691,0.0076358155,21.356007,-124.34813,30.098007,STD
11914218883000,1.729971,4.43542700774514,8.74929234368454,-1.54440967103122,-0.02321288,0.0711658,0.004581489,21.494637,-124.28786,30.036604,STD
11914223888000,1.734976,4.41908311917288,8.74695757908325,-1.56308839734522,-0.008857546,0.06994407,0.0027488936,21.628471,-124.23343,29.981495,STD
11914228892000,1.73998,4.40274249611282,8.74462328096839,-1.58176339164596,-0.014966198,0.06688975,0.0027488936,21.759132,-124.17609,29.92636,STD
11914233886000,1.744974,4.39293712960214,8.74644208214801,-1.60101858159142,-0.004276057,0.06566802,0.0076358155,21.887161,-124.12364,29.872396,STD
11914238876000,1.749964,4.38801152333539,8.75136753411668,-1.62072100665842,-0.01038471,0.06566802,0.003970624,22.012245,-124.06606,29.816223,STD
11914244430000,1.755518,4.39271228593188,8.76627124245361,-1.60845263985046,-0.003970624,0.06261369,0.0061086523,22.136942,-124.011826,29.756538,STD
11914248886000,1.759974,4.40059080490169,8.78202848606111,-1.58481695954029,-0.007941248,0.06078109,0.009468411,22.258192,-123.95488,29.696747,STD
11914253819000,1.764907,4.41217912510584,8.78009549788315,-1.58429250254022,0.002443461,0.047647487,0.0106901415,22.384914,-123.901505,29.635143,STD
11914258837000,1.769925,4.42743840209568,8.75466345808637,-1.61481095029636,-0.0070249503,0.048563786,0.009773844,22.504963,-123.84534,29.575384,STD
11914263848000,1.774936,4.4396630139362,8.73802333983689,-1.61965478522762,0.00061086525,0.043982297,0.006414085,22.62261,-123.788895,29.513657,STD
11914268842000,1.77993,4.4495373381852,8.72814875781976,-1.60484322152369,0.00061086525,0.03756821,0.009773844,22.6802624556557,-123.759673351351,29.4833930600601,STD
11914273838000,1.784926,4.44912130102231,8.73265845495025,-1.60614955537735,-0.0036651916,0.03848451,0.006414085,22.737938,-123.73044,29.453117,STD
11914278844000,1.789932,4.44258652516698,8.74572809764187,-1.6170408863783,-0.005192355,0.038179077,0.01038471,22.851006,-123.68056,29.397402,STD
11914283786000,1.794874,4.43613529418874,8.75863064941615,-1.62779297543278,-0.005192355,0.038179077,0.016493361,22.9046680855969,-123.656174447229,29.3711792338378,STD
11914288821000,1.799909,4.42956266206097,8.7717760051797,-1.63874740044073,0.0036651916,0.03176499,0.013133603,22.95934,-123.63133,29.344463,STD
11914293849000,1.804937,4.4210867374974,8.78079932217834,-1.64268008332987,-0.005497787,0.029626964,0.008857546,23.063797,-123.57889,29.29145,STD
11914298843000,1.809931,4.40617511646227,8.77582867802952,-1.6227979219497,0.009468411,0.026572637,0.009162978,23.170078,-123.533264,29.239372,STD
11914303878000,1.814966,4.40131415194927,8.77096500798497,-1.60612357402536,0.008857546,0.019242255,0.009773844,23.28097,-123.48069,29.18128,STD
11914308904000,1.819992,4.41940076418037,8.76644326049789,-1.59708026790982,0.0021380284,0.030543262,0.007941248,23.384274,-123.4289,29.124535,STD
11914313884000,1.824972,4.43582341197076,8.76453995796528,-1.58534510627475,0.0021380284,0.03634648,0.013744468,23.48844,-123.37689,29.06762,STD
11914318894000,1.829982,4.44556643512032,8.77428323545538,-1.56098747209869,-0.0009162979,0.03573562,0.005497787,23.587337,-123.319824,29.007404,STD
11914323890000,1.834978,4.45424186614888,8.78090513385112,-1.54700021280008,-0.015882496,0.036957346,0.01038471,23.682016,-123.26889,28.95717,STD
11914328908000,1.839996,4.4590892926165,8.7760577073835,-1.57123678836998,-0.011301007,0.03940081,0.007330383,23.772957,-123.21636,28.90311,STD
11914333914000,1.845002,4.46588920079956,8.76925783154122,-1.59387951543976,-0.015271631,0.03176499,0.010079277,23.860634,-123.16122,28.853634,STD
11914338907000,1.849995,4.47907276737432,8.75607440262844,-1.61145766538921,-0.016798794,0.040317107,0.0125227375,23.940475,-123.106575,28.805265,STD
11914344013000,1.855101,4.49265517478822,8.74475785901573,-1.62730185014119,-0.03023783,0.0290161,0.002443461,24.028759,-123.0511,28.753744,STD
11914348909000,1.859997,4.50684073735377,8.75894322408229,-1.61784480843082,-0.025961773,0.028099801,0.01282817,24.11154,-123.003914,28.710487,STD
11914353923000,1.865011,4.51988484312082,8.77161928240048,-1.60963922144069,-0.020158553,0.031154128,0.010995574,24.192282,-122.954666,28.666393,STD
11914358922000,1.87001,4.51510843652599,8.76206641933553,-1.61919213438092,-0.02687807,0.033292156,0.010995574,24.272882,-122.90762,28.625767,STD
11914363937000,1.875025,4.51058952595937,8.75302855643341,-1.62900829548533,-0.033292156,0.027794369,0.006414085,24.3504,-122.859665,28.584173,STD
11914368923000,1.880011,4.50944282498439,8.7507352143509,-1.64162175476682,-0.031154128,0.025961773,0.009468411,24.425217,-122.81419,28.545452,STD
11914373897000,1.884985,4.50829888381922,8.74844739174391,-1.65420485674559,-0.034513887,0.02443461,0.007941248,24.500511,-122.76636,28.50431,STD
11914378937000,1.890025,4.50713976370011,8.74612921202152,-1.66695492388934,-0.031154128,0.03359759,0.007941248,24.571817,-122.721176,28.465467,STD
11914383986000,1.895074,4.50597857372364,8.74380689269247,-1.67972775901013,-0.02565634,0.030848695,0.0125227375,24.645966,-122.67691,28.426662,STD
11914388897000,1.899985,4.50484912155996,8.74154804733202,-1.69215148514961,-0.020463986,0.035430185,0.011911872,24.716084,-122.63267,28.391186,STD
11914393997000,1.905085,4.50367620239182,8.73920227023198,-1.70505333880697,-0.019547688,0.034208454,0.0061086523,24.787111,-122.58869,28.355011,STD
11914398946000,1.910034,4.50253801083041,8.73692594653235,-1.71757319640507,-0.01740966,0.03176499,0.013439035,24.856665,-122.54901,28.322748,STD
11914403944000,1.915032,4.50138855004563,8.7346270849743,-1.73021701298929,-0.01282817,0.0290161,0.008857546,24.92347,-122.505585,28.28575,STD
11914408962000,1.92005,4.51908960029985,8.7268516095952,-1.70821515958021,-0.009468411,0.029321533,0.0061086523,24.997423,-122.46683,28.254171,STD
11914413938000,1.925026,4.54290477111444,8.71732534232883,-1.67487392043978,-0.006414085,0.030543262,0.013744468,25.070656,-122.43027,28.224176,STD
11914418959000,1.930047,4.52780851471657,8.71842316072306,-1.6698934870223,-0.01740966,0.021991149,0.012217305,25.148857,-122.39415,28.191545,STD
11914423923000,1.935011,4.49978661523725,8.72309358296493,-1.67456381173003,-0.008552114,0.015271631,0.0143553335,25.225042,-122.36397,28.162395,STD
11914429016000,1.940104,4.49839347213325,8.71416443910637,-1.64845661908857,0.00061086525,0.031154128,0.018020526,25.289423,-122.33391,28.138823,STD
11914433963000,1.945051,4.50776015401344,8.70011468525109,-1.610990038276,-0.0033597588,0.030848695,0.019547688,25.359186,-122.303314,28.113445,STD
11914438932000,1.95002,4.49479187152946,8.70209445235562,-1.59614987430589,-0.006414085,0.022296581,0.01282817,25.427408,-122.26877,28.082556,STD
11914443937000,1.955025,4.47160725123343,8.71136800996421,-1.59151295024669,-0.0036651916,0.018325957,0.02321288,25.494385,-122.23927,28.05727,STD
11914448929000,1.960017,4.45120679834541,8.71779035333855,-1.57816472858821,0.00061086525,0.01740966,0.023823744,25.563679,-122.207375,28.029034,STD
11914453924000,1.965012,4.43247320097905,8.72247383826121,-1.55943118012532,0.006414085,0.015882496,0.021685716,25.633383,-122.17796,28.002583,STD
11914458969000,1.970057,4.42180304000961,8.74324292795389,-1.54876104000961,-0.0018325958,0.009162978,0.018936822,25.70845,-122.143265,27.972984,STD
11914464497000,1.975585,4.41671754552354,8.77884197348703,-1.54367554552354,-0.002443461,0.00580322,0.013744468,25.780754,-122.10927,27.942404,STD
11914468960000,1.980048,4.41246055533941,8.78661411067882,-1.54920815509368,-0.005497787,0.004276057,0.019547688,25.855003,-122.07151,27.90906,STD
11914473960000,1.985048,4.40755782164431,8.77680864328863,-1.56391599782943,-0.011301007,0.0018325958,0.018936822,25.927872,-122.030556,27.87247,STD
11914478962000,1.99005,4.40796571209832,8.76445113881334,-1.57850027122998,-0.013744468,0.009162978,0.01740966,25.997519,-121.98641,27.834246,STD
11914483958000,1.995046,4.4127855662335,8.74999207968168,-1.5929595316712,-0.028710667,0.01740966,0.025045475,26.06686,-121.94224,27.798576,STD
11914488963000,2.000051,4.41621997282051,8.73837701282051,-1.61113459238095,-0.03481932,0.021685716,0.02687807,26.127703,-121.89719,27.75984,STD
11914494051000,2.005139,4.41859976523077,8.72885766923077,-1.63255297257143,-0.04917465,0.0033597588,0.025350908,26.192139,-121.85045,27.721447,STD
11914499047000,2.010135,4.42093652680342,8.71951045213675,-1.65358407073016,-0.045814894,0.0143553335,0.01740966,26.245275,-121.80797,27.687008,STD
11914503960000,2.015048,4.42323446707692,8.71031852307692,-1.67426577314286,-0.046120327,0.021685716,0.01985312,26.304678,-121.76561,27.653473,STD
11914508914000,2.020002,4.42874499854705,8.69679683617747,-1.7025591941882,-0.06078109,0.026572637,0.027183503,26.352102,-121.719284,27.61451,STD
11914513930000,2.025018,4.43811354633837,8.67805959385666,-1.74003338535349,-0.07422013,0.022296581,0.01863139,26.398014,-121.67018,27.572216,STD
11914518889000,2.029977,4.44552256516224,8.67266297256637,-1.76401668483776,-0.061391957,0.023518313,0.025045475,26.444029,-121.634964,27.540165,STD
11914523964000,2.035052,4.45030149854474,8.68700022182891,-1.76879566812193,-0.05681047,0.028710667,0.025045475,26.487818,-121.59346,27.504414,STD
11914528864000,2.039952,4.45660599913734,8.69913187520831,-1.77679568985394,-0.061086524,0.02107485,0.019242255,26.539898,-121.56062,27.474419,STD
11914534528000,2.045616,4.46724089344182,8.70976638084501,-1.79274800354867,-0.05131268,0.013133603,0.020463986,26.589943,-121.53227,27.447037,STD
11914538888000,2.049976,4.47390057423409,8.71642590622545,-1.80656719693637,-0.044898596,0.003970624,0.014966198,26.640642,-121.49953,27.415348,STD
11914544160000,2.055248,4.47885824210526,8.72138367763158,-1.82639786842105,-0.034208454,0.015577064,0.01863139,26.687088,-121.471504,27.387894,STD
11914548907000,2.059995,4.4872198102417,8.72183385864761,-1.8334725897583,-0.018936822,0.0030543262,0.020463986,26.742142,-121.44483,27.357038,STD
11914553967000,2.065055,4.50544932514812,8.71271914878209,-1.81524307485188,-0.0070249503,-0.005497787,0.01985312,26.79131,-121.41962,27.328148,STD
11914558942000,2.07003,4.52148154574505,8.7040886457006,-1.79552429563392,0.0033597588,-0.008857546,0.011301007,26.835854,-121.39486,27.292166,STD
11914563965000,2.075053,4.52860913486442,8.69696100696399,-1.76701381511335,0.02321288,-0.0061086523,0.01863139,26.88129,-121.376976,27.260862,STD
11914568945000,2.080033,4.53567570739369,8.68989438524226,-1.73874740201511,0.021380283,-0.0027488936,0.028710667,26.917393,-121.35695,27.230703,STD
11914573964000,2.085052,4.54279762055119,8.68277242250704,-1.71025962544081,0.022296581,-0.005192355,0.0143553335,26.951912,-121.3358,27.196293,STD
11914578891000,2.089979,4.54862267846852,8.67820845159474,-1.68299573422979,0.0290161,-0.010079277,0.009468411,26.976028,-121.31736,27.167578,STD
11914583959000,2.095047,4.5454076969165,8.69267591054218,-1.6604907290829,0.019242255,-0.006414085,0.01740966,26.997551,-121.29668,27.139668,STD
11914588939000,2.100027,4.54224853982711,8.70689215867916,-1.63837649750604,0.015577064,-0.01160644,0.02565634,27.019547,-121.27633,27.112942,STD
11914594101000,2.105189,4.53897392759911,8.72162795644686,-1.61545407513662,0.010079277,-0.0009162979,0.021991149,27.034702,-121.25366,27.087275,STD
11914598978000,2.110066,4.53588011050575,8.73555017374888,-1.59379722626105,0.011301007,-0.0033597588,0.017715093,27.062424,-121.23537,27.06418,STD
11914604345000,2.115433,4.53247545265459,8.7508711785182,-1.5699644790978,0.011301007,-0.0030543262,0.018936822,27.0737301414335,-121.223251839138,27.0524605552647,STD
11914608912000,2.12,4.52870437361551,8.76240297092563,-1.55219278164557,-0.009468411,0.0030543262,0.014966198,27.083351,-121.21294,27.042488,STD
11914613931000,2.125019,4.51444424906052,8.75764976152097,-1.56169949825949,-0.002443461,0.013133603,0.01863139,27.103537,-121.19523,27.021935,STD
11914618987000,2.130075,4.49945524823102,8.75221524550583,-1.5709250503538,-0.02076942,0.015577064,0.01863139,27.11589,-121.1573,26.99223,STD
11914623964000,2.135052,4.47666707955632,8.73854229671065,-1.57548268408874,-0.026267206,0.015882496,0.025350908,27.126686,-121.125275,26.966536,STD
11914629278000,2.140366,4.4523828377987,8.7251367262853,-1.57984023511948,-0.038789943,0.023823744,0.026572637,27.130863,-121.087006,26.940063,STD
11914633961000,2.145049,4.43208588160753,8.74137420646271,-1.57172145264301,-0.04550946,0.029321533,0.02565634,27.136204,-121.05055,26.91509,STD
11914638885000,2.149973,4.4107443884866,8.75844731182115,-1.56318485539464,-0.04520403,0.020463986,0.02687807,27.145136,-121.01303,26.88837,STD
11914644049000,2.155137,4.40893336046791,8.76457920844543,-1.57903122710895,-0.045814894,0.0076358155,0.016798794,27.152685,-120.97207,26.858814,STD
11914648913000,2.160001,4.41340893679381,8.76681703165834,-1.60140901527191,-0.054367006,0.0106901415,0.02443461,27.159847,-120.93548,26.83543,STD
11914653953000,2.165041,4.41804645831572,8.76913582873751,-1.62459652603286,-0.05131268,-0.006414085,0.017104227,27.17611,-120.88841,26.797346,STD
11914658937000,2.170025,4.42263245182071,8.77142886140469,-1.64752639778536,-0.040011674,-0.0018325958,0.01985312,27.186354,-120.84651,26.766592,STD
11914663967000,2.175055,4.42745572371208,8.7634420529563,-1.68352681340874,-0.03940081,-0.0067195175,0.01863139,27.20372,-120.801445,26.731194,STD
11914668962000,2.18005,4.4323746045347,8.7486856159383,-1.72779674081234,-0.034513887,-0.0033597588,0.020463986,27.21755,-120.760666,26.698956,STD
11914674059000,2.185147,4.44692432643382,8.73397767870609,-1.75584166001191,-0.040011674,-0.014660766,0.01740966,27.249973,-120.72539,26.666754,STD
11914678964000,2.190052,4.4655685828339,8.7199941943838,-1.77448596508236,-0.03848451,-0.011301007,0.014049901,27.276413,-120.69253,26.63686,STD
11914683952000,2.19504,4.48433248528751,8.71788500097628,-1.77829513025481,-0.029626964,-0.007941248,0.018936822,27.30708,-120.66705,26.610699,STD
11914688935000,2.200023,4.50296816584009,8.72254400624817,-1.77363617363077,-0.025045475,-0.010079277,0.014966198,27.336699,-120.63846,26.581488,STD
11914694091000,2.205179,4.52525266765024,8.71864036338153,-1.75421719881971,-0.017715093,-0.0030543262,0.015882496,27.362139,-120.62004,26.561033,STD
11914698957000,2.210045,4.54817029762959,8.70947335925052,-1.7267160428445,-0.011911872,-0.0030543262,0.004886922,27.375019936524,-120.610998279254,26.5502125396471,STD
11914703953000,2.215041,4.55600552294455,8.70276315630975,-1.71935724741874,-0.0061086523,0.00030543262,0.015577064,27.388245,-120.601715,26.539103,STD
11914708971000,2.220059,4.55141112657744,8.69816899980879,-1.72854584826004,0.0021380284,-0.0027488936,0.015577064,27.412098,-120.58629,26.519268,STD
11914713927000,2.225015,4.55813860365145,8.70031864647303,-1.72653531518672,-0.004276057,-0.0021380284,0.019242255,27.434147,-120.57476,26.507412,STD
11914718945000,2.230033,4.57807906334025,8.7102885379668,-1.71158000946058,0.003970624,-0.0067195175,0.017104227,27.457623,-120.56496,26.493565,STD
11914723948000,2.235036,4.57975995487115,8.70736373350254,-1.68961083111089,-0.0027488936,-0.013439035,0.01282817,27.481562,-120.553085,26.480028,STD
11914728951000,2.240039,4.56572855201093,8.69333247715736,-1.66154787887544,-0.0027488936,-0.0027488936,0.016187929,27.4925338069544,-120.549530710432,26.4742851478817,STD
11914733956000,2.245044,4.55353953951537,8.68716811306619,-1.64419842370922,0.007941248,-0.009773844,0.015577064,27.50351,-120.545975,26.46854,STD
11914738963000,2.250051,4.54327516807946,8.68922103022519,-1.63803980084768,0.003970624,-0.016187929,0.013439035,27.53205,-120.53543,26.452799,STD
11914745205000,2.256293,4.53047904135628,8.69178030901618,-1.63036212481377,-0.0030543262,-0.023518313,0.011911872,27.566633,-120.52568,26.43428,STD
11914748971000,2.260059,4.52275872523333,8.69332440448669,-1.62572993514,-0.008857546,-0.013439035,0.020463986,27.597628,-120.5175,26.419186,STD
11914754057000,2.265145,4.5123324034592,8.69540971238976,-1.61947414207552,-0.013439035,-0.015577064,0.021380283,27.632906,-120.506165,26.400406,STD
11914758970000,2.270058,4.50488674501767,8.69960036898684,-1.63777776959061,-0.03023783,-0.013133603,0.020158553,27.663399,-120.49388,26.38482,STD
11914763868000,2.274956,4.497979127258,8.70420528720793,-1.66080310602297,-0.02321288,-0.019547688,0.019242255,27.69654,-120.48451,26.36898,STD
11914768961000,2.280049,4.490796502258,8.70899353720793,-1.68474513102297,-0.03481932,-0.01038471,0.02565634,27.72096,-120.465546,26.351793,STD
11914773956000,2.285044,4.48375208602494,8.71368965123699,-1.70822646125565,-0.03848451,-0.009468411,0.02687807,27.748726,-120.44725,26.332123,STD
11914778964000,2.290052,4.47833725762232,8.7076777413061,-1.70703191524464,-0.040011674,-0.008246681,0.024129177,27.773254,-120.4284,26.314133,STD
11914783857000,2.294945,4.47360016882329,8.69820386049333,-1.69755773764658,-0.05131268,-0.013439035,0.026572637,27.799505,-120.40944,26.297718,STD
11914789621000,2.300709,4.47026242618488,8.68520952095574,-1.7140514842734,-0.054061573,-0.014966198,0.023823744,27.826754,-120.3904,26.27658,STD
11914793940000,2.305028,4.46823727110752,8.67508363983549,-1.73227809143655,-0.046120327,-0.01863139,0.027183503,27.856302,-120.373566,26.25757,STD
11914799014000,2.310102,4.46585810072953,8.66318766372895,-1.75369087327164,-0.05009095,-0.018020526,0.021685716,27.877539,-120.3501,26.237408,STD
11914803909000,2.314997,4.46356286245593,8.65171135252644,-1.77434825740306,-0.056199603,-0.021991149,0.022296581,27.901642,-120.329994,26.219479,STD
11914808964000,2.320052,4.46441081776599,8.65109456791714,-1.77966724842658,-0.042455133,-0.025961773,0.019547688,27.924337,-120.31012,26.199461,STD
11914813925000,2.325013,4.46676524606769,8.65580332618068,-1.77731277095495,-0.041233405,-0.025350908,0.026572637,27.947294,-120.29048,26.182636,STD
11914818950000,2.330038,4.46915004796571,8.6605728303682,-1.77492791925269,-0.030543262,-0.02687807,0.02107485,27.975153,-120.27644,26.1643,STD
11914824079000,2.335167,4.47158420695773,8.66544104668219,-1.77249370942564,-0.035430185,-0.036957346,0.02321288,28.005987,-120.2641,26.149626,STD
11914828950000,2.340038,4.47086274707779,8.6745398432369,-1.77622712166732,-0.03390302,-0.035430185,0.025961773,28.03257,-120.25293,26.134693,STD
11914833961000,2.345049,4.4685177097586,8.6862651522674,-1.78326233157252,-0.031154128,-0.04153884,0.031154128,28.06419,-120.242386,26.119911,STD
11914838955000,2.350043,4.46618062806392,8.69795068275997,-1.79027367427189,-0.029321533,-0.03756821,0.03023783,28.090965,-120.2305,26.105219,STD
11914844105000,2.355193,4.4637705418149,8.71000123983581,-1.79750403368354,-0.03390302,-0.04550946,0.01863139,28.12198,-120.216675,26.087831,STD
11914848996000,2.360084,4.46548358343789,8.70883791969887,-1.79842099485571,-0.025961773,-0.044593163,0.025961773,28.158054,-120.21134,26.075024,STD
11914853967000,2.365055,4.47026210531995,8.69808621427854,-1.79483707225847,-0.024740042,-0.04184427,0.02107485,28.192968,-120.19844,26.055496,STD
11914859621000,2.370709,4.47569718130489,8.68585725784191,-1.79076072979925,-0.035124753,-0.05222898,0.015577064,28.232555,-120.184616,26.034372,STD
11914863966000,2.375054,4.47987394203262,8.67645951894605,-1.78762813199498,-0.029626964,-0.046731193,0.0290161,28.26668,-120.17668,26.018976,STD
11914868951000,2.380039,4.48466592183187,8.66567753312422,-1.78403411587202,-0.040011674,-0.043676864,0.016187929,28.30099,-120.15714,25.994226,STD
11914873963000,2.385051,4.4894838561857,8.65483714938519,-1.78042063366374,-0.040011674,-0.047647487,0.017104227,28.337173,-120.14657,25.977165,STD
11914878963000,2.390051,4.49429025518193,8.64402272027603,-1.77681580304893,-0.0421497,-0.048563786,0.021685716,28.369349,-120.13222,25.963408,STD
11914883959000,2.395047,4.49909280905897,8.63321694271016,-1.77321385629862,-0.046120327,-0.050701816,0.014966198,28.40139,-120.11505,25.946562,STD
11914888929000,2.400017,4.50634754794696,8.63657582877103,-1.77826988150841,-0.046120327,-0.056505036,0.01863139,28.43532,-120.10188,25.933624,STD
11914893970000,2.405058,4.51552476966068,8.65034167332003,-1.78974140266134,-0.05131268,-0.05100725,0.01740966,28.464653,-120.084595,25.918386,STD
11914898921000,2.410009,4.52453814492444,8.66386174798023,-1.80100811585876,-0.054061573,-0.052534413,0.01863139,28.502016,-120.07733,25.914667,STD
11914903922000,2.41501,4.53364254599373,8.67751836146754,-1.81238861125368,-0.051923547,-0.064751714,0.01740966,28.539759,-120.068954,25.90938,STD
11914908885000,2.419973,4.54995387437774,8.68499202485614,-1.81549146653955,-0.043676864,-0.06566802,0.010995574,28.570148,-120.059204,25.904797,STD
11914913923000,2.425011,4.5795246477306,8.68170632047397,-1.8039917242058,-0.039095376,-0.06261369,0.015882496,28.603077,-120.051636,25.902193,STD
11914918920000,2.430008,4.60885476969253,8.67844735564711,-1.7925855685008,-0.03268129,-0.07269296,0.011911872,28.643082,-120.044556,25.893492,STD
11914923908000,2.434996,4.63813206573938,8.67519426047874,-1.78119995620212,-0.027183503,-0.073303826,0.017715093,28.67954,-120.04146,25.889748,STD
11914928866000,2.439954,4.66723327540264,8.67196073083864,-1.76988282192448,-0.013744468,-0.07147124,0.009162978,28.723679,-120.03797,25.884035,STD
11914933923000,2.445011,4.69691557013177,8.66866263495523,-1.7583397101774,-0.0018325958,-0.06658431,0.009773844,28.76711,-120.03843,25.882456,STD
11914938925000,2.450013,4.7164711719691,8.66935112876387,-1.74787344025357,-0.0070249503,-0.06536258,0.004276057,28.808643,-120.03439,25.8766,STD
11914944477000,2.455565,4.72700416174723,8.67461771988906,-1.73734047797147,-0.007330383,-0.06566802,-0.0036651916,28.847836,-120.03194,25.870438,STD
11914948957000,2.460045,4.73550340421949,8.67886741877971,-1.72884125768621,-0.013133603,-0.06261369,-0.0036651916,28.8632257564576,-120.037631512915,25.8755438302583,STD
11914953962000,2.46505,4.74499865166898,8.68361512925911,-1.71934603502377,-0.0067195175,-0.06505715,0.011301007,28.880419,-120.04399,25.881248,STD
11914958904000,2.469992,4.74796549743463,8.68403315293537,-1.72703321539221,-0.005192355,-0.06811147,0.011911872,28.911392,-120.05017,25.885359,STD
11914963970000,2.475058,4.74317851481993,8.67924607035027,-1.75575511108041,-0.0030543262,-0.07360926,0.008552114,28.95214,-120.06117,25.891523,STD
11914968900000,2.479988,4.73856855085203,8.66878324415134,-1.76780730170405,-0.011301007,-0.07360926,0.009162978,28.9901,-120.07196,25.90068,STD
11914973936000,2.485024,4.73392536563974,8.65021060026957,-1.75852093127948,-0.016187929,-0.0720821,0.0076358155,29.027681,-120.08159,25.90764,STD
11914978862000,2.48995,4.72777724782056,8.63511449824081,-1.74147657521501,-0.013133603,-0.06994407,0.0076358155,29.066324,-120.09315,25.911043,STD
11914983963000,2.495051,4.7182284769351,8.62556557779515,-1.70805605160281,-0.008246681,-0.069027774,0.010995574,29.103891,-120.10422,25.91481,STD
11914988874000,2.499962,4.70896615674782,8.61771461521892,-1.68410657100491,-0.010079277,-0.06994407,0.009773844,29.13951,-120.11357,25.91791,STD
11914994057000,2.505145,4.69902,8.61274166666667,-1.67913346666667,-0.005497787,-0.06078109,0.014049901,29.17143,-120.12622,25.924147,STD
11914999102000,2.51019,4.68656817401125,8.61561682598875,-1.67290756076334,-0.015577064,-0.058643065,0.010995574,29.202415,-120.13069,25.927574,STD
11915003962000,2.51505,4.66940449280907,8.63278050719093,-1.66432578736978,-0.015271631,-0.043676864,0.0143553335,29.226704,-120.13953,25.93546,STD
11915008958000,2.520046,4.6532903907849,8.64716524848485,-1.6581710741381,-0.024129177,-0.04337143,0.01282817,29.26092,-120.14412,25.941423,STD
11915013934000,2.525022,4.64618840529061,8.64243050909091,-1.66764035517139,-0.034513887,-0.031154128,0.01282817,29.28645,-120.14934,25.950512,STD
11915018939000,2.530027,4.63904502960755,8.63766817575758,-1.67716482293095,-0.03481932,-0.027488936,0.017715093,29.312607,-120.14868,25.95129,STD
11915023960000,2.535048,4.63187881795827,8.63289061818182,-1.68671973853949,-0.035430185,-0.020463986,0.01160644,29.33244,-120.143616,25.950115,STD
11915028907000,2.539995,4.62714483211679,8.62818721365161,-1.69612635115407,-0.04184427,-0.016798794,0.009468411,29.35106,-120.13921,25.949348,STD
11915033962000,2.54505,4.64147040693431,8.62341193894259,-1.70567670112448,-0.037873644,-0.008246681,0.010995574,29.36537,-120.13549,25.94879,STD
11915038927000,2.550015,4.65551414252918,8.61833527134176,-1.7158299068583,-0.043982297,-0.01863139,0.014049901,29.385187,-120.12959,25.945559,STD
11915044014000,2.555102,4.6696120561879,8.60893705478923,-1.73462692879329,-0.051618114,0.0015271631,0.022602014,29.393267,-120.12575,25.947327,STD
11915049005000,2.560093,4.68293339457806,8.60009830084247,-1.75286886257354,-0.055283304,-0.0009162979,0.017104227,29.40955,-120.12221,25.946299,STD
11915053959000,2.565047,4.67846747328093,8.60456405892597,-1.764033630842,-0.058337633,-0.009468411,0.004276057,29.42133,-120.117874,25.946535,STD
11915059046000,2.570134,4.673881655429,8.60914970918247,-1.77549813955853,-0.069027774,-0.009162978,0.010995574,29.431166,-120.11981,25.953594,STD
11915063966000,2.575054,4.66944638437897,8.61358481813903,-1.78658628244929,-0.06261369,-0.010995574,0.015882496,29.442678,-120.11998,25.955723,STD
11915068859000,2.579947,4.66503545323104,8.61799558808302,-1.7976135757754,-0.064751714,-0.0143553335,0.019242255,29.456179,-120.11894,25.958067,STD
11915073912000,2.585,4.67115466686261,8.62637578041247,-1.82581340154429,-0.060170226,-0.015577064,0.02076942,29.46945,-120.12035,25.961166,STD
11915078863000,2.589951,4.68060270598784,8.63582396752018,-1.85888136583641,-0.06169739,-0.03268129,0.025961773,29.488798,-120.1222,25.964565,STD
11915083926000,2.595014,4.66129387993781,8.63102495897282,-1.87110474475875,-0.059864793,-0.03023783,0.01985312,29.500025,-120.12161,25.966997,STD
11915088887000,2.599975,4.63269873366436,8.62149311084361,-1.87587056929481,-0.053145275,-0.030543262,0.026572637,29.518362,-120.125786,25.972668,STD
11915094027000,2.605115,4.61503306699285,8.60151867293941,-1.89466146383139,-0.048258353,-0.035430185,0.011911872,29.525545,-120.12333,25.968983,STD
11915099056000,2.610144,4.60143825286978,8.57886072826496,-1.91731945582424,-0.05222898,-0.042455133,0.016187929,29.535414,-120.126854,25.97216,STD
11915103959000,2.615047,4.6088489892492,8.57423755204986,-1.91595170024345,-0.045814894,-0.043982297,0.015882496,29.544468,-120.1246,25.966545,STD
11915108954000,2.620042,4.62748225086182,8.57889595257571,-1.9019767418736,-0.03359759,-0.06047566,0.01160644,29.559942,-120.12265,25.95943,STD
11915114613000,2.625701,4.6509095456428,8.5825673869969,-1.87173077495813,-0.030543262,-0.060170226,0.0021380284,29.576588,-120.12276,25.955263,STD
11915118963000,2.630051,4.66993882519413,8.58468178328173,-1.84212982307263,-0.02321288,-0.064446285,0.0036651916,29.599586,-120.12665,25.951408,STD
11915123948000,2.635036,4.69174594210526,8.58710483281734,-1.8082078126935,-0.015271631,-0.06994407,0.0036651916,29.61337,-120.1276,25.94568,STD
11915128967000,2.640055,4.71370179361518,8.58954440866873,-1.7740544385525,-0.0143553335,-0.06505715,-0.00061086525,29.624588,-120.12779,25.939863,STD
11915133958000,2.645046,4.72749958905532,8.590396,-1.75753218419101,-0.010995574,-0.06505715,0.00030543262,29.638935,-120.1306,25.934881,STD
11915138971000,2.650059,4.73699254426813,8.590396,-1.75041243060952,-0.007330383,-0.06078109,0.004886922,29.649994,-120.13332,25.930677,STD
11915144041000,2.655129,4.74659343852885,8.590396,-1.74321172231944,-0.011911872,-0.053145275,0.009468411,29.65591,-120.13626,25.932463,STD
11915148943000,2.660031,4.75587619664838,8.590396,-1.73624961738099,-0.013133603,-0.04917465,0.008857546,29.661285,-120.13989,25.93417,STD
11915153921000,2.665009,4.76977748078254,8.60555273436252,-1.72834977279744,-0.022907447,-0.048258353,0.0106901415,29.665653,-120.143295,25.938168,STD
11915158911000,2.669999,4.78673723830184,8.63099239277792,-1.71986991617425,-0.02565634,-0.046120327,0.0027488936,29.66732,-120.144806,25.939709,STD
11915163924000,2.675012,4.79628998488613,8.64870213108178,-1.71340324244306,-0.029321533,-0.05009095,0.018020526,29.67125,-120.152695,25.950226,STD
11915168920000,2.680008,4.79133701461698,8.65117853863872,-1.71092675730849,-0.0290161,-0.041233405,0.014966198,29.668207,-120.15413,25.954632,STD
11915173900000,2.684988,4.78639990654244,8.65364701534679,-1.70845820327122,-0.02443461,-0.05467244,0.014966198,29.673973,-120.15935,25.962263,STD
11915178930000,2.690018,4.78141322910973,8.65614027595756,-1.70596486455487,-0.024129177,-0.06536258,0.02107485,29.676414,-120.16466,25.97145,STD
11915184599000,2.695687,4.76140056105054,8.65452922943508,-1.72209776927651,-0.029626964,-0.060170226,0.021991149,29.67751,-120.16838,25.97924,STD
11915188914000,2.700002,4.73682742720515,8.65043382829534,-1.74667094588702,-0.029321533,-0.062308256,0.025350908,29.684607,-120.17491,25.9878,STD
11915193960000,2.705048,4.69704832379679,8.64564626648841,-1.7466575885918,-0.031154128,-0.045814894,0.028099801,29.6846,-120.177956,25.996124,STD
11915199015000,2.710103,4.64431308003565,8.64085207605466,-1.7130989563874,-0.042760566,-0.03481932,0.03268129,29.687164,-120.180824,26.005112,STD
11915203884000,2.714972,4.60007384476503,8.62831321547814,-1.69908151380874,-0.046120327,-0.032986723,0.0290161,29.685928,-120.18048,26.007374,STD
11915208924000,2.720012,4.5628127643829,8.60502504023931,-1.70839678390427,-0.04795292,-0.024740042,0.030543262,29.680237,-120.18115,26.013609,STD
11915213873000,2.724961,4.53081618308683,8.59554999839018,-1.70737630646946,-0.06078109,-0.020158553,0.03390302,29.68612,-120.17204,26.0137,STD
11915218961000,2.730049,4.5063032751484,8.61025753838414,-1.68776598011872,-0.06627888,-0.012217305,0.0290161,29.687775,-120.162094,26.012768,STD
11915223891000,2.734979,4.49860692518872,8.62975297477155,-1.67771235629718,-0.080634214,-0.014660766,0.0290161,29.693558,-120.14861,26.009718,STD
11915228895000,2.739983,4.51764637977751,8.6583122560588,-1.68247221994438,-0.092240654,-0.016187929,0.02107485,29.695574,-120.131744,26.00375,STD
11915233861000,2.744949,4.52816831832932,8.67741761251782,-1.68468740482816,-0.095294975,-0.030848695,0.029321533,29.710789,-120.11337,25.996061,STD
11915238886000,2.749974,4.52343621067899,8.67978372810856,-1.68232133864988,-0.102319926,-0.03940081,0.027488936,29.72299,-120.088646,25.983776,STD
11915243863000,2.754951,4.518749305251,8.68212724199813,-1.67997787370077,-0.111177474,-0.043982297,0.03481932,29.73949,-120.06827,25.976063,STD
11915248892000,2.75998,4.51401343074881,8.68449524106397,-1.67760992408673,-0.111177474,-0.05009095,0.025350908,29.757215,-120.04375,25.962446,STD
11915254022000,2.76511,4.52601203069467,8.68769763509693,-1.6851428184168,-0.100792766,-0.06261369,0.03604105,29.78035,-120.02655,25.955502,STD
11915258820000,2.769908,4.57240690791599,8.69233721970921,-1.7129797447496,-0.09437868,-0.06047566,0.038789943,29.799042,-120.0047,25.94445,STD
11915263833000,2.774921,4.60918940855415,8.69025011122312,-1.73202928855607,-0.10415252,-0.06291912,0.038789943,29.83245,-119.984314,25.933933,STD
11915268840000,2.779928,4.61839654896313,8.67183559005376,-1.72742569431644,-0.105374254,-0.06414085,0.046120327,29.86497,-119.96857,25.926395,STD
11915273837000,2.784925,4.61914733127726,8.65850849444444,-1.72705028436137,-0.102319926,-0.059864793,0.052534413,29.894358,-119.96098,25.926414,STD
11915278845000,2.789933,4.58926532853583,8.66348867222222,-1.74199128573209,-0.09773844,-0.059253927,0.046731193,29.924067,-119.952065,25.92445,STD
11915283841000,2.794929,4.56541089468897,8.66837292400235,-1.75528139107981,-0.09315695,-0.052534413,0.049785517,29.958647,-119.95247,25.931362,STD
11915288846000,2.799934,4.55603449910016,8.67306119522692,-1.76465773771518,-0.1020145,-0.053450707,0.054367006,29.994099,-119.95029,25.936201,STD
11915293866000,2.804954,4.54063943363226,8.67479911514641,-1.77766890537581,-0.101098195,-0.043066,0.047647487,30.02425,-119.943985,25.935114,STD
11915298842000,2.80993,4.50758403057028,8.66771590254174,-1.80127996743794,-0.11056661,-0.04795292,0.03940081,30.05876,-119.935585,25.933346,STD
11915303890000,2.814978,4.47405033389486,8.66053019972254,-1.82523266866175,-0.11575896,-0.052534413,0.040927973,30.085485,-119.92639,25.933031,STD
11915308892000,2.81998,4.44082221369469,8.65340997676262,-1.84896710042115,-0.109650314,-0.04795292,0.035430185,30.109015,-119.913605,25.928648,STD
11915313900000,2.824988,4.4112623516936,8.64603414253783,-1.86838870969739,-0.11301007,-0.049480084,0.030543262,30.13539,-119.89932,25.923845,STD
11915318893000,2.829981,4.39481906172627,8.63781234731774,-1.87249952145805,-0.109650314,-0.05009095,0.025045475,30.15902,-119.88529,25.917645,STD
11915323973000,2.835061,4.3780892573934,8.62944729229711,-1.87668196162311,-0.106901415,-0.0571159,0.015882496,30.191647,-119.864944,25.902813,STD
11915328906000,2.839994,4.41534448493398,8.63354608057781,-1.87221112056201,-0.10629055,-0.07086037,0.009468411,30.225605,-119.84418,25.886717,STD
11915333875000,2.844963,4.45806140879801,8.63731069799811,-1.8669926591202,-0.09254608,-0.07452556,0.005192355,30.257364,-119.82398,25.869032,STD
11915338929000,2.850017,4.49964672300026,8.62899346146576,-1.86283412769997,-0.0870483,-0.07880162,0.0030543262,30.293293,-119.80025,25.847147,STD
11915344403000,2.855491,4.54468788048801,8.61998504184208,-1.8583300119512,-0.07147124,-0.07819075,-0.0015271631,30.323372,-119.78313,25.832235,STD
11915348894000,2.859982,4.6076048157773,8.61326391024059,-1.86180861425046,-0.06261369,-0.07422013,-0.008246681,30.35265,-119.76486,25.816196,STD
11915353899000,2.864987,4.68152826953527,8.60587168064981,-1.86673683592433,-0.034513887,-0.06566802,-0.009162978,30.37973,-119.75178,25.801083,STD
11915358911000,2.869999,4.75555511273905,8.59846911227637,-1.87167195021592,-0.032986723,-0.05131268,-0.004886922,30.39809,-119.74311,25.793873,STD
11915363871000,2.874959,4.82881392005963,8.5911433462883,-1.8765558622044,-0.022296581,-0.024129177,-0.0061086523,30.408827,-119.737946,25.786695,STD
11915368924000,2.880012,4.88803517879778,8.58177119924738,-1.88999107598534,-0.008552114,-0.0030543262,-0.00061086525,30.424208,-119.73803,25.784693,STD
11915373880000,2.884968,4.94443753114478,8.5723706026936,-1.90409172542088,-0.0030543262,0.024129177,0.010995574,30.429409,-119.739624,25.786642,STD
11915378899000,2.889987,4.96751688060046,8.56308833641263,-1.90170759792148,-0.009162978,0.034208454,0.016187929,30.423851,-119.76444,25.811672,STD
11915383861000,2.894949,4.9858079528291,8.55394311066205,-1.89713479405312,-0.006414085,0.061391957,0.026267206,30.40616,-119.79486,25.84407,STD
11915388915000,2.900003,4.98555564548427,8.56793153534941,-1.8843257364528,-0.002443461,0.07452556,0.030543262,30.38734,-119.83477,25.885489,STD
11915393906000,2.904994,4.98067233849612,8.58746466131998,-1.86967581548835,-0.008246681,0.086132,0.049785517,30.36306,-119.8793,25.934883,STD
11915398932000,2.91002,4.94419434704742,8.61025441830699,-1.8635056163386,-0.004886922,0.09010262,0.05955936,30.331379,-119.92582,25.985088,STD
11915403884000,2.914972,4.90280786179579,8.63324691011345,-1.85890711797731,-0.0106901415,0.09285152,0.070249505,30.298738,-119.974594,26.040594,STD
11915408913000,2.920001,4.78554634644391,8.60942632649165,-1.84708031594272,-0.01160644,0.08857546,0.06994407,30.26759,-120.0196,26.091782,STD
11915413895000,2.924983,4.64890195287828,8.57298804983294,-1.83341589085442,-0.02076942,0.09621128,0.06780604,30.233192,-120.06416,26.145409,STD
11915418958000,2.930046,4.58971980882353,8.61518313235294,-1.82248042352941,-0.02687807,0.08552113,0.06414085,30.206337,-120.098526,26.19011,STD
11915423932000,2.93502,4.56605376987281,8.69091406160572,-1.81301400794913,-0.029626964,0.08093964,0.07147124,30.17664,-120.133804,26.237278,STD
11915429024000,2.940112,4.57197488788211,8.76520009220352,-1.78654028861894,-0.031154128,0.076358154,0.070554934,30.155323,-120.14594,26.260038,STD
11915433919000,2.945007,4.59064587911978,8.83521667489794,-1.75386583462113,-0.03359759,0.06627888,0.0711658,30.138325,-120.15964,26.2839,STD
11915438969000,2.950057,4.61254254538491,8.87422154538491,-1.74611390907698,-0.024740042,0.07513642,0.07269296,30.119371,-120.16245,26.297825,STD
11915443973000,2.955061,4.63548505170433,8.89716405170433,-1.75070241034087,-0.02443461,0.07360926,0.07269296,30.107012,-120.16359,26.3096,STD
11915448906000,2.959994,4.65749219736842,8.90388173391813,-1.77548954239766,0.004276057,0.087659165,0.090713486,30.095984,-120.169556,26.323725,STD
11915453908000,2.964996,4.67937800411184,8.89950452686404,-1.81488362889254,0.013133603,0.10354166,0.0888809,30.083439,-120.16794,26.33211,STD
11915458894000,2.969982,4.69470696088687,8.86785259084375,-1.8470327435475,0.022602014,0.12767084,0.09682214,30.066029,-120.17881,26.351261,STD
11915463923000,2.975011,4.70003281814663,8.79329070043127,-1.86833617258653,0.04184427,0.16157386,0.101098195,30.040613,-120.190735,26.370485,STD
11915468897000,2.979985,4.68841617127754,8.71311236300761,-1.87981330845766,0.052839845,0.1966986,0.10995574,30.010761,-120.21417,26.402367,STD
11915473934000,2.985022,4.66458520407074,8.62732161762672,-1.88457947203834,0.050701816,0.23090707,0.122478485,29.972004,-120.24015,26.438334,STD
11915478937000,2.990025,4.63417003178654,8.56267877726218,-1.88159141452436,0.06383542,0.24984388,0.14110987,29.928495,-120.282036,26.486118,STD
11915483924000,2.995012,4.59871049475638,8.51392188491879,-1.87272654183759,0.057726767,0.27672195,0.15027285,29.87322,-120.32137,26.537052,STD
11915488924000,3.000012,4.54935809816097,8.49922878551503,-1.84519803454902,0.060170226,0.30085114,0.15332718,29.813995,-120.37111,26.593824,STD
11915493925000,3.005013,4.48008337192892,8.5338663553053,-1.790767840841,0.05375614,0.31978795,0.17623462,29.751661,-120.42561,26.659273,STD
11915498922000,3.01001,4.41795302992632,8.58847636349896,-1.74714931275269,0.043982297,0.3286455,0.1881465,29.68624,-120.47621,26.72105,STD
11915503933000,3.015021,4.3635536688362,8.66554190808615,-1.71541632450406,0.034208454,0.31581733,0.2049453,29.625391,-120.532394,26.789137,STD
11915509401000,3.020489,4.28922265259635,8.74890283260649,-1.69290068324544,0.016798794,0.2938262,0.204029,29.567448,-120.566696,26.83992,STD
11915513910000,3.024998,4.21039170498986,8.81678500446247,-1.68852119123732,0.0015271631,0.27580565,0.2125811,29.515755,-120.60625,26.896181,STD
11915518915000,3.030003,4.12288917831643,8.89213436577079,-1.68365994539554,-0.011301007,0.2415972,0.20433442,29.4784,-120.6196,26.927086,STD
11915523904000,3.034992,4.03566638,8.96724285,-1.67881424,-0.032070424,0.22143865,0.19608775,29.444,-120.631966,26.959185,STD
11915528915000,3.040003,3.94368702713496,9.02385440129019,-1.67795442654106,-0.053450707,0.18845193,0.18753563,29.424212,-120.640274,26.984613,STD
11915533925000,3.045013,3.8454281328077,9.05333214140897,-1.68286736612738,-0.06688975,0.17440203,0.17898351,29.404743,-120.644745,27.00694,STD
11915538923000,3.050011,3.76149857442678,9.069236,-1.68345687972992,-0.08246681,0.15485434,0.16615535,29.406725,-120.602,26.986095,STD
11915544024000,3.055112,3.69278104621372,9.069236,-1.67887571437145,-0.07849618,0.14935656,0.1518,29.408228,-120.55825,26.962543,STD
11915548888000,3.059976,3.62725623593567,9.069236,-1.67450739672715,-0.07880162,0.13041973,0.14294247,29.424606,-120.49399,26.917542,STD
11915553922000,3.06501,3.55944129042997,9.069236,-1.66998640350729,-0.07452556,0.11728613,0.13164146,29.439753,-120.42773,26.868557,STD
11915558874000,3.069962,3.49962424289277,9.06283451184539,-1.66544990714879,-0.07269296,0.111177474,0.113926366,29.457457,-120.35838,26.815176,STD
11915563935000,3.075023,3.46940717007481,9.02758104987531,-1.6604137283458,-0.06688975,0.09162979,0.10293079,29.483032,-120.2901,26.759415,STD
11915568860000,3.079948,3.44890439987734,9.00846799938669,-1.65051758751917,-0.05222898,0.07544186,0.09162979,29.507719,-120.19635,26.679298,STD
11915573934000,3.085022,3.45387145325565,9.03330326627824,-1.62568226876214,-0.04642576,0.06688975,0.07422013,29.534792,-120.099495,26.59494,STD
11915579476000,3.090564,3.47848522964872,9.04911570666285,-1.60986977315769,-0.03848451,0.05131268,0.06841691,29.579659,-120.00759,26.509212,STD
11915583939000,3.095027,3.52336440955517,9.04707570327415,-1.61190973394425,-0.043066,0.040011674,0.063224554,29.624086,-119.91208,26.420082,STD
11915588945000,3.100033,3.5737039064433,9.04478749871134,-1.61419789072165,-0.036957346,0.034208454,0.044898596,29.669086,-119.812225,26.324863,STD
11915593930000,3.105018,3.62383223085147,9.04250889308896,-1.61647644875907,-0.028405234,0.028710667,0.027183503,29.716585,-119.712494,26.229212,STD
11915598966000,3.110054,3.67379503248609,9.03729884510056,-1.61901466658965,-0.029932396,0.02565634,0.014049901,29.759207,-119.609795,26.13375,STD
11915603928000,3.115016,3.71852938401369,9.01289862943945,-1.62308142581943,-0.025045475,0.020158553,-0.0015271631,29.802294,-119.50559,26.033905,STD
11915608890000,3.119978,3.76326373554129,8.98849841377835,-1.62714818504921,-0.01985312,0.01282817,-0.02076942,29.83686,-119.41533,25.951574,STD
11915613908000,3.124996,3.86261605845848,8.94581405897563,-1.62061091179513,-0.018325957,0.014966198,-0.04153884,29.868595,-119.32237,25.866259,STD
11915618865000,3.129953,3.97592612731974,8.89860153028344,-1.61116840605669,-0.018325957,0.016187929,-0.061391957,29.901209,-119.22679,25.77687,STD
11915623904000,3.134992,4.10455756977201,8.85466701572327,-1.60165690408805,-0.01863139,0.011911872,-0.07269296,29.93105,-119.141045,25.696205,STD
11915628928000,3.140016,4.23694658549528,8.81211310377359,-1.59220056698113,-0.015577064,0.018936822,-0.07696902,29.955948,-119.054016,25.614468,STD
11915633922000,3.14501,4.38544558216561,8.78522549681529,-1.60243763503185,-0.027488936,0.033292156,-0.0842994,29.973034,-118.9845,25.55304,STD
11915639041000,3.150129,4.54377073685296,8.7632361152328,-1.62002932398852,-0.028710667,0.041233405,-0.08155051,29.990385,-118.91943,25.494421,STD
11915643974000,3.155062,4.68876652147113,8.73703587130322,-1.63344567103239,-0.032070424,0.046731193,-0.07880162,29.996674,-118.87565,25.459908,STD
11915649220000,3.160308,4.8357147615318,8.7043809278518,-1.64433070901311,-0.03481932,0.053450707,-0.070249505,30.00103,-118.83475,25.429003,STD
11915653921000,3.165009,4.91694301431976,8.69271605949089,-1.66535999561445,-0.03634648,0.064446285,-0.06047566,29.995275,-118.82533,25.429537,STD
11915658917000,3.170005,4.9808042211841,8.68815445285537,-1.69272911148823,-0.021380283,0.08032878,-0.050701816,29.986849,-118.82005,25.433119,STD
11915663917000,3.175005,5.03059303196347,8.67520248401826,-1.71015238660578,-0.018020526,0.083383106,-0.036651913,29.978321,-118.841644,25.466623,STD
11915668923000,3.180011,5.06951030076103,8.65574384961948,-1.71988175460173,-0.012217305,0.08368854,-0.02565634,29.96652,-118.866776,25.502026,STD
11915673904000,3.184992,5.0747881522183,8.61112139576759,-1.72644917564507,-0.0009162979,0.08307768,-0.0143553335,29.95303,-118.909035,25.55196,STD
11915679011000,3.190099,5.05663019333581,8.5475683026731,-1.73098868906627,0.005192355,0.077579886,-0.007941248,29.941542,-118.95209,25.602057,STD
11915683925000,3.195013,5.03399876671118,8.50296678677075,-1.72691287206245,0.01985312,0.071776666,-0.0015271631,29.919687,-119.00549,25.661098,STD
11915688921000,3.200009,5.00451297611956,8.47839525184881,-1.71216995110928,0.02107485,0.06872234,0.005497787,29.899458,-119.05878,25.720581,STD
11915693936000,3.205024,4.96600200543867,8.47530366871774,-1.69056299870981,0.029626964,0.06414085,0.020463986,29.88281,-119.12212,25.788456,STD
11915698935000,3.210023,4.91848868348551,8.49430889827313,-1.66205495592497,0.040317107,0.048258353,0.029321533,29.870722,-119.18501,25.854164,STD
11915703917000,3.215005,4.86209237118896,8.52003281093688,-1.6426884278285,0.04337143,0.03604105,0.025045475,29.859535,-119.2441,25.916113,STD
11915708915000,3.220003,4.79558697724295,8.55328518549027,-1.63318766435093,0.046731193,0.025045475,0.035124753,29.854422,-119.309326,25.982145,STD
11915713925000,3.225013,4.71910926721312,8.59828453558701,-1.6122823424804,0.044593163,0.008246681,0.036651913,29.850891,-119.35721,26.031761,STD
11915718925000,3.230013,4.63134697213115,8.65679283413094,-1.57815262045617,0.04886922,-0.00061086525,0.037873644,29.848776,-119.40785,26.082796,STD
11915723899000,3.234987,4.54767375160568,8.69530625673698,-1.56000369133879,0.05131268,-0.0036651916,0.04153884,29.8532,-119.443855,26.119768,STD
11915728947000,3.240035,4.46651127746018,8.71403600998709,-1.55792260281533,0.04153884,0.0030543262,0.052534413,29.857534,-119.48027,26.15841,STD
11915733915000,3.245003,4.38663505488592,8.73246893671976,-1.55587449509255,0.025961773,-0.003970624,0.04886922,29.869543,-119.491425,26.173243,STD
11915738915000,3.250003,4.30624433168317,8.7510205940594,-1.5538131950495,0.029932396,-0.0067195175,0.04734206,29.878796,-119.50678,26.191977,STD
11915744971000,3.256059,4.21105335769231,8.77326886486487,-1.54900568991684,0.011911872,-0.006414085,0.046120327,29.88024,-119.51305,26.204174,STD
11915748973000,3.260061,4.17519697692308,8.78522078378378,-1.51713342079002,0.0067195175,0.002443461,0.033292156,29.878695,-119.517845,26.21285,STD
11915753903000,3.264991,4.13102607307692,8.79994416216216,-1.47787048056133,-0.025350908,0.002443461,0.032986723,29.883179748064,-119.500949721915,26.201671102283,STD
11915758916000,3.270004,4.14182621582829,8.80514868764889,-1.4748282,-0.040011674,0.0067195175,0.028710667,29.88774,-119.48377,26.190304,STD
11915763897000,3.274985,4.15712385079714,8.80951949917537,-1.4748282,-0.05589417,0.01863139,0.015577064,29.890093,-119.448,26.163353,STD
11915768918000,3.280006,4.17254433366777,8.81392541057358,-1.4748282,-0.08093964,0.005497787,0.008246681,29.892067,-119.39227,26.122723,STD
11915773913000,3.285001,4.18788496540224,8.81830850705516,-1.4748282,-0.09407325,0.0125227375,0.0076358155,29.884287,-119.3355,26.0832,STD
11915778944000,3.290032,4.20885865338228,8.80886541667541,-1.48620184270582,-0.108123146,0.0070249503,0.0009162979,29.884048,-119.27315,26.03883,STD
11915783925000,3.295013,4.23387283314106,8.78885417734662,-1.50621318651285,-0.116980694,0.0076358155,-0.003970624,29.880507,-119.21126,25.996338,STD
11915788930000,3.300018,4.25800582931442,8.77264383008274,-1.53480775336879,-0.12797627,0.009162978,-0.0070249503,29.875086,-119.15078,25.956526,STD
11915794028000,3.305116,4.28205159684791,8.75821631934594,-1.56847187813239,-0.13561209,0.008857546,-0.004276057,29.870808,-119.091034,25.917513,STD
11915799006000,3.310094,4.30764082291647,8.73884212257974,-1.61176376031241,-0.15302174,0.007941248,-0.008857546,29.859856,-119.03223,25.879265,STD
11915803919000,3.315007,4.33404662397344,8.71683725007015,-1.66017452578805,-0.17104226,0.009468411,-0.015882496,29.849064,-118.97361,25.841833,STD
11915808908000,3.319996,4.35789721167425,8.67523679115226,-1.71559876119775,-0.18051068,0.0106901415,-0.02076942,29.838184,-118.921524,25.808392,STD
11915813934000,3.325022,4.3787475460039,8.61268584259259,-1.77814981861598,-0.19058995,-0.0030543262,-0.021380283,29.832054,-118.86752,25.773829,STD
11915818919000,3.330007,4.4105531064349,8.55383251080785,-1.80958054048212,-0.19211712,0.005192355,-0.026267206,29.81855,-118.822845,25.746365,STD
11915823905000,3.334993,4.44860469493974,8.49675500388485,-1.82384986754657,-0.1881465,-0.0070249503,-0.031154128,29.816172,-118.778336,25.716852,STD
11915828990000,3.340078,4.50210596983164,8.46942588155834,-1.83521840790916,-0.18600847,-0.02107485,-0.03145956,29.818071,-118.748505,25.69742,STD
11915834468000,3.345556,4.56886416162882,8.45915570399374,-1.84548890720439,-0.19028452,-0.040317107,-0.03604105,29.824924,-118.71657,25.674568,STD
11915838930000,3.350018,4.6277925058683,8.45362080407149,-1.85642411861799,-0.17562376,-0.0720821,-0.038179077,29.837975,-118.700745,25.661875,STD
11915843927000,3.355015,4.6963991237408,8.44904694676479,-1.87014540398547,-0.15790866,-0.09040806,-0.03359759,29.85292,-118.68559,25.649517,STD
11915848920000,3.360008,4.77938900572858,8.45158873174717,-1.89401033229858,-0.13133603,-0.09560041,-0.03176499,29.8681,-118.68373,25.648546,STD
11915853922000,3.36501,4.87722042327172,8.46137207781068,-1.92825137951598,-0.106901415,-0.109650314,-0.018020526,29.892412,-118.68791,25.650257,STD
11915858904000,3.369992,4.94078876685342,8.4700593847557,-1.95075001560912,-0.076052725,-0.11026118,-0.013439035,29.91448,-118.708015,25.663376,STD
11915863934000,3.375022,4.97530887040391,8.47790487400651,-1.96330279841042,-0.057421334,-0.09987647,-0.004581489,29.937912,-118.73366,25.680925,STD
11915868976000,3.380064,5.00991132807818,8.48576908013029,-1.97588552820847,-0.018020526,-0.08277224,0.0018325958,29.955366,-118.78189,25.713926,STD
11915873892000,3.38498,5.04364906745277,8.49343675908795,-1.98815381454072,-0.0030543262,-0.08307768,0.006414085,29.974596,-118.83017,25.74774,STD
11915878886000,3.389974,5.07792210863192,8.50122609771987,-2.00061675635179,0.004581489,-0.06841691,0.018325957,29.991058,-118.886284,25.785679,STD
11915883924000,3.395012,5.1124971149316,8.50908406488599,-2.01318950381759,0.0125227375,-0.062002823,0.026572637,30.009174,-118.94337,25.822727,STD
11915888901000,3.399989,5.12847395859317,8.51659838563233,-1.99535835679721,0.029626964,-0.06414085,0.02687807,30.024727,-119.002365,25.860659,STD
11915893924000,3.405012,5.11647488989773,8.52379772661512,-1.93056333572462,0.03145956,-0.071776666,0.038179077,30.040524,-119.06419,25.903353,STD
11915898848000,3.409936,5.10471231489149,8.53085517335994,-1.86704538156149,0.04734206,-0.07788532,0.035124753,30.04778,-119.14201,25.961115,STD
11915904490000,3.415578,5.09123456343228,8.53894171164879,-1.79426546738838,0.052534413,-0.09682214,0.041233405,30.062084,-119.22233,26.021978,STD
11915908869000,3.419957,5.07148968071715,8.57182506351326,-1.73971649612817,0.063224554,-0.10934488,0.032375857,30.074064,-119.29906,26.07673,STD
11915913932000,3.42502,5.03449781708945,8.6504331358478,-1.67960435560748,0.060170226,-0.11881329,0.042455133,30.091858,-119.379486,26.13625,STD
11915918852000,3.42994,4.99785607206269,8.70651900851526,-1.63042462307274,0.05009095,-0.13072516,0.051923547,30.108868,-119.44049,26.18075,STD
11915923964000,3.435052,4.95794213732222,8.71095374608207,-1.60381536411813,0.050701816,-0.13133603,0.050701816,30.124283,-119.50099,26.224373,STD
11915928924000,3.440012,4.91939972421712,8.71357445929019,-1.57929339394572,0.043066,-0.1255328,0.0580322,30.147518,-119.546234,26.262371,STD
11915933924000,3.445012,4.88256987035491,8.69779047950775,-1.56877059425338,0.028710667,-0.1142318,0.059864793,30.167732,-119.58789,26.298002,STD
11915938940000,3.450028,4.84912751117705,8.68490127586548,-1.55723139352127,0.011911872,-0.095294975,0.062308256,30.189335,-119.62076,26.326296,STD
11915944461000,3.455549,4.8229783950544,8.67967134342235,-1.54154186923838,-0.0033597588,-0.062308256,0.059253927,30.201904,-119.65019,26.354643,STD
11915948926000,3.460014,4.81021163231797,8.67127775120369,-1.53380593445023,-0.02687807,-0.040927973,0.06047566,30.213024,-119.673004,26.380484,STD
11915953898000,3.464986,4.82112878027906,8.64944352042187,-1.54004431169303,-0.042760566,-0.009162978,0.043676864,30.208698,-119.68888,26.402838,STD
11915958923000,3.470011,4.83216230169991,8.62737654341489,-1.5463491881301,-0.0580322,0.01985312,0.043982297,30.206087,-119.704056,26.430668,STD
11915963969000,3.475057,4.84324193335954,8.6052173462055,-1.55268041330451,-0.06994407,0.034208454,0.047036625,30.197172,-119.71379,26.455095,STD
11915968939000,3.480027,4.85415468986931,8.58339189830009,-1.55891628114376,-0.082161374,0.036957346,0.05100725,30.1833,-119.72171,26.480345,STD
11915974349000,3.485437,4.86603356566768,8.55963421758213,-1.56570421776555,-0.09162979,0.056505036,0.04153884,30.159414,-119.72569,26.50413,STD
11915978956000,3.490044,4.87874976550914,8.5397419707895,-1.57475136550914,-0.09407325,0.06261369,0.04153884,30.13933,-119.73252,26.531725,STD
11915983926000,3.495014,4.90791738638546,8.5202969917271,-1.60391898638546,-0.099265605,0.062308256,0.03940081,30.11497,-119.73485,26.556227,STD
11915988962000,3.50005,4.93373312125641,8.50546319842475,-1.6309929415781,-0.09712757,0.06627888,0.03634648,30.092556,-119.75255,26.59312,STD
11915993980000,3.505068,4.94285371005883,8.51230354479028,-1.64695399579142,-0.08827003,0.07544186,0.02565634,30.068369,-119.76759,26.62663,STD
11915998925000,3.510013,4.95184161592332,8.51904438033783,-1.66268285451699,-0.087659165,0.082161374,0.023823744,30.04217,-119.790276,26.664421,STD
11916003970000,3.515058,4.96101127923705,8.5259215320744,-1.67872978925318,-0.093767814,0.082161374,0.029321533,30.015537,-119.81204,26.70063,STD
11916009557000,3.520645,4.97106889713046,8.53152261311311,-1.69474170143477,-0.077579886,0.07574729,0.028405234,29.988821,-119.8342,26.733799,STD
11916013993000,3.525081,4.97815643213213,8.51734761711712,-1.69119793393393,-0.09437868,0.084910266,0.023518313,29.957981,-119.85167,26.767637,STD
11916018933000,3.530021,4.98604922359026,8.50156211661662,-1.68725153820487,-0.08246681,0.0852157,0.022602014,29.932987,-119.87904,26.802917,STD
11916023979000,3.535067,4.9844430126911,8.48448147835697,-1.68805464365445,-0.07696902,0.09162979,0.021991149,29.903471,-119.90207,26.837202,STD
11916029048000,3.540136,4.97550125560877,8.46659805756125,-1.69252552219562,-0.07544186,0.09468412,0.020463986,29.875324,-119.92523,26.870062,STD
11916034021000,3.545109,4.97235383928139,8.45034745740816,-1.69310366071861,-0.07788532,0.09773844,0.014966198,29.86372,-119.954544,26.9047,STD
11916039061000,3.550149,4.97722536451352,8.43573257650384,-1.68823213548648,-0.077579886,0.099571034,0.018325957,29.852165,-119.985695,26.940739,STD
11916044034000,3.555122,4.97639316223382,8.42404375481057,-1.6908375344223,-0.07422013,0.10140363,0.015271631,29.839104,-120.01407,26.973242,STD
11916048989000,3.560077,4.96827671713846,8.41592752159412,-1.70301226562901,-0.083383106,0.11911872,0.01740966,29.821253,-120.04265,27.008617,STD
11916053929000,3.565017,4.96118077130181,8.40883178366843,-1.71503795084803,-0.07574729,0.12003502,0.019547688,29.799442,-120.07127,27.03936,STD
11916058898000,3.569986,4.96652578110749,8.41417696091205,-1.72572808208469,-0.067500606,0.12370021,0.018936822,29.771654,-120.09833,27.070772,STD
11916063841000,3.574929,4.97366802677837,8.4199971684559,-1.73869052974817,-0.07544186,0.13225232,0.02321288,29.757942,-120.12996,27.104897,STD
11916068856000,3.579944,4.98571469377947,8.42722506802448,-1.75796522210796,-0.059864793,0.13591751,0.021685716,29.744152,-120.16317,27.136593,STD
11916073821000,3.584909,4.99764125442962,8.43438090478579,-1.77704774405538,-0.053450707,0.13897185,0.01863139,29.728325,-120.195435,27.169483,STD
11916078846000,3.589934,5.00971194270091,8.44162321691582,-1.79636087049764,-0.038179077,0.1441642,0.022296581,29.711193,-120.231445,27.203665,STD
11916083844000,3.594932,5.01689292074936,8.44945164331833,-1.80595511983956,-0.025350908,0.15363261,0.028405234,29.703485,-120.270004,27.238073,STD
11916088853000,3.599941,5.01220013163764,8.45883751555469,-1.79187660549795,-0.019242255,0.15668693,0.0290161,29.695826,-120.308426,27.271364,STD
11916093870000,3.604958,5.00751307131734,8.46647641299932,-1.77723686471129,0.0021380284,0.15241088,0.034513887,29.688503,-120.35736,27.310452,STD
11916098842000,3.60993,5.00290758740207,8.46877895057549,-1.76111773112003,-0.0012217305,0.14477506,0.041233405,29.681246,-120.40373,27.349453,STD
11916103877000,3.614965,4.99824374759648,8.47111066350711,-1.74479435267434,0.013744468,0.15271631,0.029932396,29.660364,-120.44559,27.381618,STD
11916108916000,3.620004,4.993576202655,8.47344422884225,-1.72845800630138,0.027794369,0.14630222,0.03848451,29.648367,-120.49312,27.419203,STD
11916113895000,3.624983,4.98138774060525,8.47699813671562,-1.71120019022697,0.040011674,0.14905111,0.03573562,29.6293,-120.53572,27.451324,STD
11916118881000,3.629969,4.91338606754784,8.48974871668892,-1.68569956283044,0.045814894,0.15027285,0.033292156,29.613329,-120.58083,27.484993,STD
11916124908000,3.635996,4.83076810999155,8.50651957235174,-1.65500715214992,0.055588737,0.14477506,0.041233405,29.598642,-120.62483,27.517685,STD
11916128891000,3.639979,4.77198808217428,8.53116914902819,-1.63604585860218,0.07513642,0.13591751,0.040317107,29.583769,-120.6672,27.546839,STD
11916133957000,3.645045,4.69722543569618,8.56252108361087,-1.61192888317841,0.074830994,0.14385876,0.032986723,29.558191,-120.69061,27.562967,STD
11916138910000,3.649998,4.62413041240245,8.59317369553114,-1.58834985055426,0.089491755,0.14752395,0.04184427,29.5381,-120.72188,27.5825,STD
11916144288000,3.655376,4.5447633550082,8.62645650330566,-1.56274758173684,0.07941248,0.15118915,0.038789943,29.518742,-120.746185,27.598362,STD
11916148903000,3.659991,4.49606682402818,8.65553223430135,-1.54244540808373,0.07086037,0.15607607,0.036651913,29.498724,-120.774635,27.617292,STD
11916154200000,3.665288,4.44207594815265,8.68895520092747,-1.51930642292839,0.05375614,0.16187929,0.03848451,29.477507,-120.80075,27.636793,STD
11916159559000,3.670647,4.38745312319193,8.72276937463889,-1.49589660200193,0.048258353,0.17012598,0.03940081,29.449604,-120.791306,27.625689,STD
11916163865000,3.674953,4.34356323995236,8.74993933769196,-1.47708662086564,0.03848451,0.16920967,0.03848451,29.423506,-120.77972,27.614815,STD
11916168925000,3.680013,4.31633790641906,8.78393942516148,-1.44409018313484,0.026267206,0.16340645,0.030848695,29.396706,-120.76611,27.602991,STD
11916173908000,3.684996,4.29225575341139,8.81765438907953,-1.41037511863141,0.020158553,0.17745635,0.023823744,29.364738,-120.75244,27.592806,STD
11916178900000,3.689988,4.28602373411484,8.8246250490761,-1.40340454251937,-0.0018325958,0.16340645,0.016187929,29.336657,-120.706055,27.55464,STD
11916183858000,3.694946,4.2813067876813,8.82934219252931,-1.398687497576,-0.026267206,0.15515977,0.01985312,29.304,-120.660904,27.51998,STD
11916188981000,3.700069,4.33523103967879,8.82563143457723,-1.41076722149268,-0.038179077,0.14569137,0.020158553,29.277122,-120.6035,27.47488,STD
11916194134000,3.705222,4.3958392771847,8.82096915011809,-1.42475388014171,-0.04428773,0.12095132,0.0125227375,29.258516,-120.54407,27.427881,STD
11916199019000,3.710107,4.42976285882598,8.80802328318215,-1.44323210667292,-0.051923547,0.12064589,0.015577064,29.224922,-120.48312,27.386671,STD
11916203865000,3.714953,4.45879591127098,8.79350700959233,-1.46258735707434,-0.056199603,0.12003502,0.019547688,29.19991,-120.421524,27.342773,STD
11916208967000,3.720055,4.49131107074341,8.7792862676259,-1.49377051328537,-0.061086524,0.10262536,0.015271631,29.178595,-120.3699,27.307348,STD
11916213890000,3.724978,4.52296820383693,8.76571862129496,-1.52542769360192,-0.070249505,0.10354166,0.019547688,29.153828,-120.32164,27.277243,STD
11916218909000,3.729997,4.55968067854678,8.71053858365375,-1.54721460875481,-0.061391957,0.099571034,0.017104227,29.12788,-120.27807,27.246706,STD
11916223953000,3.735041,4.59778020906044,8.64386459173814,-1.56626439887607,-0.0580322,0.09162979,0.010995574,29.104023,-120.23393,27.216719,STD
11916229555000,3.740643,4.64883324754098,8.5820748852459,-1.59602976885246,-0.051923547,0.077579886,0.013439035,29.070248,-120.19936,27.194904,STD
11916233948000,3.745036,4.69063256615996,8.53609569150522,-1.62110928146051,-0.03970624,0.070249505,0.007330383,29.037008,-120.1631,27.16952,STD
11916239008000,3.750096,4.73885471577061,8.49770853853047,-1.61340013369176,-0.025961773,0.050701816,-0.0030543262,28.998465,-120.13895,27.153568,STD
11916243952000,3.75504,4.78599499772999,8.4647106364994,-1.594544020908,0.005192355,0.04795292,0.0033597588,28.959045,-120.12186,27.141706,STD
11916248928000,3.760016,4.81531765053303,8.47539212179331,-1.58281495978679,0.012217305,0.043676864,0.0030543262,28.923788,-120.11438,27.136723,STD
11916253940000,3.765028,4.83868274891204,8.50109377880543,-1.57346892043518,0.040927973,0.036651913,0.0076358155,28.89201,-120.1165,27.13486,STD
11916258940000,3.770028,4.86199190531568,8.52673389952782,-1.56414525787373,0.051618114,0.028099801,0.011911872,28.859507,-120.12669,27.142721,STD
11916263935000,3.775023,4.88527775256292,8.55234838012949,-1.55483091897483,0.06536258,0.025961773,0.007330383,28.82755,-120.13962,27.149523,STD
11916268851000,3.779939,4.89678629706214,8.5981221550824,-1.53017646678268,0.08093964,0.027794369,0.008552114,28.798367,-120.15667,27.15899,STD
11916273836000,3.784924,4.90167316874808,8.65676492148633,-1.49596795675095,0.087659165,0.030848695,0.018325957,28.770296,-120.17534,27.169731,STD
11916278864000,3.789952,4.88368779696381,8.6994972467798,-1.4745863813944,0.0888809,0.043676864,0.022296581,28.721905,-120.19047,27.17994,STD
11916283852000,3.79494,4.85438765674709,8.733681007156,-1.45993628579023,0.09743301,0.053145275,0.029932396,28.675545,-120.210846,27.194149,STD
11916288919000,3.800007,4.8051274599255,8.77078275159298,-1.43530614451524,0.08674286,0.067500606,0.024740042,28.618631,-120.217705,27.200247,STD
11916293886000,3.804974,4.74917063341829,8.80808710783257,-1.40732768257034,0.07360926,0.07788532,0.03145956,28.562756,-120.23064,27.212461,STD
11916298909000,3.809997,4.70040693803727,8.81718537278772,-1.36767809746231,0.06566802,0.07544186,0.023518313,28.50814,-120.22882,27.209538,STD
11916303858000,3.814946,4.65602471015076,8.8127470758498,-1.32329610129226,0.031154128,0.0842994,0.027488936,28.449581,-120.22758,27.21368,STD
11916308951000,3.820039,4.61351477774487,8.80795449964253,-1.30515324381575,-0.0012217305,0.08979719,0.022907447,28.40211,-120.20921,27.202192,STD
11916313931000,3.825019,4.57454641761822,8.80308334654274,-1.31002429518946,-0.021991149,0.089491755,0.025045475,28.355871,-120.191605,27.194338,STD
11916318953000,3.830041,4.55005138487921,8.77555930271399,-1.30635020966299,-0.036957346,0.087659165,0.024129177,28.309944,-120.159355,27.17712,STD
11916323971000,3.835059,4.53571898116115,8.73256234098817,-1.29679530710806,-0.06658431,0.081855945,0.019242255,28.266739,-120.12338,27.159534,STD
11916329000000,3.840088,4.52138454324351,8.69800423345552,-1.30412890315039,-0.09254608,0.06994407,0.018325957,28.229198,-120.083176,27.139252,STD
11916333959000,3.845047,4.50726976718843,8.66977492698633,-1.3229485390529,-0.10934488,0.06414085,0.020463986,28.192854,-120.04116,27.118908,STD
11916339007000,3.850095,4.49330406227037,8.64444189189826,-1.37274934592558,-0.12675454,0.0571159,0.014660766,28.165956,-119.99783,27.099077,STD
11916344526000,3.855614,4.47836647153085,8.61954582067828,-1.45241677382949,-0.13988814,0.06536258,0.016798794,28.137962,-119.95661,27.082863,STD
11916348948000,3.860036,4.48981411141618,8.60518816422378,-1.52365727246078,-0.14782938,0.070554934,0.0143553335,28.114174,-119.91418,27.063898,STD
11916353957000,3.865045,4.52942610859827,8.59528520370561,-1.61278448585879,-0.15118915,0.070249505,0.008552114,28.090553,-119.87134,27.04487,STD
11916358943000,3.870031,4.55853985941626,8.58322847394024,-1.66634443446838,-0.14080444,0.083383106,0.011911872,28.060255,-119.8357,27.028173,STD
11916363973000,3.875061,4.57766879012211,8.56888201310434,-1.68547331523876,-0.13439035,0.08735373,0.0061086523,28.032955,-119.7962,27.00695,STD
11916368883000,3.879971,4.59772178009153,8.55123451990847,-1.70552628009153,-0.13255776,0.09162979,0.007330383,28.003944,-119.773865,26.998175,STD
11916373928000,3.885016,4.61983388810069,8.52912241189932,-1.72763838810069,-0.11301007,0.08674286,0.0009162979,27.9766,-119.751465,26.985527,STD
11916378940000,3.890028,4.64872794907401,8.51571822330681,-1.74007444987631,-0.092240654,0.09285152,-0.0009162979,27.94531,-119.73725,26.980284,STD
11916383925000,3.895013,4.6934137563716,8.52210186959283,-1.73049893045397,-0.0693332,0.08368854,-0.005192355,27.920578,-119.723724,26.971485,STD
11916388921000,3.900009,4.73819816825901,8.52849960215952,-1.7209022815003,-0.044898596,0.063224554,-0.01282817,27.911524,-119.72437,26.973076,STD
11916393929000,3.905017,4.78309014878986,8.53491270157786,-1.71128258214883,-0.016187929,0.056199603,-0.01282817,27.901682,-119.72912,26.975883,STD
11916398901000,3.909989,4.82765942339039,8.54127970044127,-1.70173203399077,0.005497787,0.046731193,-0.014049901,27.898493,-119.73353,26.97458,STD
11916403923000,3.915011,4.87267690067193,8.54771072785318,-1.69208544250852,0.032070424,0.03726278,-0.01282817,27.897661,-119.74248,26.973722,STD
11916408886000,3.919974,4.91257531633823,8.54746376133875,-1.67472598573663,0.054367006,0.03176499,-0.017715093,27.897867,-119.75148,26.970726,STD
11916413959000,3.925047,4.94296835700136,8.53226697654051,-1.63926750882077,0.06811147,0.02565634,-0.0143553335,27.90164,-119.76496,26.97004,STD
11916418853000,3.929941,4.96932083847011,8.51994417155589,-1.60823849383587,0.07360926,0.0143553335,-0.014966198,27.899343,-119.7942,26.985973,STD
11916423903000,3.934991,4.99176924173784,8.51096509153361,-1.58130040991459,0.0870483,0.008857546,-0.004276057,27.897934,-119.829315,27.005917,STD
11916428923000,3.940011,5.01089624689379,8.50531815831663,-1.54320931563126,0.093767814,0.017104227,-0.004276057,27.891981,-119.86432,27.027916,STD
11916433925000,3.945013,5.02003884702739,8.50988960158412,-1.47006765535834,0.089186326,0.022602014,0.003970624,27.889597,-119.903854,27.054432,STD
11916438917000,3.950005,5.02707757327879,8.51527362229069,-1.40406133524224,0.08552113,0.025350908,0.013133603,27.887499,-119.947815,27.086464,STD
11916443924000,3.955012,5.0219829560986,8.52546264385891,-1.37858803654909,0.076358154,0.027183503,0.023823744,27.884293,-119.99237,27.121128,STD
11916448882000,3.95997,5.0132911563726,8.5341739117795,-1.3549510563726,0.053145275,0.03023783,0.025045475,27.873545,-120.02904,27.156261,STD
11916453924000,3.965012,4.99386203431244,8.53903129373303,-1.33552193431244,0.028405234,0.046120327,0.025350908,27.858774,-120.06627,27.19446,STD
11916458906000,3.969994,4.97083761192106,8.5464127606863,-1.32550021499554,0.014049901,0.043066,0.025045475,27.851393,-120.09924,27.231102,STD
11916463929000,3.975017,4.93744186040861,8.56072504770406,-1.33981270127938,-0.004581489,0.04734206,0.025045475,27.836864,-120.12837,27.26864,STD
11916468914000,3.980002,4.89857829745714,8.57482299730302,-1.35271708167983,-0.016187929,0.053450707,0.02687807,27.813463,-120.1492,27.301321,STD
11916473908000,3.984996,4.84329810387209,8.58864332228858,-1.36193043926026,-0.03023783,0.061086524,0.028710667,27.788694,-120.16727,27.333668,STD
11916478939000,3.990027,4.79769640156922,8.59940519128069,-1.37544527001076,-0.049480084,0.06719518,0.02321288,27.757809,-120.17469,27.358934,STD
11916484579000,3.995667,4.79598755722602,8.59598743121994,-1.41133101906163,-0.05009095,0.0720821,0.022296581,27.726141,-120.184265,27.385744,STD
11916488963000,4.000051,4.79465926403442,8.59333078935713,-1.43922518995507,-0.06169739,0.08155051,0.028405234,27.69532,-120.181145,27.40297,STD
11916493998000,4.005086,4.79313372657555,8.59027965072134,-1.47126149252088,-0.065973446,0.093462385,0.022907447,27.662134,-120.175735,27.416748,STD
11916498937000,4.010025,4.7916372758289,8.58728668672488,-1.50268697382625,-0.055283304,0.09590584,0.019242255,27.630438,-120.17299,27.432251,STD
11916503921000,4.015009,4.7901271906859,8.58426645336624,-1.53439877759744,-0.044898596,0.09773844,0.0106901415,27.595446,-120.167244,27.445137,STD
11916508897000,4.019985,4.78861952943559,8.5812510678942,-1.56605967959694,-0.04917465,0.09560041,0.008246681,27.565777,-120.16177,27.454256,STD
11916513931000,4.025019,4.79737793867925,8.57184479559749,-1.55713461855346,-0.03023783,0.0888809,0.0015271631,27.536915,-120.15703,27.45948,STD
11916519125000,4.030213,4.80808935003794,8.56139982081199,-1.54239834447923,-0.027794369,0.089491755,0.00030543262,27.507486,-120.15102,27.465765,STD
11916523905000,4.034993,4.81677410492316,8.55705737535572,-1.55108300867957,-0.013744468,0.08552113,0.0030543262,27.479073,-120.1527,27.468727,STD
11916528986000,4.040074,4.82600574500095,8.5524414830203,-1.56031455236198,0.0067195175,0.08979719,0.00061086525,27.447056,-120.15538,27.472723,STD
11916533925000,4.045013,4.824529558888,8.56299481943749,-1.54138900223701,0.0061086523,0.076358154,-0.0027488936,27.42266,-120.15791,27.475977,STD
11916539954000,4.051042,4.82164006212591,8.5774424541087,-1.51538322965669,0.030848695,0.07819075,0.00061086525,27.393076,-120.16693,27.48187,STD
