timestamp,rel_time,acc_x,acc_y,acc_z,gyro_x,gyro_y,gyro_z,azimuth,pitch,roll,label
2115649094000,0,1.73759541747893,9.79434689635344,0.35979452278246,-0.032070424,0.0125227375,0.003970624,176.80879,-75.08576,14.908774,STD
2115654149000,0.005055,1.73541868716683,9.7941050576336,0.360278240629593,-0.04184427,0.01160644,0.010079277,176.77773,-75.15635,14.838776,STD
2115659103000,0.010009,1.73328544840004,9.79386805090402,0.36075229368888,-0.03023783,0.021991149,0.014966198,176.74179,-75.2258,14.770009,STD
2115664093000,0.014999,1.7311367076963,9.79362932188089,0.361229791623043,-0.029321533,0.00580322,0.007330383,176.7139,-75.295525,14.700815,STD
2115669096000,0.020002,1.7289823690709,9.79338997091841,0.3617085335398,-0.030848695,0.007330383,0.009773844,176.6776,-75.35972,14.637119,STD
2115674042000,0.024948,1.72685257517898,9.79315334692073,0.362181821071338,-0.030543262,0.015882496,0.0067195175,176.64388,-75.42631,14.570997,STD
2115679071000,0.029977,1.72468704071023,9.79291275207958,0.362663050953283,-0.023518313,0.015577064,0.01038471,176.61221,-75.488976,14.5087805,STD
2115684057000,0.034963,1.72254002244393,9.79267421442239,0.363140166123571,-0.03176499,0.016187929,0.0030543262,176.5777,-75.55431,14.443765,STD
2115689080000,0.039986,1.72037707163134,9.79243390663016,0.363620821859703,-0.025045475,0.018020526,0.002443461,176.54288,-75.615555,14.382897,STD
2115694069000,0.044975,1.71822876153696,9.79219522544851,0.364098224102897,-0.029321533,0.019547688,0.0015271631,176.50793,-75.67766,14.321046,STD
2115699060000,0.049966,1.71607959022387,9.79195644858389,0.364575817728029,-0.034208454,0.022907447,0.0027488936,176.47188,-75.73815,14.260797,STD
2115704153000,0.055059,1.71388649675611,9.79171279188753,0.365063171831975,-0.024740042,0.024129177,0.00061086525,176.43604,-75.79872,14.200469,STD
2115709072000,0.059978,1.7117683293169,9.79147745961001,0.365533875707356,-0.032070424,0.019547688,-0.00030543262,176.40097,-75.85739,14.141943,STD
2115714061000,0.064967,1.70962001922253,9.79123877842837,0.36601127795055,-0.032070424,0.028099801,-0.002443461,176.36171,-75.91596,14.08353,STD
2115719091000,0.069997,1.70745405414441,9.79099813574572,0.366492603523464,-0.029321533,0.031154128,0.00061086525,176.32547,-75.9722,14.027426,STD
2115724034000,0.07494,1.70532555208058,9.79076165527251,0.366965603982094,-0.0290161,0.025045475,-0.0036651916,176.28954,-76.03007,13.969661,STD
2115729072000,0.079978,1.70315614212759,9.79052062985796,0.367447695082758,-0.028099801,0.025045475,0.0033597588,176.251,-76.082825,13.916987,STD
2115734063000,0.084969,1.70100697081449,9.79028185299334,0.36792528870789,-0.020158553,0.027794369,-0.0027488936,176.2136,-76.13955,13.860344,STD
2115739109000,0.090015,1.69883411598663,9.7900404448469,0.368408145336304,-0.02321288,0.03023783,0.0030543262,176.17638,-76.18987,13.810064,STD
2115744039000,0.094945,1.69671121184447,9.78980458631302,0.368879901812341,-0.02076942,0.02565634,-0.0009162979,176.14055,-76.2438,13.756183,STD
2115749061000,0.099967,1.69454869164123,9.78956432636228,0.369360461857505,-0.019547688,0.03145956,0.0027488936,176.1011,-76.29297,13.70703,STD
2115754086000,0.104992,1.69238487960991,9.78932392288708,0.369841308975575,-0.024740042,0.03145956,0.0021380284,176.06485,-103.65642,13.656415,STD
2115759072000,0.109978,1.69023786134362,9.78908538522989,0.370318424145863,-0.022602014,0.03145956,0.008246681,176.02737,-103.60967,13.609662,STD
2115764057000,0.114963,1.68809127368668,9.78884689541419,0.370795443625182,-0.03023783,0.031154128,0.003970624,175.99017,-103.56056,13.56053,STD
2115769089000,0.119995,1.68592444738985,9.78860615704857,0.371276960580033,-0.016493361,0.03176499,0.009773844,175.95319,-103.51696,13.516888,STD
2115774071000,0.124977,1.68377915156099,9.78836781075734,0.371753692986446,-0.02076942,0.034208454,0.0015271631,175.91623,-103.468834,13.468727,STD
2115779069000,0.129975,1.68162696598238,9.7881286990023,0.372231956448359,-0.022907447,0.028405234,0.011911872,175.88199,-103.42854,13.428381,STD
2115784036000,0.134942,1.67948812929392,9.78789107033338,0.37270725349024,-0.01863139,0.036957346,0.008246681,175.84322,-103.38255,13.3823185,STD
2115789664000,0.14057,1.67706465981885,9.78762181844115,0.373245802262479,-0.01740966,0.02565634,0.0012217305,175.8125,-103.33933,13.339021,STD
2115794072000,0.144978,1.67620022570713,9.78671991566603,0.378244268236945,-0.014049901,0.030848695,0.0067195175,175.77477,-103.29936,13.298966,STD
2115799056000,0.149962,1.6769178377829,9.78456705945675,0.391400499617119,-0.01740966,0.032375857,0.005497787,175.74185,-103.25615,13.2556715,STD
2115804085000,0.154991,1.67764192910093,9.78239476534028,0.40467551719555,-0.01863139,0.029626964,-0.0036651916,175.70525,-103.20572,13.205138,STD
2115809071000,0.159977,1.67835982914303,9.78024104522402,0.417837027962313,-0.011911872,0.035430185,0.007330383,175.66608,-103.161545,13.160856,STD
2115814068000,0.164974,1.6790793129999,9.77808257361933,0.431027575355317,-0.024740042,0.036957346,0.0018325958,175.62915,-103.11084,13.110088,STD
2115819077000,0.169983,1.67980052465471,9.77591891857272,0.444249799067856,-0.029626964,0.026572637,0.0070249503,175.59427,-103.06714,13.066279,STD
2115824078000,0.174984,1.68052058444422,9.77375871915405,0.457450905234038,-0.040317107,0.021991149,0.003970624,175.55746,-103.02022,13.019317,STD
2115829073000,0.179979,1.68123978033477,9.77160111145635,0.470636173240453,-0.03176499,0.026572637,0.0015271631,175.52126,-102.97576,12.97477,STD
2115834058000,0.184964,1.68195753639371,9.76944782329358,0.483795044313922,-0.027794369,0.02076942,0.007941248,175.48965,-102.93369,12.932653,STD
2115839079000,0.189985,1.68268047584645,9.76727898480505,0.497048944345996,-0.024740042,0.021991149,0.0070249503,175.45483,-102.88962,12.88851,STD
2115844071000,0.194977,1.68339923978751,9.76512267296783,0.510226293272527,-0.02687807,0.008552114,0.0030543262,175.42622,-102.84721,12.846022,STD
2115849052000,0.199958,1.6841164199138,9.76297111261902,0.523374605572817,-0.029321533,0.0076358155,0.004886922,175.39377,-102.806915,12.805649,STD
2115854157000,0.205063,1.68485145395209,9.76076599003709,0.536850239841636,-0.02443461,-0.0009162979,0.007330383,175.36763,-102.766426,12.7650385,STD
2115859654000,0.21056,1.6856429293896,9.75839154168588,0.551360633881928,-0.023823744,0.0030543262,0.008857546,175.3382,-102.72689,12.725425,STD
2115864074000,0.21498,1.68627933496241,9.75648230724667,0.563028078243961,-0.021991149,0.0009162979,0.0067195175,175.31314,-102.687744,12.686157,STD
2115869095000,0.220001,1.68700227441515,9.75431346875815,0.576281978276035,-0.035430185,-0.005497787,0.0027488936,175.28828,-102.64911,12.647467,STD
2115874073000,0.224979,1.68771902259196,9.75216320426982,0.589422371496442,-0.025045475,-0.0067195175,0.004581489,175.26262,-102.61231,12.610506,STD
2115879069000,0.229975,1.68843836246567,9.75000516461862,0.602610279196151,-0.026267206,-0.008857546,0.005192355,175.23918,-102.57463,12.572763,STD
2115884083000,0.234989,1.68916029403628,9.74783934980455,0.615845701375163,-0.029932396,-0.0036651916,0.006414085,175.214,-102.53836,12.536408,STD
2115889119000,0.240025,1.68988539323644,9.74566403201363,0.629139196806655,-0.027488936,-0.008552114,0.00580322,175.19246,-102.502426,12.500354,STD
2115894107000,0.245013,1.69060358124486,9.74350944799038,0.642305986960008,-0.03268129,-0.013744468,0.004276057,175.16959,-102.467155,12.465025,STD
2115899103000,0.250009,1.69132292111857,9.74135140833918,0.655493894659717,-0.021991149,-0.0125227375,0.0076358155,175.14635,-102.43383,12.431552,STD
2115904155000,0.255061,1.69205032404931,9.73916917929237,0.668829625183923,-0.021380283,-0.005192355,0.010995574,175.12288,-102.400635,12.39829,STD
2115909109000,0.260015,1.69276361663025,9.73702928168788,0.68190666576526,-0.026267206,-0.01863139,0.007941248,175.1052,-102.36718,12.364724,STD
2115914046000,0.264952,1.69347446149744,9.73489672729277,0.694938831560589,-0.03359759,-0.015271631,0.0030543262,175.08055,-102.334694,12.332163,STD
2115919150000,0.270056,1.69420935155257,9.73269203666433,0.708411826136113,-0.025961773,-0.0125227375,0.0061086523,175.06007,-102.304245,12.301569,STD
2115924022000,0.274928,1.69491083751428,9.73058755924627,0.721272411867295,-0.029321533,-0.0106901415,0.009162978,175.03893,-102.27289,12.270186,STD
2115929163000,0.280069,1.69565105494638,9.72836688633858,0.734843075094718,-0.019242255,-0.0143553335,0.007941248,175.01866,-102.24187,12.239003,STD
2115934076000,0.284982,1.6963584442177,9.7262446988273,0.747811888250977,-0.019547688,-0.012217305,0.0061086523,174.99626,-102.211975,12.209047,STD
2115939074000,0.28998,1.69707807205773,9.72408579526912,0.761005075337276,-0.027183503,-0.016798794,0.005192355,174.97697,-102.182526,12.179509,STD
2115944031000,0.294937,1.69779179658815,9.72194460180415,0.774090034998496,-0.021380283,-0.012217305,0.003970624,174.95447,-102.15305,12.149885,STD
2115949047000,0.299953,1.69851401612509,9.71977792308309,0.787330736564097,-0.021991149,-0.0106901415,0.006414085,174.93428,-102.12481,12.121566,STD
2115954005000,0.304911,1.69922788463867,9.71763629766463,0.800418335918613,-0.01985312,-0.013439035,0.0009162979,174.91406,-102.0945,12.091128,STD
2115958980000,0.309886,1.69994420086599,9.71548732903678,0.813550810059136,-0.02076942,-0.0070249503,0.0021380284,174.89084,-102.06725,12.063804,STD
2115963994000,0.3149,1.7006661324366,9.71332151422271,0.826786232238148,-0.017715093,-0.00030543262,0.007941248,174.86842,-102.0403,12.036725,STD
2115969026000,0.319932,1.70139065570412,9.71114792424576,0.840069168896462,-0.024740042,0.0033597588,0.004581489,174.84512,-102.01146,12.007846,STD
2115973991000,0.324897,1.70210553209983,9.70900327515285,0.853175246104039,-0.022602014,0.003970624,0.011911872,174.82097,-101.98782,11.984097,STD
2115978990000,0.329896,1.70282530392302,9.70684393964117,0.866371072883632,-0.02443461,0.007941248,0.008246681,174.79492,-101.9604,11.956656,STD
2115983983000,0.334889,1.70354421184725,9.70468719585046,0.879551061503458,-0.026572637,-0.00061086525,0.0076358155,174.77263,-101.93632,11.932522,STD
2115989046000,0.339952,1.70427319859276,9.70250021531523,0.892915828653904,-0.027183503,0.0018325958,0.0061086523,174.74617,-101.91128,11.907454,STD
2115994010000,0.344916,1.70373123944292,9.7017229462686,0.893114916465993,-0.0290161,0.00061086525,0.003970624,174.72348,-101.88624,11.882397,STD
2115998978000,0.349884,1.70160483468754,9.70266803368889,0.877048753754593,-0.03023783,-0.00061086525,0.00580322,174.70027,-101.862274,11.858423,STD
2116004138000,0.355044,1.69939625003824,9.70364964622688,0.86036167654227,-0.027488936,-0.0033597588,0.013133603,174.67638,-101.84421,11.841078,STD
2116009073000,0.359979,1.69728396995213,9.70458845589258,0.844402233510716,-0.03176499,0.0033597588,0.014660766,174.65047,-101.825386,11.82294,STD
2116014063000,0.364969,1.69514814875057,9.70553772848261,0.828264924346086,-0.025350908,0.004276057,0.015271631,174.62749,-101.80884,11.806904,STD
2116019051000,0.369957,1.69301318358958,9.70648662060266,0.81213408304084,-0.038179077,0.0033597588,0.020463986,174.60352,-101.79426,11.7928705,STD
2116024154000,0.37506,1.69082899609628,9.70745738974634,0.795631339820978,-0.035430185,-0.00580322,0.02321288,174.5821,-101.779564,11.778536,STD
2116029068000,0.379974,1.68872570443607,9.70839220447729,0.779739809312963,-0.024129177,-0.005192355,0.019242255,174.55853,-101.76468,11.763966,STD
2116034082000,0.384988,1.68657961074777,9.70934604270703,0.763524885835717,-0.032070424,-0.0036651916,0.022907447,174.5377,-101.752975,11.752552,STD
2116039074000,0.38998,1.68444293350565,9.71029569576704,0.747381108811702,-0.029932396,-0.004886922,0.025961773,174.51785,-101.74028,11.740029,STD
2116044071000,0.394977,1.68230411616213,9.71124630000199,0.731221162139225,-0.034513887,-0.00061086525,0.023823744,174.49628,-101.727356,11.72725,STD
2116049061000,0.399967,1.68016829496057,9.71219557259202,0.715083852974594,-0.047036625,-0.0018325958,0.024740042,174.477,-101.71639,11.716371,STD
2116054110000,0.405016,1.67800722056244,9.71315606904634,0.698755741958117,-0.042455133,-0.009773844,0.022296581,174.4588,-78.29592,11.704077,STD
2116059073000,0.409979,1.67588295590847,9.7141002052917,0.682705748895179,-0.029321533,0.004886922,0.02443461,174.4347,-78.30646,11.693516,STD
2116064065000,0.414971,1.67374627866635,9.71504985835171,0.666561971871164,-0.034208454,0.004886922,0.018936822,174.4175,-78.319626,11.680263,STD
2116069045000,0.419951,1.6716147376676,9.71599722859186,0.650457002003456,-0.02565634,0.0070249503,0.015271631,174.39575,-78.33152,11.668267,STD
2116074106000,0.425012,1.6694485270261,9.71696000786604,0.634090083830671,-0.027794369,0.01038471,0.013439035,174.374,-78.34424,11.655387,STD
2116079067000,0.429973,1.66732511841269,9.71790376364142,0.618046558627118,-0.027488936,0.005192355,0.0009162979,174.35445,-78.36088,11.6385765,STD
2116084108000,0.435014,1.66516746817681,9.71886273821584,0.601744319048179,-0.020158553,0.021991149,0.0076358155,174.3278,-78.37234,11.626918,STD
2116089116000,0.440022,1.66302394261019,9.71981543503565,0.585548799149087,-0.02107485,0.019547688,0.0033597588,174.30862,-78.390205,11.608813,STD
2116094113000,0.445019,1.66088512526667,9.7207660392706,0.56938885247661,-0.027488936,0.027183503,-0.0027488936,174.28195,-78.40647,11.592269,STD
2116099109000,0.450015,1.65874673594343,9.72171645327056,0.553232139733826,-0.027488936,0.02321288,0.0021380284,174.25972,-78.42061,11.577869,STD
2116104143000,0.455049,1.65659208184951,9.72267409620007,0.536952537662734,-0.020463986,0.03634648,-0.0012217305,174.23065,-78.43861,11.559568,STD
2116109096000,0.460002,1.65447209739835,9.72361633009555,0.520934883896718,-0.0070249503,0.03848451,-0.0125227375,174.20631,-78.45729,11.540612,STD
2116114795000,0.465701,1.65203280981765,9.72470047929206,0.502504718580239,-0.021380283,0.035430185,-0.007941248,174.18005,-78.47207,11.525422,STD
2116119157000,0.470063,1.65016578535248,9.72553028430964,0.48839831726238,-0.005192355,0.04062254,-0.00061086525,174.15114,-78.48929,11.508022,STD
2116124074000,0.47498,1.64806120963143,9.72646566974555,0.472497084965288,-0.014049901,0.03848451,-0.016493361,174.12567,-78.51137,11.485527,STD
2116129106000,0.480012,1.64590741157807,9.72742293220507,0.45622395075358,-0.005497787,0.039095376,-0.013439035,174.09824,-78.52597,11.470702,STD
2116134072000,0.484978,1.64378186286326,9.72836763915539,0.440164255901565,-0.010995574,0.048563786,-0.011301007,174.06923,-78.54495,11.451326,STD
2116139082000,0.489988,1.64163748125608,9.72932071644519,0.423962268143088,-0.013744468,0.053145275,-0.021685716,174.04181,-78.566475,11.429483,STD
2116144070000,0.494976,1.63950251609509,9.73026960856524,0.407831426837842,-0.009773844,0.05131268,-0.015882496,174.0139,-78.58256,11.413085,STD
2116149086000,0.499992,1.63735556636623,9.73122382726496,0.391610035501212,-0.011301007,0.05497787,-0.010995574,173.98346,-78.60154,11.393697,STD
2116154126000,0.505032,1.63519834415063,9.73218261160439,0.375311029851966,-0.0061086523,0.07666359,-0.019547688,173.94868,-78.622574,11.37231,STD
2116159075000,0.509981,1.63308007178059,9.73312408455992,0.35930631180472,-0.009773844,0.0729984,-0.006414085,173.92064,-78.63573,11.358745,STD
2116164079000,0.514985,1.6309382582951,9.73407602043978,0.343123727624397,-0.0015271631,0.080634214,-0.01038471,173.88353,-78.65621,11.337942,STD
2116169100000,0.520006,1.62878916846483,9.73503119031444,0.326886166639304,0.00030543262,0.08582657,-0.0125227375,173.84868,-78.672226,11.321526,STD
2116174072000,0.524978,1.62666105162833,9.73597703867469,0.310807068209135,-0.0012217305,0.09590584,-0.008246681,173.81071,-78.687485,11.30588,STD
2116179067000,0.529973,1.62452309032537,9.73692726243966,0.294653589396043,0.0021380284,0.09254608,-0.0061086523,173.77573,-78.70394,11.289119,STD
2116184831000,0.535737,1.62205598142641,9.73802377691039,0.276013218649564,-0.011911872,0.09437868,0.005497787,173.73685,-78.716225,11.276303,STD
2116189110000,0.540016,1.62022448264456,9.73883779242397,0.262175233496166,-0.007941248,0.09437868,0.014966198,173.70007,-78.72869,11.263535,STD
2116194003000,0.544909,1.61432001194902,9.74210913807754,0.256485494573553,-0.015882496,0.09987647,0.0106901415,173.66177,-78.74154,11.250097,STD
2116199070000,0.549976,1.5885496212958,9.75757115719597,0.302872235422199,-0.015271631,0.08674286,0.013744468,173.62953,-78.7498,11.24141,STD
2116204090000,0.554996,1.56399617890842,9.77890311655874,0.354988577086031,-0.017715093,0.083383106,0.017715093,173.59467,-78.77071,11.221416,STD
2116209084000,0.55999,1.54187469922294,9.8142972253469,0.421352928366327,-0.03145956,0.06566802,0.02107485,173.56812,-78.790634,11.202282,STD
2116214049000,0.564955,1.52115028698315,9.8444364058193,0.483005454096478,-0.021380283,0.065973446,0.014660766,173.59674,-78.84678,11.147738,STD
2116219089000,0.569995,1.50883097304747,9.84033031087289,0.515856979364472,-0.02687807,0.046731193,0.024740042,173.63484,-78.89523,11.100466,STD
2116224068000,0.574974,1.49666076191935,9.83627391271057,0.548310896886166,-0.041233405,0.040317107,0.022296581,173.66922,-78.95622,11.040125,STD
2116229071000,0.579977,1.50609071831715,9.84345335933117,0.591781554951456,-0.034208454,0.028099801,0.025350908,173.70985,-79.01123,10.985825,STD
2116234073000,0.584979,1.52159335702265,9.85378812804746,0.638289471067961,-0.036651913,0.015882496,0.026572637,173.7513,-79.0657,10.931851,STD
2116239116000,0.590022,1.51842511924658,9.84596010708481,0.654507287025528,-0.03604105,0.008857546,0.018936822,173.80573,-79.1295,10.868513,STD
2116244004000,0.59491,1.51394941426523,9.83700897753131,0.667934448704465,-0.043066,0.0015271631,0.016187929,173.86266,-79.1898,10.808584,STD
2116249052000,0.599958,1.49562928572433,9.81087229377637,0.677378945710267,-0.04886922,0.0015271631,0.007941248,173.894973254005,-79.2204559700178,10.7779885700365,STD
2116254677000,0.605583,1.47195246610408,9.77772454852321,0.686849673558369,-0.058643065,-0.0067195175,0.013744468,173.93098,-79.254616,10.743896,STD
2116259072000,0.609978,1.46797306383453,9.76153884041367,0.68136509854963,-0.056199603,-0.02107485,0.0076358155,174.00218,-79.31958,10.679103,STD
2116264101000,0.615007,1.47285613462435,9.74933116343912,0.666715868334178,-0.064751714,-0.027183503,0.0106901415,174.08124,-79.38587,10.612892,STD
2116269072000,0.619978,1.47768288843151,9.73726427892122,0.652235589272534,-0.05681047,-0.028405234,0.009773844,174.16577,-79.45835,10.540622,STD
2116274078000,0.624984,1.48254362662476,9.7251124334381,0.637653356928419,-0.058948494,-0.0290161,0.0143553335,174.25082,-79.52651,10.472576,STD
2116279078000,0.629984,1.48707190221299,9.71245840475115,0.613400906154819,-0.0571159,-0.03145956,0.012217305,174.33566,-79.59513,10.404109,STD
2116284063000,0.634969,1.49138410056905,9.69952198979315,0.583215504154096,-0.058643065,-0.03940081,0.006414085,174.42114,-79.66173,10.337633,STD
2116289077000,0.639983,1.49607107585159,9.70217537925797,0.548317382279236,-0.056199603,-0.049785517,0.018936822,174.52907,-79.72963,10.269972,STD
2116294069000,0.644975,1.5012573836841,9.72810691842048,0.506826892541766,-0.055588737,-0.049785517,0.012217305,174.635,-79.80282,10.196963,STD
2116299037000,0.649943,1.51419396427995,9.7449304877975,0.475123000176482,-0.055283304,-0.058643065,0.010995574,174.7491,-79.86917,10.130761,STD
2116304076000,0.654982,1.53366058273497,9.75466344130698,0.450789828741428,-0.061086524,-0.052534413,0.016493361,174.85728,-79.93356,10.066429,STD
2116309066000,0.659972,1.55263799260204,9.76145906142072,0.402831004976452,-0.05222898,-0.05681047,0.013439035,174.98932,-99.9912,9.991161,STD
2116314061000,0.664967,1.57141192946429,9.76615265590659,0.33712201521978,-0.04795292,-0.06719518,0.01160644,175.11974,-99.92002,9.9198,STD
2116319083000,0.669989,1.58525066256526,9.77342066860408,0.278531204683282,-0.06383542,-0.07391469,0.015882496,175.26343,-99.84777,9.847225,STD
2116324261000,0.675167,1.59502086656487,9.78319107664269,0.224795041877648,-0.064751714,-0.07788532,0.01863139,175.40755,-99.77687,9.775786,STD
2116329070000,0.679976,1.61391563743595,9.79479135446599,0.17679807135537,-0.06352998,-0.074830994,0.016798794,175.55914,-99.70804,9.706098,STD
2116334061000,0.684967,1.64272979918618,9.80919820968552,0.128774521927057,-0.05955936,-0.0852157,0.011301007,175.71349,-99.64143,9.638379,STD
2116339078000,0.689984,1.65248006116192,9.8097658154342,0.0924223201588712,-0.05955936,-0.07544186,0.018020526,175.85866,-99.583725,9.579033,STD
2116344071000,0.694977,1.64415026200679,9.79727135589234,0.0674330322863862,-0.071776666,-0.086437434,0.014049901,176.01033,-99.52383,9.517234,STD
2116349061000,0.699967,1.63870430319637,9.78910257405784,0.0409264427426922,-0.06811147,-0.081855945,0.013133603,176.1719,-99.46429,9.45517,STD
2116354130000,0.705036,1.64370972183327,9.79661055828221,0.00839136899242151,-0.064751714,-0.076052725,0.015577064,176.33307,-99.40737,9.395563,STD
2116359026000,0.709932,1.64854431043976,9.80386230236634,-0.0230333145904006,-0.0720821,-0.063224554,0.016798794,176.49094,-99.34997,9.335049,STD
2116364063000,0.714969,1.65351813045832,9.81132288957055,-0.0553629982518946,-0.06994407,-0.06536258,0.022907447,176.64818,-99.29775,9.279224,STD
2116369027000,0.719933,1.66455447783338,9.81467359199294,-0.0781678305398881,-0.06841691,-0.061391957,0.019547688,176.79109,-99.248085,9.226141,STD
2116374056000,0.724962,1.68818401723089,9.80994758541851,-0.0828937413802375,-0.074830994,-0.06169739,0.025350908,176.93282,-99.20519,9.1797905,STD
2116379027000,0.729933,1.70330894485645,9.80119940788321,-0.079377979586764,-0.07788532,-0.06383542,0.021685716,177.07878,-99.16026,9.130264,STD
2116384077000,0.734983,1.69860209911436,9.78237212321168,-0.0558437346573236,-0.07544186,-0.064751714,0.018936822,177.22107,-99.1199,9.085129,STD
2116389045000,0.739951,1.69850078475085,9.76550467937429,-0.0286569299374293,-0.07544186,-0.059864793,0.021685716,177.36153,-99.089005,9.048473,STD
2116394044000,0.74495,1.71263067501599,9.75372977082001,0.0113777879179989,-0.07666359,-0.06047566,0.020158553,177.50052,-99.058495,9.011915,STD
2116399045000,0.749951,1.72676621836785,9.74195015136013,0.0514285228639874,-0.06963864,-0.058337633,0.018325957,177.63293,-99.02916,8.977185,STD
2116404045000,0.754951,1.74089893517635,9.73017288735304,0.0914712492646957,-0.06872234,-0.057421334,0.022296581,177.76303,-99.00285,8.945613,STD
2116409069000,0.759975,1.75215904513458,9.72244177432712,0.129653706563147,-0.07422013,-0.06047566,0.01985312,177.89276,-98.97614,8.913048,STD
2116414048000,0.764954,1.74996521549574,9.73341092252128,0.158173510194157,-0.08307768,-0.061086524,0.0143553335,178.01877,-98.95145,8.88253,STD
2116419042000,0.769948,1.74776477660916,9.74441311695422,0.186779234101219,-0.09010262,-0.06780604,0.01740966,178.13882,-98.93728,8.864507,STD
2116424048000,0.774954,1.74555905032436,9.75544174837819,0.215453694229124,-0.07849618,-0.058948494,0.020463986,178.2524,-98.92319,8.846296,STD
2116429065000,0.779971,1.74334847725788,9.76649461371061,0.244191162559466,-0.071776666,-0.0693332,0.016798794,178.37135,-98.90885,8.828149,STD
2116434052000,0.784958,1.74943492975784,9.76188673541362,0.284505714004551,-0.080634214,-0.06536258,0.01985312,178.48512,-98.89505,8.811556,STD
2116439801000,0.790707,1.75838292637738,9.75293855192589,0.333719737457338,-0.08155051,-0.064751714,0.017715093,178.60072,-98.88054,8.793635,STD
2116444053000,0.794959,1.76390922937031,9.74652380696633,0.366779609004379,-0.08552113,-0.0693332,0.02076942,178.71194,-98.865524,8.777626,STD
2116449075000,0.799981,1.76875092068757,9.73926140901998,0.400671294028791,-0.08246681,-0.06688975,0.020158553,178.81912,-98.850235,8.761184,STD
2116454063000,0.804969,1.77355983273267,9.73204817904062,0.434333525192027,-0.07391469,-0.062002823,0.015882496,178.92143,-98.8384,8.749385,STD
2116459069000,0.809975,1.77838609851009,9.72480891896109,0.468117231928827,-0.07238753,-0.047647487,0.018936822,179.01881,-98.82924,8.740511,STD
2116464031000,0.814937,1.78496723842825,9.71677778469558,0.492098286506344,-0.07971791,-0.05589417,0.0125227375,179.127,-98.8112,8.723664,STD
2116469140000,0.820046,1.79459207784991,9.70715274427068,0.501723120902921,-0.070249505,-0.05681047,0.018325957,179.22734,-98.799355,8.712436,STD
2116474005000,0.824911,1.80511310055422,9.70286283271753,0.513801950498799,-0.065973446,-0.048258353,0.013439035,179.32082,-98.786095,8.701698,STD
2116479069000,0.829975,1.81855211271014,9.70734259698873,0.531720661439128,-0.06566802,-0.036957346,0.016798794,179.41248,-98.777954,8.695834,STD
2116484025000,0.834931,1.82871124770219,9.71042313811961,0.551843084662854,-0.07422013,-0.034513887,0.017715093,179.50702,-98.76752,8.688365,STD
2116489053000,0.839959,1.82629542638973,9.70800726635561,0.583248786950632,-0.056505036,-0.030848695,0.022907447,179.59662,-98.76121,8.683995,STD
2116494031000,0.844937,1.82390362875778,9.70561541877383,0.614342181140879,-0.061391957,-0.015271631,0.024740042,179.68011,-98.75655,8.682836,STD
2116499063000,0.849969,1.82148588555087,9.70319762507526,0.64577286807646,-0.058337633,-0.019547688,0.017104227,179.76704,-98.75238,8.680992,STD
2116504096000,0.855002,1.81532132479103,9.70023709541284,0.658628557023445,-0.055283304,-0.018325957,0.018020526,179.851,-98.74866,8.680188,STD
2116509773000,0.860679,1.79315313168196,9.69469551009174,0.597665968103976,-0.047036625,-0.010995574,0.02687807,179.9331,-98.74619,8.680234,STD
2116514071000,0.864977,1.78187931973924,9.69588150100861,0.56265872104305,-0.04550946,-0.01038471,0.024740042,180.0076,-98.74289,8.680577,STD
2116519124000,0.87003,1.78426020881181,9.71254757535055,0.553135164752767,-0.040317107,-0.014660766,0.027488936,180.0805,-98.7445,8.68529,STD
2116524029000,0.874935,1.78657136276015,9.72872550819188,0.54389054895941,-0.04337143,-0.006414085,0.020463986,180.15117,-98.73934,8.682428,STD
2116529063000,0.879969,1.78894329935055,9.74532891571956,0.534402802597786,-0.05009095,-0.008552114,0.021991149,180.225,-98.73811,8.683308,STD
2116534062000,0.884968,1.78733955780054,9.76140855493686,0.522320229148852,-0.052534413,-0.009468411,0.018936822,180.3029,-98.73021,8.677284,STD
2116539081000,0.889987,1.76822209347718,9.77574691518345,0.498423436173809,-0.04337143,-0.0106901415,0.015577064,180.38023,-98.723625,8.672349,STD
2116544044000,0.89495,1.74931922985787,9.78668789056754,0.474794883098102,-0.045814894,-0.005497787,0.01740966,180.45625,-98.71769,8.668136,STD
2116549069000,0.899975,1.73018657107643,9.78190462598151,0.450879034648643,-0.048563786,-0.0021380284,0.0106901415,180.53177,-98.70948,8.661292,STD
2116554115000,0.905021,1.71139629640843,9.77954976254081,0.432586071900663,-0.049480084,-0.005192355,0.01038471,180.60887,-98.69839,8.651549,STD
2116559077000,0.909983,1.69494032196497,9.78895311338676,0.441989476750767,-0.044898596,-0.01282817,0.018936822,180.68503,-98.68895,8.643333,STD
2116564062000,0.914968,1.67840807033244,9.79840005090531,0.451436468523795,-0.050701816,-0.003970624,0.01863139,180.75658,-98.67391,8.629465,STD
2116569092000,0.919998,1.66172658072128,9.80793226669635,0.460968739059068,-0.048258353,0.004581489,0.018020526,180.82904,-98.662575,8.618878,STD
2116574071000,0.924977,1.64435634135063,9.81565611634815,0.46983439351817,-0.058337633,-0.005497787,0.016798794,180.90715,-98.64826,8.606248,STD
2116579350000,0.930256,1.6193261763838,9.81064997880978,0.474840442193286,-0.057421334,-0.011301007,0.007330383,180.9801,-98.63287,8.592144,STD
2116584073000,0.934979,1.59750666650673,9.80619498212438,0.479295358373318,-0.062002823,-0.0067195175,0.011911872,181.04773,-98.6154,8.576578,STD
2116589083000,0.939989,1.57945049264277,9.801680844388,0.483809401839308,-0.06169739,-0.0070249503,0.014966198,181.11699,-98.59616,8.558954,STD
2116594416000,0.945322,1.56121004412646,9.79688247179068,0.488607694126465,-0.06688975,-0.008552114,0.021685716,181.18942,-98.572205,8.536788,STD
2116599068000,0.949974,1.56525758420096,9.79283526982829,0.492655234200963,-0.073303826,-0.011911872,0.022296581,181.26097,-98.548676,8.514978,STD
2116604123000,0.955029,1.56965576027074,9.78843746116108,0.497053410270737,-0.07696902,-0.016187929,0.02687807,181.33023,-98.526924,8.494523,STD
2116609072000,0.959978,1.54765176925862,9.79808663598247,0.464459611881075,-0.07880162,-0.025961773,0.03145956,181.40073,-98.50638,8.4753065,STD
2116614000000,0.964906,1.51841944053745,9.81157829216695,0.421735408610635,-0.080634214,-0.026267206,0.027488936,181.46838,-98.48572,8.456013,STD
2116619088000,0.969994,1.48823801023442,9.82550798913665,0.377624055883362,-0.092240654,-0.026572637,0.043982297,181.53763,-98.47405,8.445977,STD
2116624050000,0.974956,1.4588039974271,9.83909272898799,0.334605083353345,-0.09040806,-0.01038471,0.054367006,181.60086,-98.46081,8.434069,STD
2116629077000,0.979983,1.49465011790366,9.82496508920819,0.336026721653918,-0.09682214,0.0021380284,0.0571159,181.66585,-98.44941,8.424463,STD
2116634052000,0.984958,1.57837534635104,9.79049030370064,0.37050183629109,-0.1001819,-0.020158553,0.0421497,181.73509,-98.436844,8.413414,STD
2116639082000,0.989988,1.60578556227981,9.79039168576635,0.376836384559627,-0.10567969,-0.05009095,0.032375857,181.79956,-98.417404,8.394012,STD
2116644073000,0.994979,1.60094674786394,9.809746842377,0.36715875572788,-0.10629055,-0.049785517,0.039095376,181.86037,-98.39949,8.376132,STD
2116649379000,1.000285,1.58903652323382,9.80593696649916,0.339908233219036,-0.11209377,-0.053145275,0.041233405,181.93344,-98.394135,8.3713045,STD
2116654089000,1.004995,1.57570317177062,9.79260380067002,0.308797061241502,-0.106901415,-0.0580322,0.040011674,182.00565,-98.39061,8.368082,STD
2116659072000,1.009978,1.56753191678913,9.78443255279316,0.30913855924308,-0.10903945,-0.055283304,0.03726278,182.07555,-98.38616,8.364085,STD
2116664096000,1.015002,1.56268905386009,9.77958958872672,0.328510021072974,-0.12003502,-0.058643065,0.040927973,182.14738,-98.38379,8.362205,STD
2116669106000,1.020012,1.55030575710107,9.78098096894349,0.356615706619863,-0.11911872,-0.06963864,0.040011674,182.22072,-98.37777,8.356059,STD
2116674121000,1.025027,1.5339148417142,9.78566393393789,0.38939750805324,-0.116980694,-0.06688975,0.03481932,182.2897,-98.37209,8.350494,STD
2116679068000,1.029974,1.5177461760275,9.79028340110185,0.42173481048413,-0.11056661,-0.07147124,0.03726278,182.35678,-98.37067,8.349372,STD
2116684113000,1.035019,1.50125720930233,9.79499437984496,0.454712714418605,-0.1133155,-0.07238753,0.03481932,182.4208,-98.36685,8.346001,STD
2116689109000,1.040015,1.49905499487474,9.79960965041117,0.476873320258176,-0.12522738,-0.083383106,0.035430185,182.48795,-98.36514,8.344751,STD
2116694107000,1.045013,1.50820872338879,9.80418661025053,0.490603927366609,-0.118507855,-0.0852157,0.03359759,182.55153,-98.362946,8.3427105,STD
2116699123000,1.050029,1.50612460369282,9.8019762822073,0.49098314637222,-0.108123146,-0.098043874,0.03756821,182.61595,-98.35563,8.336521,STD
2116704199000,1.055105,1.49082503273185,9.79177688774654,0.475683559435585,-0.101098195,-0.10934488,0.035124753,182.67943,-98.346725,8.328627,STD
2116709107000,1.060013,1.49508626082505,9.77414542396868,0.47727447398374,-0.10476339,-0.11362094,0.03634648,182.74057,-98.34351,8.326702,STD
2116714095000,1.065001,1.51426485297601,9.75017218377999,0.491658433116531,-0.1020145,-0.116980694,0.027794369,182.80371,-98.337654,8.321794,STD
2116719037000,1.069943,1.54159581340576,9.73017100844033,0.502714844724791,-0.099571034,-0.11881329,0.027488936,182.86635,-98.33257,8.317653,STD
2116724088000,1.074994,1.57634303792763,9.71279705602945,0.511401634981593,-0.09407325,-0.124005646,0.023823744,182.92978,-98.32493,8.310779,STD
2116729104000,1.08001,1.60106840901194,9.69433820032573,0.508438991302932,-0.100792766,-0.13744467,0.02107485,182.99593,-98.322136,8.308976,STD
2116734101000,1.085007,1.60626442091205,9.67355426123779,0.48245892095114,-0.10567969,-0.13775012,0.020158553,183.05867,-98.31957,8.30725,STD
2116739096000,1.090002,1.62058104180645,9.65599158709678,0.485612063896774,-0.10354166,-0.14874569,0.01985312,183.12444,-98.327324,8.315813,STD
2116744111000,1.095017,1.64441615461042,9.6416907483871,0.518981191956328,-0.090713486,-0.15485434,0.014660766,183.18794,-98.33386,8.323036,STD
2116749137000,1.100043,1.66591069274622,9.62970635836446,0.538581973186554,-0.09193522,-0.15302174,0.0076358155,183.25279,-98.34147,8.331258,STD
2116754189000,1.105095,1.68493251055632,9.62019525083546,0.54333742763908,-0.09193522,-0.16249016,0.003970624,183.32162,-98.349106,8.339255,STD
2116759066000,1.109972,1.72102504344107,9.61096518617603,0.544840791128792,-0.08246681,-0.16371189,0.008552114,183.38712,-98.36219,8.35284,STD
2116764965000,1.115871,1.79125576247638,9.59972833918449,0.542031564714073,-0.07971791,-0.16401732,-0.0067195175,183.45403,-98.368774,8.359957,STD
2116769054000,1.11996,1.83993747295873,9.59193931268026,0.540084297921432,-0.0729984,-0.1600467,-0.0036651916,183.51852,-98.386894,8.378568,STD
2116774105000,1.125011,1.90007230290403,9.58231779816012,0.537678906732969,-0.06536258,-0.15974127,-0.0070249503,183.58315,-98.39911,8.391188,STD
2116779007000,1.129913,1.94499938042207,9.58157262746458,0.539160576478748,-0.06627888,-0.16615535,-0.008246681,183.64766,-98.412994,8.405474,STD
2116784107000,1.135013,1.97161478119489,9.59367053690677,0.54641932214406,-0.054367006,-0.16218472,-0.010079277,183.70813,-98.4262,8.418832,STD
2116789080000,1.139986,1.9975674063014,9.60546718468245,0.553497310809472,-0.045814894,-0.15577064,-0.01282817,183.78131,-98.45924,8.452041,STD
2116794102000,1.145008,2.02377574800357,9.61738006727435,0.560645040364609,-0.051618114,-0.15149458,-0.014966198,183.853,-98.49174,8.484717,STD
2116799035000,1.149941,2.03814226712528,9.63156109563027,0.568466672923166,-0.044898596,-0.14752395,-0.016493361,183.92491,-98.521835,8.514994,STD
2116804169000,1.155075,2.03337845633175,9.65061623931789,0.577994314407519,-0.030848695,-0.12980886,-0.011911872,183.99065,-98.553,8.546334,STD
2116809007000,1.159913,2.03241876148478,9.66442187072507,0.582761396036625,-0.025961773,-0.13500121,-0.018936822,184.0579,-98.59197,8.585815,STD
2116814112000,1.165018,2.03967779103192,9.66926132482059,0.577922032898787,-0.011301007,-0.1160644,-0.014660766,184.1124,-98.635284,8.629419,STD
2116819147000,1.170053,2.04683728442465,9.67403442009403,0.573149027335808,-0.0143553335,-0.10598512,-0.017104227,184.1694,-98.67264,8.667208,STD
2116824114000,1.17502,2.05390008555308,9.67874305251176,0.568440483416976,-0.008552114,-0.099571034,-0.009468411,184.2214,-98.713875,8.708645,STD
2116829049000,1.179955,2.05780989599249,9.68335552914125,0.562624591984983,-0.0070249503,-0.090713486,-0.009162978,184.27579,-98.748085,8.743331,STD
2116834934000,1.18584,2.05252041049273,9.68864512510558,0.552045620985453,0.004276057,-0.08246681,-0.01985312,184.32785,-98.7811,8.776657,STD
2116839082000,1.189988,2.04603191654106,9.69445273254661,0.545197063308211,0.0070249503,-0.065973446,-0.008246681,184.37564,-98.82248,8.818365,STD
2116844103000,1.195009,2.02218963530345,9.71352645795319,0.54042860706069,0.0070249503,-0.06688975,-0.0009162979,184.42552,-98.85924,8.855353,STD
2116849057000,1.199963,1.9993401199392,9.73114220537665,0.536854320015199,0.003970624,-0.05955936,-0.007330383,184.4744,-98.89032,8.8867,STD
2116854190000,1.205096,1.98066140258383,9.74048127149235,0.541523999354042,0.02107485,-0.048563786,-0.0021380284,184.52193,-98.92658,8.923065,STD
2116859405000,1.210311,1.95775225421166,9.75087923264425,0.547568199111385,0.0061086523,-0.039095376,-0.005192355,184.56798,-98.95178,8.948673,STD
2116864112000,1.215018,1.8974813049676,9.76942451249614,0.566113111039803,-0.005497787,-0.042455133,-0.0021380284,184.61403,-98.9801,8.977237,STD
2116869066000,1.219972,1.83600613369724,9.78715439750463,0.583157452547032,0.007330383,-0.04642576,-0.004276057,184.6554,-99.00214,8.999441,STD
2116874087000,1.224993,1.79850916474315,9.78246718461838,0.569096087965689,-0.0030543262,-0.048258353,0.0030543262,184.69664,-99.02733,9.025026,STD
2116879341000,1.230247,1.76054771392033,9.77633531392033,0.556088674431867,-0.0033597588,-0.05100725,-0.0015271631,184.73755,-99.03463,9.032501,STD
2116884050000,1.234956,1.74106393650739,9.75685153650739,0.563882185397045,-0.008246681,-0.05100725,0.0012217305,184.7776,-99.04615,9.044265,STD
2116889056000,1.239962,1.72035130330943,9.73613890330943,0.572167238676229,-0.01740966,-0.058948494,0.01038471,184.81815,-99.051506,9.049823,STD
2116894070000,1.244976,1.70071989178725,9.73341819768486,0.588136922339088,-0.01740966,-0.0693332,0.0070249503,184.85873,-99.05435,9.052829,STD
2116899054000,1.24996,1.68166759313442,9.73818137181918,0.607189240886139,-0.025045475,-0.076358154,0.008552114,184.90002,-99.06135,9.060055,STD
2116904610000,1.255516,1.66649657679596,9.73772403985613,0.601582107934286,-0.02687807,-0.08857546,0.009468411,184.95288,-99.05896,9.057865,STD
2116909057000,1.259963,1.65614659173228,9.73565400393701,0.589162143149606,-0.034513887,-0.09162979,0.012217305,185.00417,-99.05802,9.057153,STD
2116914069000,1.264975,1.64448162093419,9.73332096592787,0.575164197680568,-0.044593163,-0.09773844,0.015882496,185.05663,-99.05464,9.054008,STD
2116919111000,1.270017,1.63274682788471,9.73097396320599,0.561082465626519,-0.036957346,-0.10415252,0.013133603,185.1091,-99.05082,9.050346,STD
2116924034000,1.27494,1.6417060867477,9.74095510958636,0.558184591648696,-0.04795292,-0.11911872,0.015577064,185.1649,-99.05,9.049732,STD
2116929119000,1.280025,1.66557303915899,9.76004853195452,0.562957972162321,-0.043982297,-0.124311075,0.0106901415,185.21875,-99.04692,9.046754,STD
2116934099000,1.285005,1.6825033446093,9.76703054366963,0.554532161772997,-0.051923547,-0.119729586,0.010079277,185.27277,-99.041985,9.0419035,STD
2116939113000,1.290019,1.6943772504451,9.76465571290801,0.535533900037092,-0.052839845,-0.124311075,0.014966198,185.32983,-99.037926,9.0378895,STD
2116944099000,1.295005,1.70618484807122,9.76229414406528,0.516641731505935,-0.057421334,-0.12583824,0.0036651916,185.3849,-99.03347,9.033462,STD
2116949105000,1.300011,1.71803980870425,9.75992310242334,0.497673782114243,-0.053450707,-0.12186762,0.013439035,185.43869,-80.96302,9.036978,STD
2116954124000,1.30503,1.73249085210759,9.75752802569249,0.480989452810116,-0.058337633,-0.11178834,0.0143553335,185.493,-80.96606,9.033906,STD
2116959112000,1.310018,1.74927046107989,9.75513089221196,0.466606939773183,-0.0571159,-0.11636983,0.008857546,185.54936,-80.967545,9.032341,STD
2116964096000,1.315002,1.76603661407065,9.75273568105179,0.452235960427539,-0.05375614,-0.11178834,0.017104227,185.60257,-80.96003,9.039767,STD
2116969148000,1.320054,1.78303151874749,9.7503077904456,0.437668908329988,-0.061086524,-0.11484267,0.013744468,185.65828,-80.956924,9.042755,STD
2116974123000,1.325029,1.80885241005677,9.74404930099351,0.436096168066707,-0.05100725,-0.11636983,0.0076358155,185.71126,-80.95191,9.047679,STD
2116979071000,1.329977,1.84247994906732,9.73444173367802,0.445704051404096,-0.04795292,-0.11301007,0.009773844,185.76274,-80.94507,9.054379,STD
2116984097000,1.335003,1.85005640089127,9.71957725579323,0.437036417834225,-0.047036625,-0.106901415,0.011301007,185.815,-80.9327,9.066595,STD
2116989109000,1.340015,1.83579647171717,9.70056411616162,0.413269844393939,-0.038179077,-0.096516706,0.013439035,185.86414,-80.919334,9.079831,STD
2116994104000,1.34501,1.8291701,9.69299881427506,0.395876275557324,-0.046731193,-0.087964594,0.017104227,185.91331,-80.89851,9.100428,STD
2116999087000,1.349993,1.8291701,9.6953722143248,0.384008278956478,-0.038179077,-0.08857546,0.012217305,185.96143,-80.87965,9.119173,STD
2117004121000,1.355027,1.8291701,9.69776990564536,0.372018815804029,-0.03756821,-0.08827003,0.0076358155,186.01048,-80.864334,9.134494,STD
2117009108000,1.360014,1.8291701,9.70014521089281,0.360141292414822,-0.04337143,-0.07513642,0.0036651916,186.05518,-80.85015,9.148687,STD
2117014116000,1.365022,1.84315880644337,9.70596799952692,0.352010404057148,-0.03145956,-0.064446285,0.005192355,186.09966,-80.835655,9.163272,STD
2117019187000,1.370093,1.87072846457565,9.71515807749078,0.347415451439114,-0.0421497,-0.06536258,0.0033597588,186.14297,-80.82302,9.175866,STD
2117024110000,1.375016,1.88268402574257,9.72243247834158,0.352658792636139,-0.042760566,-0.064751714,-0.00030543262,186.18297,-80.81072,9.188258,STD
2117029104000,1.38001,1.87281881551155,9.72736518646865,0.37238922339934,-0.03940081,-0.05467244,0.007941248,186.21979,-80.795425,9.203618,STD
2117034088000,1.384994,1.86315736647542,9.73111600593531,0.39171213494312,-0.04184427,-0.049785517,0.0106901415,186.26259,-80.779076,9.219921,STD
2117039111000,1.390017,1.85364024976753,9.73349533480067,0.410746385749827,-0.03176499,-0.05681047,0.008552114,186.30525,-80.761856,9.237168,STD
2117044087000,1.394993,1.8442121843209,9.7358524003858,0.429602533871303,-0.028710667,-0.05131268,0.0021380284,186.34074,-80.7469,9.252062,STD
2117049137000,1.400043,1.83464391050549,9.73824451879513,0.448739098986547,-0.03573562,-0.05467244,0.0036651916,186.38022,-80.730286,9.268622,STD
2117054060000,1.404966,1.83109720834982,9.74153994736842,0.448124069839731,-0.03573562,-0.051618114,0.0012217305,186.41405,-80.71552,9.283272,STD
2117059125000,1.410031,1.83589603027305,9.74633836842105,0.419331113245944,-0.034513887,-0.049480084,0.0061086523,186.44856,-80.698204,9.300441,STD
2117063995000,1.414901,1.83002410007831,9.73697718940877,0.412693249014291,-0.040927973,-0.056199603,0.003970624,186.48131,-80.6871,9.311271,STD
2117069103000,1.420009,1.80608210007831,9.70345868940877,0.441423674014291,-0.04520403,-0.051618114,0.008857546,186.50967,-80.67259,9.325491,STD
2117074005000,1.424911,1.78794640598031,9.68652665728218,0.465519690631153,-0.03726278,-0.06352998,0.0061086523,186.54767,-80.66116,9.3367405,STD
2117079090000,1.429996,1.77898545607692,9.69996782482289,0.483441506225964,-0.051618114,-0.06414085,0.0067195175,186.58054,-80.64719,9.350346,STD
2117084090000,1.434996,1.77130637038683,9.71289614806587,0.496785459898585,-0.045814894,-0.06872234,0.009162978,186.61496,-80.63682,9.360446,STD
2117089108000,1.440014,1.76898559082436,9.72450004587821,0.489823113941179,-0.048258353,-0.073303826,0.013744468,186.64902,-80.6254,9.371433,STD
2117094085000,1.444991,1.76668377339064,9.7360091330468,0.48291765442942,-0.050701816,-0.07422013,0.006414085,186.68492,-80.620224,9.375955,STD
2117099107000,1.450013,1.76436114386439,9.74762228067803,0.475949758574878,-0.051923547,-0.07727446,0.014660766,186.72209,-80.60905,9.38645,STD
2117104259000,1.455165,1.76332894168464,9.75816774946065,0.46836611545446,-0.041233405,-0.07360926,0.0070249503,186.7615,-80.60695,9.3880415,STD
2117109106000,1.460012,1.78074527065003,9.74945988049902,0.455303893736047,-0.051618114,-0.07238753,0.014049901,186.80173,-80.5978,9.396467,STD
2117114096000,1.465002,1.79867542982835,9.74049510514961,0.441856300095676,-0.059253927,-0.071776666,0.007330383,186.83336,-80.59212,9.401325,STD
2117119151000,1.470057,1.8025438022096,9.73119641539498,0.436324895580802,-0.062308256,-0.079107046,0.015577064,186.86635,-80.57993,9.412615,STD
2117124069000,1.474975,1.80481110603668,9.72212701068695,0.431790287926636,-0.06047566,-0.07086037,0.016493361,186.89413,-80.57156,9.420007,STD
2117129109000,1.480015,1.807134654489,9.71283262277957,0.427143191022,-0.064446285,-0.07147124,0.0143553335,186.92809,-80.55775,9.432831,STD
2117134095000,1.485001,1.80943330777933,9.70363781759977,0.422545884441342,-0.059864793,-0.06505715,0.015577064,186.9571,-80.54282,9.446843,STD
2117139053000,1.489959,1.81686661086578,9.71500550784428,0.438504784317257,-0.062308256,-0.061391957,0.013439035,186.98663,-80.52932,9.459293,STD
2117144076000,1.494982,1.82618372618633,9.73364012763897,0.461797582347472,-0.06078109,-0.056505036,0.019547688,187.0135,-80.513245,9.474408,STD
2117149060000,1.499966,1.82591381427996,9.7461253674292,0.472519815920589,-0.06414085,-0.051618114,0.02107485,187.04462,-80.5004,9.486447,STD
2117154067000,1.504973,1.82108150171319,9.75578968981155,0.477352143624912,-0.056505036,-0.050396383,0.01985312,187.07489,-80.486786,9.499441,STD
2117159724000,1.51063,1.79285489392265,9.75494615362993,0.49029964580789,-0.06078109,-0.056199603,0.016187929,187.10239,-80.47105,9.51435,STD
2117164065000,1.514971,1.76464798729282,9.75091651739847,0.50238829783755,-0.0580322,-0.06291912,0.017715093,187.12946,-80.45454,9.530272,STD
2117169075000,1.519981,1.75105209301027,9.74167146505135,0.515088284368332,-0.056505036,-0.04886922,0.013744468,187.14632,-80.438774,9.54498,STD
2117174085000,1.524991,1.74866004155948,9.72971120779739,0.527048556608834,-0.06414085,-0.047647487,0.016798794,187.16856,-80.42063,9.562029,STD
2117179067000,1.529973,1.74628135885931,9.71781779429654,0.538941985012464,-0.055588737,-0.046731193,0.0143553335,187.18608,-80.4129,9.568892,STD
2117184068000,1.534974,1.74389360450693,9.70587902253465,0.550880771733972,-0.058948494,-0.052839845,0.011911872,187.20503,-80.404,9.576625,STD
2117189084000,1.53999,1.75738632305154,9.69554218334466,0.546810304222071,-0.057726767,-0.048563786,0.01038471,187.21523,-80.39374,9.586278,STD
2117194070000,1.544976,1.78055919722411,9.68627334339513,0.532906608754732,-0.058948494,-0.05497787,0.009773844,187.23013,-80.3839,9.595458,STD
2117199090000,1.549996,1.79587995829362,9.67713483693113,0.529232929146809,-0.051618114,-0.04917465,0.007941248,187.24156,-80.3767,9.602132,STD
2117204086000,1.554992,1.80482224271563,9.66819236576021,0.533704071357817,-0.057726767,-0.049785517,0.01282817,187.25648,-80.36751,9.610584,STD
2117209103000,1.560009,1.81659918833279,9.6717748719532,0.542883888332792,-0.058643065,-0.046731193,0.007330383,187.27092,-80.35755,9.620152,STD
2117214092000,1.564998,1.83212686308092,9.69247833019175,0.558411563080923,-0.053450707,-0.0571159,0.006414085,187.28922,-80.34504,9.632339,STD
2117219127000,1.570033,1.84399579683834,9.69999288540734,0.567656053900014,-0.041233405,-0.04184427,0.0070249503,187.30434,-80.334114,9.642845,STD
2117224123000,1.575029,1.85301350268577,9.69773864726947,0.572164916239928,-0.0571159,-0.042760566,0.0070249503,187.32684,-80.32321,9.652978,STD
2117229309000,1.580215,1.86237415571314,9.69539867949866,0.576845252527918,-0.04886922,-0.040927973,0.01282817,187.34425,-80.309265,9.666701,STD
2117234106000,1.585012,1.87103266951421,9.69323423187108,0.581174518469585,-0.049785517,-0.04153884,0.002443461,187.36246,-80.29956,9.67569,STD
2117239102000,1.590008,1.88052934057274,9.68825368685102,0.580709992169636,-0.04795292,-0.036957346,0.009468411,187.37833,-80.28361,9.691148,STD
2117244100000,1.595006,1.89099274562247,9.67779006328561,0.570246565268335,-0.050396383,-0.028405234,0.009773844,187.39304,-80.27253,9.701615,STD
2117249083000,1.599989,1.89386978996865,9.6678990822884,0.572045339858934,-0.05222898,-0.024129177,0.0106901415,187.4107,-80.25728,9.716453,STD
2117254135000,1.605041,1.88913017460815,9.65841965360502,0.586264205736677,-0.043066,-0.023518313,0.008857546,187.42677,-80.24311,9.730385,STD
2117259089000,1.609995,1.90143336196124,9.65130654237779,0.583188859824511,-0.037873644,-0.019242255,0.0076358155,187.44157,-80.22663,9.746588,STD
2117264100000,1.615006,1.93382425143188,9.64667966589529,0.560052525388101,-0.04184427,-0.013744468,0.004886922,187.45566,-80.21134,9.761593,STD
2117269078000,1.619984,1.9555144969997,9.64015312890191,0.549569793999394,-0.038179077,0.0015271631,0.01038471,187.46603,-80.19701,9.776519,STD
2117274082000,1.624988,1.96035562309324,9.63047067451258,0.559252046186484,-0.03940081,-0.0027488936,0.013439035,187.48036,-80.184105,9.789841,STD
2117279031000,1.629937,1.96138171406467,9.63121393969451,0.566895289827415,-0.036651913,0.007330383,0.01282817,187.49426,-80.167496,9.807151,STD
2117284055000,1.634961,1.95660946220988,9.64791692084904,0.571667551648482,-0.041233405,0.011301007,0.01282817,187.51097,-80.14991,9.825277,STD
2117289005000,1.639911,1.95190750228129,9.66437387879389,0.576369521396548,-0.032375857,0.009773844,0.012217305,187.52632,-80.132,9.843897,STD
2117294070000,1.644976,1.94709630489982,9.68121317010514,0.58118072882563,-0.03970624,0.021380283,0.008552114,187.5366,-80.11485,9.861267,STD
2117299510000,1.650416,1.94306110691497,9.68966757078036,0.587277319255093,-0.032070424,0.020158553,0.009162978,187.55696,-80.10069,9.876231,STD
2117304161000,1.655067,1.94095581331002,9.68545689563738,0.593593200069953,-0.025350908,0.025961773,0.003970624,187.57175,-80.08923,9.888238,STD
2117309090000,1.659996,1.93872468190197,9.68099453963227,0.600286594294087,-0.034513887,0.01740966,0.010079277,187.58928,-80.07709,9.900709,STD
2117314070000,1.664976,1.93647046514156,9.67648601195822,0.607049244575318,-0.018020526,0.0290161,0.0125227375,187.5991,-80.06817,9.910448,STD
2117319061000,1.669967,1.93273114708985,9.67316963005459,0.611726404726566,-0.036651913,0.028710667,0.01282817,187.61926,-80.06001,9.918782,STD
2117324039000,1.674945,1.91949713846581,9.67758105838808,0.60290373231054,-0.03359759,0.02687807,0.0106901415,187.63625,-80.052605,9.927008,STD
2117329401000,1.680307,1.90597986908546,9.68254252593703,0.592785693757121,-0.023518313,0.030848695,0.009162978,187.65045,-80.04514,9.934883,STD
2117334059000,1.684965,1.9104385132034,9.69145953483258,0.570492454544728,-0.0290161,0.032986723,0.0143553335,187.66548,-80.03619,9.94403,STD
2117339412000,1.690318,1.91517810265221,9.701305,0.545603054839592,-0.019242255,0.027183503,0.004886922,187.67802,-80.03409,9.947046,STD
2117344073000,1.694979,1.91110977437568,9.701305,0.539500581541196,-0.014966198,0.03268129,0.009773844,187.68646,-80.02625,9.955537,STD
2117350212000,1.701118,1.90575138190849,9.701305,0.531463018018593,-0.01740966,0.03756821,0.00580322,187.6999,-80.02419,9.958397,STD
2117354113000,1.705019,1.90234641546209,9.701305,0.526355584348341,-0.015271631,0.04642576,0.0067195175,187.71036,-80.019455,9.964011,STD
2117359084000,1.70999,1.89800750538644,9.701305,0.519847239622676,-0.008857546,0.055588737,0.0076358155,187.71912,-80.01584,9.968466,STD
2117364083000,1.714989,1.8776978352637,9.69866095449845,0.509214743588418,-0.007330383,0.052839845,0.009773844,187.72864,-80.01154,9.973513,STD
2117369217000,1.720123,1.84534181021905,9.69403905133026,0.495347880538686,-0.006414085,0.05009095,0.007330383,187.73541,-80.00839,9.977426,STD
2117374073000,1.724979,1.82241035315935,9.69398206072126,0.479404149506832,-0.0070249503,0.055283304,0.008552114,187.73576,-80.00332,9.983507,STD
2117379085000,1.729991,1.80761565832734,9.69891321370595,0.45967787943183,-0.005192355,0.063224554,0.0106901415,187.73608,-79.99875,9.989061,STD
2117384054000,1.73496,1.79375242844828,9.71022151724138,0.452339012758621,-0.01160644,0.06780604,0.009773844,187.73412,-80.00059,9.988101,STD
2117389059000,1.739965,1.78056496031731,9.72780511408657,0.456734820168745,-0.005497787,0.058337633,0.010079277,187.73393,-80.001595,9.988105,STD
2117394043000,1.744949,1.76667471077521,9.74296922101058,0.461364891322608,-0.004276057,0.07360926,0.013439035,187.72504,-80.00466,9.985896,STD
2117399051000,1.749957,1.75114006996329,9.75332532379616,0.466543099519542,-0.009162978,0.062002823,0.0012217305,187.7267,-80.01195,9.979464,STD
2117404036000,1.754942,1.7396348513424,9.75765132716935,0.468148871611372,-0.01038471,0.06872234,0.0030543262,187.72208,-80.01992,9.972209,STD
2117409066000,1.759972,1.73248954048949,9.75526950714462,0.465767103814091,-0.0070249503,0.061086524,0.0076358155,187.72485,-80.03024,9.962586,STD
2117414028000,1.764934,1.7254408262843,9.75291988667491,0.46341753486576,-0.008857546,0.05467244,0.008552114,187.72882,-80.04623,9.9471655,STD
2117419036000,1.769942,1.71832676728801,9.75054848415327,0.46104618434314,-0.013133603,0.0571159,0.007941248,187.73218,-80.0609,9.933023,STD
2117424016000,1.774922,1.72023224491408,9.74719455164922,0.467665194050958,-0.020463986,0.052839845,0.007330383,187.73906,-80.07481,9.91957,STD
2117429046000,1.779952,1.73450381433932,9.74243775923366,0.486693963219435,-0.022296581,0.042455133,0.01038471,187.74673,-80.08743,9.907385,STD
2117434015000,1.784921,1.74424177275933,9.73835000086499,0.498625435720274,-0.019242255,0.040317107,0.0067195175,187.74863,-80.10186,9.893166,STD
2117439037000,1.789943,1.74744189848959,9.73514980830395,0.500225496914632,-0.03268129,0.032986723,0.010995574,187.754503993678,-80.1112921571579,9.88381044919464,STD
2117453944000,1.80485,1.7569409574822,9.72565055093486,0.504975021451527,-0.02107485,0.029932396,0.009468411,187.77194,-80.13929,9.85604,STD
2117459001000,1.809907,1.76016338596048,9.72242805516002,0.506586234008251,-0.035430185,0.034208454,0.010079277,187.77861,-80.14837,9.846879,STD
2117463948000,1.814854,1.76742950540608,9.71869326439635,0.503156492255262,-0.040317107,0.02565634,0.008857546,187.7878,-80.15686,9.838452,STD
2117469015000,1.819921,1.78188315812153,9.71387528792693,0.491111800105242,-0.038789943,0.022296581,0.0125227375,187.79399,-80.16345,9.831846,STD
2117473949000,1.824855,1.79595742741263,9.70918377501986,0.479383260324662,-0.03940081,0.025350908,0.009773844,187.7933,-80.16568,9.829554,STD
2117478985000,1.829891,1.81032265241263,9.70439527501986,0.467412257824662,-0.041233405,0.026267206,0.005497787,187.79417,-80.16726,9.827915,STD
2117484054000,1.83496,1.82128886153397,9.70639179083122,0.452904478552657,-0.030848695,0.029932396,0.0106901415,187.79332,-80.16698,9.828234,STD
2117489010000,1.839916,1.82590854430602,9.72025112857699,0.434425732992992,-0.034208454,0.034513887,0.009468411,187.7919,-80.16955,9.825556,STD
2117493975000,1.844881,1.83478369008397,9.72722914634146,0.418572702027189,-0.021685716,0.03481932,0.005192355,187.79391,-80.1663,9.829051,STD
2117498991000,1.849897,1.85399089872051,9.71762534146341,0.408969087680928,-0.02565634,0.03634648,0.0070249503,187.79424,-80.16155,9.833851,STD
2117503993000,1.854899,1.86888292939456,9.70947641463778,0.407848402715327,-0.03023783,0.03023783,0.0070249503,187.790416115768,-80.1581704051896,9.8372895005988,STD
2117509011000,1.859917,1.87364877284177,9.70471072048396,0.426911793921753,-0.023518313,0.03604105,0.0012217305,187.78658,-80.15478,9.840739,STD
2117514009000,1.864915,1.87839562129717,9.69996402072693,0.445899205091486,-0.01985312,0.04520403,0.00580322,187.77596,-80.144775,9.85082,STD
2117519229000,1.870135,1.88335331416175,9.69500648316557,0.465729994668518,-0.014049901,0.03940081,-0.0018325958,187.7719,-80.13645,9.859315,STD
2117523980000,1.874886,1.88541241798385,9.68990123880597,0.47884035,-0.015577064,0.04520403,-0.0021380284,187.76208,-80.125046,9.870829,STD
2117529008000,1.879914,1.88069970446293,9.68283202089552,0.47884035,-0.0067195175,0.04795292,-0.005192355,187.75505,-80.11701,9.879093,STD
2117534010000,1.884916,1.87601136058233,9.67579935820896,0.47884035,-0.004276057,0.048563786,-0.0012217305,187.74962,-80.10668,9.889367,STD
2117538999000,1.889905,1.8713352015219,9.66878497313433,0.47884035,-0.004276057,0.058643065,-0.0036651916,187.745994723251,-80.1026951916725,9.89336379271344,STD
2117544001000,1.894907,1.86790605415867,9.66214051854472,0.480984123031834,0.0018325958,0.053450707,-0.0012217305,187.74236,-80.0987,9.897371,STD
2117549006000,1.899912,1.87032807962607,9.65729661935321,0.493094263014148,-0.004276057,0.05375614,-0.002443461,187.73642,-80.09013,9.905893,STD
2117554054000,1.90496,1.87277091370389,9.65241110424457,0.50530844615715,0.007941248,0.0580322,0.002443461,187.72488,-80.08042,9.915851,STD
2117559008000,1.909914,1.87516825919151,9.6476165634664,0.517295186111673,0.0061086523,0.05955936,-0.0027488936,187.71432,-80.07407,9.922285,STD
2117563998000,1.914904,1.87805061964966,9.64783105778751,0.523734835848248,0.0067195175,0.06352998,-0.009468411,187.69989,-80.06581,9.930636,STD
2117569064000,1.91997,1.88266943808073,9.66630623505331,0.509878356440404,0.0036651916,0.063224554,-0.0036651916,187.6866,-80.05573,9.940754,STD
2117574079000,1.924985,1.88534568097146,9.68343717876815,0.495423510600901,0.00030543262,0.05681047,0.004581489,187.67397,-80.0461,9.950347,STD
2117579072000,1.929978,1.87576792185278,9.69301463785678,0.476267982362544,0.008857546,0.059864793,0.0036651916,187.65904,-80.03783,9.95863,STD
2117584081000,1.934987,1.86684143824297,9.70162293751812,0.460004660546535,0.004276057,0.06291912,0.0030543262,187.64883,-80.028244,9.968238,STD
2117589742000,1.940648,1.86160182629748,9.70424279820238,0.462624463783705,0.00580322,0.062308256,0.0067195175,187.63905,-80.01812,9.978497,STD
2117594067000,1.944973,1.85759876647337,9.70624436991399,0.464625991605779,0.007330383,0.06780604,0.010079277,187.62674,-80.01049,9.98627,STD
2117599082000,1.949988,1.85295706820334,9.70856526751716,0.466946838317387,0.008246681,0.076358154,0.006414085,187.61398,-80.0041,9.9928,STD
2117604374000,1.95528,1.84746297260201,9.71081578887062,0.469528359124927,-0.0015271631,0.07666359,0.009468411,187.6023,-79.99505,10.001915,STD
2117609178000,1.960084,1.83300515994488,9.70970362710307,0.473976915614968,0.01038471,0.081855945,0.008552114,187.58704,-79.98863,10.008531,STD
2117614379000,1.965285,1.81735256135419,9.70849955687971,0.478793098442758,0.0067195175,0.08368854,0.004886922,187.56987,-79.98311,10.014096,STD
2117619170000,1.970076,1.8029338726697,9.70739040470895,0.483229616790756,0.008857546,0.086437434,0.01160644,187.55132,-79.975296,10.022049,STD
2117624014000,1.97492,1.78835567855831,9.70626898264359,0.48771521371785,0.0030543262,0.09468412,0.0106901415,187.53105,-79.970924,10.02647,STD
2117629100000,1.980006,1.77304917664862,9.70509153577644,0.492424905289112,0.003970624,0.09162979,0.010079277,187.51369,-79.96492,10.032584,STD
2117634064000,1.98497,1.75810983817443,9.70394233281764,0.497021623527364,0.009162978,0.089186326,0.008552114,187.49422,-79.959755,10.037832,STD
2117639104000,1.99001,1.74294177493715,9.70277553529298,0.501688718596016,0.004581489,0.0870483,0.007330383,187.47789,-79.95627,10.041482,STD
2117644037000,1.994943,1.72809573209002,9.70163350906498,0.506256730495552,0.004886922,0.09437868,0.0061086523,187.45985,-79.95348,10.044462,STD
2117649104000,2.00001,1.7068428130663,9.71489119327241,0.50077778877309,0.0061086523,0.089491755,0.004276057,187.4463,-79.95139,10.046729,STD
2117654057000,2.004963,1.68378531238577,9.73333757903947,0.491554793316158,0.0106901415,0.087964594,0.007941248,187.43,-79.94829,10.050003,STD
2117659143000,2.010049,1.68251052166196,9.75275157472771,0.471993828696047,0.00030543262,0.09162979,0.0106901415,187.4084,-79.957016,10.041294,STD
2117664042000,2.014948,1.69197335812828,9.77167714885034,0.448336712827753,0.003970624,0.089186326,0.012217305,187.38933,-79.96511,10.033323,STD
2117669068000,2.019974,1.69188338412823,9.78755411348215,0.446955941803521,0.002443461,0.09162979,0.014660766,187.36829,-79.978,10.020515,STD
2117674095000,2.025001,1.68714913556889,9.80175666142197,0.456424453752581,0.006414085,0.094989546,0.01282817,187.34795,-79.991554,10.007064,STD
2117679066000,2.029972,1.67142702051656,9.80866303760667,0.451634740372497,0.0027488936,0.09132435,0.01038471,187.33072,-80.00334,9.9953985,STD
2117684076000,2.034982,1.64963146410656,9.81177675122489,0.439180134619553,-0.004886922,0.07086037,0.0106901415,187.31764,-80.01475,9.984116,STD
2117689079000,2.039985,1.62786636056978,9.81488611434505,0.426742930511373,0.0027488936,0.0693332,0.014049901,187.297,-80.02589,9.973071,STD
2117694070000,2.044976,1.60615346195853,9.81798801946851,0.414335557794218,0.007941248,0.06627888,0.0070249503,187.28293,-80.03971,9.959315,STD
2117699077000,2.049983,1.58437095677991,9.82109986858756,0.40188840988903,0.021685716,0.069027774,0.015271631,187.26776,-80.04811,9.951034,STD
2117704207000,2.055113,1.56205335111457,9.82428816217269,0.389135490225835,0.038179077,0.06352998,0.018020526,187.25601,-80.05992,9.9393635,STD
2117709179000,2.060085,1.53813893502249,9.82048239398925,0.372429264687946,0.035430185,0.05467244,0.017715093,187.247,-80.07132,9.928074,STD
2117714093000,2.064999,1.51232973600965,9.8101585203466,0.351781937817264,0.043676864,0.0571159,0.01863139,187.23636,-80.081474,9.918088,STD
2117719168000,2.070074,1.50034557369199,9.80986309340822,0.341552013691989,0.04886922,0.048258353,0.02107485,187.2278,-80.10312,9.896605,STD
2117724074000,2.07498,1.49571617367228,9.8144925901074,0.336922613672283,0.05222898,0.040927973,0.0143553335,187.21805,-80.126656,9.873198,STD
2117729104000,2.08001,1.5000237301512,9.81018494367032,0.350293071686926,0.04337143,0.043066,0.011301007,187.20691,-80.15174,9.848205,STD
2117734095000,2.085001,1.50947087093586,9.80073760559344,0.373910933513193,0.03390302,0.038789943,0.013744468,187.1996,-80.17656,9.823434,STD
2117739107000,2.090013,1.51021063463066,9.79414832625099,0.387459411108022,0.033292156,0.030848695,0.015271631,187.18245,-99.802155,9.80215,STD
2117744108000,2.095014,1.50545551382049,9.78939335439833,0.394592097288523,0.010079277,0.018020526,0.01282817,187.16806,-99.780785,9.780775,STD
2117749082000,2.099988,1.5007260655282,9.78466405425933,0.401686274665409,0.002443461,0.004581489,0.011301007,187.15637,-99.76227,9.762225,STD
2117754189000,2.105095,1.49587015631454,9.77980829716044,0.408970143556394,0.0009162979,-0.007941248,0.011301007,187.14816,-99.74383,9.743768,STD
2117759165000,2.110071,1.4853698806015,9.77217860050125,0.414673325794486,-0.016493361,-0.02443461,0.007330383,187.13718,-99.72806,9.72798,STD
2117764103000,2.115009,1.47114725251128,9.76269665042607,0.419414211725313,-0.012217305,-0.02687807,0.0067195175,187.1258,-99.71352,9.713398,STD
2117769143000,2.120049,1.47367106975423,9.76999216772741,0.418572937554098,-0.023518313,-0.04520403,0.0076358155,187.1251,-99.69573,9.695603,STD
2117774101000,2.125007,1.48761852135514,9.78858867277,0.41392377731127,-0.02687807,-0.057421334,0.005497787,187.12325,-99.677315,9.677155,STD
2117779065000,2.129971,1.50167781228314,9.79835569326856,0.400258676308119,-0.03573562,-0.063224554,0.010079277,187.1212,-99.6604,9.660252,STD
2117784102000,2.135008,1.51602452356003,9.80074685758898,0.378738636857341,-0.03481932,-0.058948494,0.006414085,187.11957,-99.64098,9.640834,STD
2117789109000,2.140015,1.53028578688411,9.80312378031129,0.357346769172202,-0.03726278,-0.07819075,0.0067195175,187.12726,-99.62645,9.626305,STD
2117794101000,2.145007,1.54450432623178,9.80549358223456,0.336018987369882,-0.04062254,-0.09315695,0.0076358155,187.13226,-99.611435,9.6113,STD
2117799016000,2.149922,1.55939305212171,9.80210696536382,0.322204143861647,-0.03390302,-0.09590584,0.007330383,187.13223,-99.60047,9.6004,STD
2117804230000,2.155136,1.57611476892791,9.792551748505,0.315037688813089,-0.04550946,-0.09560041,0.005497787,187.1355,-99.58965,9.589638,STD
2117809113000,2.160019,1.59177494214706,9.78360312481462,0.308326181332823,-0.040317107,-0.09773844,0.006414085,187.14844,-99.58261,9.5826,STD
2117814106000,2.165012,1.60778789420179,9.77445291427068,0.301463482817777,-0.048258353,-0.100792766,0.006414085,187.16122,-99.575096,9.575093,STD
2117819039000,2.169945,1.62451689926087,9.77136135478466,0.286316989415591,-0.06047566,-0.10903945,0.005192355,187.17583,-80.43219,9.567809,STD
2117824115000,2.175021,1.64367998734601,9.78094307391347,0.252781642794915,-0.055588737,-0.10445796,0.0009162979,187.18726,-80.44005,9.559952,STD
2117829017000,2.179923,1.66473507499758,9.79014607534578,0.233817098881903,-0.0580322,-0.09865474,0.0033597588,187.20381,-80.43926,9.560716,STD
2117834103000,2.185009,1.69300140914982,9.79956789157559,0.247950270877261,-0.05009095,-0.10415252,-0.00061086525,187.22198,-80.44134,9.5586195,STD
2117839040000,2.189946,1.71842559467502,9.80351714761159,0.259618071940094,-0.044593163,-0.09560041,-0.002443461,187.23645,-80.438545,9.561396,STD
2117844629000,2.195535,1.7393828128426,9.78779945281911,0.264857392894479,-0.049480084,-0.09590584,-0.004276057,187.25473,-80.43675,9.563168,STD
2117849087000,2.199993,1.75341273652507,9.77749142278733,0.271579147890325,-0.050701816,-0.106595986,0.0018325958,187.26976,-80.425995,9.573929,STD
2117854142000,2.205048,1.75799773666714,9.77519887484018,0.289919158033812,-0.047036625,-0.10262536,-0.0030543262,187.28047,-80.419,9.58092,STD
2117859071000,2.209977,1.7624684519392,9.77296347052138,0.307802028458588,-0.043982297,-0.09254608,-0.004276057,187.29388,-80.405495,9.5944195,STD
2117864103000,2.215009,1.76703259055737,9.77068135355401,0.326058592462945,-0.054367006,-0.1020145,-0.008552114,187.31163,-80.39441,9.6054945,STD
2117869444000,2.22035,1.77249999095199,9.76789112248932,0.344652070032519,-0.06169739,-0.106901415,-0.008552114,187.31297,-80.37624,9.623618,STD
2117874112000,2.225018,1.79245357021616,9.75648915373334,0.341801562961168,-0.057726767,-0.10629055,-0.009773844,187.31561,-80.36003,9.63979,STD
2117879080000,2.229986,1.81368951318625,9.74435441063572,0.338767861347956,-0.057421334,-0.10354166,-0.0106901415,187.324,-80.34483,9.654849,STD
2117884104000,2.23501,1.83516483071479,9.73208288299432,0.335699963420264,-0.05497787,-0.10751228,-0.011301007,187.33417,-80.33015,9.669392,STD
2117889059000,2.239965,1.85634520459096,9.71997989345151,0.3326742002372,-0.058337633,-0.10720685,-0.009162978,187.34227,-80.315155,9.684203,STD
2117894048000,2.244954,1.87767091302047,9.70779385614997,0.329627675006058,-0.057421334,-0.09773844,-0.004276057,187.34885,-80.299774,9.699391,STD
2117899091000,2.249997,1.89922744691704,9.69547591946694,0.326548174757381,-0.05681047,-0.09743301,-0.006414085,187.35797,-80.28601,9.712942,STD
2117904105000,2.255011,1.91247077995787,9.68504268040927,0.328954529978935,-0.05222898,-0.093767814,-0.007941248,187.3634,-80.27097,9.727759,STD
2117909055000,2.259961,1.92198129455311,9.67553196719832,0.333709787276557,-0.048258353,-0.0852157,-0.0015271631,187.36736,-80.25455,9.743956,STD
2117914043000,2.264949,1.90509612510012,9.66926792420905,0.328574219637565,-0.053450707,-0.074830994,0.009162978,187.37102,-80.221794,9.776427,STD
2117919131000,2.270037,1.87582489370244,9.6643892922507,0.318817149297157,-0.064446285,-0.0693332,0.01160644,187.37387,-80.19025,9.807671,STD
2117924034000,2.27494,1.86088853794718,9.67288134947683,0.332506538891878,-0.057726767,-0.064446285,0.01282817,187.37494,-80.15485,9.842806,STD
2117929057000,2.279963,1.85130124020927,9.68726259641256,0.356474803258595,-0.059253927,-0.061086524,0.016798794,187.3752,-80.11866,9.878597,STD
2117934101000,2.285007,1.82947486964504,9.70429482129743,0.345069816523868,-0.05497787,-0.054367006,0.015882496,187.36937,-80.08776,9.909017,STD
2117939089000,2.289995,1.80248923077865,9.72228515328123,0.318084158872046,-0.06658431,-0.04642576,0.017104227,187.36264,-80.05575,9.940386,STD
2117944097000,2.295003,1.77455550342466,9.73547161911852,0.303739925300774,-0.063224554,-0.029932396,0.021991149,187.35736,-80.02996,9.965635,STD
2117949104000,2.30001,1.74599616986301,9.74499108219178,0.298980044657534,-0.06688975,-0.03023783,0.018936822,187.35498,-80.006516,9.988381,STD
2117954176000,2.305082,1.70341712685351,9.75464090379646,0.294155119336116,-0.05497787,-0.023518313,0.013439035,187.34444,-79.988785,10.005627,STD
2117959148000,2.310054,1.65136238199165,9.7641055915325,0.289422864412642,-0.06994407,-0.03573562,0.01038471,187.33983,-79.97143,10.022226,STD
2117964095000,2.315001,1.6055195271478,9.77084722996348,0.302329276459735,-0.06536258,-0.02687807,0.008246681,187.31998,-79.95932,10.033996,STD
2117969167000,2.320073,1.56350902751297,9.77551516615414,0.330336328206804,-0.06566802,-0.03145956,0.0076358155,187.30797,-79.947845,10.044977,STD
2117974107000,2.325013,1.53040000561844,9.78709270930232,0.34935142338547,-0.077579886,-0.040927973,0.0067195175,187.29103,-79.947075,10.045166,STD
2117979069000,2.329975,1.50595038631406,9.80665222093023,0.35913124047129,-0.083383106,-0.06383542,-0.0015271631,187.27971,-79.9488,10.042946,STD
2117984484000,2.33539,1.49680920011865,9.81905445916551,0.380883072521258,-0.07696902,-0.070249505,-0.0033597588,187.27232,-79.962006,10.029054,STD
2117989118000,2.340024,1.50119706754993,9.82344241823215,0.407210295436029,-0.077579886,-0.087964594,-0.018020526,187.27483,-79.98071,10.009566,STD
2117994095000,2.345001,1.50591320881275,9.83051307010595,0.437861773982573,-0.07666359,-0.108123146,-0.020463986,187.27486,-79.99994,9.989653,STD
2117999092000,2.349998,1.51065182348747,9.83999000257451,0.471032101445688,-0.081855945,-0.1328632,-0.0290161,187.2812,-80.024445,9.9644165,STD
2118004172000,2.355078,1.51429071886275,9.83686984034314,0.497659706933824,-0.0842994,-0.16279559,-0.02443461,187.29404,-80.04467,9.94341,STD
2118009113000,2.360019,1.51661027615686,9.82063308460785,0.516216177397059,-0.08368854,-0.18784106,-0.026572637,187.31223,-80.0685,9.918814,STD
2118014058000,2.364964,1.5189317112549,9.80438318436275,0.534787670301471,-0.084910266,-0.204029,-0.028099801,187.3451,-80.0946,9.891793,STD
2118019126000,2.370032,1.52131088882353,9.78772909044118,0.553821103272059,-0.07880162,-0.22113322,-0.021380283,187.38452,-80.11804,9.867618,STD
2118024040000,2.374946,1.52641585679631,9.7668091069567,0.561327981876504,-0.07666359,-0.24281894,-0.027183503,187.4341,-80.14678,9.838037,STD
2118029089000,2.379995,1.53610987606255,9.73772725160385,0.5516340638332,-0.083383106,-0.26175576,-0.029932396,187.4866,-80.17157,9.812416,STD
2118034009000,2.384915,1.554529004914,9.70960494181818,0.538641975064373,-0.07971791,-0.27488935,-0.034513887,187.5467,-80.19851,9.784881,STD
2118039052000,2.389958,1.58775456879607,9.68112574545454,0.519655880501228,-0.08735373,-0.27488935,-0.030543262,187.60698,-80.22223,9.760288,STD
2118044002000,2.394908,1.61612345961872,9.6572220745234,0.500350793951473,-0.080634214,-0.28588495,-0.027183503,187.67415,-80.24385,9.738245,STD
2118049063000,2.399969,1.63712358354419,9.64042209818024,0.479350709496534,-0.08277224,-0.29016098,-0.02565634,187.73785,-80.263435,9.717951,STD
2118054169000,2.405075,1.6601999161165,9.62241611467098,0.46120331573247,-0.07727446,-0.28924468,-0.02443461,187.80534,-80.2744,9.706718,STD
2118059085000,2.409991,1.70590821592233,9.59194380873786,0.481518126252427,-0.07819075,-0.28527406,-0.024740042,187.8717,-80.284294,9.696418,STD
2118064090000,2.414996,1.74987217157576,9.56919957292929,0.498978714870707,-0.073303826,-0.28802297,-0.022602014,187.95912,-80.295364,9.684774,STD
2118069091000,2.419997,1.78373636730303,9.57887524505051,0.503816444849495,-0.077579886,-0.28405234,-0.027183503,188.04163,-80.30715,9.672209,STD
2118074075000,2.424981,1.81944606691133,9.58743175153739,0.508618469656814,-0.069027774,-0.28069258,-0.01985312,188.12656,-80.30563,9.673206,STD
2118079070000,2.429976,1.86214841208094,9.59217655564372,0.51336317467566,-0.062002823,-0.27152961,-0.017715093,188.20697,-80.305954,9.672249,STD
2118084044000,2.43495,1.90416041342577,9.59830003192382,0.51948657485469,-0.06383542,-0.26175576,-0.017715093,188.2866,-80.29887,9.679024,STD
2118089081000,2.439987,1.9446228553708,9.61020074283318,0.531387300675976,-0.064751714,-0.2574797,-0.025961773,188.3637,-80.29311,9.684612,STD
2118094084000,2.44499,1.98481217382444,9.62202112335324,0.543207696007302,-0.06872234,-0.24251351,-0.012217305,188.4437,-80.27698,9.7006445,STD
2118099091000,2.449997,2.02503362445355,9.63385095450733,0.555037541984507,-0.05955936,-0.21746802,-0.006414085,188.51802,-80.26517,9.712538,STD
2118104179000,2.455085,2.06388172605905,9.6470905224647,0.56665437309371,-0.0580322,-0.20005837,-0.009773844,188.58879,-80.25146,9.726099,STD
2118109206000,2.460112,2.09240512361015,9.66610595536684,0.57616215904019,-0.054061573,-0.19303341,-0.008857546,188.65405,-80.234856,9.742751,STD
2118114065000,2.464971,2.11752984085023,9.68162426855408,0.585240680850228,-0.05131268,-0.18295415,-0.009773844,188.72545,-80.20905,9.768155,STD
2118119114000,2.47002,2.12616666557114,9.67730576600875,0.593877505571135,-0.046731193,-0.15668693,-0.004276057,188.78886,-80.181244,9.795623,STD
2118124015000,2.474921,2.13455032133607,9.67311385058498,0.602261161336072,-0.04062254,-0.14049901,-0.008552114,188.86308,-80.156654,9.819657,STD
2118129101000,2.480007,2.14025292909938,9.66332494862902,0.594088981801236,-0.040317107,-0.122478485,-0.004886922,188.92792,-80.12822,9.847444,STD
2118134284000,2.48519,2.14501461193483,9.65399157611106,0.584375428065169,-0.042455133,-0.10873401,-0.0061086523,188.98824,-80.102516,9.872547,STD
2118139116000,2.490022,2.14278405676275,9.66068338137472,0.586605983237251,-0.03023783,-0.08582657,-0.0030543262,189.0401,-80.07305,9.901566,STD
2118144439000,2.495345,2.14032684542562,9.66805516933385,0.589063194574376,-0.02443461,-0.07513642,-0.005192355,189.09613,-80.04647,9.927557,STD
2118149111000,2.500017,2.13817014969633,9.67452539164176,0.591219890303673,-0.028710667,-0.05131268,-0.005192355,189.14087,-80.01867,9.954702,STD
2118154121000,2.505027,2.13585742589415,9.6814637079437,0.593532614105852,-0.02107485,-0.029932396,-0.004886922,189.18251,-79.992,9.981074,STD
2118159173000,2.510079,2.11347569246395,9.70430430753606,0.55831830167987,-0.025045475,-0.021685716,-0.007330383,189.22049,-79.96606,10.006348,STD
2118164069000,2.514975,2.0896650014219,9.7281149985781,0.520221146286817,-0.01282817,-0.0009162979,-0.013744468,189.24818,-79.942024,10.030112,STD
2118169727000,2.520633,2.06260539205985,9.72500819441396,0.502064443484289,-0.0076358155,0.0076358155,-0.0033597588,189.27893,-79.91616,10.055134,STD
2118174024000,2.52493,2.04208086264339,9.72090321995012,0.48974978155611,-0.008552114,0.021685716,-0.005192355,189.30176,-79.89603,10.074462,STD
2118179069000,2.529975,2.00455859758551,9.7336967665996,0.510480424547284,-0.008857546,0.03940081,-0.003970624,189.32233,-79.878944,10.091199,STD
2118184036000,2.534942,1.96627452064386,9.74805309557344,0.534407997620724,-0.017104227,0.050701816,-0.0036651916,189.34038,-79.86265,10.106928,STD
2118189081000,2.539987,1.92348320963903,9.74477135303451,0.558391298579929,-0.018325957,0.058643065,-0.008857546,189.35275,-79.85203,10.117175,STD
2118194003000,2.544909,1.88141323952797,9.74009730781436,0.581763496604522,-0.0076358155,0.062308256,-0.003970624,189.3629,-79.838715,10.130189,STD
2118199058000,2.549964,1.82397289151032,9.72736324437148,0.600517902152908,0.008857546,0.07269296,-0.009162978,189.36995,-79.83946,10.128685,STD
2118204242000,2.555148,1.7634287804409,9.71339124587242,0.619146839578799,-0.0021380284,0.07269296,-0.0018325958,189.3787,-79.83482,10.132244,STD
2118209150000,2.560056,1.73351118097905,9.71659544502225,0.62249243,-0.009162978,0.06383542,-0.010079277,189.38286,-79.84401,10.1221285,STD
2118213996000,2.564902,1.71030543429171,9.72355731441572,0.62249243,0.0015271631,0.06383542,-0.015577064,189.38431,-79.850334,10.11502,STD
2118219129000,2.570035,1.6857253480874,9.73093149427471,0.62249243,0.0036651916,0.0729984,-0.010995574,189.38016,-79.866104,10.0978365,STD
2118224074000,2.57498,1.6620455260963,9.73803558922946,0.62249243,-0.002443461,0.06505715,-0.004581489,189.38083,-79.8825,10.080158,STD
2118229104000,2.58001,1.63068935877228,9.72842782257426,0.626220744613861,0.0070249503,0.0571159,-0.010995574,189.37874,-79.90128,10.0604925,STD
2118234113000,2.585019,1.5974426420099,9.71417895336634,0.63097026849505,-0.006414085,0.047036625,-0.014049901,189.37941,-79.91618,10.0440445,STD
2118239682000,2.590588,1.55622773063796,9.73183332850481,0.623688702973509,-0.0015271631,0.040927973,-0.0125227375,189.38878,-79.948074,10.011964,STD
2118244118000,2.595024,1.52250792490326,9.75290817958131,0.615258766944141,-0.0067195175,0.04062254,-0.005497787,189.3988,-79.97774,9.981529,STD
2118249104000,2.60001,1.51136731015348,9.75699787322904,0.609379460306966,-0.0021380284,0.027183503,-0.0012217305,189.41127,-80.01267,9.946174,STD
2118254193000,2.605099,1.50896981235734,9.75460032536403,0.604584464714679,-0.0036651916,0.017104227,-0.009773844,189.42235,-80.04804,9.910076,STD
2118259180000,2.610086,1.50662036816214,9.7522508321035,0.599885576324282,-0.00030543262,0.01740966,-0.006414085,189.44052,-80.09051,9.867128,STD
2118264101000,2.615007,1.50430201747344,9.74993243299882,0.595248874946871,0.0015271631,0.006414085,-0.0070249503,189.46405,-80.1351,9.822045,STD
2118269073000,2.619979,1.49701401947045,9.74591698308668,0.583945155538105,0.006414085,0.0012217305,-0.01160644,189.48494,-80.17876,9.778046,STD
2118274117000,2.625023,1.48728777781134,9.74105426849894,0.56935577273734,-0.0021380284,-0.006414085,-0.010079277,189.5088,-80.21924,9.736964,STD
2118279068000,2.629974,1.48604462255028,9.7428921423759,0.55847310979887,-0.003970624,-0.01282817,-0.005497787,189.52995,-80.2595,9.697128,STD
2118284103000,2.635009,1.48843336663034,9.74766948087784,0.548918133478649,-0.003970624,-0.021991149,-0.014049901,189.55331,-80.30166,9.655228,STD
2118289114000,2.64002,1.49081072444268,9.75242404755771,0.539408702229268,-0.005192355,-0.03023783,-0.011911872,189.57918,-80.34169,9.616013,STD
2118294100000,2.645006,1.4931762215595,9.75715489358962,0.529946713762013,-0.008857546,-0.034208454,-0.00580322,189.6055,-80.38164,9.576791,STD
2118299111000,2.650017,1.498660746822,9.76032568151207,0.515806846015337,-0.008246681,-0.044898596,-0.011301007,189.63306,-80.42134,9.537578,STD
2118304205000,2.655111,1.50585499828934,9.76272381541562,0.499020241729833,-0.012217305,-0.043676864,-0.014049901,189.65738,-80.45715,9.501989,STD
2118309030000,2.659936,1.51266934130659,9.7649953105245,0.483120091420145,-0.009468411,-0.05375614,-0.01282817,189.68803,-80.49182,9.468016,STD
2118314102000,2.665008,1.51983252219437,9.76738308735191,0.466405985229317,-0.006414085,-0.061086524,-0.0143553335,189.71663,-80.52681,9.433575,STD
2118319114000,2.67002,1.51991837933471,9.77393075802178,0.465274377165146,-0.0061086523,-0.062308256,-0.007330383,189.74538,-80.55786,9.403061,STD
2118324069000,2.674975,1.51526201155922,9.78324368805809,0.474587122440389,-0.022296581,-0.070249505,-0.008857546,189.7773,-80.5903,9.370827,STD
2118329098000,2.680004,1.51578646373098,9.78086934067254,0.476189283500801,-0.025350908,-0.07727446,-0.004276057,189.80287,-80.61243,9.34984,STD
2118334099000,2.685005,1.52057965596477,9.76888636008807,0.47139608626201,-0.022602014,-0.076358154,0.0009162979,189.82767,-80.63368,9.3294,STD
2118339103000,2.690009,1.52537572353883,9.75689619115292,0.466600013679944,-0.022602014,-0.07971791,-0.008552114,189.85422,-80.65801,9.305636,STD
2118344102000,2.695008,1.5301669988791,9.74491800280224,0.461808733336669,-0.017715093,-0.09101892,-0.01160644,189.88203,-80.67847,9.28595,STD
2118349108000,2.700014,1.53755353341209,9.74487734101201,0.462318980214609,-0.022602014,-0.093767814,-0.01038471,189.90257,-80.697334,9.267804,STD
2118354114000,2.70502,1.5469927362276,9.75431619885804,0.467038552053554,-0.028405234,-0.09712757,-0.0106901415,189.92592,-80.716866,9.249089,STD
2118359101000,2.710007,1.56401051576581,9.75373903117194,0.4768042173334,-0.033292156,-0.089491755,-0.010995574,189.94756,-80.732834,9.233882,STD
2118364089000,2.714995,1.58787357820961,9.74419410520532,0.491122069750225,-0.03573562,-0.1001819,-0.0125227375,189.97482,-80.748505,9.21893,STD
2118369072000,2.719978,1.6065287725794,9.73721225900465,0.509997416832882,-0.029321533,-0.09896017,-0.008246681,189.98415,-80.754326,9.21369,STD
2118374121000,2.725027,1.62057406591789,9.73253039678544,0.533406263506971,-0.03145956,-0.10262536,-0.013744468,189.99768,-80.76279,9.20557,STD
2118379097000,2.730003,1.63902038692473,9.72565071270469,0.545878,-0.03726278,-0.1020145,-0.017104227,190.0108,-80.76474,9.203893,STD
2118384105000,2.735011,1.66303794638189,9.71604374911112,0.545878,-0.03176499,-0.106901415,-0.013439035,190.02626,-80.766235,9.202895,STD
2118389078000,2.739984,1.68688765148981,9.7065039268366,0.545878,-0.03970624,-0.11575896,-0.0067195175,190.03793,-80.76251,9.206667,STD
2118394082000,2.744988,1.71088602759277,9.69690463653663,0.545878,-0.034513887,-0.11209377,-0.009162978,190.0472,-80.76072,9.208891,STD
2118399098000,2.750004,1.7391454591541,9.68954034910776,0.528369140230701,-0.030543262,-0.106901415,-0.008857546,190.0562,-80.75483,9.214994,STD
2118404122000,2.755028,1.77235036941733,9.68479669851129,0.490420688340728,-0.033292156,-0.095294975,-0.0061086523,190.06209,-80.7489,9.221053,STD
2118409031000,2.759937,1.79886602959366,9.69015508780971,0.459259603829534,-0.026267206,-0.093767814,-0.0021380284,190.07336,-80.73387,9.236587,STD
2118414087000,2.764993,1.8180613916551,9.70935034965312,0.435265391230922,-0.026572637,-0.090713486,-0.0021380284,190.075163543086,-80.7257185931864,9.24476880360722,STD
2118419011000,2.769917,1.83484460960854,9.72802497330961,0.415704986441281,-0.03145956,-0.077579886,0.002443461,190.07692,-80.71778,9.252737,STD
2118424076000,2.774982,1.84922969027284,9.74720498072361,0.401319895763147,-0.02565634,-0.07391469,0.0018325958,190.0822,-80.693565,9.277729,STD
2118429015000,2.779921,1.8596713559047,9.75610975312515,0.390878222246189,-0.02565634,-0.058643065,0.016798794,190.08154,-80.66105,9.310918,STD
2118434098000,2.785004,1.86444402852591,9.7489508438649,0.386105544641404,-0.024740042,-0.048258353,0.017104227,190.0815,-80.63365,9.339077,STD
2118439020000,2.789926,1.8690655305211,9.74201868738664,0.381484037820481,-0.01282817,-0.042455133,0.013133603,190.07999,-80.60217,9.371633,STD
2118444102000,2.795008,1.87383726419432,9.73486118652875,0.376712299164665,-0.0143553335,-0.022296581,0.015882496,190.07164,-80.569214,9.405273,STD
2118449089000,2.799995,1.8785655128804,9.72852455555556,0.375006874458599,-0.0070249503,-0.015577064,0.015271631,190.06592,-80.53953,9.436037,STD
2118454022000,2.804928,1.88334180995855,9.72374815873016,0.379783176524113,0.0012217305,-0.016493361,0.017715093,190.057,-80.50897,9.4675665,STD
2118458966000,2.809872,1.88812875760793,9.71896111111111,0.384570129171975,-0.0021380284,-0.003970624,0.026572637,190.03862,-80.47333,9.504374,STD
2118463988000,2.814894,1.89299122748964,9.71409853968254,0.389432604131028,0.008857546,0.016187929,0.021380283,190.0189,-80.44231,9.536868,STD
2118469002000,2.819908,1.89699841462451,9.71325416864295,0.39027695924462,0.01985312,0.026267206,0.019547688,189.99915,-80.40867,9.571825,STD
2118473990000,2.824896,1.89932943386034,9.72024729937052,0.383283969689162,0.016493361,0.015882496,0.027488936,189.98021,-80.37459,9.607076,STD
2118478973000,2.829879,1.90165811646904,9.72723342014346,0.376297989946811,0.020463986,0.027488936,0.027183503,189.95335,-80.34267,9.640234,STD
2118483989000,2.834895,1.90400222081686,9.73426580661689,0.369265745437954,0.028099801,0.03726278,0.032375857,189.93073,-80.307846,9.676248,STD
2118489034000,2.83994,1.90461084811828,9.74078664157706,0.352181256389885,0.03268129,0.05497787,0.03176499,189.90323,-80.27573,9.709432,STD
2118494338000,2.845244,1.89955351263441,9.74584350179211,0.301608397943051,0.039095376,0.060170226,0.034513887,189.87732,-80.24228,9.744013,STD
2118499013000,2.849919,1.89375556139049,9.74869861324608,0.264717602874083,0.04428773,0.08032878,0.036651913,189.84346,-80.20973,9.777664,STD
2118504149000,2.855055,1.88295437451359,9.74653855632658,0.24959592771224,0.037873644,0.09010262,0.03481932,189.81201,-80.178444,9.809906,STD
2118509067000,2.859973,1.87261164922922,9.74447018406605,0.235116099354385,0.03359759,0.10476339,0.03390302,189.7954,-80.1583,9.831271,STD
2118514069000,2.864975,1.86209226901928,9.74236648377179,0.220388953879397,0.040317107,0.1151481,0.035430185,189.77768,-80.13856,9.852178,STD
2118519124000,2.87003,1.85146142796346,9.74024049317054,0.205505763080504,0.043982297,0.12064589,0.03481932,189.75946,-80.12212,9.869907,STD
2118524032000,2.874938,1.83514571458207,9.73302386968781,0.187934947701913,0.04886922,0.124005646,0.035430185,189.73938,-80.10542,9.887829,STD
2118529050000,2.879956,1.81578765520644,9.72334463786505,0.168576878219537,0.04734206,0.12003502,0.033292156,189.72043,-80.090096,9.904216,STD
2118534060000,2.884966,1.78475865658129,9.70783016070926,0.178591861422272,0.057421334,0.14019357,0.03634648,189.70325,-80.082565,9.912918,STD
2118539033000,2.889939,1.74901384857867,9.68995787334647,0.200932351260906,0.061086524,0.14630222,0.040317107,189.69157,-80.07538,9.921079,STD
2118544068000,2.894974,1.70841812919915,9.67659991920624,0.205137779355067,0.06414085,0.14630222,0.033292156,189.6755,-80.073586,9.923781,STD
2118549057000,2.899963,1.66488179269009,9.66692498693936,0.195463039031082,0.080634214,0.13927728,0.036957346,189.66008,-80.06779,9.93043,STD
2118554093000,2.904999,1.62333263785322,9.68687624914605,0.176612331808301,0.08674286,0.13622294,0.035430185,189.64034,-80.07187,9.926919,STD
2118559074000,2.90998,1.5838319312597,9.72637726508643,0.151924374720008,0.096516706,0.14263703,0.03481932,189.62021,-80.07466,9.9246435,STD
2118564788000,2.915694,1.54415383325207,9.74339017406143,0.132319623266699,0.1133155,0.14630222,0.040317107,189.59917,-80.08332,9.916381,STD
2118569081000,2.919987,1.5160901720039,9.74739892764505,0.120292349443198,0.13622294,0.14263703,0.042760566,189.5787,-80.0928,9.907148,STD
2118574071000,2.924977,1.49336883174556,9.75355613473809,0.101820540267102,0.14813483,0.14508049,0.03970624,189.55304,-99.89022,9.89021,STD
2118579068000,2.929974,1.4767992671613,9.76065752500371,0.0805167995429589,0.15577064,0.14446963,0.041233405,189.52963,-99.875694,9.875492,STD
2118584058000,2.934964,1.46025291389425,9.76774896735421,0.0592429019617154,0.14660765,0.1469131,0.02565634,189.5027,-99.84991,9.849281,STD
2118589081000,2.939987,1.44359713584607,9.77488730701885,0.0378283152782312,0.14721853,0.14538592,0.021380283,189.4774,-99.82841,9.827076,STD
2118594065000,2.944971,1.42842029511278,9.78332028195489,0.0233299652067669,0.14508049,0.14202617,0.02443461,189.45274,-99.80526,9.803246,STD
2118599094000,2.95,1.41412610392758,9.79284941106055,0.0138005311172339,0.1328632,0.13041973,0.019547688,189.4311,-99.7791,9.7763405,STD
2118604151000,2.955057,1.39013360794449,9.81725249334079,0.017144063008196,0.13133603,0.108123146,0.010995574,189.4124,-99.74756,9.743764,STD
2118609100000,2.960006,1.35923404684735,9.85256660668716,0.0303867610225389,0.12522738,0.084910266,0.009162978,189.39738,-99.71712,9.712287,STD
2118614069000,2.964975,1.33887667942266,9.86993528047591,0.0439361932382485,0.11636983,0.06261369,0.0036651916,189.38264,-99.68368,9.67779,STD
2118619116000,2.970022,1.33416299602107,9.86050771679345,0.0580772547636044,0.10445796,0.039095376,0.0012217305,189.37491,-99.65125,9.6442995,STD
2118624070000,2.974976,1.32469696255057,9.85291415680986,0.0702772704161048,0.1020145,0.018325957,-0.009162978,189.36894,-99.608444,9.600405,STD
2118629071000,2.979977,1.30624441899441,9.84830092458101,0.0795035470111732,0.09682214,-0.009773844,-0.01863139,189.37157,-99.56605,9.557003,STD
2118634565000,2.985471,1.29101205087146,9.84310011873638,0.078763497127451,0.09621128,-0.046120327,-0.01985312,189.37863,-99.52468,9.514577,STD
2118639081000,2.989987,1.286525168975,9.83861340081959,0.0608160508286648,0.08307768,-0.07238753,-0.021685716,189.3903,-99.48137,9.470376,STD
2118644027000,2.994933,1.28161105961718,9.83369947105509,0.0411597024243698,0.067500606,-0.089186326,-0.03023783,189.40996,-99.43224,9.420436,STD
2118649058000,2.999964,1.27661249831933,9.82870109243697,0.021165547789916,0.063224554,-0.09865474,-0.03268129,189.43414,-99.385704,9.373066,STD
2118654130000,3.005036,1.28187803362325,9.81151916821506,0.00141408893200237,0.064446285,-0.1160644,-0.032375857,189.46443,-99.338806,9.325424,STD
2118659094000,3.01,1.3006720084404,9.77862960189761,-0.0173798500705673,0.03970624,-0.13927728,-0.03268129,189.49808,-99.292015,9.278318,STD
2118663998000,3.014904,1.32774470131113,9.75352536644655,-0.0269835167330845,0.03481932,-0.15607607,-0.03481932,189.5344,-99.2458,9.23121,STD
2118669131000,3.020037,1.3700854914633,9.73941194985166,-0.0222789760882381,0.032375857,-0.1685988,-0.040927973,189.5749,-99.1995,9.184318,STD
2118674004000,3.02491,1.4114452355841,9.73797494069317,-0.0257693798577769,0.02107485,-0.17715092,-0.04734206,189.60994,-99.16334,9.14742,STD
2118679071000,3.029977,1.45727175014638,9.7654709164227,-0.0486826304397016,0.010079277,-0.19700404,-0.052839845,189.65074,-99.12686,9.110181,STD
2118684023000,3.034929,1.50400974156513,9.78836896681111,-0.0661656550535814,-0.00061086525,-0.20158553,-0.061086524,189.69417,-99.09569,9.078385,STD
2118689081000,3.039987,1.56080854160591,9.7933078336987,-0.0612266288061178,-0.008246681,-0.20861048,-0.057421334,189.74278,-99.0674,9.049556,STD
2118694014000,3.04492,1.61620365441754,9.79812464476166,-0.0564096623215906,-0.020158553,-0.20555615,-0.0571159,189.79271,-99.04488,9.0266075,STD
2118699064000,3.04997,1.67291261847566,9.80305570007647,-0.0514784478989549,-0.033292156,-0.21533,-0.054367006,189.8471,-99.02497,9.006374,STD
2118704200000,3.055106,1.72550272584553,9.8108704548208,-0.0521044019151943,-0.029932396,-0.21013765,-0.055588737,189.89157,-99.00636,8.986807,STD
2118709113000,3.060019,1.76350444603735,9.82512137889955,-0.0663550392989399,-0.034208454,-0.20799962,-0.04550946,189.93861,-98.99226,8.9721155,STD
2118714059000,3.064965,1.80688077271738,9.83271130111781,-0.081953743883668,-0.040011674,-0.20005837,-0.03634648,189.9898,-98.99766,8.976959,STD
2118719112000,3.070018,1.86432457033337,9.8231371432387,-0.101101672756751,-0.03970624,-0.17989981,-0.030848695,190.03586,-99.00527,8.984047,STD
2118724043000,3.074949,1.9116046545248,9.81739103521393,-0.124233773316925,-0.047647487,-0.16707164,-0.022296581,190.08421,-99.02307,9.001482,STD
2118729075000,3.079981,1.93441346633851,9.82195289284362,-0.160727896035593,-0.051923547,-0.15027285,-0.008246681,190.12486,-99.044106,9.022162,STD
2118734064000,3.08497,1.96031525201374,9.82432693537309,-0.190797613109585,-0.06963864,-0.14049901,-0.007330383,190.17555,-99.07074,9.048308,STD
2118739087000,3.089993,2.00537076222292,9.81431439067541,-0.185791445308565,-0.07452556,-0.13988814,-0.004886922,190.2234,-99.101715,9.078661,STD
2118744089000,3.094995,2.04705352422556,9.80973307985531,-0.177848639487108,-0.073303826,-0.13194689,-0.0015271631,190.26881,-99.13756,9.11385,STD
2118749064000,3.09997,2.07798591663884,9.82299005676127,-0.160173025570395,-0.08460484,-0.12461651,0.00061086525,190.31364,-99.17298,9.148983,STD
2118754158000,3.105064,2.10734387405542,9.83627352015113,-0.145437197619647,-0.086132,-0.10720685,0.014660766,190.35548,-99.22044,9.195406,STD
2118759074000,3.10998,2.11228505256087,9.84615556759026,-0.165201927120067,-0.08827003,-0.09101892,0.010995574,190.39505,-99.26257,9.236761,STD
2118764064000,3.11497,2.11781834017926,9.8599098028169,-0.180615389119078,-0.0852157,-0.0693332,0.025045475,190.42969,-99.318275,9.291876,STD
2118769083000,3.119989,2.12602422309859,9.89273359154929,-0.172409501915493,-0.09712757,-0.06291912,0.026572637,190.46378,-99.368095,9.3414755,STD
2118774014000,3.12492,2.13408622921041,9.9249818685446,-0.164347491594537,-0.10781772,-0.045814894,0.0290161,190.48935,-99.42221,9.395247,STD
2118779070000,3.129976,2.15694490572573,9.93541202500271,-0.171332486742072,-0.1001819,-0.022602014,0.033292156,190.51128,-99.476395,9.448996,STD
2118784417000,3.135323,2.18392482933632,9.94020896332959,-0.181443293006291,-0.096516706,-0.0012217305,0.03359759,190.52882,-99.52876,9.501293,STD
2118789083000,3.139989,2.1926409455503,9.92931381806213,-0.170548140912859,-0.110872045,0.004276057,0.03145956,190.5413,-99.5819,9.554372,STD
2118794002000,3.144908,2.20182966729409,9.91782791588238,-0.159062231537036,-0.12156218,0.022602014,0.03573562,190.54646,-99.6402,9.61249,STD
2118799099000,3.150005,2.21135089411421,9.90592638235724,-0.14716069055542,-0.13316862,0.03573562,0.037873644,190.55191,-99.69565,9.668094,STD
2118804060000,3.154966,2.22061807211196,9.89434240986005,-0.135576710800702,-0.13225232,0.061391957,0.044898596,190.5489,-99.75243,9.725099,STD
2118809073000,3.159979,2.21147038298714,9.89077140949555,-0.119586945375865,-0.13775012,0.069027774,0.040317107,190.54582,-99.80601,9.779637,STD
2118814001000,3.164907,2.19980013808111,9.88843755548961,-0.103248590321464,-0.13439035,0.1001819,0.047647487,190.52928,-99.86375,9.838282,STD
2118819050000,3.169956,2.18784334698318,9.88604639703264,-0.0865090702992087,-0.14935656,0.10170906,0.047036625,190.52098,-99.91976,9.895709,STD
2118824010000,3.174916,2.17609732126607,9.88369738813056,-0.0700646220301682,-0.15363261,0.110872045,0.05100725,190.50238,-99.977936,9.955075,STD
2118829070000,3.179976,2.16601121963288,9.87534085415004,-0.0908096076496409,-0.16279559,0.13652839,0.057421334,190.47948,-100.034775,10.013458,STD
2118834030000,3.184936,2.15653377988827,9.86586321648045,-0.119241946675978,-0.17195857,0.15485434,0.060170226,190.457,-100.090164,10.07036,STD
2118839082000,3.189988,2.09713672249503,9.87564000359066,-0.099519051106798,-0.17470746,0.17165314,0.061391957,190.43523,-100.135895,10.117685,STD
2118844031000,3.194937,2.02814409885002,9.88943856193896,-0.0696222571328061,-0.17745635,0.17806722,0.06627888,190.4121,-100.18206,10.165497,STD
2118849091000,3.199997,1.95760405527682,9.90354660502693,-0.0390549147387064,-0.18295415,0.19181168,0.07727446,190.38156,-100.229294,10.214564,STD
2118854127000,3.205033,1.88739858898539,9.91758773249551,-0.00863255578679218,-0.18845193,0.2144137,0.087659165,190.34767,-100.27645,10.263471,STD
2118859071000,3.209977,1.82176412466311,9.93212103896375,0.0210983863574637,-0.1957823,0.22937989,0.10140363,190.31102,-100.32751,10.31639,STD
2118864039000,3.214945,1.75715443616421,9.94703074751907,0.0509182393941293,-0.19883664,0.24007004,0.10842858,190.27037,-100.37816,10.36876,STD
2118869072000,3.219978,1.69847951068447,9.95401034832564,0.0611691147549838,-0.19700404,0.24648413,0.11178834,190.2137,-100.40245,10.394938,STD
2118874108000,3.225014,1.64164501385643,9.95874665118335,0.0659053236482373,-0.20586158,0.2678644,0.11942416,190.15103,-100.42888,10.4231615,STD
2118879069000,3.229975,1.58124556432146,9.9814843820056,0.0922438600730585,-0.20861048,0.26450464,0.124005646,190.08849,-100.44395,10.440372,STD
2118884051000,3.234957,1.51917075177142,10.0101343721978,0.125668757220777,-0.22907446,0.27305678,0.12339478,190.0178,-100.45893,10.457129,STD
2118889781000,3.240687,1.46655461508439,10.0296745042194,0.121740615464135,-0.2452624,0.27977628,0.12675454,189.94221,-100.46636,10.465637,STD
2118894072000,3.244978,1.43108798580744,10.0414965630993,0.10991838375911,-0.25228736,0.2941316,0.13713925,189.8635,-100.47512,10.475002,STD
2118899111000,3.250017,1.41576421606223,10.0396570316587,0.108551382585711,-0.2687807,0.29871312,0.14782938,189.78056,-79.52807,10.471883,STD
2118904087000,3.254993,1.41340317999405,10.030213133918,0.113273358574614,-0.27855456,0.31245756,0.15454891,189.69247,-79.52962,10.469773,STD
2118909070000,3.259976,1.4110388225327,10.0207559509512,0.118001977214625,-0.30482176,0.31795537,0.15027285,189.61203,-79.54261,10.455313,STD
2118914069000,3.264975,1.4086668733155,10.0112684017539,0.122745779057174,-0.32253686,0.31031954,0.15790866,189.53294,-79.5501,10.445566,STD
2118919068000,3.269974,1.40478631273885,9.99875040684713,0.11548592006051,-0.34330627,0.30970868,0.16310102,189.45174,-79.559074,10.433286,STD
2118924154000,3.27506,1.39993882022293,9.98420787868233,0.100943429352309,-0.35308012,0.30085114,0.17470746,189.37662,-79.56376,10.424468,STD
2118929067000,3.279973,1.39548866560293,9.96813216322788,0.0930430000099037,-0.37995818,0.3036,0.18448131,189.29248,-79.56268,10.41948,STD
2118934052000,3.284958,1.39111087105915,9.9506206650619,0.0886651579246217,-0.41508293,0.29046643,0.18784106,189.21712,-79.55958,10.415249,STD
2118939069000,3.289975,1.3909459030137,9.93379831506849,0.100044832383562,-0.43401974,0.2761111,0.19211712,189.14575,-79.55452,10.411834,STD
2118944067000,3.294973,1.39619131086027,9.91806214630137,0.131517630007671,-0.4541783,0.27397305,0.20219639,189.07603,-79.54578,10.410304,STD
2118949133000,3.300039,1.39233885630252,9.90612003361344,0.158339218445378,-0.4642576,0.25625798,0.20066923,189.01643,-79.53883,10.405961,STD
2118954143000,3.305049,1.38296231379715,9.89674329529021,0.181780589395153,-0.4905248,0.23884831,0.19883664,188.95863,-79.52781,10.403718,STD
2118959670000,3.310576,1.3851939566431,9.87137269389654,0.231406227002233,-0.5012149,0.20433442,0.21533,188.91183,-79.509865,10.406909,STD
2118964092000,3.314998,1.39307423382955,9.84379197059918,0.282628065742464,-0.5225952,0.19364429,0.21533,188.86433,-79.49539,10.404262,STD
2118969068000,3.319974,1.38968742558783,9.80235663964251,0.33948195364826,-0.5216789,0.15974127,0.21777347,188.83286,-79.477005,10.405143,STD
2118974080000,3.324986,1.36926023278008,9.74618160612831,0.395656923172678,-0.5204572,0.13652839,0.22174409,188.80219,-79.45696,10.406025,STD
2118979064000,3.32997,1.35737494298073,9.67995243482108,0.436569455333268,-0.52503866,0.103847094,0.22449298,188.7816,-79.43034,10.41057,STD
2118984063000,3.334969,1.35266845230043,9.60464848564687,0.464808423987417,-0.5335908,0.07849618,0.22785273,188.76616,-79.4019,10.416183,STD
2118989093000,3.339999,1.34539406461538,9.53267990384616,0.483776085384615,-0.52412236,0.05497787,0.23762658,188.74782,-79.366,10.426966,STD
2118994072000,3.344978,1.3357416582996,9.4651131604251,0.493428491700405,-0.5207626,0.035124753,0.23701571,188.73637,-79.331055,10.435541,STD
2118999050000,3.349956,1.33820538003918,9.40972439986941,0.502680067579517,-0.52320606,0.0143553335,0.24190263,188.7251,-79.28341,10.453492,STD
2119004095000,3.355001,1.35172509536424,9.3646586821192,0.511693206423841,-0.5225952,-0.004886922,0.24007004,188.7197,-79.23819,10.4690485,STD
2119009064000,3.35997,1.37148580534287,9.32773747749264,0.526796873083719,-0.5122105,-0.015882496,0.23915374,188.71585,-79.188324,10.487604,STD
2119014067000,3.364973,1.40172106856332,9.3025409424695,0.551992913489693,-0.50426924,-0.0290161,0.24251351,188.71846,-79.13783,10.506676,STD
2119019054000,3.36996,1.44199380050692,9.28278582335738,0.573986636217586,-0.50885075,-0.034513887,0.2443461,188.72379,-79.08382,10.528838,STD
2119024084000,3.37499,1.4936494683759,9.26869809670501,0.592770552887502,-0.49235737,-0.04795292,0.24801129,188.7353,-79.03102,10.552317,STD
2119029279000,3.380185,1.55799449790159,9.25869652991845,0.590886270898928,-0.49113566,-0.038789943,0.25717425,188.73665,-78.96358,10.586879,STD
2119034050000,3.384956,1.62917075299184,9.25450960909007,0.565765253063319,-0.4981606,-0.041233405,0.2556471,188.74562,-78.89957,10.619111,STD
2119039035000,3.389941,1.70564199556425,9.25496819417265,0.559713251054577,-0.48441613,-0.040927973,0.26267207,188.75507,-78.82349,10.665528,STD
2119044062000,3.394968,1.78938647048271,9.27067005435964,0.617287594640139,-0.48899764,-0.029626964,0.26206118,188.76245,-78.749084,10.708257,STD
2119049052000,3.399958,1.85125130948744,9.29064327312046,0.670872657025858,-0.49571714,-0.018020526,0.26206118,188.77348,-78.65538,10.770775,STD
2119054103000,3.405009,1.88241054595565,9.31735170801509,0.719837098435631,-0.4896085,-0.019547688,0.27458394,188.7853,-78.56107,10.835398,STD
2119059004000,3.40991,1.90416087993495,9.34388188026022,0.777134766192315,-0.49754974,-0.015271631,0.28405234,188.7924,-78.44758,10.913296,STD
2119064071000,3.414977,1.89676214830758,9.37347680676967,0.870851784534458,-0.48899764,-0.018325957,0.28924468,188.8026,-78.336365,10.991967,STD
2119069080000,3.419986,1.88944810711527,9.40273297153893,0.963496060215491,-0.48197266,-0.020463986,0.30543262,188.81195,-78.21519,11.079056,STD
2119074089000,3.424995,1.88213406592295,9.43198913630819,1.05614033589652,-0.46975538,-0.013133603,0.31490102,188.82013,-78.098434,11.163696,STD
2119079023000,3.429929,1.87962654295472,9.45295205533761,1.14492455770527,-0.45540005,-0.0061086523,0.31887165,188.82513,-77.97566,11.252139,STD
2119084046000,3.434952,1.88850721715512,9.45517203263027,1.22929078873863,-0.45173484,0.00030543262,0.3231477,188.82878,-77.85336,11.341144,STD
2119089034000,3.43994,1.89732601128444,9.45737654123783,1.3130691603083,-0.45051312,-0.010079277,0.3231477,188.81752,-77.726974,11.425571,STD
2119094070000,3.444976,1.90622966951124,9.45960226404209,1.39765373914247,-0.45265114,-0.0030543262,0.32436943,188.80034,-77.6022,11.508856,STD
2119099437000,3.450343,1.91652396826923,9.46207876542468,1.48808647023237,-0.44776422,0.005497787,0.31795537,188.78506,-77.47701,11.589334,STD
2119104123000,3.455029,1.94349325,9.46657373958334,1.57348928958333,-0.4364632,0.007330383,0.31429017,188.77074,-77.35433,11.668822,STD
2119109463000,3.460369,1.97646331963336,9.47253291622365,1.67064806713107,-0.4175264,0.02321288,0.30726522,188.7386,-77.2227,11.747138,STD
2119114103000,3.465009,2.04570428315307,9.49289788047663,1.75210796667278,-0.4098906,0.031154128,0.30390546,188.70953,-77.09416,11.823471,STD
2119119136000,3.470042,2.12080983690193,9.51498772208983,1.84046737925756,-0.3943135,0.03359759,0.28955013,188.66945,-76.961784,11.900784,STD
2119124513000,3.475419,2.20872706923392,9.58384521835313,1.90519997169193,-0.3894266,0.04520403,0.27977628,188.62576,-76.83186,11.975792,STD
2119129003000,3.479909,2.28359358859074,9.64990395247849,1.95364308936911,-0.38087448,0.06963864,0.27580565,188.57924,-76.70944,12.045889,STD
2119134087000,3.484993,2.35324514314261,9.70997946680963,1.97107561721415,-0.3549127,0.09162979,0.27580565,188.53438,-76.57799,12.1247,STD
2119139024000,3.48993,2.41776709884004,9.76528406901257,1.98029301883225,-0.3475823,0.10415252,0.26083946,188.487,-76.45326,12.195572,STD
2119144090000,3.494996,2.45055543429993,9.80679414412863,1.96074327884008,-0.34055737,0.14294247,0.26542094,188.42403,-76.30889,12.283287,STD
2119149071000,3.499977,2.47338156158484,9.84331575710594,1.93335192609819,-0.32925636,0.16920967,0.25320363,188.36348,-76.17755,12.359555,STD
2119154129000,3.505035,2.44658576525916,9.83086914748849,1.91817675305183,-0.3005457,0.20280726,0.2434298,188.2972,-76.03965,12.442855,CSI
2119159026000,3.509932,2.39966002021213,9.79802141995197,1.90879160404243,-0.2773328,0.23915374,0.24495697,188.22417,-75.906456,12.522385,CSI
2119164101000,3.515007,2.3288667568819,9.72189914750415,1.88938510262772,-0.24770586,0.2602286,0.23060162,188.14706,-75.78079,12.597074,CSI
2119169083000,3.519989,2.24963470690632,9.62868508557195,1.86608153847807,-0.22999077,0.28955013,0.2275473,188.05862,-75.65727,12.671175,CSI
2119174066000,3.524972,2.16319629707113,9.54350885774059,1.8609859125523,-0.21838433,0.30787608,0.20861048,187.96301,-75.55273,12.7289,CSI
2119179134000,3.53004,2.07132837126918,9.46131112831241,1.86582106122734,-0.21166481,0.31337386,0.20372356,187.8645,-75.45054,12.7867565,CSI
2119184056000,3.534962,1.96429707614005,9.40449324338172,1.88832220153715,-0.20189096,0.31887165,0.18875736,187.76309,-75.366295,12.820738,CSI
2119189077000,3.539983,1.84521344886422,9.35932353842869,1.9211728765585,-0.17806722,0.32406402,0.18020524,187.66252,-75.287544,12.853051,CSI
2119194068000,3.544974,1.73546996530927,9.32310476909531,1.96291233057451,-0.15943582,0.31520647,0.1695151,187.55702,-75.22166,12.867643,CSI
2119199056000,3.549962,1.64609347052608,9.30733212678847,2.02600158225842,-0.15149458,0.30085114,0.16035213,187.45432,-75.16188,12.878809,CSI
2119204070000,3.554976,1.56066758277361,9.31044955906756,2.09539847664955,-0.129198,0.27458394,0.14996742,187.3438,-75.12424,12.864495,CSI
2119209080000,3.559986,1.48010095327934,9.33414610687475,2.17122594504149,-0.115453534,0.2507602,0.1386664,187.23938,-75.09076,12.847043,CSI
2119214603000,3.565509,1.41056768747592,9.34955938545279,2.25117242298651,-0.09865474,0.22113322,0.1386664,187.13727,-75.07097,12.815404,CSI
2119219086000,3.569992,1.36920661387283,9.35369557919075,2.31321411976879,-0.09682214,0.18967366,0.12858713,187.0453,-75.05722,12.778631,CSI
2119224070000,3.574976,1.33183605400372,9.35832433333333,2.36837830577281,-0.08735373,0.14294247,0.12705997,186.94652,-75.04506,12.734762,CSI
2119229067000,3.579973,1.30838448603352,9.3630145,2.40121045195531,-0.0711658,0.108123146,0.121256754,186.85576,-75.03825,12.687927,CSI
2119234033000,3.584939,1.28325259774171,9.36291205489465,2.44376760196592,-0.061086524,0.093767814,0.12217305,186.76709,-75.03475,12.633935,CSI
2119239078000,3.589984,1.25402684509527,9.35317020516181,2.50708995583224,-0.05497787,0.055588737,0.11881329,186.69727,-75.03559,12.580208,CSI
2119244001000,3.594907,1.24526463699689,9.35024948946101,2.56057256076483,-0.04734206,0.026267206,0.105068825,186.6212,-75.03236,12.52256,CSI
2119249277000,3.600183,1.27569359498143,9.36039240484794,2.60114454004818,-0.04153884,-0.00580322,0.09590584,186.55821,-75.02952,12.467821,CSI
2119254063000,3.604969,1.30061752519467,9.35991863129867,2.61784629602613,-0.032375857,-0.032375857,0.099571034,186.49873,-75.029175,12.408895,CSI
2119259130000,3.610036,1.32233310990781,9.34254602747695,2.60047387360601,-0.028099801,-0.055588737,0.09040806,186.44948,-75.03384,12.34618,CSI
2119264070000,3.614976,1.35140647010498,9.33031671847926,2.58511131874427,-0.020463986,-0.07238753,0.07971791,186.39728,-75.02552,12.295655,CSI
2119269141000,3.620047,1.4355556085822,9.35011667082866,2.5801613177352,-0.019547688,-0.079107046,0.07666359,186.34981,-75.01712,12.246323,CSI
2119274093000,3.624999,1.52460823749753,9.36125983607206,2.57454188150861,-0.030848695,-0.080634214,0.07513642,186.30046,-74.99949,12.206129,CSI
2119279068000,3.629974,1.64723346764997,9.33296138403286,2.5651090805781,-0.029932396,-0.080634214,0.071776666,186.25366,-74.98541,12.165614,CSI
2119284210000,3.635116,1.77254298262784,9.31115447283098,2.54867923115181,-0.0421497,-0.07544186,0.06383542,186.21266,-74.95839,12.138417,CSI
2119289112000,3.640018,1.88529114101871,9.32524827469229,2.50170087270089,-0.05222898,-0.071776666,0.06261369,186.17271,-74.93169,12.1127615,CSI
2119294079000,3.644985,1.99867748017872,9.33535214925373,2.4578479599962,-0.05497787,-0.051923547,0.06566802,186.13727,-74.8876,12.109694,CSI
2119299099000,3.650005,2.10836603118167,9.32164080597015,2.43499624614507,-0.0693332,-0.040927973,0.06780604,186.10416,-74.84151,12.106268,CSI
2119304271000,3.655177,2.21983691115327,9.30505861228158,2.41175655730404,-0.08124508,-0.024129177,0.07941248,186.07314,-74.780815,12.126771,CSI
2119309094000,3.66,2.30746448840739,9.2635509544683,2.39330866658013,-0.07971791,-0.016187929,0.09437868,186.04213,-74.720505,12.148157,CSI
2119314276000,3.665182,2.39768530763744,9.21898146002972,2.36962940225854,-0.080634214,-0.0106901415,0.10048734,186.01701,-74.6439,12.190984,CSI
2119319143000,3.670049,2.43923979702823,9.17742658494304,2.30498898900446,-0.07819075,0.014660766,0.1160644,185.98376,-74.564926,12.238151,CSI
2119324333000,3.675239,2.48308122105263,9.13324875438597,2.23593237894737,-0.087964594,0.03359759,0.12705997,185.93295,-74.45375,12.3166685,CSI
2119329091000,3.679997,2.51765029069701,9.09435859051683,2.17111528876245,-0.08368854,0.064751714,0.14263703,185.87259,-74.34466,12.396504,CSI
2119334093000,3.684999,2.55399213314367,9.0534740592698,2.10297424523471,-0.06414085,0.07819075,0.14905111,185.81718,-74.230545,12.486044,CSI
2119339111000,3.690017,2.59680058126379,9.0368177883651,2.03099872611836,-0.059864793,0.10781772,0.15332718,185.75002,-74.11555,12.574107,CSI
2119344080000,3.694986,2.63975796006018,9.02249889468405,1.95940316124373,-0.054367006,0.14385876,0.16584991,185.6789,-74.00469,12.662381,CSI
2119349105000,3.700011,2.65499527119531,8.99775877549028,1.89468570296388,-0.035124753,0.18875736,0.16523905,185.60573,-73.90006,12.753049,CSI
2119354581000,3.705487,2.66895637425681,8.96983647218032,1.82488013906292,-0.026572637,0.22937989,0.15454891,185.52596,-73.79771,12.8396845,CSI
2119359188000,3.710094,2.64627416126898,8.95427053191903,1.79398212980732,-0.008552114,0.2751948,0.15851954,185.42621,-73.6948,12.9414835,CSI
2119364047000,3.714953,2.61004709143636,8.94068556987155,1.771340163877,0.004581489,0.3118467,0.16462818,185.321,-73.597946,13.03582,CSI
2119369080000,3.719986,2.57365146015856,8.93206619143763,1.74665868033827,0.025961773,0.36774087,0.14660765,185.19514,-73.50442,13.127486,CSI
2119374102000,3.725008,2.53806337036998,8.92698208002114,1.72123865412262,0.040011674,0.4129449,0.13775012,185.06467,-73.41197,13.218374,CSI
2119379079000,3.729985,2.49355470298808,8.91927072923923,1.70477869162236,0.07422013,0.4636467,0.12889257,184.91933,-73.34022,13.291522,CSI
2119384061000,3.734967,2.44544945167736,8.91052414555454,1.69165909008249,0.09010262,0.50335294,0.115453534,184.76855,-73.27391,13.35581,CSI
2119389043000,3.739949,2.37341046654,8.90903645476019,1.69594360131457,0.09468412,0.539394,0.10903945,184.59601,-73.2132,13.413554,CSI
2119394024000,3.74493,2.28032848304406,8.91393560614152,1.7155397975968,0.110872045,0.5861252,0.09712757,184.41396,-73.1644,13.46019,CSI
2119399061000,3.749967,2.14938259293519,8.94653710283285,1.77378348422406,0.12889257,0.6270532,0.07452556,184.22487,-73.13115,13.488435,CSI
2119404073000,3.754979,1.99276365134227,8.99874347451426,1.85921197979928,0.14202617,0.6585127,0.06291912,184.02924,-73.10252,13.511747,CSI
2119409024000,3.75993,1.83805088601374,9.05031445340387,1.94360074308597,0.14080444,0.6814202,0.053450707,183.80006,-73.08197,13.518657,CSI
2119414049000,3.764955,1.68102571013497,9.10265623666387,2.02925082095219,0.15088372,0.6948592,0.02687807,183.57074,-73.07461,13.513755,CSI
2119419042000,3.769948,1.56012062910634,9.1626422196705,2.09426544882676,0.14294247,0.6899723,0.016798794,183.34436,-73.06466,13.5081415,CSI
2119424071000,3.774977,1.46875040276585,9.22996754917624,2.1423551420669,0.1469131,0.6759224,0.010079277,183.1225,-73.06584,13.493627,CSI
2119429042000,3.779948,1.39224612698459,9.29299186333236,2.21640567246293,0.14080444,0.6618725,0.009468411,182.85696,-73.09716,13.420159,CSI
2119434054000,3.78496,1.32711232805079,9.35347349442667,2.31410639515363,0.11789699,0.6441574,0.009773844,182.60152,-73.128944,13.345044,CSI
2119439049000,3.789955,1.25943206611188,9.39989972676838,2.41144714590846,0.12492194,0.6151413,0.010995574,182.34317,-73.17813,13.253292,CSI
2119444081000,3.794987,1.1881377223301,9.43109114757281,2.50947678718447,0.10476339,0.5821546,0.022907447,182.09505,-73.21711,13.165356,CSI
2119449062000,3.799968,1.124642692696,9.46397346794729,2.6028229970516,0.09987647,0.54458636,0.025961773,181.83768,-73.262146,13.067581,CSI
2119454050000,3.804956,1.07662820692428,9.50131773375028,2.68818213857494,0.070554934,0.50426924,0.028710667,181.59438,-73.29742,12.974873,CSI
2119458987000,3.809893,1.05103970330233,9.5253687102999,2.7233672897001,0.054367006,0.4560109,0.032375857,181.35298,-73.33803,12.87186,CSI
2119463984000,3.81489,1.04627961781469,9.53726886188889,2.71146713811111,0.03481932,0.42302418,0.03848451,181.12228,-73.37179,12.772197,CSI
2119468992000,3.819898,1.04150905385189,9.54919520952902,2.69954079047098,0.0027488936,0.38423425,0.055283304,180.89905,-73.3955,12.67174,CSI
2119473989000,3.824895,1.03674896836425,9.56109536111802,2.68764063888198,-0.013439035,0.3594942,0.054367006,180.68527,-73.42103,12.569919,CSI
2119478973000,3.829879,1.0206320599684,9.54218104571937,2.62685376853955,-0.027794369,0.3323107,0.06169739,180.4718,-73.43118,12.485011,CSI
2119483987000,3.834893,0.992182523955762,9.49002346400711,2.51305547595537,-0.021991149,0.31887165,0.06872234,180.26468,-73.442635,12.40102,CSI
2119488964000,3.83987,0.972492154799441,9.42280555717422,2.42126743825584,0.00030543262,0.3115413,0.07849618,180.04684,-73.449165,12.328593,CSI
2119493991000,3.844897,0.962884776312113,9.33633884983037,2.35401568852524,0.02443461,0.3115413,0.086132,179.83362,-73.45675,12.258228,CSI
2119498978000,3.849884,0.963509683385608,9.24675624357021,2.28649920889865,0.036651913,0.3118467,0.08582657,179.62215,-73.47448,12.189526,CSI
2119504243000,3.855149,0.977065159324312,9.1473497031096,2.2142033844072,0.061086524,0.30543262,0.09285152,179.41496,-73.49674,12.125386,CSI
2119509003000,3.859909,0.996292013969768,9.05575753789186,2.13471566955463,0.10720685,0.30543262,0.108123146,179.17442,-73.51195,12.0828,CSI
2119514061000,3.864967,1.04052003419905,8.95255884112813,2.00203166018058,0.1386664,0.29840767,0.10842858,178.94191,-73.53201,12.037917,CSI
2119519018000,3.869924,1.07889636795591,8.8563004563731,1.87934990829677,0.18081611,0.30665436,0.11942416,178.70674,-73.55621,12.00819,CSI
2119524033000,3.874939,1.10340277269109,8.77297847555873,1.77642290605164,0.23793201,0.3109304,0.12583824,178.47871,-73.59141,11.97661,CSI
2119529025000,3.879931,1.12188020219866,8.69677462963323,1.68655215686351,0.3023783,0.30879238,0.13255776,178.25058,-73.63043,11.96472,CSI
2119534064000,3.88497,1.12657496775951,8.63574287343127,1.62552015555015,0.36957347,0.32345316,0.1386664,178.02032,-73.68062,11.95111,CSI
2119539671000,3.890577,1.1207545504,8.574881584,1.5770702168,0.3912592,0.34116822,0.15332718,177.73598,-73.71262,11.979532,CSI
2119544070000,3.894976,1.09877454525217,8.53824824208696,1.56974354841739,0.44043383,0.3576616,0.1600467,177.45358,-73.7637,12.002902,CSI
2119549687000,3.900593,1.06982988927324,8.4910633569402,1.56220771711043,0.49938235,0.38789943,0.16249016,177.16997,-73.820244,12.027351,CSI
2119554085000,3.904991,1.03765706031209,8.44969844882148,1.57599605181144,0.5708536,0.3998113,0.16157386,176.89217,-73.88766,12.049063,CSI
2119559038000,3.909944,1.00289609582513,8.40736953603781,1.5972219972627,0.59223384,0.41386122,0.15699236,176.56035,-73.93519,12.083064,CSI
2119564070000,3.914976,0.979170978849941,8.39787929105947,1.66365237434029,0.6310238,0.44532076,0.14874569,176.22675,-74.000496,12.109661,CSI
2119569078000,3.919984,0.955580113335933,8.40482734587639,1.72676602325989,0.64721173,0.48197266,0.12705997,175.87454,-74.0677,12.131083,CSI
2119574178000,3.925084,0.931773464476506,8.58099659914213,1.7600953535387,0.6337727,0.528093,0.089186326,175.51857,-74.14206,12.139017,CSI
2119579253000,3.930159,0.914320514205941,8.7690281949505,1.78042322890099,0.61636305,0.56016344,0.060170226,175.16621,-74.22233,12.130925,CSI
2119584059000,3.934965,0.973562049120792,9.10169237732673,1.64371189565347,0.5858198,0.5992588,0.03023783,174.8067,-74.30659,12.105887,CSI
2119589368000,3.940274,1.03494031282187,9.46692735449735,1.47936323101764,0.5555819,0.6270532,-0.009773844,174.40266,-74.39026,12.0744095,CSI
2119594079000,3.944985,1.04289737461199,9.76531561375661,1.18097479312258,0.5342017,0.6533204,-0.036651913,173.99585,-74.47485,12.0331,CSI
2119599059000,3.949965,1.05130878783951,10.080741962963,0.865548255080247,0.5448918,0.72021013,-0.07574729,173.5496,-74.57659,11.984107,CSI
2119604160000,3.955066,1.10348722112333,10.4290547703689,0.653053769184269,0.552833,0.7654142,-0.12644911,173.11206,-74.68416,11.920452,CSI
2119609671000,3.960577,1.17541255727636,10.8143687838022,0.462965377714397,0.57604593,0.7812967,-0.16829337,172.67328,-74.804596,11.843271,CSI
2119614066000,3.964972,1.24081375756846,11.1290474546093,0.504229566114956,0.593761,0.7870999,-0.19394971,172.25957,-74.98611,11.73068,CSI
2119619133000,3.970039,1.31869627700873,11.494122034507,0.611318011284984,0.61911196,0.77182823,-0.23243423,171.85484,-75.18417,11.601843,CSI
2119624043000,3.974949,1.38703864673157,11.6834721272601,0.691237823042917,0.6386596,0.7476991,-0.26175576,171.4305,-75.39548,11.480093,CSI
2119629046000,3.979952,1.45367665841446,11.8072285340751,0.762635777196503,0.64721173,0.73639804,-0.28344148,171.01244,-75.614136,11.348871,CSI
2119634061000,3.984967,1.4817955481796,11.7663856414393,0.896775824538796,0.6411031,0.6795876,-0.28405234,170.56754,-75.8098,11.24063,CSI
2119639125000,3.990031,1.49209104020805,11.6479876981212,1.06150382062414,0.61850107,0.6356053,-0.30115658,170.13026,-76.01146,11.119526,CSI
2119644070000,3.994976,1.4508391515194,11.4752443361384,1.16006517152875,0.61819565,0.59681535,-0.3100141,169.67943,-76.19105,11.025327,CSI
2119649080000,3.999986,1.39700486287985,11.2868238340346,1.24530276788219,0.63194007,0.5510005,-0.30695978,169.25108,-76.36976,10.929131,CSI
2119654135000,4.005041,1.30235995572472,11.0172603921407,1.19368036835716,0.6423248,0.5323691,-0.3005457,168.81308,-76.52749,10.847251,CSI
2119659127000,4.010033,1.18924706939615,10.7123478407571,1.07564953268182,0.659429,0.52931476,-0.30024028,168.39171,-76.6889,10.763305,CSI
2119664069000,4.014975,1.18183981102618,10.5183174964647,1.11301056432257,0.66920286,0.51159966,-0.30695978,167.96806,-76.8401,10.684397,CSI
2119669115000,4.020021,1.21416087296006,10.3613298119625,1.20997365369769,0.6554584,0.48502702,-0.30909783,167.5559,-76.98875,10.605111,CSI
2119674074000,4.02498,1.29308135992064,10.3504972918193,1.32140541828449,0.6310238,0.47494772,-0.29871312,167.12135,-77.14233,10.529777,CSI
2119679474000,4.03038,1.40884493134921,10.429426962149,1.452954923779,0.6020077,0.5012149,-0.3051272,166.69307,-77.29674,10.446546,CSI
2119684068000,4.034974,1.645098574845,10.7191364986714,1.48129190380868,0.5626069,0.4908302,-0.2996294,166.26846,-77.41631,10.391564,CSI
2119689083000,4.039989,1.96178538618246,11.1303566275957,1.47656523792934,0.52106804,0.4373795,-0.2764165,165.85771,-77.52851,10.337935,CSI
2119694071000,4.044977,2.40850320290207,11.6059683356304,1.17080201459284,0.50793445,0.376293,-0.22602014,165.46605,-77.61,10.308311,CSI
2119699057000,4.049963,2.93220950104824,12.1204051647093,0.688806923832864,0.4804455,0.30909783,-0.16798794,165.09952,-77.676254,10.287047,CSI
2119704127000,4.055033,3.42399831521981,12.3949907037898,0.282503711390601,0.43310347,0.24281894,-0.10598512,164.74014,-77.687325,10.339433,CSI
2119709123000,4.060029,3.87852056091966,12.4820271330975,-0.0559703557220819,0.4111123,0.21074851,-0.03023783,164.39703,-77.682495,10.408299,CSI
2119714068000,4.064974,4.21743630705394,11.7777350543191,-0.19951258760845,0.41141775,0.21624629,0.029932396,164.08278,-77.63819,10.560731,CSI
2119719082000,4.069988,4.48460604875519,10.5188668968314,-0.21309749197284,0.3915646,0.25625798,0.07086037,163.774,-77.575325,10.719794,CSI
2119724030000,4.074936,4.6089143094594,9.62931079704867,-0.217138449596084,0.3155119,0.28344148,0.105374254,163.50328,-77.45639,10.952064,CSI
2119729070000,4.079976,4.57238812339308,9.13620699910136,-0.210289784941115,0.21685717,0.34483343,0.12675454,163.21712,-77.326385,11.178556,CSI
2119734062000,4.084968,4.5362098057655,8.64779942780116,-0.203506345663813,0.17654006,0.39767328,0.1328632,162.99728,-77.113594,11.483012,CSI
2119739082000,4.089988,4.49982856488199,8.15665239095682,-0.196684858249539,0.11575896,0.4801401,0.14782938,162.75597,-76.879036,11.785255,CSI
2119744061000,4.094967,4.42904603419052,7.75408909436494,-0.203003886182916,0.08246681,0.56596667,0.16279559,162.49632,-76.6417,12.085372,CSI
2119749261000,4.100167,4.23973690628354,7.61489118738819,-0.253115089671288,0.09040806,0.66828656,0.16035213,162.21454,-76.4058,12.374014,CSI
2119754108000,4.105014,4.09985759273857,7.59555493408407,-0.269200222496845,0.12095132,0.7724391,0.15088372,161.93648,-76.14356,12.676623,CSI
2119759156000,4.110062,3.99660935555771,7.70349657143967,-0.250427788115717,0.16340645,0.86406887,0.13591751,161.63957,-75.88804,12.969066,CSI
2119764028000,4.114934,3.9034133677753,7.83862961883192,-0.188806135395453,0.226631,0.9502009,0.11911872,161.31433,-75.66732,13.235441,CSI
2119769081000,4.119987,3.81711533669193,8.0284850439144,-0.0550442277663843,0.29016098,0.9981538,0.11148291,160.98055,-75.45416,13.4941225,CSI
2119774041000,4.124947,3.72484374337802,8.22171146085791,0.0953778063914209,0.34422258,1.0421361,0.10598512,160.61562,-75.270134,13.7231865,CSI
2119779071000,4.129977,3.5853664013941,8.45933971876676,0.364000821812332,0.40103304,1.0528263,0.12003502,160.25362,-75.09148,13.950272,CSI
2119784062000,4.134968,3.44013161122131,8.68762211085181,0.622229846985609,0.45356745,1.0445796,0.13836098,159.85732,-74.92532,14.167153,CSI
