timestamp,rel_time,acc_x,acc_y,acc_z,gyro_x,gyro_y,gyro_z,azimuth,pitch,roll,label
2961054596000,0,-1.51545311609175,9.8054816686264,-0.894042743672483,-0.33444872,-0.3481932,0.054367006,79.18373,-98.48853,-5.621283,STD
2961059644000,0.005048,-1.49661761773203,9.80499872260823,-0.907324185308471,-0.3390302,-0.30451632,0.04428773,79.471,-98.47676,-5.657218,STD
2961064614000,0.010018,-1.47807315916472,9.80452323890967,-0.920400406570528,-0.32711834,-0.2669481,0.03848451,79.74588,-98.46446,-5.691131,STD
2961069595000,0.014999,-1.45948765652412,9.80404670283271,-0.93350556916737,-0.30543262,-0.18906279,0.037873644,79.99105,-98.45338,-5.722983,STD
2961074636000,0.02004,-1.44067827712014,9.80356442650989,-0.946768593590314,-0.28130344,-0.10720685,0.037873644,80.21898,-98.44548,-5.7542043,STD
2961079627000,0.025031,-1.42205546168564,9.80308693372528,-0.959900066491506,-0.25534168,-0.040927973,0.04734206,80.424706,-98.43999,-5.780303,STD
2961084620000,0.030024,-1.40342518369236,9.80260924959915,-0.973036801453568,-0.2144137,0.028099801,0.05100725,80.60191,-98.44299,-5.804854,STD
2961089647000,0.035051,-1.38466804219983,9.80212831266702,-0.986262991450421,-0.18753563,0.07238753,0.04795292,80.76361,-98.44718,-5.8269134,STD
2961094618000,0.040022,-1.36611985235313,9.8016527332977,-0.999341843742913,-0.14935656,0.098043874,0.058337633,80.90811,-98.45798,-5.8422003,STD
2961099616000,0.04502,-1.34747091796291,9.80117457081774,-1.01249173385715,-0.12217305,0.09682214,0.059253927,81.044235,-98.47364,-5.8601847,STD
2961105417000,0.050821,-1.32582576622267,9.80061958471406,-1.02775434141071,-0.10048734,0.07971791,0.058948494,81.17491,-98.4933,-5.8750515,STD
2961109595000,0.054999,-1.31023648093208,9.80021987226082,-1.03874678656823,-0.093767814,0.040317107,0.057726767,81.30944,-98.51444,-5.8904347,STD
2961114612000,0.060016,-1.29151665223345,9.79973989203634,-1.05194666626073,-0.09407325,-0.007941248,0.055283304,81.44837,-98.53776,-5.9068384,STD
2961119603000,0.065007,-1.27289383679895,9.79926239925174,-1.06507813916193,-0.0842994,-0.062002823,0.060170226,81.5973,-98.56208,-5.922645,STD
2961124638000,0.070042,-1.2541068450713,9.7987806969535,-1.07832537740226,-0.07238753,-0.09590584,0.06505715,81.75082,-98.58598,-5.9397135,STD
2961129616000,0.07502,-1.23553253626888,9.79830444788883,-1.0914226469078,-0.06780604,-0.1142318,0.055588737,81.91145,-98.61088,-5.9603777,STD
2961134614000,0.080018,-1.21688360187865,9.79782628540887,-1.10457253702203,-0.06169739,-0.12889257,0.05100725,82.077286,-98.63519,-5.978931,STD
2961139645000,0.085049,-1.19811153526856,9.79734496579369,-1.11780925114063,-0.054061573,-0.12767084,0.042455133,82.2396,-98.66195,-6.00102,STD
2961144622000,0.090026,-1.17954095774552,9.79686881239979,-1.13090388961573,-0.046731193,-0.094989546,0.03848451,82.393326,-98.68837,-6.022149,STD
2961149614000,0.095018,-1.16091441103163,9.79639122394441,-1.14403799354736,-0.048258353,-0.07574729,0.028405234,82.546394,-98.71588,-6.047339,STD
2961154599000,0.100003,-1.14231398327348,9.79591430518439,-1.15715368026594,-0.044593163,-0.049785517,0.023518313,82.6848,-98.7442,-6.0704246,STD
2961159627000,0.105031,-1.12355311050156,9.79543327258151,-1.17038250129323,-0.03970624,-0.023823744,0.015271631,82.81405,-98.773636,-6.0961375,STD
2961164611000,0.110015,-1.10495641402279,9.79495644949225,-1.18349555698137,-0.03940081,-0.023823744,0.009773844,82.8712655604572,-98.7895734068578,-6.1102717422298,STD
2961169601000,0.115005,-1.08633732986768,9.79447905237841,-1.19662439885213,-0.034513887,0.015577064,-0.0036651916,82.92855,-98.80553,-6.124423,STD
2961175447000,0.120851,-1.0645242705549,9.79391976109033,-1.21200540277527,-0.040927973,0.022602014,-0.006414085,83.04238,-98.833015,-6.149991,STD
2961179615000,0.125019,-1.04897229805821,9.79352100534474,-1.22297153762844,-0.040011674,0.021991149,-0.018020526,83.14379,-98.86715,-6.181662,STD
2961184608000,0.130012,-1.03034202006494,9.7930433212186,-1.2361082725905,-0.050396383,0.009162978,-0.02321288,83.24448,-98.89554,-6.2116556,STD
2961189645000,0.135049,-1.01154756577851,9.79256142757884,-1.2493607728917,-0.05589417,0.0027488936,-0.025350908,83.34099,-98.92539,-6.243,STD
2961194621000,0.140025,-0.992980719534858,9.79208536985569,-1.26245278033637,-0.053145275,-0.011911872,-0.03023783,83.44103,-98.95503,-6.2763515,STD
2961199614000,0.145018,-0.974350441541582,9.79160768572956,-1.27558951529843,-0.06963864,-0.02443461,-0.03176499,83.54014,-98.978065,-6.3085685,STD
2961204590000,0.149994,-0.955783595297932,9.79113162800641,-1.2886815227431,-0.07391469,-0.040317107,-0.020463986,83.6424,-99.001205,-6.3381453,STD
2961209625000,0.155029,-0.936996603570283,9.79064992570818,-1.30192876098343,-0.07666359,-0.043676864,-0.015882496,83.7422,-99.02172,-6.369106,STD
2961214612000,0.160016,-0.918388713253345,9.79017281560663,-1.31504970976288,-0.080634214,-0.046731193,-0.015577064,83.84447,-99.038574,-6.39773,STD
2961219604000,0.165008,-0.899762166539459,9.78969522715126,-1.32818381369451,-0.08368854,-0.05589417,-0.014966198,83.94738,-99.05303,-6.424503,STD
2961224637000,0.170041,-0.88098263737059,9.78921371619455,-1.34142578987397,-0.08032878,-0.056505036,-0.013744468,84.04659,-99.0668,-6.450094,STD
2961229625000,0.175029,-0.862371015774262,9.78873651042223,-1.35454936968386,-0.0870483,-0.053145275,-0.007941248,84.1453,-99.07595,-6.473651,STD
2961234612000,0.180016,-0.843763125457325,9.78825940032069,-1.36767031846331,-0.07819075,-0.06352998,-0.005497787,84.245964,-99.08841,-6.497585,STD
2961239654000,0.185058,-0.824950014773948,9.7877770283271,-1.38093597391669,-0.08246681,-0.06719518,-0.002443461,84.34192,-99.094795,-6.518757,STD
2961244860000,0.190264,-0.814682920568248,9.78727887540725,-1.38732827863575,-0.07666359,-0.070554934,0.0021380284,84.43882,-99.10333,-6.538546,STD
2961249616000,0.19502,-0.816048492688733,9.78682367551118,-1.38459713391947,-0.08582657,-0.07269296,-0.0009162979,84.53424,-99.108246,-6.559181,STD
2961254596000,0.2,-0.817478381073934,9.78634703642742,-1.38173735665138,-0.07666359,-0.08002335,0.003970624,84.72174,-99.148766,-6.526229,STD
2961259624000,0.205028,-0.81892205151586,9.785865803232,-1.37885001526504,-0.06841691,-0.07452556,-0.0021380284,84.90113,-99.189186,-6.498171,STD
2961264613000,0.210017,-0.820354524036697,9.78538830275229,-1.37598506972477,-0.06811147,-0.07880162,0.005497787,85.081505,-99.22507,-6.466615,STD
2961269603000,0.215007,-0.821787283683716,9.78491070656193,-1.37311954993204,-0.076052725,-0.05955936,0.0061086523,85.248726,-99.26247,-6.438968,STD
2961274635000,0.220039,-0.823232102630369,9.78442909052388,-1.37022991153585,-0.07941248,-0.05222898,0.006414085,85.41653,-99.2983,-6.4109144,STD
2961279614000,0.225018,-0.824661703889389,9.78395254715077,-1.36737070852022,-0.07574729,-0.033292156,0.01160644,85.57158,-99.331825,-6.381358,STD
2961284609000,0.230013,-0.826095899167316,9.78347447240711,-1.36450231746517,-0.0693332,-0.034208454,0.010995574,85.72613,-99.36528,-6.354843,STD
2961289624000,0.235028,-0.827535836968879,9.78299448345026,-1.36162244136086,-0.06414085,-0.018325957,0.012217305,85.86699,-99.3969,-6.3261857,STD
2961294598000,0.240002,-0.82896400259699,9.78251841863045,-1.35876610960754,-0.06719518,-0.02565634,0.0067195175,86.01086,-99.42853,-6.301476,STD
2961299615000,0.245019,-0.830404514650916,9.78203823825228,-1.3558850849983,-0.07147124,-0.01740966,0.012217305,86.1427,-99.45766,-6.2732134,STD
2961304598000,0.250002,-0.831835264414663,9.78156131203654,-1.35302358497282,-0.055283304,-0.0143553335,0.007330383,86.27414,-99.4925,-6.250815,STD
2961309598000,0.255002,-0.8332708953235,9.78108275873958,-1.35015232265545,-0.05375614,-0.019242255,0.004276057,86.40252,-99.52092,-6.2272553,STD
2961314624000,0.260028,-0.834713991513062,9.78060171696548,-1.34726612977404,-0.052534413,-0.018020526,0.0018325958,86.52492,-99.5525,-6.205443,STD
2961319606000,0.26501,-0.836144454150627,9.78012488646039,-1.34440520400102,-0.067500606,-0.018325957,0.010995574,86.64632,-99.57822,-6.1822233,STD
2961324624000,0.270028,-0.837585253330735,9.77964461037157,-1.34152360513931,-0.059864793,-0.01740966,0.0076358155,86.76342,-99.610794,-6.163902,STD
2961329616000,0.27502,-0.839018587230117,9.77916682275989,-1.33865693684166,-0.058948494,-0.016798794,0.0067195175,86.8782,-99.63552,-6.1430964,STD
2961334607000,0.280011,-0.840451634003318,9.77868913085887,-1.33579084279647,-0.051618114,-0.01985312,0.0021380284,86.99061,-99.66361,-6.125114,STD
2961339639000,0.285043,-0.841896452949971,9.77820751482081,-1.33290120440027,-0.04886922,-0.01038471,0.0036651916,87.09668,-99.68894,-6.1058574,STD
2961344631000,0.290035,-0.843329786849353,9.77772972720913,-1.33003453610262,-0.06047566,-0.013133603,-0.002443461,87.20387,-99.713844,-6.0912595,STD
2961349629000,0.295033,-0.844764843505826,9.77725136533349,-1.32716442229018,-0.053450707,-0.013133603,0.0015271631,87.30539,-99.74039,-6.0735183,STD
2961354604000,0.300008,-0.846193296260119,9.77677520480302,-1.3243075162844,-0.045814894,0.003970624,0.00580322,87.40006,-99.764534,-6.0574117,STD
2961360267000,0.305671,-0.847819291827467,9.77623319533889,-1.32105552458376,-0.058948494,-0.004581489,0.004581489,87.49948,-99.784874,-6.0432596,STD
2961364618000,0.310022,-0.849068577844337,9.77581675825988,-1.31855695211519,-0.052839845,-0.002443461,0.008552114,87.589,-99.80864,-6.025945,STD
2961369606000,0.31501,-0.850500763238992,9.77533935349084,-1.31569258082739,-0.06169739,-0.0070249503,0.009773844,87.68041,-99.82589,-6.0108805,STD
2961374635000,0.320039,-0.8519447208071,9.77485802458476,-1.31280466518858,-0.0580322,-0.002443461,0.008246681,87.76641,-99.846275,-5.995595,STD
2961379615000,0.325019,-0.853374609192301,9.77438138550099,-1.30994488792049,-0.06291912,-0.007941248,0.015271631,87.85476,-99.86021,-5.978652,STD
2961384605000,0.330009,-0.85480736883932,9.77390378931063,-1.30707936812776,-0.065973446,-0.022296581,0.013133603,87.941826,-99.87645,-5.9654226,STD
2961389667000,0.335071,-0.856260801571426,9.77341930195279,-1.30417250215766,-0.065973446,-0.030543262,0.011301007,88.026924,-99.89026,-5.950651,STD
2961394620000,0.340024,-0.857682937549719,9.77294524705682,-1.30132822970608,-0.076052725,-0.03268129,0.013133603,88.11233,-99.90006,-5.936265,STD
2961399609000,0.345013,-0.859115410070556,9.77246774657712,-1.29846328416582,-0.074830994,-0.036957346,0.013439035,88.19846,-99.91228,-5.9236913,STD
2961404596000,0.35,-0.86054730833903,9.77199043751874,-1.29559948713048,-0.06536258,-0.043676864,0.014966198,88.28401,-99.92287,-5.910881,STD
2961409608000,0.355012,-0.861986384762048,9.77151073569387,-1.29272133378355,-0.067500606,-0.05131268,0.020158553,88.36918,-99.929726,-5.8975825,STD
2961414611000,0.360015,-0.863422877049429,9.77103189526493,-1.2898483487088,-0.06383542,-0.05009095,0.019547688,88.45157,-99.940125,-5.8858232,STD
2961419602000,0.365006,-0.86485592382263,9.77055420336391,-1.28698225466361,-0.070554934,-0.05100725,0.02107485,88.53502,-99.945724,-5.8728223,STD
2961424634000,0.370038,-0.866300742769283,9.77007258732586,-1.28409261626741,-0.05955936,-0.05100725,0.022907447,88.6159,-99.95566,-5.8602376,STD
2961430504000,0.375908,-0.867986173456257,9.76951076575523,-1.28072175430683,-0.05467244,-0.04550946,0.029932396,88.69384,-99.96091,-5.8459873,STD
2961434601000,0.380005,-0.869162529422958,9.76911863918371,-1.27836904196398,-0.0571159,-0.035430185,0.034513887,88.7686,-99.96649,-5.832147,STD
2961439646000,0.38505,-0.870611081009974,9.76863577890708,-1.27547193828576,-0.055588737,-0.030543262,0.016493361,88.840805,-99.97618,-5.8231955,STD
2961444622000,0.390026,-0.871581371593033,9.76825102648625,-1.27215178195809,-0.051618114,-0.02076942,0.019242255,88.90809,-99.98113,-5.806964,STD
2961449607000,0.395011,-0.871820536116385,9.76801185696823,-1.26808598256376,-0.058948494,-0.017715093,0.01863139,88.97342,-99.986824,-5.7972007,STD
2961454610000,0.400014,-0.872060564222771,9.76777182384915,-1.26400550224885,-0.049785517,-0.0015271631,0.020463986,89.155914,-100.01962,-5.7756133,STD
2961459750000,0.405154,-0.872307165155576,9.76752521776638,-1.25981328381618,-0.04062254,0.010995574,0.013133603,89.33376,-100.05079,-5.7575674,STD
2961464595000,0.409999,-0.872539612922004,9.76729276514556,-1.25586166935971,-0.03604105,0.02076942,0.012217305,89.50388,-100.08016,-5.737395,STD
2961469644000,0.415048,-0.872781847962808,9.76705052504596,-1.25174367113665,-0.05131268,0.023823744,0.008552114,89.667854,-100.107124,-5.720521,STD
2961474759000,0.420163,-0.873027249474734,9.76680511840912,-1.24757184287146,-0.04184427,0.022602014,0.006414085,89.82635,-100.13939,-5.703901,STD
2961479727000,0.425131,-0.873265598391888,9.76656676451434,-1.24351990879101,-0.043066,0.019547688,-0.005497787,89.98017,-100.16626,-5.691619,STD
2961484600000,0.430004,-0.873499389509701,9.76633296851407,-1.23954545734697,-0.038179077,0.017715093,0.0012217305,90.13099,-100.19271,-5.6751986,STD
2961489721000,0.435125,-0.873745078882638,9.76608727401021,-1.23536873544158,-0.040011674,0.0027488936,-0.0143553335,90.28133,-100.22126,-5.669561,STD
2961494603000,0.440007,-0.873979301791967,9.76585304620941,-1.23138694353724,-0.038789943,0.0021380284,-0.016187929,90.42542,-100.24696,-5.6580276,STD
2961500095000,0.445499,-0.874242790570754,9.76558955192798,-1.22690763154654,-0.030848695,-0.00030543262,-0.008552114,90.570496,-100.27329,-5.649189,STD
2961504609000,0.450013,-0.874459358004739,9.76537297997124,-1.22322598290743,-0.03481932,-0.004581489,-0.013133603,90.7122,-100.29779,-5.6446495,STD
2961509675000,0.455079,-0.874702408651741,9.76512992424842,-1.21909411937048,-0.016187929,-0.003970624,-0.014660766,90.85027,-100.32644,-5.637254,STD
2961514731000,0.460135,-0.874944979530391,9.76488734830397,-1.21497041190053,-0.018020526,-0.0125227375,-0.009468411,90.98893,-100.34747,-5.630044,STD
2961519606000,0.46501,-0.875178866601875,9.76465345634803,-1.21099432924309,-0.016798794,-0.004276057,-0.014660766,91.11884,-100.37409,-5.6256394,STD
2961524658000,0.470062,-0.875421245573184,9.76441107231493,-1.20687388419993,-0.021991149,-0.0036651916,-0.021380283,91.25027,-100.39673,-5.621132,STD
2961529596000,0.475,-0.875658155185284,9.76417415775526,-1.20284641832045,-0.015577064,0.0018325958,-0.017104227,91.37511,-100.42014,-5.6145725,STD
2961534589000,0.479993,-0.875897703523318,9.76393460441454,-1.19877409407253,-0.015882496,0.002443461,-0.021991149,91.49744,-100.44181,-5.6128016,STD
2961539665000,0.485069,-0.876141233938671,9.76369106891335,-1.1946340744686,-0.016187929,0.00030543262,-0.019242255,91.616615,-100.46185,-5.6076646,STD
2961544595000,0.489999,-0.876377759736089,9.76345453817637,-1.19061313344271,-0.018020526,0.0027488936,-0.020158553,91.73111,-100.48149,-5.6048126,STD
2961549588000,0.494992,-0.876617308074123,9.76321498483566,-1.18654080919479,-0.01863139,0.008246681,-0.008857546,91.84325,-100.49781,-5.597786,STD
2961554547000,0.499951,-0.876855225199761,9.7629770627414,-1.18249621557464,-0.009162978,0.011301007,-0.013133603,91.95197,-100.51747,-5.59552,STD
2961559518000,0.504922,-0.877093718047422,9.76273856491311,-1.17844183467409,-0.013439035,0.008246681,-0.010995574,92.05909,-100.52987,-5.5884647,STD
2961564517000,0.509921,-0.877333554246467,9.76249872370537,-1.17436461678598,-0.01282817,-0.0027488936,-0.010995574,92.16481,-100.54563,-5.5836067,STD
2961569533000,0.514937,-0.87757420605171,9.7622580668744,-1.17027353358399,-0.0143553335,-0.008857546,-0.004276057,92.26796,-100.55746,-5.5763297,STD
2961574559000,0.519963,-0.877815337625305,9.76201693026506,-1.166174294315,-0.013133603,-0.0027488936,-0.0012217305,92.36816,-100.56962,-5.570178,STD
2961579510000,0.524914,-0.878052870936262,9.76177939199351,-1.16213622554844,-0.0067195175,-0.0012217305,-0.0015271631,92.46912,-100.581215,-5.5637465,STD
2961584519000,0.529923,-0.878293186903659,9.7615390710074,-1.15805085159333,-0.018325957,-0.013133603,-0.0027488936,92.56993,-100.58748,-5.557255,STD
2961589538000,0.534942,-0.878533982639407,9.76129827024292,-1.15395732157124,-0.024740042,-0.009162978,0.008246681,92.66407,-100.59387,-5.546834,STD
2961594507000,0.539911,-0.878772379533397,9.7610598683703,-1.1499045718841,-0.027794369,-0.011301007,0.0070249503,92.76048,-100.59944,-5.541201,STD
2961599521000,0.544925,-0.87901293538497,9.760819307495,-1.1458151198955,-0.026267206,-0.008246681,0.01282817,92.85293,-100.60112,-5.5303164,STD
2961604524000,0.549928,-0.879252963491356,9.76057927437592,-1.14173463958059,-0.03145956,-0.004276057,0.014966198,92.9434,-100.60048,-5.5211177,STD
2961609503000,0.554907,-0.879491840153697,9.76034039272492,-1.13767373382645,-0.034208454,-0.009468411,0.011301007,93.03358,-100.60017,-5.512491,STD
2961614505000,0.559909,-0.879731820283248,9.76010040758367,-1.13359406911824,-0.034208454,-0.004581489,0.023823744,93.118614,-100.59597,-5.4983554,STD
2961619524000,0.564928,-0.879972616018997,9.75985960681919,-1.12950053909615,-0.053450707,-0.0015271631,0.020158553,93.20284,-100.5888,-5.490411,STD
2961624548000,0.569952,-0.880213651638921,9.75961856616553,-1.12540293104056,-0.04886922,-0.017104227,0.017104227,93.28973,-100.585045,-5.4797406,STD
2961629508000,0.574912,-0.880451616741395,9.75938059609344,-1.12135752181371,-0.049785517,-0.0125227375,0.02076942,93.368385,-100.57445,-5.4674864,STD
2961634502000,0.579906,-0.880691213056264,9.75914099477489,-1.11728438195909,-0.053450707,-0.014049901,0.01863139,93.45102,-100.56519,-5.4589586,STD
2961639549000,0.584953,-0.880933352143397,9.75889885063097,-1.11316801494943,-0.047036625,-0.02321288,0.023823744,93.5333,-100.556206,-5.447758,STD
2961644496000,0.5899,-0.881899340514065,9.75866185539678,-1.11059717271502,-0.046731193,-0.02321288,0.025961773,93.61148,-100.54527,-5.437937,STD
2961649497000,0.594901,-0.88381235048231,9.75842272446901,-1.10987979491327,-0.04337143,-0.032986723,0.027183503,93.69352,-100.53568,-5.428038,STD
2961654558000,0.599962,-0.885748311979869,9.7581807245439,-1.10915381029927,-0.046120327,-0.038179077,0.027794369,93.908005,-100.54992,-5.407466,STD
2961659517000,0.604921,-0.887645255877595,9.75794360191426,-1.10844245726611,-0.05375614,-0.03634648,0.028405234,94.11826,-100.56189,-5.3872495,STD
2961664505000,0.609909,-0.889553293014489,9.75770509260258,-1.10772694427369,-0.045814894,-0.046731193,0.03359759,94.328766,-100.5746,-5.3668957,STD
2961669514000,0.614918,-0.891469363186643,9.75746557914183,-1.10700841889698,-0.042760566,-0.050396383,0.032070424,94.53176,-100.58359,-5.348405,STD
2961674532000,0.619936,-0.893388876088194,9.75722563533148,-1.10628860249843,-0.0421497,-0.047036625,0.0290161,94.73113,-100.591835,-5.3295636,STD
2961679512000,0.624916,-0.89529385302118,9.75698750855277,-1.10557423708097,-0.051618114,-0.04886922,0.034513887,94.928665,-100.59581,-5.3096313,STD
2961684533000,0.629937,-0.897214513499196,9.75674742129255,-1.10485399034181,-0.04520403,-0.04795292,0.035430185,95.1196,-100.60349,-5.292028,STD
2961689529000,0.634933,-0.899125610839999,9.75650852944789,-1.10413732977442,-0.04734206,-0.033292156,0.02107485,95.30232,-100.606735,-5.2771125,STD
2961694515000,0.639919,-0.901032882925916,9.75627011576945,-1.10342210367574,-0.05497787,-0.03145956,0.024740042,95.485016,-100.60614,-5.2578526,STD
2961699512000,0.644916,-0.902944362792207,9.75603117610816,-1.10270529966148,-0.046120327,-0.027488936,0.024129177,95.658005,-100.61046,-5.2434187,STD
2961704531000,0.649935,-0.904864258219246,9.75579118448119,-1.10198533981606,-0.04734206,-0.024740042,0.029626964,95.82734,-100.60777,-5.2265315,STD
2961709567000,0.654971,-0.906790656579591,9.75555037997164,-1.10126294137384,-0.052534413,-0.018936822,0.023823744,95.99031,-100.60678,-5.2130394,STD
2961714514000,0.659918,-0.908683010171455,9.75531383114147,-1.10055330970312,-0.051923547,-0.0067195175,0.026572637,96.147606,-100.60383,-5.195532,STD
2961719497000,0.664901,-0.910589134680906,9.75507556091289,-1.09983851394506,-0.035430185,-0.004581489,0.02565634,96.30211,-100.60381,-5.1812263,STD
2961724553000,0.669957,-0.912523183551022,9.7548338000709,-1.09911324656541,-0.039095376,-0.0009162979,0.027488936,96.44958,-100.597176,-5.165086,STD
2961729515000,0.674919,-0.914421275025214,9.75459653399139,-1.09840146319164,-0.0421497,0.0125227375,0.020463986,96.58987,-100.59516,-5.1515126,STD
2961734520000,0.679924,-0.916335815095414,9.75435721179713,-1.09768351160241,-0.042760566,0.008857546,0.018020526,96.73104,-100.590996,-5.1371236,STD
2961739558000,0.684962,-0.918262978506735,9.75411631165433,-1.09696082626644,-0.040927973,0.0125227375,0.009468411,96.86268,-100.587616,-5.125796,STD
2961744536000,0.68994,-0.920167190388744,9.75387828050887,-1.09624674774273,-0.044898596,0.0061086523,0.0033597588,96.995224,-100.58175,-5.115361,STD
2961749533000,0.694937,-0.922078670255035,9.75363934084759,-1.09552994372847,-0.036651913,0.01160644,0.0030543262,97.12034,-100.57892,-5.105172,STD
2961754822000,0.700226,-0.924101847563984,9.75338643873261,-1.09477125322788,-0.025045475,0.020463986,0.005497787,97.2433,-100.57556,-5.0961876,STD
2961759544000,0.704948,-0.925908132920923,9.75316064864244,-1.09409389710314,-0.028710667,0.0290161,0.011911872,97.36222,-100.56908,-5.0860476,STD
2961764532000,0.709936,-0.927816170057817,9.75292213933076,-1.09337838411072,-0.027488936,0.042455133,0.004886922,97.474075,-100.56741,-5.078547,STD
2961769497000,0.714901,-0.929715409108475,9.75268472980138,-1.09266617039633,-0.027183503,0.032986723,0.0106901415,97.588356,-100.56122,-5.066499,STD
2961774539000,0.719943,-0.931644102621751,9.7524436383921,-1.09194291127288,-0.025961773,0.03634648,0.008857546,97.69213,-100.556854,-5.0575666,STD
2961779525000,0.724929,-0.933551374707668,9.75220522471366,-1.0912276851742,-0.018020526,0.04337143,0.01038471,97.79559,-100.55233,-5.046529,STD
2961784510000,0.729914,-0.935458264268097,9.75196685885184,-1.09051260252239,-0.024129177,0.04795292,0.016798794,97.89664,-100.54352,-5.0347986,STD
2961789538000,0.734942,-0.937381602424533,9.75172643687527,-1.08979135165513,-0.02443461,0.047036625,0.011301007,97.99455,-100.53894,-5.026159,STD
2961794505000,0.739909,-0.939281606526168,9.75148893171265,-1.089078851047,-0.022907447,0.04642576,0.014966198,98.08966,-100.53062,-5.013181,STD
2961799526000,0.74493,-0.941202267004184,9.75124884445243,-1.08835860430784,-0.01985312,0.04520403,0.018325957,98.18289,-100.52285,-5.002139,STD
2961804603000,0.750007,-0.943144348909559,9.75100607946137,-1.0876303245439,-0.017715093,0.060170226,0.018325957,98.26967,-100.514694,-4.9905477,STD
2961809603000,0.755007,-0.945056976352316,9.75076699635022,-1.08691309018903,-0.021991149,0.06780604,0.018020526,98.35703,-100.50479,-4.978762,STD
2961814596000,0.76,-0.946966926116653,9.75052824795542,-1.08619685996225,-0.013133603,0.059253927,0.013744468,98.44271,-100.49883,-4.968469,STD
2961819581000,0.764985,-0.948873815677082,9.75028988209361,-1.08548177731045,-0.016798794,0.05467244,0.017715093,98.523705,-100.48718,-4.9556947,STD
2961825229000,0.770633,-0.95103431963642,9.75001981381125,-1.08467158938318,-0.015577064,0.042455133,0.008857546,98.60672,-100.48089,-4.94874,STD
2961829547000,0.774951,-0.952686064695985,9.74981334163646,-1.08405218579431,-0.014966198,0.040927973,0.013439035,98.687065,-100.47076,-4.9368467,STD
2961834539000,0.779943,-0.954595631934833,9.74957464105829,-1.08333609901441,-0.01038471,0.03268129,0.010079277,98.77022,-100.46376,-4.9307165,STD
2961839578000,0.784982,-0.956523177871644,9.74933369309887,-1.08261327023157,-0.0143553335,0.02321288,0.008857546,98.85271,-100.45343,-4.9229956,STD
2961844589000,0.789993,-0.956069035399389,9.74862018557344,-1.08748821153257,-0.0106901415,0.010079277,0.0018325958,98.93638,-100.44697,-4.918538,STD
2961849574000,0.794978,-0.952021605659314,9.74719170198834,-1.10082091807659,-0.016187929,0.009773844,0.009468411,99.01795,-100.43494,-4.9102263,STD
2961854536000,0.79994,-0.947992850118642,9.74576980920012,-1.11409210962552,-0.032375857,-0.0033597588,0.0106901415,99.22766,-100.465996,-4.908527,STD
2961859519000,0.804923,-0.943947044221994,9.7443418987278,-1.12741946703953,-0.025350908,-0.003970624,0.014049901,99.42917,-100.49794,-4.9034605,STD
2961864539000,0.809943,-0.939871197221959,9.74290338566919,-1.14084578335868,-0.043066,-0.0125227375,0.014966198,99.63153,-100.51757,-4.899625,STD
2961869520000,0.814924,-0.935827015168737,9.74147604830964,-1.15416779164269,-0.03940081,-0.018020526,0.012217305,99.82824,-100.542336,-4.895722,STD
2961874561000,0.819965,-0.931734117812726,9.74003151756691,-1.16765027382692,-0.040011674,-0.00030543262,0.008552114,100.016,-100.55961,-4.8910527,STD
2961879543000,0.824947,-0.927689123837791,9.73860389365097,-1.18097495667593,-0.04153884,0.0030543262,0.01282817,100.204926,-100.574974,-4.885716,STD
2961884537000,0.829941,-0.923634386802298,9.7371728310584,-1.19433173430498,-0.04642576,0.01038471,0.02107485,100.38326,-100.5875,-4.8791738,STD
2961889575000,0.834979,-0.919543925211426,9.73572915998484,-1.2078061927942,-0.040927973,0.0143553335,0.0143553335,100.55679,-100.602,-4.8755774,STD
2961894527000,0.839931,-0.915523288887886,9.73431013276049,-1.22105063869309,-0.03481932,0.0290161,0.012217305,100.721695,-100.612144,-4.867537,STD
2961899541000,0.844945,-0.91145231341813,9.73287333904019,-1.23446090762222,-0.036957346,0.032375857,0.013133603,100.88452,-100.62055,-4.860843,STD
2961904559000,0.849963,-0.907378090261521,9.73143539909435,-1.24788187481136,-0.04184427,0.031154128,0.016187929,101.04069,-100.628334,-4.853671,STD
2961909543000,0.854947,-0.90333147244316,9.73000720206564,-1.26121190679038,-0.042760566,0.03268129,0.015882496,101.191345,-100.635506,-4.8469057,STD
2961914541000,0.859945,-0.899273487720815,9.72857499324752,-1.27457938267945,-0.038789943,0.03756821,0.016798794,101.33805,-100.6408,-4.838853,STD
2961919529000,0.864933,-0.8952236222156,9.72714564999327,-1.28792011291848,-0.03359759,0.029932396,0.016798794,101.48437,-100.645096,-4.8316917,STD
2961924558000,0.869962,-0.891140467920147,9.72570455792718,-1.30137050032266,-0.03756821,0.0290161,0.022602014,101.62438,-100.64598,-4.8221307,STD
2961929542000,0.874946,-0.887093850101786,9.72427636089847,-1.31470053230168,-0.040317107,0.027794369,0.020158553,101.76296,-100.648384,-4.8153152,STD
2961934537000,0.879941,-0.88303830114458,9.72284501174951,-1.32805998449573,-0.029932396,0.016798794,0.023823744,101.90195,-100.65047,-4.8057156,STD
2961939569000,0.884973,-0.878952711083987,9.72140306001426,-1.34151839559493,-0.022296581,0.014966198,0.016187929,102.03491,-100.65187,-4.799679,STD
2961944548000,0.889952,-0.874910152874191,9.71997629576748,-1.35483505474893,-0.027183503,0.016493361,0.01985312,102.16763,-100.649704,-4.789858,STD
2961949538000,0.894942,-0.870858663525551,9.71854637940046,-1.36818113411796,-0.023823744,0.007941248,0.02565634,102.30039,-100.6512,-4.78216,STD
2961954527000,0.899931,-0.866807986098624,9.71711674958981,-1.381524538922,-0.029321533,0.004276057,0.03023783,102.42849,-100.64786,-4.7735076,STD
2961959664000,0.905068,-0.86263714425815,9.71564470943402,-1.3952637793466,-0.025350908,-0.004581489,0.029626964,102.55758,-100.646706,-4.765416,STD
2961964703000,0.910107,-0.858545870745565,9.71420075180407,-1.40874091240082,-0.019242255,0.004886922,0.028405234,102.67981,-100.64328,-4.7556243,STD
2961969608000,0.915012,-0.854563394742543,9.71279519272987,-1.42185965374453,-0.02443461,-0.011911872,0.02687807,102.8091,-100.63717,-4.7478347,STD
2961974633000,0.920037,-0.850483488133942,9.71135524688932,-1.4352993428887,-0.028405234,-0.003970624,0.027183503,102.92598,-100.63196,-4.738344,STD
2961979607000,0.925011,-0.846444989532713,9.70992991542447,-1.44860262921768,-0.027183503,-0.00580322,0.031154128,103.04772,-100.62561,-4.729554,STD
2961984600000,0.930004,-0.842391064418933,9.70849913938829,-1.46195673228173,-0.02076942,-0.004581489,0.030848695,103.16353,-100.619286,-4.7214227,STD
2961989687000,0.935091,-0.838260818664117,9.7070414270518,-1.47556224445614,-0.021685716,0.0012217305,0.024740042,103.27588,-100.61088,-4.7137675,STD
2961994620000,0.940024,-0.834255608853126,9.70562784439879,-1.48875587361996,-0.03359759,-0.004581489,0.026267206,103.389015,-100.59961,-4.7046237,STD
2961999644000,0.945048,-0.830176514166239,9.70418818511463,-1.50219288819912,-0.03176499,0.004886922,0.02443461,103.49331,-100.59213,-4.6972117,STD
2962004630000,0.950034,-0.826128272504451,9.70275941497314,-1.51552826930815,-0.038179077,0.0076358155,0.021685716,103.59882,-100.57877,-4.690248,STD
2962009652000,0.955056,-0.82205080166099,9.70132032880176,-1.5289599347573,-0.03756821,-0.00061086525,0.02321288,103.702644,-100.566795,-4.682708,STD
2962014652000,0.960056,-0.817991193095218,9.69988754687087,-1.54233275977638,-0.038789943,-0.0021380284,0.015577064,103.80108,-100.553696,-4.678112,STD
2962019596000,0.965,-0.813977052145383,9.69847081209761,-1.55555580915524,-0.040927973,0.0030543262,0.018020526,103.898315,-100.53853,-4.670319,STD
2962024668000,0.970072,-0.809858985216264,9.69701739810691,-1.56912120285459,-0.039095376,-0.00030543262,0.0125227375,103.995605,-100.52555,-4.6673474,STD
2962029662000,0.975066,-0.805804248180771,9.69558633551434,-1.58247798048365,-0.03726278,0.005497787,0.025045475,104.08776,-100.508965,-4.657901,STD
2962034587000,0.979991,-0.801805533743486,9.69417504531241,-1.59565021312743,-0.04184427,0.004886922,0.01863139,104.17955,-100.49387,-4.655741,STD
2962039758000,0.985162,-0.797607086564764,9.69269326223949,-1.60948038876216,-0.040011674,0.004581489,0.01282817,104.268326,-100.47884,-4.64964,STD
2962044547000,0.989951,-0.793507130160481,9.68899326318957,-1.629423032999,-0.035430185,-0.004276057,0.016493361,104.357994,-100.46259,-4.6431046,STD
2962049645000,0.995049,-0.78861018669007,9.67919917171515,-1.66859863189569,-0.032986723,-0.00061086525,0.014660766,104.44185,-100.44735,-4.6391373,STD
2962054601000,1.000005,-0.786719607683071,9.67399646811024,-1.6943840807874,-0.025045475,0.008246681,0.01160644,104.62653,-100.520645,-4.6241703,STD
2962059642000,1.005046,-0.791471243863681,9.67874820600394,-1.69200826145669,-0.040927973,0.003970624,0.0106901415,104.808846,-100.585434,-4.6099877,STD
2962064604000,1.010008,-0.796148414807579,9.68342547706693,-1.68966967476378,-0.032070424,0.002443461,0.01038471,105.089264,-100.70365,-4.589251,STD
2962069645000,1.015049,-0.800900050988189,9.68817721496063,-1.68729385543307,-0.031154128,0.005192355,0.013744468,105.36174,-100.811005,-4.568443,STD
2962074642000,1.020046,-0.810325548318195,9.68820465635293,-1.67611993427488,-0.030848695,0.022907447,0.01282817,105.73968,-100.961975,-4.5427556,STD
2962080327000,1.025731,-0.837496001197724,9.6719020577902,-1.63264718924044,-0.03390302,0.020463986,0.008857546,106.11093,-101.10644,-4.519008,STD
2962084646000,1.03005,-0.845400281246769,9.66993353927222,-1.60659166162259,-0.03268129,0.026267206,0.0125227375,106.47575,-101.249054,-4.4894805,STD
2962089744000,1.035148,-0.816275672841519,9.69905823384371,-1.59688346388944,-0.03634648,0.028099801,0.006414085,106.83509,-101.38742,-4.4651027,STD
2962094617000,1.040021,-0.791928188084274,9.72537029122679,-1.59957249271023,-0.03604105,0.022296581,0.0106901415,107.17799,-101.51218,-4.4410033,STD
2962099647000,1.045051,-0.778776180066436,9.74729025118311,-1.64341245840007,-0.031154128,0.02321288,0.013439035,107.5124,-101.6347,-4.4193087,STD
2962104888000,1.050292,-0.766942326343594,9.7675451599106,-1.68591691171391,-0.028405234,0.030543262,0.010995574,107.847786,-101.750824,-4.393987,STD
2962109642000,1.055046,-0.776193220093467,9.75829410677639,-1.69054234168445,-0.029321533,0.021991149,0.00580322,108.18138,-101.86381,-4.370216,STD
2962114689000,1.060093,-0.785641732331839,9.74815832735426,-1.69612548699552,-0.027183503,0.02321288,0.01038471,108.51361,-101.98513,-4.342385,STD
2962119637000,1.065041,-0.790261151945798,9.73430026145448,-1.7099837458374,-0.035430185,0.03023783,0.011911872,108.839455,-102.10033,-4.3176847,STD
2962124920000,1.070324,-0.795209980811449,9.72146401949118,-1.72315517767747,-0.0290161,0.022296581,0.015271631,109.09285,-102.18882,-4.3031564,STD
2962129654000,1.075058,-0.799860834715839,9.73541640151826,-1.71385346015593,-0.02565634,0.031154128,0.016798794,109.34121,-102.274055,-4.287606,STD
2962134698000,1.080102,-0.805306215237362,9.74833454547641,-1.70330447097783,-0.03268129,0.026267206,0.02107485,109.59749,-102.3611,-4.2729626,STD
2962139675000,1.085079,-0.816768812855562,9.7368719574335,-1.68496430617094,-0.02076942,0.028405234,0.02076942,109.85048,-102.45392,-4.2585435,STD
2962144841000,1.090245,-0.82866669899091,9.72497408123707,-1.66592767940936,-0.018936822,0.030543262,0.016493361,110.069,-102.52361,-4.2457204,STD
2962150405000,1.095809,-0.841481224437497,9.71215956649512,-1.64542442906065,-0.03359759,0.028405234,0.0106901415,110.29014,-102.592255,-4.2338142,STD
2962154595000,1.099999,-0.851131271457842,9.70250952753595,-1.62998434657304,-0.022296581,0.021991149,0.006414085,110.517426,-102.67027,-4.2257595,STD
2962159650000,1.105054,-0.847986460627317,9.69260659374687,-1.61935842125463,-0.03268129,0.0061086523,0.008246681,110.74985,-102.73832,-4.218527,STD
2962164618000,1.110022,-0.843218694077563,9.68307135935465,-1.60982288815513,-0.027183503,0.014966198,0.011911872,110.97868,-102.81368,-4.2110853,STD
2962169673000,1.115077,-0.834264421918977,9.69064629424307,-1.62164534051173,-0.01740966,0.020158553,0.005497787,111.21256,-102.88294,-4.2111454,STD
2962174636000,1.12004,-0.825051443113006,9.69985896520643,-1.63546477986044,-0.024740042,0.013439035,0.01160644,111.44968,-102.9473,-4.207069,STD
2962179747000,1.125151,-0.825702669078409,9.70759703235428,-1.65650962476619,-0.03268129,0.008857546,0.014049901,111.68442,-103.012566,-4.203688,STD
2962184544000,1.129948,-0.828025104823821,9.71456445599312,-1.67741148342349,-0.03176499,0.010079277,0.01985312,111.92116,-103.077065,-4.19793,STD
2962189669000,1.135073,-0.83050633959456,9.7220082846671,-1.69974252899752,-0.03726278,0.01282817,0.014966198,112.162926,-103.14125,-4.1954694,STD
2962194550000,1.139954,-0.832869443383044,9.72909771447348,-1.72101039893838,-0.03023783,0.013744468,0.01160644,112.406204,-103.207954,-4.1912227,STD
2962199650000,1.145054,-0.825181607993998,9.7340363711901,-1.71982491235112,-0.03481932,0.011301007,0.015882496,112.65059,-103.269295,-4.186433,STD
2962204637000,1.150041,-0.816223603428679,9.73851545765732,-1.7153459194223,-0.036651913,0.017715093,0.011911872,112.8922,-103.3338,-4.18444,STD
2962209648000,1.155052,-0.817796236793687,9.75468362849133,-1.70671304641263,-0.031154128,0.017104227,0.012217305,113.138985,-103.406136,-4.182161,STD
2962214547000,1.159951,-0.82266766688402,9.77416924711868,-1.69697018623196,-0.02443461,0.02076942,0.0143553335,113.383095,-103.47772,-4.1799335,STD
2962220119000,1.165523,-0.819471547318165,9.79032126538605,-1.69096098731816,-0.03145956,0.026572637,0.015271631,113.627785,-103.54472,-4.176352,STD
2962224698000,1.170102,-0.815382385885864,9.80258857888847,-1.68687182588586,-0.033292156,0.020158553,0.010079277,113.87488,-103.61444,-4.1745987,STD
2962229725000,1.175129,-0.810503277466974,9.80312464384567,-1.66789155052422,-0.03023783,0.01740966,0.0106901415,114.11909,-103.67939,-4.170762,STD
2962234578000,1.179982,-0.805630535760117,9.79825180037744,-1.64352779110925,-0.03390302,0.01282817,0.008857546,114.36517,-103.741844,-4.1697073,STD
2962239683000,1.185087,-0.797207892163748,9.78982935530113,-1.64849974524726,-0.024129177,0.013439035,0.009468411,114.61103,-103.805786,-4.1666756,STD
2962244602000,1.190006,-0.788143382907447,9.78076512526457,-1.6620965635559,-0.03634648,-0.0015271631,0.0106901415,114.86227,-103.86196,-4.1653824,STD
2962249642000,1.195046,-0.765692157749366,9.76484940933047,-1.6696320647277,-0.035430185,-0.0015271631,0.013744468,114.984530547671,-103.889930337797,-4.16305838880672,STD
2962254608000,1.200012,-0.737842198699981,9.74628288951786,-1.6742737189147,-0.036957346,0.00580322,0.013133603,115.104996,-103.91749,-4.1607685,STD
2962259648000,1.205052,-0.730814960504202,9.72472469747899,-1.6699858789916,-0.039095376,-0.0009162979,0.009773844,115.35527,-103.968864,-4.159431,STD
2962264644000,1.210048,-0.735383876928953,9.70188011535523,-1.66084804614209,-0.028099801,0.0067195175,0.010995574,115.601265,-104.02544,-4.1530313,STD
2962269623000,1.215027,-0.736066568829049,9.68903388137495,-1.6567876,-0.03573562,0.004886922,0.015882496,115.85473,-104.0765,-4.143561,STD
2962274681000,1.220085,-0.733596176417789,9.68409299337005,-1.6567876,-0.036651913,0.006414085,0.017104227,116.10446,-104.13169,-4.1342297,STD
2962279621000,1.225025,-0.731183416727866,9.67926737321501,-1.6567876,-0.029321533,0.005192355,0.008857546,116.35363,-104.18592,-4.127656,STD
2962284614000,1.230018,-0.728744771154631,9.67438998021216,-1.6567876,-0.022907447,0.0125227375,0.008552114,116.59998,-104.23799,-4.1180267,STD
2962289922000,1.235326,-0.734445622416121,9.67587923021151,-1.64522301852093,-0.027183503,0.011301007,0.01038471,116.84799,-104.28872,-4.1108828,STD
2962294618000,1.240022,-0.743440602725136,9.68037681429071,-1.62948177949897,-0.027183503,0.0030543262,0.00580322,117.094734,-104.34194,-4.1057277,STD
2962299634000,1.245038,-0.753048528881444,9.68518087769388,-1.61266788364418,-0.022602014,0.014966198,0.009162978,117.33205,-104.39189,-4.09513,STD
2962304645000,1.250049,-0.762646877758888,9.68998015235762,-1.5958707480524,-0.028405234,0.010995574,0.011911872,117.57493,-104.43847,-4.0877223,STD
2962309648000,1.255052,-0.769153956458457,9.69473835118694,-1.58824517727003,-0.031154128,0.0076358155,0.008246681,117.81334,-104.48658,-4.079618,STD
2962314650000,1.260054,-0.773892168987636,9.6994763979723,-1.5858760796637,-0.024740042,0.005497787,0.008857546,118.05212,-104.53412,-4.0699096,STD
2962319627000,1.265031,-0.778606699926805,9.70419076399604,-1.5835188228091,-0.02076942,0.004276057,0.0106901415,118.28713,-104.57292,-4.063584,STD
2962324765000,1.270169,-0.783473740305638,9.70905763412463,-1.58108531151335,-0.022296581,0.004886922,0.008552114,118.5211,-104.61144,-4.0583115,STD
2962329771000,1.275175,-0.779493280220415,9.709914499344,-1.59468531687221,-0.029626964,0.009468411,0.016187929,118.754166,-104.647705,-4.049715,STD
2962334642000,1.280046,-0.77031288472809,9.70838440333902,-1.61763629362044,-0.027183503,0.013744468,0.014049901,118.98534,-104.68636,-4.044483,STD
2962339639000,1.285043,-0.760895016472055,9.70681472776174,-1.64118095196799,-0.03390302,0.013744468,0.008552114,119.21696,-104.71904,-4.0410876,STD
2962344657000,1.290061,-0.751437569422068,9.70523845558908,-1.66482455724875,-0.039095376,0.014049901,0.008857546,119.44653,-104.75171,-4.036388,STD
2962349626000,1.29503,-0.742072472891302,9.70367757547232,-1.68823728635201,-0.029626964,0.02321288,0.009773844,119.67218,-104.78616,-4.0324154,STD
2962354596000,1.3,-0.732705491656061,9.70211638123196,-1.71165472721399,-0.036651913,0.027183503,0.0076358155,119.897865,-104.81407,-4.0295324,STD
2962359562000,1.304966,-0.723584315579575,9.71406399767052,-1.73020467663064,-0.041233405,0.03145956,0.004276057,120.11896,-104.84401,-4.026667,STD
2962364648000,1.310052,-0.714507236787179,9.74129532882967,-1.74382029481923,-0.04062254,0.025961773,0.01038471,120.34105,-104.872086,-4.0221424,STD
2962369662000,1.315066,-0.706841764938489,9.75139829822056,-1.74887172987698,-0.03970624,0.04153884,0.010079277,120.562225,-104.913124,-4.0171537,STD
2962374682000,1.320086,-0.701561060193322,9.73027558952109,-1.73831032038664,-0.03390302,0.03604105,0.008246681,120.78963,-104.954155,-4.0127215,STD
2962379643000,1.325047,-0.694123664597565,9.72295066973567,-1.73091038229878,-0.026267206,0.03634648,0.0027488936,121.010956,-104.99619,-4.005972,STD
2962384645000,1.330049,-0.684638830699931,9.72769318572418,-1.72616796534997,-0.028099801,0.03145956,0.0033597588,121.233955,-105.0357,-3.998742,STD
2962389640000,1.335044,-0.689507860284599,9.72884165502248,-1.72143655992885,-0.032986723,0.028710667,0.008246681,121.454056,-105.07414,-3.9902334,STD
2962394620000,1.340024,-0.708359567977667,9.72648514234893,-1.71672363300558,-0.018936822,0.03726278,0.009468411,121.67055,-105.11635,-3.9820797,STD
2962399636000,1.34504,-0.727347553075745,9.724111594644,-1.71197663673106,-0.020158553,0.028710667,0.0012217305,121.89121,-105.15064,-3.974789,STD
2962405142000,1.350546,-0.74819042507535,9.72150618123425,-1.70676591873116,-0.027488936,0.025045475,0.010995574,122.10792,-105.1845,-3.961248,STD
2962409640000,1.355044,-0.763054758552371,9.71829660424901,-1.70250924940711,-0.02687807,0.026572637,0.009468411,122.322495,-105.22055,-3.9533365,STD
2962414646000,1.36005,-0.777266668886364,9.71355920681818,-1.69777195090909,-0.022602014,0.030543262,0.0070249503,122.53638,-105.25382,-3.9430797,STD
2962419598000,1.365002,-0.791325274554348,9.70887291195652,-1.69308575391304,-0.030543262,0.016187929,0.011301007,122.74574,-105.280846,-3.9369411,STD
2962424679000,1.370083,-0.805750108035573,9.70406453873518,-1.68827748110672,-0.035430185,0.015577064,0.006414085,122.94784,-105.309814,-3.9326725,STD
2962429548000,1.374952,-0.819520978688332,9.70313584191464,-1.689179607361,-0.028405234,0.027488936,0.010079277,123.149826,-105.33799,-3.9249277,STD
2962434634000,1.380038,-0.833824328124511,9.70790371799139,-1.69871516037588,-0.01985312,0.029321533,0.010079277,123.35259,-105.36498,-3.920231,STD
2962439618000,1.385022,-0.841123958654573,9.70597694425548,-1.70140151730915,-0.028710667,0.036957346,0.0030543262,123.54634,-105.38861,-3.9192464,STD
2962444613000,1.390017,-0.836604295389267,9.69241814323507,-1.69236219077853,-0.021991149,0.03481932,-0.0021380284,123.74096,-105.417915,-3.9182453,STD
2962449546000,1.39495,-0.826617695702233,9.68762242024814,-1.68770616809926,-0.027794369,0.0290161,0.0030543262,123.933716,-105.44277,-3.919184,STD
2962454599000,1.400003,-0.797798894471464,9.71163808794045,-1.69731243517618,-0.02321288,0.035124753,-0.002443461,124.12113,-105.4726,-3.923565,STD
2962459598000,1.405002,-0.774616486100031,9.7278261491255,-1.70577650236269,-0.021991149,0.027183503,-0.0009162979,124.313416,-105.4968,-3.925071,STD
2962464640000,1.410044,-0.769677677692544,9.7179484291705,-1.71071525920016,-0.024129177,0.034208454,0.0027488936,124.49812,-105.52072,-3.925723,STD
2962469625000,1.415029,-0.77532491471205,9.71416071562733,-1.71883860872547,-0.036957346,0.025045475,0.004886922,124.6908,-105.54069,-3.9227104,STD
2962475644000,1.421048,-0.815424273312795,9.72848189803727,-1.73888829400745,-0.029321533,0.025350908,0.009773844,124.877815,-105.56441,-3.9165993,STD
2962479606000,1.42501,-0.84181963114236,9.73790880029814,-1.75208597685963,-0.030543262,0.015271631,0.0106901415,125.06992,-105.58334,-3.9111373,STD
2962484633000,1.430037,-0.87531015709118,9.74986968814907,-1.76883124482981,-0.016493361,0.018325957,0.016493361,125.2574,-105.60708,-3.9019232,STD
2962489644000,1.435048,-0.899019334942348,9.75696524312605,-1.77348270530206,-0.021380283,0.013133603,0.014660766,125.447815,-105.6249,-3.895862,STD
2962494617000,1.440021,-0.89432577274761,9.74992501990736,-1.74297462210013,-0.009468411,0.01160644,0.005192355,125.63457,-105.65055,-3.8897853,STD
2962499825000,1.445229,-0.88941041543609,9.74255210968759,-1.71102487399724,-0.0106901415,0.013133603,-0.0015271631,125.81742,-105.67837,-3.8964005,STD
2962504639000,1.450043,-0.884866918873559,9.73573698107815,-1.68149221513255,-0.012217305,0.021380283,-0.002443461,125.996925,-105.70865,-3.9032917,STD
2962509633000,1.455037,-0.869071575161901,9.72819063604663,-1.6494062887018,-0.0036651916,0.021991149,-0.003970624,126.17588,-105.74091,-3.912255,STD
2962514640000,1.460044,-0.8069649706486,9.7186355819468,-1.61118682058384,-0.009162978,0.024129177,-0.0030543262,126.35062,-105.767784,-3.9196765,STD
2962519624000,1.465028,-0.750537655112804,9.7074362780545,-1.58448027491943,-0.01863139,0.013439035,-0.00580322,126.52534,-105.783646,-3.9265757,STD
2962524720000,1.470124,-0.717172716192988,9.68837069821272,-1.60831237414787,-0.023823744,0.02107485,-0.0018325958,126.69351,-105.79791,-3.9295435,STD
2962529743000,1.475147,-0.68458059555996,9.67186791390912,-1.63442074930408,-0.024129177,0.018020526,0.0012217305,126.8711,-105.80195,-3.9236317,STD
2962534640000,1.480044,-0.654321265668725,9.66754506673426,-1.67332560653516,-0.0421497,0.018325957,0.004276057,127.04441,-105.79888,-3.9157128,STD
2962540074000,1.485478,-0.62161872482377,9.66445417580056,-1.71599581096067,-0.038179077,0.029626964,0.008552114,127.21762,-105.80536,-3.9008307,STD
2962544768000,1.490172,-0.607126950628627,9.68860714119923,-1.74497936943907,-0.04550946,0.026267206,0.00061086525,127.39244,-105.80392,-3.8895416,STD
2962549602000,1.495006,-0.594698215764615,9.71135009765776,-1.77451773218157,-0.04337143,0.03176499,0.010079277,127.5658,-105.8115,-3.865744,STD
2962554595000,1.499999,-0.603954306047232,9.71597823945025,-1.80228605135501,-0.03481932,0.03726278,0.00580322,127.73669,-105.81976,-3.8482552,STD
2962559834000,1.505238,-0.614470660577328,9.7200702373459,-1.82800383639371,-0.016798794,0.04642576,0.008857546,127.90827,-105.83466,-3.8214986,STD
2962564643000,1.510047,-0.632935090099228,9.71545404079383,-1.81415553594267,-0.02687807,0.043676864,0.0076358155,128.07924,-105.84403,-3.797838,STD
2962569785000,1.515189,-0.650166653212727,9.7105299112426,-1.8000876185954,-0.0125227375,0.053145275,0.0033597588,128.24403,-105.87051,-3.775368,STD
2962574713000,1.520117,-0.636432658047337,9.70595182840237,-1.79550963136095,0.0027488936,0.051618114,0.008246681,128.41145,-105.89302,-3.7519562,STD
2962579911000,1.525315,-0.621199820508608,9.7014896622725,-1.79030892282341,-0.0018325958,0.06261369,0.012217305,128.56985,-105.91168,-3.7329087,STD
2962584642000,1.530046,-0.589999129162814,9.70594699498278,-1.77693715740285,-0.0030543262,0.06811147,0.0067195175,128.72813,-105.93488,-3.7158144,STD
2962590109000,1.535513,-0.554614776774873,9.71067199013693,-1.76255241314756,-0.009162978,0.07391469,0.01038471,128.88354,-105.95247,-3.6918824,STD
2962594625000,1.540029,-0.538049078588528,9.70653048558843,-1.77083529251173,-0.00580322,0.07086037,0.0061086523,129.0372,-105.97242,-3.6721349,STD
2962599543000,1.544947,-0.520008754478598,9.70202031743752,-1.77985548753232,-0.015577064,0.087964594,0.005192355,129.18715,-105.981346,-3.6452954,STD
2962604632000,1.550036,-0.512984679997982,9.72211930001009,-1.79377468000605,-0.017104227,0.09285152,0.005497787,129.33939,-105.99297,-3.6207054,STD
2962609551000,1.554955,-0.508232508183194,9.74588015908403,-1.80803119545042,-0.013133603,0.09162979,-0.0012217305,129.48636,-106.00326,-3.5977154,STD
2962614921000,1.560325,-0.520839884824527,9.76245839422318,-1.81443953903785,-0.02107485,0.11056661,-0.0030543262,129.62703,-106.010216,-3.5685358,STD
2962619579000,1.564983,-0.5340325585903,9.77565131595031,-1.81883708777603,-0.02565634,0.113926366,-0.004276057,129.77023,-106.01893,-3.5426104,STD
2962624677000,1.570081,-0.544284034064016,9.76993699922405,-1.81560188296799,-0.018936822,0.12736541,-0.004276057,129.90384,-106.02865,-3.514389,STD
2962629549000,1.574953,-0.553335085392823,9.76088575887488,-1.81107635730359,-0.01740966,0.12675454,-0.006414085,130.03867,-106.03527,-3.4882247,STD
2962634640000,1.580044,-0.570343474407163,9.75132190376857,-1.80629433528486,-0.018936822,0.14019357,0.00030543262,130.1621,-106.0417,-3.459547,STD
2962639647000,1.585051,-0.58921628269999,9.74188580507724,-1.80157613813835,-0.016798794,0.14080444,0.0015271631,130.28726,-106.04949,-3.4343114,STD
2962644661000,1.590065,-0.61189290603162,9.74323887332206,-1.79681352376454,-0.01282817,0.14019357,-0.0012217305,130.40816,-106.05729,-3.4092293,STD
2962649634000,1.595038,-0.63557063627722,9.74797402774187,-1.79207797375957,-0.013439035,0.1337795,0.0009162979,130.52968,-106.06352,-3.3831978,STD
2962654594000,1.599998,-0.684220257309942,9.74591433333333,-1.77448816460596,-0.017104227,0.12308934,0.00580322,130.64975,-106.06979,-3.361292,STD
2962659619000,1.605023,-0.742291821637427,9.74144766666667,-1.75215291885269,-0.023823744,0.12186762,-0.0018325958,130.76694,-106.075165,-3.3422542,STD
2962664645000,1.610049,-0.797186862902167,9.73340440424601,-1.72745763475596,-0.015271631,0.12644911,0.0030543262,130.88374,-106.082,-3.3230505,STD
2962669655000,1.615059,-0.849692682665791,9.72290303195448,-1.70120475228715,-0.017715093,0.118202426,-0.0027488936,131.00179,-106.08457,-3.3101063,STD
2962674755000,1.620159,-0.880548913088643,9.72604981024931,-1.6727312281856,-0.02076942,0.1255328,-0.007941248,131.10857,-106.0867,-3.3047354,STD
2962679730000,1.625134,-0.904116695909181,9.73312003927582,-1.64444989372279,-0.012217305,0.129198,-0.009468411,131.21739,-106.09121,-3.300798,STD
2962684644000,1.630048,-0.927395506920261,9.74010357805698,-1.61651532537099,-0.020463986,0.13469578,-0.0070249503,131.30989,-106.08614,-3.2994936,STD
2962689694000,1.635098,-0.951318582949149,9.74728039345073,-1.58780763913237,-0.017104227,0.14446963,0.00061086525,131.39973,-106.08633,-3.2964756,STD
2962694617000,1.640021,-0.930416295427435,9.74578123856859,-1.56994896163022,-0.02321288,0.16035213,-0.005192355,131.48471,-106.08208,-3.2955358,STD
2962699646000,1.64505,-0.892116661182903,9.74099419045726,-1.55558661753479,-0.029321533,0.15821409,-0.0018325958,131.57257,-106.07764,-3.290597,STD
2962704682000,1.650086,-0.867428532472691,9.73620351191659,-1.57189920129096,-0.029626964,0.15668693,-0.00030543262,131.64792,-106.06337,-3.292443,STD
2962709660000,1.655064,-0.848491765680238,9.73146922135055,-1.60030435147964,-0.03573562,0.15821409,0.004276057,131.72299,-106.04557,-3.2923825,STD
2962714648000,1.660052,-0.822994064305336,9.73333022302371,-1.65502169360672,-0.03970624,0.15943582,0.0070249503,131.80151,-106.02527,-3.2855606,STD
2962719628000,1.665032,-0.794717885115613,9.73804301551383,-1.72099945981225,-0.04428773,0.15668693,0.010079277,131.8805,-106.00306,-3.2776532,STD
2962724680000,1.670084,-0.778883363731122,9.74282012348238,-1.79429709609121,-0.043676864,0.15332718,0.0106901415,131.96025,-105.98621,-3.266859,STD
2962730619000,1.676023,-0.767655089510414,9.74843377109861,-1.88412302019544,-0.035430185,0.15393804,0.013744468,132.03943,-105.97006,-3.2546,STD
2962734646000,1.68005,-0.784707716180945,9.7522829307446,-1.91167706297038,-0.035430185,0.16371189,0.0143553335,132.11565,-105.961555,-3.2380953,STD
2962739652000,1.685056,-0.813495653046437,9.75708101541233,-1.93566703540833,-0.03726278,0.15943582,0.01863139,132.19534,-105.95437,-3.2210069,STD
2962744652000,1.690056,-0.827709255052541,9.75774000588196,-1.94101388192453,-0.030848695,0.16920967,0.019242255,132.26848,-105.9634,-3.2015495,STD
2962749639000,1.695043,-0.834022063389069,9.75616177248695,-1.93627928061595,-0.030848695,0.17073683,0.013439035,132.34407,-105.9699,-3.1839037,STD
2962754595000,1.699999,-0.840295630286167,9.75459334964642,-1.93157411035622,-0.012217305,0.17501289,0.014049901,132.41125,-105.98634,-3.1688645,STD
2962759654000,1.705058,-0.846699580030401,9.75299233044743,-1.92677115306325,-0.010079277,0.17256944,0.007330383,132.4781,-105.99848,-3.1579924,STD
2962764636000,1.71004,-0.853006059102505,9.75141567939991,-1.92204129869804,-0.005497787,0.17654006,0.0036651916,132.53949,-106.01607,-3.1433194,STD
2962769649000,1.715053,-0.859351779614037,9.7498292177979,-1.91728201328399,-0.005192355,0.17195857,0.0021380284,132.6029,-106.0328,-3.1309845,STD
2962774702000,1.720106,-0.873359443964497,9.740604,-1.87815918550296,-0.006414085,0.18081611,0.0033597588,132.66083,-106.04989,-3.117759,STD
2962779692000,1.725096,-0.892210847061144,9.72646566666667,-1.81689217218935,-0.018936822,0.17287487,0.0036651916,132.72383,-106.06349,-3.1070557,STD
2962784639000,1.730043,-0.90553622710162,9.70982631575847,-1.76693920779578,-0.01160644,0.17287487,0.003970624,132.77525,-106.078964,-3.0957577,STD
2962789623000,1.735027,-0.914908980421208,9.69108089720177,-1.72476174690231,-0.017104227,0.17287487,-0.0030543262,132.82779,-106.08734,-3.0872035,STD
2962794580000,1.739984,-0.916915251791712,9.67723549577661,-1.71450440310047,-0.03573562,0.17073683,-0.0012217305,132.87952,-106.08334,-3.0792575,STD
2962800120000,1.745524,-0.911642925785551,9.66669061254099,-1.73559372914638,-0.038789943,0.1600467,-0.0012217305,132.93246,-106.08253,-3.0745108,STD
2962804613000,1.750017,-0.907365560228697,9.66542915054191,-1.73568550068609,-0.03390302,0.16035213,-0.0012217305,132.97974,-106.07119,-3.0697875,STD
2962809613000,1.755017,-0.902604299415333,9.6701905107885,-1.721401718246,-0.03940081,0.16768251,-0.0036651916,133.02744,-106.05637,-3.0660596,STD
2962814596000,1.76,-0.896304672007652,9.6772732360566,-1.72521092081863,-0.04886922,0.1695151,-0.0015271631,133.07709,-106.04534,-3.0614529,STD
2962819608000,1.765012,-0.888389011572941,9.68677204973779,-1.74737475879482,-0.04153884,0.17654006,-0.004276057,133.12231,-106.03796,-3.0579283,STD
2962824600000,1.770004,-0.880504937971569,9.69623295913454,-1.76945015368251,-0.046120327,0.17470746,-0.0036651916,133.16977,-106.02135,-3.0523489,STD
2962829611000,1.775015,-0.872590856878525,9.7057298776015,-1.79160956950427,-0.03390302,0.18692477,-0.009468411,133.21034,-106.01217,-3.0477285,STD
2962834589000,1.779993,-0.86472889406049,9.71516425399914,-1.81362305423002,-0.043676864,0.18784106,-0.0070249503,133.25539,-105.99467,-3.0429356,STD
2962839609000,1.785013,-0.856800598892444,9.72467822939411,-1.8358222694416,-0.048258353,0.1881465,-0.004276057,133.29645,-105.98246,-3.0387838,STD
2962844602000,1.790006,-0.8523358,9.73106818048368,-1.84471095513535,-0.03756821,0.1966986,-0.002443461,133.334257542012,-105.975301738651,-3.03215577095561,STD
2962859544000,1.804948,-0.8523358,9.73818860559315,-1.81978868654459,-0.030543262,0.19700404,-0.011911872,133.4474,-105.95388,-3.0123208,STD
2962864471000,1.809875,-0.8523358,9.74053650644407,-1.81157077613455,-0.025961773,0.20189096,-0.0067195175,133.47952,-105.95258,-3.000064,STD
2962869598000,1.815002,-0.8523358,9.74297971481887,-1.80301927894108,-0.021380283,0.19517145,-0.0070249503,133.51521,-105.95138,-2.9928415,STD
2962874503000,1.819907,-0.8523358,9.74531713184216,-1.79483806307723,-0.022907447,0.19333886,-0.00580322,133.5484,-105.94927,-2.9831824,STD
2962879530000,1.824934,-0.8523358,9.74771268645502,-1.78645335927548,-0.028405234,0.18417588,-0.01038471,133.58466,-105.94754,-2.9764423,STD
2962884474000,1.829878,-0.861038564079945,9.75092958698434,-1.78302665063503,-0.030848695,0.183565,-0.009773844,133.6153,-105.94477,-2.965978,STD
2962889560000,1.834964,-0.885015952005513,9.75572515870828,-1.78782212221128,-0.029626964,0.1826487,-0.010079277,133.64783,-105.94172,-2.9579198,STD
2962894487000,1.839891,-0.904088584531472,9.75567103588721,-1.78622042151334,-0.027488936,0.18936823,-0.0125227375,133.6745,-105.93148,-2.9491239,STD
2962899524000,1.844928,-0.915537917942182,9.74651161506693,-1.77248119464065,-0.03970624,0.18417588,-0.018020526,133.70421,-105.91782,-2.9424167,STD
2962905231000,1.850635,-0.92851019226716,9.73613384762176,-1.75691443510871,-0.045814894,0.19456059,-0.019242255,133.72649,-105.90805,-2.937916,STD
2962909595000,1.854999,-0.938429765625178,9.72819822870977,-1.74501092387734,-0.03970624,0.19639318,-0.018020526,133.75209,-105.898575,-2.9353447,STD
2962914575000,1.859979,-0.949486907348028,9.71907595167805,-1.73201894445719,-0.033292156,0.19303341,-0.018020526,133.77592,-105.88776,-2.9330895,STD
2962919561000,1.864965,-0.959011664167456,9.7095512570189,-1.72249420006981,-0.034513887,0.19364429,-0.02076942,133.79785,-105.87675,-2.9308636,STD
2962924603000,1.870007,-0.968643397798334,9.69991958624645,-1.71286247901062,-0.03481932,0.18417588,-0.020158553,133.81972,-105.86449,-2.9309695,STD
2962929587000,1.874991,-0.978164334017354,9.69039871216277,-1.70334155521867,-0.04337143,0.17867808,-0.022296581,133.83977,-105.85005,-2.9322484,STD
2962934571000,1.879975,-0.985183163514033,9.67846817772011,-1.69632273648597,-0.040317107,0.1695151,-0.0290161,133.863,-105.839195,-2.9356272,STD
2962939631000,1.885035,-0.975867783275663,9.65052193973472,-1.70563811672434,-0.03359759,0.16676621,-0.017715093,133.88707,-105.82633,-2.9344983,STD
2962944668000,1.890072,-0.966913663558392,9.62503484362222,-1.71527990932482,-0.038179077,0.15363261,-0.01863139,133.91267,-105.81037,-2.9429657,STD
2962949583000,1.894987,-0.962219341029221,9.6297292641867,-1.72936287691234,-0.03848451,0.14721853,-0.029626964,133.93712,-105.79764,-2.9507024,STD
2962954704000,1.900108,-0.958700567012987,9.63562781558442,-1.74229888865801,-0.03573562,0.13194689,-0.025045475,133.96698,-105.786865,-2.9531305,STD
2962959635000,1.905039,-0.972329196392496,9.65379922655123,-1.73321313573834,-0.028405234,0.13591751,-0.013744468,133.99274,-105.77767,-2.9555857,STD
2962964921000,1.910325,-0.985768327027146,9.67289639277871,-1.72495005291224,-0.029321533,0.1328632,-0.021380283,134.02345,-105.770004,-2.9627874,STD
2962969627000,1.915031,-0.969931208648862,9.68081510700167,-1.75266501524203,-0.024129177,0.12858713,-0.01985312,134.0547,-105.76504,-2.9640803,STD
2962974952000,1.920356,-0.952010967389967,9.68977540305719,-1.78402544329263,-0.01740966,0.13164146,-0.022602014,134.08308,-105.75883,-2.9704185,STD
2962979612000,1.925016,-0.935956659144131,9.69537310461829,-1.78600401351048,-0.02443461,0.13194689,-0.014966198,134.11403,-105.74961,-2.9738724,STD
2962984664000,1.930068,-0.918418045767781,9.7006346126296,-1.77898855350903,-0.025350908,0.12308934,-0.017715093,134.1454,-105.744736,-2.9812777,STD
2962990292000,1.935696,-0.898879780510041,9.70649600754006,-1.77117323108461,-0.014660766,0.12064589,-0.019547688,134.17061,-105.74386,-2.980722,STD
2962994623000,1.940027,-0.883844203603277,9.71100661545712,-1.76515898776191,-0.01740966,0.116675265,-0.020463986,134.1983,-105.73902,-2.981449,STD
2962999695000,1.945099,-0.866236157869934,9.71628895287465,-1.75811575475966,-0.023518313,0.11148291,-0.01740966,134.22688,-105.73605,-2.9818304,STD
2963004751000,1.950155,-0.844838076551138,9.71938787476079,-1.75041339425898,-0.019242255,0.119729586,-0.015271631,134.25243,-105.73525,-2.981957,STD
2963009588000,1.954992,-0.810364228336168,9.71446293865618,-1.74056372774825,-0.0290161,0.119729586,-0.014660766,134.28152,-105.72868,-2.982644,STD
2963014609000,1.960013,-0.786698063789484,9.71368184604918,-1.72920231863155,-0.02687807,0.099265605,-0.013439035,134.31366,-105.71989,-2.9729886,STD
2963019600000,1.965004,-0.791343588991156,9.72297309048498,-1.71526574302653,-0.017715093,0.1001819,-0.019242255,134.33917,-105.710815,-2.9636815,STD
2963024631000,1.970035,-0.792005451804573,9.72888817042922,-1.7081150168007,-0.022602014,0.10262536,-0.015271631,134.37206,-105.69505,-2.9468381,STD
2963029628000,1.975032,-0.780413711770177,9.72425138436198,-1.72202508450732,-0.02687807,0.0983493,-0.013744468,134.4056,-105.68257,-2.9329758,STD
2963034617000,1.980021,-0.768840529654588,9.71962202160643,-1.73591288274392,-0.026572637,0.099265605,-0.016187929,134.43674,-105.6673,-2.9193778,STD
2963039629000,1.985033,-0.75721399352243,9.71497131682976,-1.74986470570681,-0.03145956,0.099265605,-0.01038471,134.46976,-105.649025,-2.9037368,STD
2963044573000,1.989977,-0.743714572796772,9.70869779326821,-1.76595478743895,-0.033292156,0.105068825,-0.0106901415,134.50412,-105.63336,-2.8918505,STD
2963049606000,1.99501,-0.713007394372478,9.68822644786579,-1.80177988237418,-0.025045475,0.113926366,-0.008552114,134.5379,-105.61891,-2.8776753,STD
2963054584000,1.999988,-0.685400629940377,9.67205880586692,-1.82813773329358,-0.032375857,0.11911872,-0.0106901415,134.57121,-105.60471,-2.8609953,STD
2963059618000,2.005022,-0.667004388984498,9.6697592295254,-1.82353867665633,-0.02565634,0.12370021,-0.006414085,134.60258,-105.59638,-2.8416626,STD
2963064606000,2.01001,-0.64877625034963,9.66748066639638,-1.81898164556642,-0.021991149,0.13164146,-0.0018325958,134.63211,-105.5912,-2.8180013,STD
2963069598000,2.015002,-0.630533494121631,9.66520027603148,-1.81442096008109,-0.022907447,0.13316862,-0.008552114,134.66129,-105.586914,-2.7968774,STD
2963074710000,2.020114,-0.613055950436512,9.66341894053972,-1.81057774233209,-0.025961773,0.1432479,0.00030543262,134.68358,-105.58067,-2.76854,STD
2963079647000,2.025051,-0.61543640619273,9.67056046440439,-1.82009957529957,-0.019242255,0.14660765,-0.0027488936,134.70569,-105.57786,-2.7462187,STD
2963084631000,2.030035,-0.617839523772027,9.67776997522908,-1.82971205565401,-0.023823744,0.14630222,-0.004581489,134.72844,-105.567535,-2.7142034,STD
2963090499000,2.035903,-0.620668876491793,9.68625821951465,-1.84102947835062,-0.017104227,0.14110987,-0.007941248,134.7511,-105.56255,-2.6842299,STD
2963094646000,2.04005,-0.623491536473895,9.69239504849467,-1.84898976935976,-0.018020526,0.13530666,-0.0070249503,134.77403,-105.55403,-2.6542964,STD
2963099641000,2.045045,-0.637164240137195,9.70150987652439,-1.85810488292683,-0.005192355,0.14569137,-0.01282817,134.79297,-105.55179,-2.6269076,STD
2963104990000,2.050394,-0.652423994249264,9.71108218655545,-1.86587584100098,-0.009773844,0.14844026,-0.009162978,134.81007,-105.54465,-2.597815,STD
2963109653000,2.055057,-0.678718372109912,9.71546467438665,-1.83081667052012,-0.013439035,0.14782938,-0.0021380284,134.82495,-105.54146,-2.569456,STD
2963114565000,2.059969,-0.70641684606477,9.72008118312071,-1.79388537191364,-0.0061086523,0.15607607,-0.0012217305,134.83676,-105.541466,-2.5454412,STD
2963119639000,2.065043,-0.730321580646097,9.72478666650547,-1.773552550295,-0.013744468,0.16279559,-0.008857546,134.84894,-105.536255,-2.5225513,STD
2963124641000,2.070045,-0.753487821868653,9.72942001150982,-1.75501950893703,-0.025350908,0.14569137,-0.007941248,134.86604,-105.53148,-2.4987836,STD
2963129656000,2.07506,-0.778637594151303,9.73445006547998,-1.73931368010172,-0.016798794,0.1441642,-0.009468411,134.8754,-105.52474,-2.4811947,STD
2963134978000,2.080382,-0.806182240594595,9.73896405656371,-1.72404150996139,-0.030543262,0.14019357,-0.0067195175,134.89047,-105.50835,-2.4640176,STD
2963139629000,2.085033,-0.840577391216216,9.72606561245174,-1.7283409015444,-0.01863139,0.14844026,-0.009468411,134.9021,-105.49893,-2.453424,STD
2963144611000,2.090015,-0.877420358405405,9.71224921843629,-1.73294627003861,-0.028405234,0.14752395,-0.0070249503,134.91699,-105.47755,-2.4458513,STD
2963149646000,2.09505,-0.885372089736686,9.71949390536528,-1.7420137255197,-0.028099801,0.14508049,-0.0106901415,134.9293,-105.46303,-2.4403615,STD
2963154572000,2.099976,-0.890042017707385,9.72883389784201,-1.75135352294595,-0.03848451,0.14110987,-0.0027488936,134.94328,-105.44237,-2.431331,STD
2963160339000,2.105743,-0.881086259728797,9.73481424296476,-1.75733399265128,-0.03573562,0.1459968,-0.004886922,134.95346,-105.42997,-2.4328144,STD
2963164545000,2.109949,-0.873255380722236,9.73872955368165,-1.76124942602187,-0.03145956,0.14844026,-0.008246681,134.96585,-105.41504,-2.4329407,STD
2963169645000,2.115049,-0.863760021013852,9.74347707737546,-1.76599709843985,-0.024129177,0.13683382,-0.009468411,134.98045,-105.403435,-2.4346328,STD
2963174618000,2.120022,-0.854501114380559,9.74810637842041,-1.77062654450547,-0.024129177,0.14294247,-0.0106901415,134.98918,-105.39132,-2.4357316,STD
2963179607000,2.125011,-0.844604034479848,9.73372554969403,-1.76397743447985,-0.031154128,0.13469578,-0.005497787,135.00232,-105.37819,-2.4364786,STD
2963184541000,2.129945,-0.834633169065204,9.71378392297953,-1.7540065690652,-0.027488936,0.12522738,-0.0015271631,135.01387,-105.36838,-2.4375226,STD
2963189656000,2.13506,-0.808942044804759,9.70684188976302,-1.77679579738079,-0.03573562,0.12156218,-0.0067195175,135.02652,-105.3541,-2.4364307,STD
2963194624000,2.140028,-0.781554032293965,9.70227712568358,-1.80418385755541,-0.016798794,0.11575896,-0.004886922,135.04309,-105.3482,-2.4332347,STD
2963199641000,2.145045,-0.794709039987981,9.69750778605769,-1.82140909350962,-0.03359759,0.118507855,-0.0033597588,135.05699,-105.32859,-2.4295516,STD
2963204581000,2.149985,-0.818401624362981,9.69276966105769,-1.83562465600962,-0.028710667,0.11636983,-0.005192355,135.07361,-105.32064,-2.4271438,STD
2963209655000,2.155059,-0.842708213841384,9.68026705790579,-1.84256746757676,-0.01740966,0.11759156,-0.0106901415,135.08823,-105.31367,-2.4204543,STD
2963214604000,2.160008,-0.866408395255525,9.6660466639664,-1.84730749989999,-0.018020526,0.11026118,-0.009162978,135.10606,-105.30455,-2.413278,STD
2963219643000,2.165047,-0.860360915949367,9.6667075721519,-1.84090471063291,-0.019547688,0.11728613,-0.006414085,135.11781,-105.30226,-2.4107738,STD
2963224642000,2.170046,-0.846376176942551,9.67136924917235,-1.83158155129503,-0.0290161,0.118202426,-0.0067195175,135.13298,-105.297585,-2.4097164,STD
2963230258000,2.175662,-0.838612729954932,9.69330635022534,-1.8167312898648,-0.022602014,0.121256754,-0.0067195175,135.14111,-105.29894,-2.4098117,STD
2963234600000,2.180004,-0.834448236654982,9.71412881672509,-1.80423780996495,-0.029321533,0.124005646,-0.004276057,135.14911,-105.29381,-2.4092805,STD
2963239640000,2.185044,-0.826085442250996,9.7186847749004,-1.80576226414343,-0.029932396,0.12156218,-0.008246681,135.15799,-105.29,-2.4079318,STD
2963244632000,2.190036,-0.816562051207171,9.71630387928287,-1.81290480183267,-0.03604105,0.12186762,-0.009468411,135.16565,-105.28257,-2.4048233,STD
2963249638000,2.195042,-0.807011951935259,9.7139163064741,-1.82006737067729,-0.034208454,0.12370021,-0.010079277,135.1715,-105.273056,-2.400417,STD
2963254613000,2.200017,-0.797520992311255,9.7115435188745,-1.82718558482072,-0.025350908,0.12858713,-0.011301007,135.17622,-105.26407,-2.3963652,STD
2963259648000,2.205052,-0.788068128951778,9.70067186458841,-1.84278380341939,-0.027488936,0.1328632,-0.007330383,135.18094,-105.25246,-2.391055,STD
2963264646000,2.21005,-0.778742308897224,9.68668330735509,-1.86143547274233,-0.025961773,0.13408493,-0.0067195175,135.1848,-105.24471,-2.3869793,STD
2963269651000,2.215055,-0.778865983322343,9.68529665884407,-1.873766486346,-0.023823744,0.13408493,-0.015271631,135.19238,-105.23948,-2.383325,STD
2963274698000,2.220102,-0.783553139857448,9.68998392794802,-1.883140828782,-0.032375857,0.13744467,-0.008246681,135.19981,-105.23097,-2.3749938,STD
2963279649000,2.225053,-0.782314090770869,9.6991891708084,-1.88961498390303,-0.036957346,0.13591751,-0.01160644,135.20358,-105.22838,-2.3692138,STD
2963284634000,2.230038,-0.777471761683234,9.71129494928492,-1.89445732057511,-0.02565634,0.1386664,-0.0106901415,135.20605,-105.22736,-2.359961,STD
2963289636000,2.23504,-0.772612919136322,9.72344201125875,-1.89931617073233,-0.021685716,0.13591751,-0.01038471,135.20984,-105.224846,-2.3534431,STD
2963294619000,2.240023,-0.767772532808601,9.73554293285323,-1.90415656464144,-0.025961773,0.13439035,-0.009773844,135.21262,-105.22309,-2.3464808,STD
2963299823000,2.245227,-0.771120987537314,9.73297756087981,-1.90744342513747,-0.031154128,0.14049901,-0.011301007,135.21388,-105.22219,-2.3398554,STD
2963304602000,2.250006,-0.77786209693097,9.72398924921445,-1.90969045612726,-0.022907447,0.13469578,-0.016187929,135.21867,-105.22396,-2.335162,STD
2963309585000,2.254989,-0.784890962406716,9.71461725569521,-1.91203340557738,-0.026572637,0.13500121,-0.009773844,135.21815,-105.21952,-2.324473,STD
2963314631000,2.260035,-0.792008693731343,9.70512677219167,-1.91440597690495,-0.027488936,0.13316862,-0.0106901415,135.21898,-105.21868,-2.3179584,STD
2963319605000,2.265009,-0.811499000077687,9.70407572809519,-1.90982003060281,-0.02321288,0.1301143,-0.011301007,135.22058,-105.21797,-2.3098817,STD
2963324627000,2.270031,-0.839876253323827,9.70880536660439,-1.90036090174058,-0.015271631,0.13530666,-0.014049901,135.2202,-105.21816,-2.3023915,STD
2963329613000,2.275017,-0.853592966901109,9.70836774496106,-1.88992186549445,-0.019242255,0.13255776,-0.009773844,135.22087,-105.21789,-2.2956069,STD
2963334612000,2.280016,-0.855852793344347,9.70384823365589,-1.87862273327826,-0.020158553,0.1282817,-0.0070249503,135.22021,-105.22083,-2.2899315,STD
2963339606000,2.28501,-0.858110359509087,9.69933324276611,-1.86733490245457,-0.015271631,0.12522738,-0.010079277,135.2181,-105.22258,-2.2898226,STD
2963344618000,2.290022,-0.860376062676422,9.69480197838093,-1.85600638661789,-0.014049901,0.12370021,-0.018020526,135.21729,-105.22292,-2.2906344,STD
2963349545000,2.294949,-0.8619126,9.69240310522436,-1.84630121537824,-0.015577064,0.121256754,-0.013439035,135.21513,-105.222305,-2.2884498,STD
2963354595000,2.299999,-0.8619126,9.69463100534414,-1.83961695664793,-0.017715093,0.11636983,-0.014660766,135.21375,-105.22228,-2.2904308,STD
2963359592000,2.304996,-0.8619126,9.69683552354188,-1.8330028495439,-0.025045475,0.113926366,-0.010079277,135.21228,-105.2165,-2.2893062,STD
2963364612000,2.310016,-0.8619126,9.69905018861144,-1.8263582992813,-0.022602014,0.11301007,-0.015882496,135.21092,-105.21345,-2.291673,STD
2963369933000,2.315337,-0.86209978615041,9.70074344936709,-1.81996767230082,-0.03145956,0.11148291,-0.02076942,135.21089,-105.20498,-2.2928042,STD
2963374637000,2.320041,-0.866292755919583,9.68816471518987,-1.82835361183917,-0.024740042,0.10751228,-0.019547688,135.21182,-105.20167,-2.2941134,STD
2963379584000,2.324988,-0.870702326805659,9.67493618670886,-1.83717275361132,-0.03023783,0.1020145,-0.01740966,135.21198,-105.188805,-2.2967436,STD
2963384617000,2.330021,-0.863875660536398,9.66496110153257,-1.8311331605364,-0.033292156,0.102319926,-0.022602014,135.21121,-105.17897,-2.3009048,STD
2963389596000,2.335,-0.854741007816092,9.65582625804598,-1.82199850781609,-0.03268129,0.10170906,-0.023823744,135.2127,-105.16855,-2.3038201,STD
2963394625000,2.340029,-0.841841667381865,9.66391533716475,-1.84058153601533,-0.03726278,0.09865474,-0.024740042,135.21303,-105.15894,-2.3085384,STD
2963399611000,2.345015,-0.827768578292563,9.67798870055998,-1.86872767500737,-0.036651913,0.0983493,-0.032375857,135.21223,-105.15149,-2.3152325,STD
2963404598000,2.350002,-0.836789898110545,9.68874405566445,-1.89023865876127,-0.03359759,0.09437868,-0.035124753,135.21407,-105.14261,-2.3185441,STD
2963409620000,2.355024,-0.855643186946295,9.69817039494316,-1.90909197712662,-0.02565634,0.09132435,-0.028710667,135.21587,-105.13539,-2.3213246,STD
2963414610000,2.360014,-0.852527084463249,9.69817659500148,-1.92161840600216,-0.028405234,0.099571034,-0.02687807,135.21513,-105.13023,-2.3231413,STD
2963419646000,2.36505,-0.838290501257503,9.69343121922661,-1.93110945486569,-0.028710667,0.099571034,-0.026572637,135.21786,-105.1278,-2.3244438,STD
2963424659000,2.370063,-0.824118938189511,9.68870751613697,-1.94055715700089,-0.029932396,0.09407325,-0.030848695,135.21414,-105.12676,-2.3286853,STD
2963429681000,2.375085,-0.80992193245892,9.68397533243137,-1.95002182089934,-0.030543262,0.09590584,-0.028405234,135.209,-105.1255,-2.3304453,STD
2963434646000,2.38005,-0.795788887783859,9.68359584068067,-1.96233146317046,-0.024740042,0.10354166,-0.022602014,135.20375,-105.12577,-2.3324003,STD
2963439658000,2.385062,-0.781459410705543,9.68598413424222,-1.9766609252861,-0.01985312,0.10873401,-0.023823744,135.19841,-105.12581,-2.335656,STD
2963444652000,2.390056,-0.767181396234451,9.68836385053239,-1.99093892484824,-0.021380283,0.1142318,-0.018936822,135.19182,-105.128876,-2.3286097,STD
2963449628000,2.395032,-0.752954844370584,9.6907349895512,-2.0051654618569,-0.021685716,0.10629055,-0.024129177,135.18677,-105.13403,-2.3255033,STD
2963454592000,2.399996,-0.737468927203632,9.69308916819663,-2.01521024548416,-0.02321288,0.112704635,-0.021685716,135.17729,-105.13774,-2.3176987,STD
2963459660000,2.405064,-0.720701255858257,9.69548434971868,-2.02239639034646,-0.02321288,0.11942416,-0.026267206,135.16913,-105.14221,-2.314014,STD
2963464642000,2.410046,-0.704218118793801,9.69783888688185,-2.02946059194551,-0.016798794,0.11911872,-0.016493361,135.15916,-105.150444,-2.299165,STD
2963469647000,2.415051,-0.68765888535189,9.70020429404797,-2.03655740627776,-0.01740966,0.1160644,-0.024129177,135.14667,-105.15749,-2.2904632,STD
2963474661000,2.420065,-0.690069837031573,9.6975113514311,-2.04112436712895,-0.01863139,0.12522738,-0.014049901,135.13057,-105.16506,-2.271703,STD
2963479609000,2.425013,-0.708712900432773,9.69052029999016,-2.0434547500541,-0.01985312,0.13622294,-0.020463986,135.11325,-105.173325,-2.260106,STD
2963485112000,2.430516,-0.729447091600275,9.68274508655454,-2.04604652395003,-0.018020526,0.14752395,-0.015271631,135.09601,-105.18197,-2.2363205,STD
2963489657000,2.435061,-0.746571732497295,9.67632343562506,-2.04818710406216,-0.01863139,0.1572978,-0.008552114,135.07608,-105.18961,-2.2137675,STD
2963494616000,2.44002,-0.769745693048235,9.67477137613128,-2.04394577434112,-0.027794369,0.15271631,-0.01282817,135.05688,-105.195404,-2.1936755,STD
2963499646000,2.44505,-0.798490404684237,9.67956225728493,-2.0319688215813,-0.021991149,0.15515977,-0.009468411,135.0345,-105.20449,-2.1690414,STD
2963504595000,2.449999,-0.826772229313774,9.68427598906017,-2.02018473823968,-0.019242255,0.16829337,-0.01038471,135.00507,-105.21171,-2.1537838,STD
2963509619000,2.455023,-0.855482653023371,9.68906115544505,-2.00822207210343,-0.024740042,0.1685988,-0.0036651916,134.97972,-105.217636,-2.136741,STD
2963514589000,2.459993,-0.883906714302082,9.69586797150543,-1.98292664475441,-0.03359759,0.16829337,-0.00580322,134.95062,-105.22363,-2.1219776,STD
2963519625000,2.465029,-0.912737325102122,9.70547786569692,-1.93968076618512,-0.026572637,0.16371189,0.0015271631,134.92427,-105.231804,-2.103554,STD
2963524663000,2.470067,-0.945259376382322,9.71292068204188,-1.91332276053266,-0.036957346,0.16890424,0.004581489,134.89198,-105.23032,-2.0952806,STD
2963529612000,2.475016,-0.981847711135772,9.71749431641417,-1.90874922167326,-0.02321288,0.15943582,0.0067195175,134.86592,-105.2374,-2.0869887,STD
2963534544000,2.479948,-1.01021508114731,9.7235593188433,-1.88873318627359,-0.024740042,0.14172074,0.0070249503,134.84157,-105.23042,-2.0833526,STD
2963539613000,2.485017,-1.02388838859262,9.73267504750728,-1.83859767804901,-0.032986723,0.13316862,0.004581489,134.81764,-105.225555,-2.0801415,STD
2963544567000,2.489971,-1.03676467665992,9.73911907538469,-1.79895795194109,-0.038789943,0.1255328,0.0076358155,134.79634,-105.2217,-2.0818796,STD
2963549614000,2.495018,-1.04813689691779,9.73684458858407,-1.79213461028657,-0.02443461,0.11728613,0.0076358155,134.77748,-105.22157,-2.085856,STD
2963555266000,2.50067,-1.06087234151805,9.7342974517905,-1.78449333288786,-0.02565634,0.10476339,0.00580322,134.7634,-105.20654,-2.0921352,STD
2963559621000,2.505025,-1.07068530351983,9.73233482250247,-1.77860554748953,-0.027794369,0.096516706,0.014049901,134.75139,-105.19514,-2.0959077,STD
2963564937000,2.510341,-1.0820861583371,9.7292916608676,-1.77208136762314,-0.040927973,0.07513642,0.014660766,134.74596,-105.18087,-2.1041486,STD
2963569602000,2.515006,-1.08006737062811,9.71314123271577,-1.78015653953909,-0.041233405,0.062308256,0.014660766,134.74117,-105.16956,-2.1102183,STD
2963574610000,2.520014,-1.07790014901039,9.69580332399458,-1.78882544863986,-0.049480084,0.053450707,0.008857546,134.73698,-105.15033,-2.1222067,STD
2963579611000,2.525015,-1.07573595665612,9.67848964957072,-1.79748224065522,-0.043982297,0.04795292,0.016798794,134.73653,-105.13468,-2.130919,STD
2963584574000,2.529978,-1.07358820887483,9.66130753276096,-1.80607325420696,-0.050701816,0.047036625,0.015577064,134.73616,-105.11421,-2.143861,STD
2963589597000,2.535001,-1.06992128669046,9.66146450790413,-1.82342206654768,-0.048563786,0.04550946,0.02443461,134.7366,-105.09614,-2.1521435,STD
2963594623000,2.540027,-1.06501226100969,9.67619189250382,-1.84796719495156,-0.043982297,0.05131268,0.018936822,134.73415,-105.07788,-2.1640587,STD
2963599606000,2.54501,-1.0572783356685,9.68646237698413,-1.86795820132784,-0.053145275,0.03756821,0.016187929,134.73508,-105.059326,-2.1745098,STD
2963604597000,2.550001,-1.0475514464591,9.69375742328042,-1.88498023840049,-0.051618114,0.03940081,0.01985312,134.73021,-105.04535,-2.1829731,STD
2963609618000,2.555022,-1.0377660906746,9.70109631878307,-1.90210459186508,-0.05131268,0.043066,0.014660766,134.72736,-105.0325,-2.1945658,STD
2963614609000,2.560013,-1.0280392014652,9.70839136507936,-1.91912662893773,-0.055588737,0.043066,0.015271631,134.72575,-105.01865,-2.2035077,STD
2963619597000,2.565001,-1.01220702751865,9.70462655972153,-1.91555471297862,-0.054061573,0.04550946,0.016798794,134.7222,-105.00694,-2.212995,STD
2963624603000,2.570007,-0.993135337493784,9.69509101342616,-1.90125089567379,-0.04795292,0.042455133,0.013439035,134.7199,-104.99578,-2.2238925,STD
2963629611000,2.575015,-0.97229016027553,9.69737719305265,-1.92162539445303,-0.05681047,0.027183503,0.007330383,134.71942,-104.98531,-2.2322881,STD
2963634602000,2.580006,-0.950557933891061,9.70606980221879,-1.96074340648359,-0.05467244,0.02565634,0.008857546,134.71634,-104.979645,-2.2386036,STD
2963639593000,2.584997,-0.9392321293206,9.70947188553301,-1.9809888413588,-0.060170226,0.028099801,0.014049901,134.71715,-104.966736,-2.2427647,STD
2963644619000,2.590023,-0.94082267180953,9.70629090020488,-1.97780775638094,-0.053145275,0.036651913,0.013744468,134.71638,-104.95834,-2.2475889,STD
2963649606000,2.59501,-0.942400872245721,9.70313459820898,-1.97465135550856,-0.06505715,0.03481932,0.017715093,134.71642,-104.948074,-2.2463381,STD
2963654589000,2.599993,-0.943977806830348,9.69998082783689,-1.9714974863393,-0.05681047,0.035430185,0.014966198,134.71295,-104.94586,-2.2462988,STD
2963659546000,2.60495,-0.945546513379816,9.69684351301963,-1.96836007324037,-0.056199603,0.037873644,0.01985312,134.71039,-104.93777,-2.2431166,STD
2963664628000,2.610032,-0.947154777790629,9.69362708495803,-1.96514354441874,-0.057421334,0.043676864,0.01740966,134.70605,-104.93201,-2.2425032,STD
2963669599000,2.615003,-0.94461784176742,9.68998595948316,-1.95801638765113,-0.053450707,0.04917465,0.016798794,134.70523,-104.928024,-2.2418592,STD
2963674714000,2.620118,-0.935575786945085,9.68546483765575,-1.94445330541763,-0.054061573,0.044898596,0.017715093,134.70549,-104.92253,-2.2417958,STD
2963679579000,2.624983,-0.928416613084905,9.68428653651601,-1.92971226219196,-0.05589417,0.05131268,0.016187929,134.70113,-104.91698,-2.2423053,STD
2963684607000,2.630011,-0.926014530355183,9.69389481727028,-1.90809349254215,-0.047647487,0.041233405,0.016798794,134.70277,-104.914055,-2.2435114,STD
2963689608000,2.635012,-0.923625346637733,9.70345150224484,-1.88659081413748,-0.043982297,0.03756821,0.020463986,134.70145,-104.90751,-2.2403805,STD
2963694621000,2.640025,-0.92123043002594,9.71303111867704,-1.86503653962387,-0.040927973,0.031154128,0.013439035,134.70294,-104.903625,-2.241054,STD
2963699587000,2.644991,-0.918334817332395,9.71526583123932,-1.84313053123932,-0.04734206,0.029321533,0.013133603,134.70305,-104.89637,-2.239243,STD
2963704597000,2.650001,-0.913512250451302,9.69115297165544,-1.81901767165544,-0.037873644,0.021380283,0.01282817,134.70613,-104.89483,-2.240309,STD
2963709604000,2.655008,-0.914204600101324,9.67477901665329,-1.803745655939,-0.04428773,0.018020526,0.016493361,134.71043,-104.87841,-2.2385182,STD
2963714609000,2.660013,-0.933438898451043,9.68439636918138,-1.81817138346709,-0.05497787,-0.00030543262,0.010995574,134.72037,-104.86407,-2.2410302,STD
2963719606000,2.66501,-0.949213896113456,9.68839880950044,-1.82695001936402,-0.048258353,-0.00030543262,0.015271631,134.725630521412,-104.856729046392,-2.23922646528549,STD
2963724697000,2.670101,-0.953999031391697,9.6740431788203,-1.81737979877319,-0.052534413,-0.004581489,0.017104227,134.73099,-104.84925,-2.2373888,STD
2963729651000,2.675055,-0.959278631069992,9.66459596444087,-1.80202683630732,-0.054061573,-0.012217305,0.0106901415,134.74615,-104.83137,-2.2402768,STD
2963734643000,2.680047,-0.966970889412711,9.67228838342719,-1.76356550443282,-0.054367006,-0.004886922,0.013133603,134.75832,-104.816986,-2.2416883,STD
2963739609000,2.685013,-0.974623083909895,9.67994073773129,-1.72530449199517,-0.0580322,-0.0015271631,0.010079277,134.77132,-104.8013,-2.246986,STD
2963744619000,2.690023,-0.968050151870382,9.6891792744766,-1.73708717963362,-0.06536258,-0.010079277,0.0076358155,134.78566,-104.784615,-2.2516766,STD
2963749540000,2.694944,-0.955958741256158,9.69885234236453,-1.76852483965517,-0.06078109,-0.009468411,0.008246681,134.79642,-104.770515,-2.2553558,STD
2963754598000,2.700002,-0.94353070734298,9.70879470720443,-1.8008377200431,-0.064751714,-0.0021380284,0.009162978,134.80872,-104.74403,-2.2605693,STD
2963759554000,2.704958,-0.931353298075739,9.71853657358374,-1.83249897650862,-0.06383542,-0.003970624,0.011911872,134.82341,-104.72054,-2.2655613,STD
2963764615000,2.710019,-0.910912554995848,9.70963654497647,-1.85317704093551,-0.056199603,0.0030543262,0.009468411,134.83374,-104.698166,-2.2711527,STD
2963769597000,2.715001,-0.888903297951841,9.69643118839376,-1.87078442818526,-0.070249505,-0.002443461,0.008552114,134.84825,-104.670166,-2.2764552,STD
2963774770000,2.720174,-0.86044654257179,9.68485564210304,-1.90111038613809,-0.05497787,-0.00061086525,0.011911872,134.85704,-104.660324,-2.277713,STD
2963779601000,2.725005,-0.83113981558277,9.67508653589527,-1.93530159482686,-0.06261369,-0.0021380284,0.0061086523,134.86746,-104.64079,-2.282308,STD
2963784604000,2.730008,-0.822427866626565,9.6678650510968,-1.95233425361404,-0.053450707,0.0067195175,0.011301007,134.87535,-104.63284,-2.278176,STD
2963789614000,2.735018,-0.820859336501357,9.66159096335284,-1.9633139644905,-0.059253927,0.008857546,0.009468411,134.8845,-104.61926,-2.2781863,STD
2963794579000,2.739983,-0.819304894970087,9.65537322969041,-1.97419505520939,-0.056199603,0.0076358155,0.0143553335,134.89638,-104.61764,-2.2697515,STD
2963799583000,2.744987,-0.817738243324071,9.64910665582399,-1.9851616167315,-0.048258353,0.008552114,0.015882496,134.90656,-104.61597,-2.2626152,STD
2963804587000,2.749991,-0.816171591678054,9.64284008195757,-1.99612817825362,-0.043982297,0.018020526,0.021380283,134.91492,-104.61268,-2.2537086,STD
2963810239000,2.755643,-0.814402064279316,9.63576200931708,-2.00851487004479,-0.04642576,0.019547688,0.022296581,134.92487,-104.60981,-2.246326,STD
2963814576000,2.75998,-0.817087221032101,9.64650258025193,-1.9958360948395,-0.044898596,0.021685716,0.021380283,134.93219,-104.60904,-2.2374434,STD
2963819601000,2.765005,-0.821975825258025,9.66605689506298,-1.97139307370987,-0.037873644,0.03145956,0.026572637,134.93738,-104.60877,-2.2261894,STD
2963824586000,2.76999,-0.836240832286996,9.68205146238166,-1.9348155840558,-0.032986723,0.04184427,0.021380283,134.93556,-104.61382,-2.2169237,STD
2963829613000,2.775017,-0.855430717237668,9.69644366068759,-1.89163833790732,-0.035430185,0.03145956,0.020158553,134.93748,-104.6182,-2.2062507,STD
2963834591000,2.779995,-0.864920250708541,9.70581657027959,-1.86953497322865,-0.04184427,0.02565634,0.01740966,134.93571,-104.61815,-2.1969988,STD
2963839606000,2.78501,-0.869518838605898,9.71271459617962,-1.85803850348525,-0.034513887,0.015577064,0.01863139,134.93825,-104.621086,-2.188315,STD
2963844642000,2.790046,-0.874136682803524,9.71964150713328,-1.84649389299119,-0.03940081,0.019242255,0.025045475,134.93713,-104.60979,-2.1813908,STD
2963849629000,2.795033,-0.878709595633857,9.72650101962849,-1.83506161091536,-0.04886922,0.02076942,0.02443461,134.939,-104.59962,-2.1770794,STD
2963854537000,2.799941,-0.878749056421401,9.73119459598468,-1.8245358128428,-0.044898596,0.018936822,0.024129177,134.94125,-104.59172,-2.171051,STD
2963859525000,2.804929,-0.873805552499224,9.73366639956535,-1.81464880499845,-0.05375614,0.01863139,0.028099801,134.94296,-104.577545,-2.1639462,STD
2963864521000,2.809925,-0.868854119942047,9.73614216754631,-1.80474593988409,-0.0571159,0.015882496,0.02687807,134.94617,-104.56214,-2.159968,STD
2963869533000,2.814937,-0.863886830114871,9.73862586432785,-1.79481136022974,-0.0571159,0.008857546,0.024740042,134.95088,-104.54536,-2.155595,STD
2963874574000,2.819978,-0.864783474368302,9.74535456887228,-1.78512112128601,-0.05589417,0.011911872,0.023518313,134.95355,-104.528305,-2.1508944,STD
2963879864000,2.825268,-0.869764427273621,9.75531616261921,-1.77515916346475,-0.049785517,0.0036651916,0.030848695,134.96172,-104.51266,-2.1457903,STD
2963884527000,2.829931,-0.887630664769796,9.75607573536416,-1.77708964499901,-0.050396383,0.0076358155,0.027183503,134.96689,-104.49167,-2.1425765,STD
2963889561000,2.834965,-0.91633258170768,9.75129198680294,-1.78665699227029,-0.052839845,0.0067195175,0.0290161,134.97656,-104.471664,-2.1368365,STD
2963894528000,2.839932,-0.926353311520284,9.73880130031508,-1.80904146935802,-0.051618114,0.0076358155,0.022296581,134.98396,-104.45156,-2.1347091,STD
2963899526000,2.84493,-0.921640349094132,9.71994954903505,-1.84203220634108,-0.059253927,-0.0033597588,0.033292156,134.99625,-104.427795,-2.1281376,STD
2963904526000,2.84993,-0.91194919234123,9.7059326482182,-1.84552673292853,-0.04153884,-0.011301007,0.028710667,135.00563,-104.41721,-2.1320195,STD
2963909547000,2.854951,-0.897589717108302,9.69635996127812,-1.82159426587697,-0.044593163,-0.013439035,0.034208454,135.01784,-104.397995,-2.130403,STD
2963914548000,2.859952,-0.89064306,9.69295051822646,-1.81368136082428,-0.047647487,-0.01038471,0.03176499,135.02855,-104.39086,-2.1323307,STD
2963919530000,2.864934,-0.89064306,9.69531661612855,-1.82078024753757,-0.054367006,-0.0015271631,0.03604105,135.03894,-104.38137,-2.1306047,STD
2963924563000,2.869967,-0.89064306,9.69770693542628,-1.82795180450826,-0.04886922,-0.014049901,0.029932396,135.05292,-104.372444,-2.128083,STD
2963929545000,2.874949,-0.89064306,9.70007303332837,-1.83505069122154,-0.056199603,-0.018936822,0.030543262,135.06302,-104.3577,-2.1214972,STD
2963934532000,2.879936,-0.886337519011789,9.7002287063548,-1.84089966712226,-0.052839845,-0.014049901,0.036957346,135.0737,-104.34769,-2.115271,STD
2963939551000,2.884955,-0.877307218042365,9.69797132323517,-1.84541481053497,-0.045814894,-0.010079277,0.038179077,135.08553,-104.33701,-2.1107938,STD
2963944513000,2.889917,-0.86837947279226,9.69573957686346,-1.84987867616833,-0.056199603,-0.016493361,0.03390302,135.09515,-104.32353,-2.1060987,STD
2963949582000,2.894986,-0.859259210665539,9.69345970536847,-1.85443880008924,-0.05375614,-0.014966198,0.032986723,135.10172,-104.31558,-2.0994604,STD
2963954560000,2.899964,-0.85072052574755,9.69119056475446,-1.85413153199164,-0.052534413,-0.010995574,0.032986723,135.10995,-104.30538,-2.0938814,STD
2963959623000,2.905027,-0.843483239428827,9.68877808895965,-1.83724455409224,-0.047647487,-0.008246681,0.03176499,135.11786,-104.29711,-2.088991,STD
2963964539000,2.909943,-0.836456081707548,9.68643565739589,-1.82084787557092,-0.03481932,-0.011301007,0.035124753,135.12668,-104.2924,-2.0798805,STD
2963969594000,2.914998,-0.829230230958754,9.68402699353202,-1.80398758063088,-0.053145275,-0.01985312,0.03145956,135.13559,-104.28065,-2.0734472,STD
2963974640000,2.920044,-0.825683351486744,9.68371047028954,-1.789823899917,-0.0580322,-0.025350908,0.030543262,135.14485,-104.27606,-2.0655327,STD
2963979616000,2.92502,-0.834990359261755,9.69069062164933,-1.78517037659294,-0.053450707,-0.029932396,0.03268129,135.15608,-104.26909,-2.0584724,STD
2963984602000,2.930006,-0.844316070830526,9.6976848006445,-1.78050750133294,-0.05375614,-0.025045475,0.02321288,135.16678,-104.25383,-2.05179,STD
2963989608000,2.935012,-0.853679189986817,9.7047070349104,-1.77582592220106,-0.056199603,-0.03940081,0.026267206,135.18495,-104.23885,-2.0428689,STD
2963994627000,2.940031,-0.860369272749434,9.71242535948111,-1.77479585987289,-0.0580322,-0.032986723,0.03176499,135.19539,-104.22446,-2.0342352,STD
2963999615000,2.945019,-0.847892585025248,9.72490230776598,-1.79974927874804,-0.057421334,-0.03145956,0.029321533,135.21062,-104.21045,-2.0284107,STD
2964004595000,2.949999,-0.835435908027163,9.73735924490684,-1.82466267610134,-0.04795292,-0.029626964,0.031154128,135.22812,-104.198135,-2.0233757,STD
2964009607000,2.955011,-0.837154576632025,9.74755750438906,-1.8450596065281,-0.051618114,-0.029932396,0.027488936,135.24503,-104.18281,-2.0206454,STD
2964014597000,2.960001,-0.841976313288266,9.75720067561296,-1.86434655315306,-0.053145275,-0.020158553,0.021991149,135.25842,-104.1709,-2.0171564,STD
2964019711000,2.965115,-0.821750552994903,9.75036288970438,-1.83806549261978,-0.05589417,-0.020158553,0.02565634,135.27437,-104.161255,-2.0105987,STD
2964024631000,2.970035,-0.797735320823649,9.74075710377166,-1.80444418864424,-0.046120327,-0.021380283,0.022296581,135.28691,-104.155334,-2.0070171,STD
2964029609000,2.975013,-0.777613707063712,9.71803646075716,-1.80907031569714,-0.054367006,-0.022602014,0.026267206,135.29935,-104.14628,-2.001497,STD
2964034543000,2.979947,-0.758222297380732,9.69379724294655,-1.81876600282138,-0.043982297,-0.025350908,0.02687807,135.3119,-104.14553,-1.998121,STD
2964039595000,2.984999,-0.752199947311404,9.69609661586567,-1.83488043441008,-0.042455133,-0.02565634,0.028099801,135.32333,-104.13333,-1.9873328,STD
2964044577000,2.989981,-0.747501147075044,9.70079526890881,-1.85132623523735,-0.04795292,-0.01863139,0.026267206,135.33318,-104.122284,-1.977131,STD
2964049646000,2.99505,-0.742720292318298,9.70557597390191,-1.86805922688596,-0.04428773,-0.031154128,0.035430185,135.3496,-104.11485,-1.9633958,STD
2964054559000,2.999963,-0.738086569805003,9.71020955126059,-1.88427725568249,-0.039095376,-0.019242255,0.025961773,135.35574,-104.10722,-1.9534334,STD
2964059629000,3.005033,-0.733552715806034,9.70315947353322,-1.87890813161207,-0.03634648,-0.009468411,0.018936822,135.36661,-104.099556,-1.9415365,STD
2964064544000,3.009948,-0.729196805015732,9.69444792485656,-1.87019631003146,-0.027488936,-0.01282817,0.022602014,135.37778,-104.095085,-1.9296436,STD
2964069640000,3.015044,-0.724400266085642,9.68829189430731,-1.88466250546096,-0.03634648,-0.0067195175,0.019547688,135.38313,-104.091675,-1.9202383,STD
2964074684000,3.020088,-0.719533225360201,9.68342475193955,-1.90899775990932,-0.03268129,-0.0018325958,0.01985312,135.39012,-104.09392,-1.9094731,STD
2964079688000,3.025092,-0.721922480699388,9.67482788564906,-1.9043754196638,-0.028405234,0.00580322,0.022602014,135.39494,-104.09236,-1.8976351,STD
2964084590000,3.029994,-0.726793859095154,9.66508492539172,-1.88976123361004,-0.034513887,0.008552114,0.022907447,135.39957,-104.08892,-1.8866801,STD
2964089642000,3.035046,-0.731561559411136,9.67603298571567,-1.88849302970557,-0.028405234,0.007941248,0.026267206,135.4048,-104.09326,-1.8758074,STD
2964094609000,3.040013,-0.736183847390924,9.69221109017588,-1.89080417369546,-0.035124753,0.011911872,0.022907447,135.40753,-104.092354,-1.8664947,STD
2964099745000,3.045149,-0.740963406695171,9.70893964755612,-1.89319395334759,-0.03940081,0.0106901415,0.023518313,135.41258,-104.091606,-1.8565636,STD
2964104659000,3.050063,-0.745536372898649,9.72494512476922,-1.89548043644932,-0.022296581,0.013439035,0.024129177,135.41518,-104.09509,-1.847268,STD
2964109640000,3.055044,-0.75176581242828,9.72844433482447,-1.87710811676554,-0.032986723,0.009773844,0.02107485,135.42159,-104.09112,-1.8390042,STD
2964114649000,3.060053,-0.758763336229699,9.72611178629777,-1.84911811898279,-0.02565634,0.011301007,0.024129177,135.42618,-104.096695,-1.8285897,STD
2964119649000,3.065053,-0.765748287119518,9.72378342881455,-1.8211784126714,-0.027183503,0.011301007,0.027183503,135.4318,-104.09651,-1.820965,STD
2964124720000,3.070124,-0.772832424311971,9.72142200865506,-1.79284196253039,-0.02321288,0.012217305,0.019242255,135.43611,-104.10013,-1.8155973,STD
2964129693000,3.075097,-0.78107047910498,9.72848251951548,-1.7545406346568,-0.02321288,-0.0021380284,0.025045475,135.44371,-104.10146,-1.8056048,STD
2964135125000,3.080529,-0.79107261256393,9.74348553432032,-1.70452983681023,-0.038789943,0.003970624,0.025045475,135.4444,-104.09986,-1.7981719,STD
2964139645000,3.085049,-0.789909604176346,9.75167173864836,-1.69296606040127,-0.036957346,-0.0030543262,0.028099801,135.45203,-104.09212,-1.7922027,STD
2964144656000,3.09006,-0.779774594749736,9.75673935712777,-1.70816859835269,-0.0290161,0.0021380284,0.027488936,135.4543,-104.08202,-1.786124,STD
2964149644000,3.095048,-0.774353467895266,9.75329435728304,-1.71972007128428,-0.043066,-0.00061086525,0.019547688,135.46198,-104.05825,-1.7830833,STD
2964154590000,3.099994,-0.772086111263223,9.74422507280647,-1.72878940311139,-0.03756821,-0.004886922,0.01985312,135.46915,-104.04231,-1.7777857,STD
2964159589000,3.104993,-0.769794458249964,9.73505860432722,-1.73795591944857,-0.04428773,0.0015271631,0.027488936,135.47673,-104.02331,-1.7700071,STD
2964164652000,3.110056,-0.76747346621033,9.72577478158059,-1.74723979066584,-0.040927973,0.0067195175,0.023823744,135.48497,-104.00938,-1.7657552,STD
2964169613000,3.115017,-0.76515777329236,9.71749886109029,-1.76044942396442,-0.047647487,0.0027488936,0.026267206,135.49074,-103.98906,-1.7571297,STD
2964174755000,3.120159,-0.76269717739969,9.71011717618548,-1.78013421679908,-0.03726278,-0.012217305,0.023518313,135.49753,-103.9752,-1.7515332,STD
2964179613000,3.125017,-0.760372483730575,9.70314319227502,-1.79873179042622,-0.039095376,-0.0036651916,0.026572637,135.49869,-103.95982,-1.7421714,STD
2964184651000,3.130055,-0.757961654849348,9.69591080632589,-1.81801844664968,-0.044898596,0.0070249503,0.02443461,135.50279,-103.946724,-1.7360317,STD
2964189561000,3.134965,-0.758439017964775,9.68985764295499,-1.83291273592955,-0.044898596,0.0012217305,0.02321288,135.50812,-103.93345,-1.7302693,STD
2964194620000,3.140024,-0.763179627671233,9.68511693424658,-1.84239395534247,-0.040927973,-0.0027488936,0.025350908,135.51009,-103.919876,-1.7234687,STD
2964199540000,3.144944,-0.764534768900163,9.67893247056571,-1.84993343109984,-0.034208454,0.0033597588,0.02443461,135.50891,-103.91381,-1.7181268,STD
2964205232000,3.150636,-0.759316893376089,9.6684965015794,-1.85515130662391,-0.03634648,0.002443461,0.016798794,135.51048,-103.9066,-1.7149596,STD
2964209571000,3.154975,-0.760458828946836,9.66429506690924,-1.8488212212452,-0.018936822,0.004581489,0.02076942,135.51035,-103.91038,-1.7077882,STD
2964214650000,3.160054,-0.775207369186376,9.6692113376794,-1.81440804453204,-0.021685716,0.0076358155,0.019242255,135.50934,-103.90825,-1.7044058,STD
2964219594000,3.164998,-0.786632924445446,9.67324239150854,-1.78952813788899,-0.01863139,-0.00061086525,0.022602014,135.51134,-103.913284,-1.6987069,STD
2964224755000,3.170159,-0.791322282983871,9.67558712096774,-1.78483875241936,-0.028710667,-0.00061086525,0.017104227,135.508788194996,-103.914235034154,-1.69605881303614,STD
2964229666000,3.17507,-0.795784487940702,9.67781827120493,-1.78037652183586,-0.02443461,0.01160644,0.020463986,135.50636,-103.91514,-1.693539,STD
2964234651000,3.180055,-0.800313930357685,9.68008304089184,-1.77584705340607,-0.028710667,-0.0030543262,0.013439035,135.51192,-103.9129,-1.6932845,STD
2964239634000,3.185038,-0.803638365892893,9.68276203613146,-1.77191255033162,-0.017715093,0.0021380284,0.010995574,135.50523,-103.911705,-1.6899552,STD
2964244620000,3.190024,-0.794184792424272,9.68985210641457,-1.77427596467531,-0.028710667,-0.004886922,0.011911872,135.5058,-103.90324,-1.6895452,STD
2964249607000,3.195011,-0.784729322932093,9.69694359869333,-1.7766398530291,-0.0290161,-0.011301007,0.014049901,135.50487,-103.899574,-1.6905906,STD
2964254601000,3.200005,-0.775260581274995,9.7040450449416,-1.77900705945357,-0.023823744,-0.0106901415,0.013133603,135.5038,-103.894516,-1.692234,STD
2964259801000,3.205205,-0.766499334102079,9.71159167561437,-1.78235059119093,-0.025350908,-0.0030543262,0.011301007,135.50264,-103.88751,-1.6934981,STD
2964264612000,3.210016,-0.770854198553875,9.72030149546314,-1.79541504812854,-0.03573562,0.004276057,0.015577064,135.50172,-103.87935,-1.6932967,STD
2964270410000,3.215814,-0.774924748379767,9.729637667951,-1.81240644238293,-0.038179077,0.005497787,0.013744468,135.50027,-103.87058,-1.6941131,STD
2964274700000,3.220104,-0.76680684944675,9.7255786549101,-1.83676001203319,-0.03390302,0.007330383,0.01160644,135.49696,-103.86083,-1.6933424,STD
2964279633000,3.225037,-0.757472211815847,9.72091126299151,-1.86476377871962,-0.04184427,0.0061086523,0.014049901,135.4938,-103.84925,-1.6929548,STD
2964284606000,3.23001,-0.752426903924586,9.71217723489804,-1.87161809607541,-0.03268129,0.01160644,0.018936822,135.48837,-103.84389,-1.6919298,STD
2964289584000,3.234988,-0.747841168026164,9.70300557156599,-1.87620383197384,-0.042455133,0.032375857,0.019547688,135.47899,-103.83114,-1.6904898,STD
2964294618000,3.240022,-0.75475240316412,9.68966290734352,-1.89257714685067,-0.040011674,0.02687807,0.013439035,135.48325,-103.83036,-1.693879,STD
2964299546000,3.24495,-0.764056389443075,9.6757071222277,-1.91118516798423,-0.03176499,0.031154128,0.007941248,135.47914,-103.82848,-1.694899,STD
2964304593000,3.249997,-0.7661445,9.66887978196593,-1.9153614,-0.028099801,0.029626964,0.015577064,135.47859,-103.8268,-1.6941198,STD
2964309598000,3.255002,-0.7661445,9.66418692069708,-1.9153614,-0.03573562,0.03023783,0.01160644,135.47514,-103.82482,-1.6976628,STD
2964314608000,3.260012,-0.7661445,9.65948937125514,-1.9153614,-0.03176499,0.033292156,0.010079277,135.47102,-103.831,-1.7005807,STD
2964319594000,3.264998,-0.7661445,9.65481432504406,-1.9153614,-0.033292156,0.038789943,0.016493361,135.46637,-103.83321,-1.7021693,STD
2964324664000,3.270068,-0.78044736694864,9.66414835743307,-1.91178568886342,-0.025045475,0.038789943,0.014660766,135.46037,-103.8398,-1.7055843,STD
2964329610000,3.275014,-0.800185642598187,9.67895235014064,-1.90685112767997,-0.02107485,0.030848695,0.005497787,135.45511,-103.84467,-1.7094877,STD
2964334609000,3.280013,-0.811992706363454,9.68592235113204,-1.91144030386696,-0.0290161,0.027183503,0.011911872,135.45193,-103.848114,-1.7109792,STD
2964339619000,3.285023,-0.821605973864957,9.69072882929273,-1.91865024696454,-0.025961773,0.025961773,0.016187929,135.44955,-103.856026,-1.7159317,STD
2964344685000,3.290089,-0.831326695055099,9.6955890325586,-1.92594078024444,-0.017715093,0.028099801,0.016187929,135.45049,-103.86373,-1.7237916,STD
2964349564000,3.294968,-0.84068859767782,9.70026983234823,-1.93296219987978,-0.017104227,0.03756821,0.01863139,135.45012,-103.86973,-1.7292701,STD
2964354601000,3.300005,-0.846543442332268,9.70508952136582,-1.91180830648962,-0.02321288,0.016187929,0.010995574,135.457,-103.876305,-1.7394261,STD
2964359611000,3.305015,-0.851333754632588,9.70987993370607,-1.88306638266773,-0.019242255,0.03940081,0.018325957,135.45,-103.885086,-1.7410116,STD
2964364606000,3.31001,-0.862977587612612,9.71797667323574,-1.8486759996997,-0.025350908,0.03176499,0.015577064,135.45515,-103.89258,-1.7543896,STD
2964369606000,3.31501,-0.876458443468468,9.72696409816066,-1.81272705075075,-0.019547688,0.029932396,0.017104227,135.45305,-103.90393,-1.7624547,STD
2964374718000,3.320122,-0.884303666099439,9.72841723821587,-1.8004397,-0.028710667,0.026267206,0.011301007,135.45358,-103.90475,-1.773846,STD
2964379669000,3.325073,-0.889013832029007,9.72606211344559,-1.8004397,-0.024129177,0.019242255,0.0125227375,135.45612,-103.910675,-1.783071,STD
2964384605000,3.330009,-0.893709727611384,9.72371412397556,-1.8004397,-0.018020526,0.024129177,0.015882496,135.45694,-103.90837,-1.7940577,STD
2964389619000,3.335023,-0.898479828999156,9.72132903094422,-1.8004397,-0.026572637,0.018936822,0.013744468,135.46217,-103.903404,-1.8071645,STD
2964394611000,3.340015,-0.890636980639038,9.72684770631657,-1.78127394794896,-0.019242255,0.014966198,0.009162978,135.46764,-103.90609,-1.8189185,STD
2964399609000,3.345013,-0.875494637595698,9.73694279141622,-1.75098927240325,-0.032375857,0.005497787,0.012217305,135.47636,-103.90035,-1.8296593,STD
2964404600000,3.350004,-0.862886170835904,9.74305418099016,-1.75846461752608,-0.0421497,0.00061086525,0.012217305,135.47989,-103.89708,-1.8432242,STD
2964409650000,3.355054,-0.851044713414622,9.74779061162529,-1.77977924780863,-0.03634648,0.014966198,0.02107485,135.48141,-103.89411,-1.8525486,STD
2964414645000,3.360049,-0.839332222361295,9.75247545737231,-1.80086173855345,-0.036651913,0.0021380284,0.01863139,135.49284,-103.881874,-1.8633378,STD
2964419592000,3.364996,-0.827732283774546,9.75711528358063,-1.82174163479262,-0.032375857,-0.0027488936,0.01863139,135.49878,-103.87234,-1.8693529,STD
2964424743000,3.370147,-0.810437627482007,9.7455983327927,-1.8160023640446,-0.04062254,-0.010079277,0.013744468,135.50835,-103.85963,-1.8782881,STD
2964429626000,3.37503,-0.791476247981754,9.72663704733908,-1.79704097959453,-0.027794369,-0.012217305,0.017104227,135.51826,-103.853935,-1.8847446,STD
2964434606000,3.38001,-0.786908958386521,9.71884817797409,-1.7989168419326,-0.03176499,-0.007941248,0.01863139,135.52913,-103.84819,-1.8897161,STD
2964439611000,3.385015,-0.789287829993052,9.71646925668768,-1.81081119996526,-0.038789943,0.0009162979,0.01863139,135.53925,-103.845085,-1.8939072,STD
2964444604000,3.390008,-0.791660998011316,9.71409603910864,-1.82267704005658,-0.03970624,0.003970624,0.02321288,135.55113,-103.83906,-1.8929945,STD
2964449610000,3.395014,-0.794040344916869,9.71171664251328,-1.83457377458435,-0.051923547,-0.004886922,0.020158553,135.5632,-103.8282,-1.8944147,STD
2964454603000,3.400007,-0.777380534692438,9.70796620344244,-1.85624131399549,-0.03970624,-0.0067195175,0.019547688,135.57281,-103.82384,-1.8932236,STD
2964460322000,3.405726,-0.746472077626035,9.70281469262603,-1.88714973340858,-0.04184427,-0.005192355,0.022296581,135.58383,-103.81208,-1.8923044,STD
2964464606000,3.41001,-0.744734948382999,9.71106633502687,-1.91572998783586,-0.03573562,0.002443461,0.01985312,135.5894,-103.80965,-1.8938713,STD
2964469592000,3.414996,-0.758731018182707,9.72972815114802,-1.95305288935027,-0.043676864,0.010995574,0.018325957,135.59444,-103.80251,-1.894249,STD
2964474692000,3.420096,-0.764983003023428,9.73380551511714,-1.96469172116399,-0.03940081,0.013133603,0.021685716,135.60126,-103.80582,-1.8890088,STD
2964479617000,3.425021,-0.762656702653514,9.72217401326757,-1.9484076185746,-0.04795292,0.02443461,0.023823744,135.60289,-103.80325,-1.8834734,STD
2964484599000,3.430003,-0.760303478604192,9.71040789302096,-1.93193505022935,-0.04184427,0.014966198,0.019547688,135.60779,-103.81235,-1.8831898,STD
2964489615000,3.435019,-0.757934194816276,9.69856147408138,-1.91535006371393,-0.037873644,0.018020526,0.019547688,135.6065,-103.818,-1.87966,STD
2964494559000,3.439963,-0.763877730775028,9.68441882992185,-1.90030206785448,-0.032070424,0.011301007,0.016493361,135.61003,-103.825966,-1.8795813,STD
2964499609000,3.445013,-0.781876587632118,9.66641963007071,-1.88680290289356,-0.029321533,0.022296581,0.01160644,135.60762,-103.83405,-1.8787153,STD
2964504583000,3.449987,-0.797592764474979,9.65206221556886,-1.87025961026518,-0.03023783,0.015577064,0.02107485,135.61383,-103.83721,-1.8752538,STD
2964509635000,3.455039,-0.807939635377459,9.64688920958084,-1.84439241950385,-0.026572637,0.007941248,0.014660766,135.6158,-103.8431,-1.8769779,STD
2964514538000,3.459942,-0.815853883326091,9.65114625518467,-1.83099542332609,-0.028099801,0.0061086523,0.013133603,135.61626,-103.84356,-1.8792413,STD
2964519598000,3.465002,-0.820639446035947,9.67028840608335,-1.83578098603595,-0.046120327,0.005497787,0.016493361,135.61836,-103.84035,-1.882332,STD
2964524638000,3.470042,-0.82448611657441,9.68127122871082,-1.83786614710428,-0.033292156,-0.00061086525,0.01160644,135.62231,-103.84245,-1.889776,STD
2964529645000,3.475049,-0.826802265822345,9.67895504076704,-1.83555000753031,-0.04520403,-0.0021380284,0.008246681,135.62544,-103.832344,-1.8954993,STD
2964534572000,3.479976,-0.829081408491523,9.67667586002029,-1.83327087438052,-0.03573562,-0.0015271631,0.012217305,135.62962,-103.8321,-1.9013649,STD
2964539598000,3.485002,-0.831406346801913,9.67435088286722,-1.8309459457808,-0.038179077,0.0015271631,0.007941248,135.63269,-103.825645,-1.9102402,STD
2964544582000,3.489986,-0.82941215252947,9.67419070972495,-1.82970867740668,-0.03604105,-0.0030543262,0.0061086523,135.63945,-103.82428,-1.9170092,STD
2964549607000,3.495011,-0.812866747691552,9.68128148821218,-1.83207230314342,-0.036651913,-0.0009162979,0.0125227375,135.64368,-103.82129,-1.9218854,STD
2964554866000,3.50027,-0.795550870270137,9.68870246414538,-1.8345459962279,-0.026572637,0.0021380284,0.0070249503,135.64627,-103.82019,-1.9327036,STD
2964559673000,3.505077,-0.779723256129666,9.69548562278978,-1.83680708058939,-0.043676864,-0.0067195175,0.010995574,135.65259,-103.81062,-1.939618,STD
2964564657000,3.510061,-0.764087236673827,9.70171646125793,-1.83833544733477,-0.03023783,-0.004581489,0.007330383,135.65555,-103.812836,-1.9502741,STD
2964569594000,3.514998,-0.752277109881601,9.70407853594445,-1.83597342197632,-0.035430185,-0.010079277,0.01282817,135.66388,-103.80449,-1.9581829,STD
2964574732000,3.520136,-0.739986157591048,9.70653677773892,-1.83351523151821,-0.022907447,-0.01038471,0.0125227375,135.67052,-103.80396,-1.9622682,STD
2964579651000,3.525055,-0.728219089798671,9.70889024044562,-1.83116181795973,-0.03268129,-0.0067195175,0.015882496,135.67805,-103.79533,-1.9638349,STD
2964584602000,3.530006,-0.715258105569922,9.71313384284862,-1.82992069860752,-0.040927973,-0.00030543262,0.0143553335,135.68442,-103.79086,-1.9666353,STD
2964589599000,3.535003,-0.696218809926398,9.72741361279093,-1.8346805225184,-0.027183503,-0.0033597588,0.01038471,135.69235,-103.78988,-1.96954,STD
2964594607000,3.540011,-0.684041835644136,9.7368872526478,-1.84215401303678,-0.029932396,0.009773844,0.013439035,135.6954,-103.780426,-1.9642639,STD
2964600151000,3.545555,-0.714714151761987,9.71643861486617,-1.86771427646832,-0.032375857,0.009468411,0.014966198,135.70259,-103.775215,-1.9616941,STD
2964604627000,3.550031,-0.738115139426945,9.70025345549995,-1.88698141971347,-0.042455133,0.019547688,0.02076942,135.70428,-103.76607,-1.9522713,STD
2964609645000,3.555049,-0.747546281100971,9.68610693994701,-1.89169699055049,-0.034513887,0.009468411,0.01160644,135.71074,-103.76197,-1.9481621,STD
2964614823000,3.560227,-0.7565677,9.67310976167028,-1.89585118725625,-0.028099801,0.028405234,0.013439035,135.70183,-103.75974,-1.9410206,STD
2964619625000,3.565029,-0.7565677,9.67990321548158,-1.89132215499311,-0.0290161,0.027488936,0.0143553335,135.7006,-103.75809,-1.9388063,STD
2964624810000,3.570214,-0.7565677,9.68723850453024,-1.88643189420918,-0.03023783,0.03176499,0.015577064,135.69226,-103.75988,-1.9364454,STD
2964629659000,3.575063,-0.7565677,9.69409844987197,-1.88185853364191,-0.028405234,0.029626964,0.021685716,135.68648,-103.76198,-1.933095,STD
2964634983000,3.580387,-0.757668813157368,9.70174545390922,-1.87749454471106,-0.039095376,0.021380283,0.0143553335,135.67986,-103.76121,-1.9323686,STD
2964639632000,3.585036,-0.779925661281744,9.71064836792641,-1.88639727280544,-0.03970624,0.015882496,0.016187929,135.67421,-103.7631,-1.9275476,STD
2964644977000,3.590381,-0.804659432732601,9.7203551614652,-1.8957923545348,-0.034208454,0.018325957,0.019242255,135.66888,-103.76177,-1.9241712,STD
2964649650000,3.595054,-0.80903085020757,9.71816940708181,-1.88704951958486,-0.03970624,0.00580322,0.013439035,135.66882,-103.757454,-1.9242464,STD
2964654555000,3.599959,-0.813619295042735,9.71587513675214,-1.87787262991453,-0.032070424,0.007941248,0.010079277,135.6634,-103.76053,-1.9259309,STD
2964659633000,3.605037,-0.818369574935287,9.71349994720391,-1.86837207012943,-0.0290161,0.01985312,0.014660766,135.6589,-103.76065,-1.9271803,STD
2964664545000,3.609949,-0.822964568009768,9.7112024026862,-1.85918208398046,-0.03970624,0.014966198,0.0125227375,135.65784,-103.75938,-1.9321995,STD
2964669771000,3.615175,-0.811490521018665,9.70280569087195,-1.83367081360386,-0.036957346,0.020463986,0.012217305,135.65106,-103.76244,-1.9339542,STD
2964674686000,3.62009,-0.798377895254898,9.69406421116167,-1.80744555294828,-0.03145956,0.009468411,0.012217305,135.65018,-103.763336,-1.9376565,STD
2964679687000,3.625091,-0.791542337578788,9.69506135402906,-1.77377860583129,-0.029626964,0.013133603,0.016187929,135.6444,-103.7613,-1.9402622,STD
2964684545000,3.629949,-0.787152443787507,9.69945088110964,-1.7386594096622,-0.030543262,0.016493361,0.0125227375,135.64127,-103.76036,-1.9457072,STD
2964689605000,3.635009,-0.793980208689974,9.70709314868395,-1.74408332754671,-0.036651913,0.010995574,0.014660766,135.64038,-103.753105,-1.9449024,STD
2964694621000,3.640025,-0.808457970016074,9.71674519449468,-1.77786483279084,-0.042455133,0.007941248,0.015577064,135.63759,-103.74598,-1.9451095,STD
2964699608000,3.645012,-0.815514137591719,9.71451672065763,-1.80274752073375,-0.053145275,-0.0012217305,0.012217305,135.64096,-103.728096,-1.9469957,STD
2964704623000,3.650027,-0.817951223500279,9.70476842791901,-1.82224420800223,-0.04337143,0.005192355,0.014660766,135.6413,-103.71442,-1.9461551,STD
2964709612000,3.655016,-0.820375674466941,9.69507067468412,-1.84163981573553,-0.044898596,0.0033597588,0.01740966,135.64458,-103.70081,-1.9503306,STD
2964714610000,3.660014,-0.822804499067336,9.68535542700563,-1.86107041253869,-0.040317107,0.009468411,0.01740966,135.64383,-103.691925,-1.9535581,STD
2964719602000,3.665006,-0.817363313571777,9.68527308839295,-1.88620347187409,-0.04917465,0.008857546,0.019242255,135.64577,-103.678795,-1.9560337,STD
2964724653000,3.670057,-0.807934911505701,9.68998738787642,-1.91448872729753,-0.041233405,0.014049901,0.016187929,135.64406,-103.672104,-1.9590374,STD
2964729615000,3.675019,-0.808772309770492,9.68740836,-1.91845735278689,-0.03848451,0.023823744,0.021380283,135.64316,-103.670296,-1.9606435,STD
2964734607000,3.680011,-0.815738777617486,9.68044174666667,-1.90800761464481,-0.03573562,0.02443461,0.0143553335,135.64233,-103.67135,-1.9667293,STD
2964739570000,3.684974,-0.822664775198543,9.67351560444444,-1.89761858211293,-0.028405234,0.02565634,0.018936822,135.63905,-103.677826,-1.9663876,STD
2964744622000,3.690026,-0.81533487583884,9.66843967048032,-1.88380197051978,-0.043066,0.019547688,0.016493361,135.63676,-103.67929,-1.9704245,STD
2964749668000,3.695072,-0.80580247221225,9.66367336788638,-1.86950336134727,-0.0421497,0.016493361,0.01282817,135.63354,-103.686905,-1.9732988,STD
2964754599000,3.700003,-0.796487315200217,9.65901569089654,-1.85553062218168,-0.03604105,0.016493361,0.015882496,135.63295,-103.6891,-1.9784636,STD
2964759604000,3.705008,-0.787032364714469,9.65428811569188,-1.84134819275076,-0.05009095,0.015577064,0.014049901,135.63286,-103.68615,-1.9861691,STD
2964764610000,3.710014,-0.793065631570359,9.66118862581221,-1.84457249769853,-0.044593163,0.004886922,0.02076942,135.63626,-103.68991,-1.9912063,STD
2964769593000,3.714997,-0.802533650407222,9.67065684484897,-1.85167351367988,-0.04428773,0.011911872,0.01985312,135.63432,-103.68862,-1.9976509,STD
2964774649000,3.720053,-0.812140373914984,9.68026377148951,-1.85887855819156,-0.037873644,0.016798794,0.023518313,135.63828,-103.68482,-1.9979465,STD
2964779656000,3.72506,-0.821653994287486,9.68977759302614,-1.86601377533356,-0.03970624,0.01160644,0.014966198,135.64215,-103.67938,-2.0021036,STD
2964784608000,3.730012,-0.827245597943056,9.69536891865195,-1.86383707726128,-0.041233405,0.00580322,0.014049901,135.64595,-103.67344,-2.0052762,STD
2964789580000,3.734984,-0.83185687515398,9.69997979140035,-1.85922581931048,-0.03756821,0.006414085,0.01038471,135.64857,-103.669014,-2.0114138,STD
2964794583000,3.739987,-0.829715409140079,9.69783851321787,-1.80243204171984,-0.037873644,0.005497787,0.0125227375,135.65251,-103.665474,-2.019851,STD
2964799553000,3.744957,-0.824894494038286,9.69301802096627,-1.72529767192343,-0.03481932,0.004276057,0.013133603,135.65594,-103.66418,-2.0295165,STD
2964804594000,3.749998,-0.82009329898439,9.6882168656392,-1.75032842987552,-0.03573562,0.010995574,0.0143553335,135.65758,-103.66085,-2.0383756,STD
2964809558000,3.754962,-0.815396674285714,9.68352014285714,-1.8113846,-0.041233405,0.004581489,0.011301007,135.66289,-103.65729,-2.049017,STD
2964814576000,3.75998,-0.817385609028459,9.68886588773307,-1.81574190388616,-0.028710667,0.0027488936,0.012217305,135.669,-103.64438,-2.0566766,STD
2964819628000,3.765032,-0.822133596624141,9.69836156545633,-1.79674995350343,-0.036957346,0.010079277,0.018936822,135.67444,-103.62428,-2.063139,STD
2964824582000,3.769986,-0.815540993718745,9.70614372485957,-1.77957276093354,-0.03756821,0.0125227375,0.01038471,135.67845,-103.62083,-2.074696,STD
2964829582000,3.774986,-0.803639626715713,9.7132847001541,-1.76291080835612,-0.038789943,0.005497787,0.01282817,135.68419,-103.61422,-2.0813055,STD
2964834595000,3.779999,-0.791707316158473,9.72044424198439,-1.74620553470199,-0.03756821,-0.0015271631,0.014660766,135.69107,-103.60668,-2.0899017,STD
2964839614000,3.785018,-0.779760723960829,9.72761235298504,-1.72948026670478,-0.044593163,0.00030543262,0.0143553335,135.69734,-103.5966,-2.0980933,STD
2964844577000,3.789981,-0.771059081953692,9.72848186693829,-1.73936622228958,-0.033292156,0.003970624,0.01160644,135.7037,-103.5905,-2.1078515,STD
2964849612000,3.795016,-0.763871460593263,9.72608595145583,-1.76332490178376,-0.047036625,0.0036651916,0.016187929,135.711,-103.57524,-2.1155596,STD
2964854711000,3.800115,-0.756592477213555,9.72365958143695,-1.78758812060022,-0.046120327,0.0067195175,0.013439035,135.71782,-103.56063,-2.1203508,STD
2964859531000,3.804935,-0.749711775136639,9.72136597416277,-1.81052373830866,-0.054367006,0.0067195175,0.009468411,135.722882055618,-103.552057401446,-2.12103199262504,STD
2964864528000,3.809932,-0.744060890220727,9.71606404652083,-1.81812829511036,-0.04062254,0.00061086525,0.020158553,135.72813,-103.54317,-2.1217382,STD
2964869512000,3.814916,-0.739336474581807,9.70897752172622,-1.8157660872909,-0.04520403,0.0036651916,0.013744468,135.7339,-103.524185,-2.1266284,STD
2964874551000,3.819955,-0.734559923537563,9.7018127949124,-1.81337781176878,-0.044593163,0.007941248,0.02443461,135.74113,-103.51463,-2.1240282,STD
2964879528000,3.824932,-0.729842143313867,9.69473622310205,-1.81101892165693,-0.042760566,0.0076358155,0.009162978,135.74657,-103.505775,-2.130485,STD
2964884526000,3.82993,-0.732849993246187,9.69548846759259,-1.80751015337691,-0.03634648,0.01160644,0.013439035,135.75154,-103.49719,-2.1279614,STD
2964889634000,3.835038,-0.741731310312273,9.70214936265432,-1.80306949484386,-0.032375857,0.015882496,0.01160644,135.75504,-103.48956,-2.1313138,STD
2964894527000,3.839931,-0.75023880530138,9.70852989506173,-1.79881574734931,-0.029932396,0.014049901,0.013439035,135.75781,-103.48393,-2.1280057,STD
2964899528000,3.844932,-0.758934080682643,9.71505126080247,-1.79446810965868,-0.03726278,0.015271631,0.017715093,135.75859,-103.47671,-2.1241393,STD
2964904569000,3.849973,-0.769683843782555,9.72222870607689,-1.78997806544026,-0.04520403,0.017715093,0.020158553,135.75955,-103.470024,-2.120414,STD
2964909621000,3.855025,-0.789684699251757,9.73222932699463,-1.78497785940471,-0.032986723,0.007330383,0.015882496,135.76358,-103.46716,-2.1182628,STD
2964914543000,3.859947,-0.800914985330992,9.7384340488485,-1.77774930809666,-0.040927973,0.015577064,0.015577064,135.75594,-103.45471,-2.1127558,STD
2964919583000,3.864987,-0.785960837401632,9.73344922183208,-1.76279508729733,-0.04062254,0.004581489,0.020463986,135.7567,-103.4481,-2.109063,STD
2964925166000,3.87057,-0.770022346594715,9.72813628247116,-1.76585336483067,-0.050701816,0.005497787,0.015882496,135.75099,-103.436775,-2.1098764,STD
2964929665000,3.875069,-0.757996060820618,9.72412745078154,-1.79391464249163,-0.040317107,-0.0033597588,0.021685716,135.75215,-103.43078,-2.1078568,STD
2964934604000,3.880008,-0.747370517572455,9.71932016313835,-1.82073215271737,-0.037873644,-0.0018325958,0.017715093,135.75027,-103.41763,-2.1064317,STD
2964939590000,3.884994,-0.749673161387857,9.71241232786806,-1.82764008416357,-0.043982297,0.0018325958,0.01863139,135.75098,-103.40472,-2.1025548,STD
2964944606000,3.89001,-0.751989659859189,9.70546292920866,-1.83458957957757,-0.03756821,0.0009162979,0.01863139,135.75119,-103.40128,-2.0987322,STD
2964949612000,3.895016,-0.754301540111877,9.6985273850123,-1.84152522033563,-0.04184427,-0.0009162979,0.017715093,135.75067,-103.3932,-2.0948641,STD
2964954878000,3.900282,-0.757561746296261,9.69189466037009,-1.84815802579029,-0.042455133,-0.0015271631,0.01985312,135.75256,-103.3922,-2.0867014,STD
2964959637000,3.905041,-0.770739089816885,9.69409069853508,-1.84596180416345,-0.04153884,0.004581489,0.019547688,135.75284,-103.39051,-2.0793698,STD
2964964756000,3.91016,-0.784913248564958,9.69645285851966,-1.84359944683886,-0.04337143,0.006414085,0.024129177,135.75401,-103.39074,-2.0719163,STD
2964969593000,3.914997,-0.798306568718196,9.69868488974557,-1.84136722914418,-0.03726278,0.012217305,0.02107485,135.75189,-103.39372,-2.0662284,STD
2964974644000,3.920048,-0.812292440145528,9.70101567116423,-1.83903625300694,-0.03481932,0.008857546,0.015271631,135.75142,-103.39635,-2.058934,STD
2964979660000,3.925064,-0.800676412423761,9.70575581035578,-1.81204259555273,-0.040927973,0.016493361,0.02076942,135.74687,-103.397766,-2.0485077,STD
2964984934000,3.930338,-0.786059309050082,9.71202371284703,-1.78185695443658,-0.044593163,0.009468411,0.0143553335,135.74622,-103.4012,-2.0444293,STD
2964989604000,3.935008,-0.802289991076937,9.7363698269824,-1.79402996913446,-0.03940081,-0.00030543262,0.015271631,135.74445,-103.405205,-2.041458,STD
2964994789000,3.940193,-0.820310566303756,9.76340079096353,-1.80754540408274,-0.03940081,0.0070249503,0.017104227,135.74065,-103.401505,-2.035652,STD
2964999611000,3.945015,-0.819634841678082,9.75246100963185,-1.77428179364298,-0.043982297,0.007941248,0.021380283,135.74156,-103.39781,-2.0301178,STD
2965004572000,3.949976,-0.814550241421233,9.73212271479024,-1.72852033823844,-0.04153884,0.009468411,0.015577064,135.73976,-103.396454,-2.0265315,STD
2965009621000,3.955025,-0.809725019269524,9.70851829634762,-1.74534290365238,-0.039095376,-0.0036651916,0.016187929,135.74162,-103.39553,-2.0242572,STD
2965014544000,3.959948,-0.805058426534693,9.68518533267346,-1.76867586732654,-0.041233405,-0.011301007,0.02076942,135.74147,-103.39406,-2.022128,STD
2965019609000,3.965013,-0.80445176,9.68847720274641,-1.77803451282651,-0.03970624,-0.0033597588,0.014966198,135.74165,-103.388084,-2.0211577,STD
2965024597000,3.970001,-0.80445176,9.69560717140156,-1.78516460556744,-0.05009095,-0.0070249503,0.01740966,135.74799,-103.377655,-2.017954,STD
2965029666000,3.97507,-0.80445176,9.70285292342903,-1.79241048369571,-0.038179077,-0.008857546,0.009468411,135.75287,-103.38011,-2.0199106,STD
2965034541000,3.979945,-0.80445176,9.70982136713269,-1.79937904867406,-0.038789943,-0.008552114,0.01038471,135.75883,-103.37561,-2.0188582,STD
2965039600000,3.985004,-0.812450801424011,9.69888360491439,-1.79644017928799,-0.03145956,-0.0030543262,0.007941248,135.76303,-103.37717,-2.0207322,STD
2965044588000,3.989992,-0.821693149958402,9.68502027512818,-1.7918190050208,-0.030848695,-0.0061086523,0.015271631,135.77011,-103.37613,-2.0201652,STD
2965049608000,3.995012,-0.81605673298152,9.67460321533748,-1.77953992006127,-0.030543262,-0.0030543262,0.0106901415,135.77106,-103.377174,-2.0246518,STD
2965054596000,4,-0.806615270702639,9.66516155588497,-1.76537767734954,-0.032375857,-0.004886922,0.01038471,135.77492,-103.37721,-2.0264256,STD
2965059618000,4.005022,-0.800825227290965,9.66662461033826,-1.77119875544004,-0.03940081,-0.008246681,0.010995574,135.7788,-103.37726,-2.030239,STD
2965064607000,4.010011,-0.796160939669058,9.67128899780349,-1.78285950493484,-0.034513887,-0.0125227375,0.0067195175,135.783,-103.380295,-2.0356383,STD
