timestamp,rel_time,acc_x,acc_y,acc_z,gyro_x,gyro_y,gyro_z,azimuth,pitch,roll,label
7097070299000,0,-3.45538748278151,9.08419068729254,-2.15718529682526,-0.016798794,-0.032375857,0.017104227,10.606162,-112.449326,-19.821835,STD
7097075385000,0.005086,-3.43465907832156,9.08004535271087,-2.44323749481658,-0.01863139,-0.021380283,0.025045475,10.585225,-112.48678,-19.845264,STD
7097080312000,0.010013,-3.45633064851064,9.06644214231678,-2.19117790969267,-0.013133603,-0.010079277,0.027794369,10.564995,-112.526726,-19.869852,STD
7097085314000,0.015015,-3.49709928987234,9.04832236775414,-1.69742398591017,-0.022602014,-0.024129177,0.021685716,10.549863,-112.56323,-19.894627,STD
7097090745000,0.020446,-3.49174153850659,9.05689532963815,-1.6515864992261,-0.019242255,-0.03268129,0.025961773,10.498197,-112.60005,-19.89657,STD
7097095305000,0.025006,-3.4597721329429,9.0797306193265,-1.88450664480234,-0.018936822,-0.029626964,0.015271631,10.447752,-112.63939,-19.904337,STD
7097100291000,0.029992,-3.44059872097988,9.0853668894164,-1.92648248380971,-0.019547688,-0.019242255,0.018936822,10.451417,-112.67457,-19.938187,STD
7097105279000,0.03498,-3.4297992813261,9.08073861567031,-1.85551456721248,-0.013133603,-0.022602014,0.013133603,10.457522,-112.71417,-19.977024,STD
7097110304000,0.040005,-3.41891973355941,9.07607601030262,-1.78402022461002,-0.022296581,-0.028099801,0.011301007,10.433557,-112.74576,-19.994091,STD
7097115280000,0.044981,-3.40814627491522,9.07145887113652,-1.71322304077124,-0.025350908,-0.028405234,0.0125227375,10.409774,-112.7785,-20.011198,STD
7097120273000,0.049974,-3.39733600984078,9.06682595798211,-1.64218398552466,-0.018936822,-0.021380283,0.0125227375,10.386076,-112.81095,-20.028439,STD
7097125313000,0.055014,-3.3864239858121,9.06214943438943,-1.57047622697413,-0.022907447,-0.008246681,0.014966198,10.361637,-112.83961,-20.04373,STD
7097130291000,0.059992,-3.378348269632,9.059659,-1.62060965529327,-0.024129177,-0.010995574,0.014966198,10.336438,-112.878136,-20.062191,STD
7097135287000,0.064988,-3.37341623243995,9.059659,-1.81295926028245,-0.024740042,-0.0061086523,0.014049901,10.306134,-112.91435,-20.078371,STD
7097140294000,0.069995,-3.36847333607875,9.059659,-2.00573237320895,-0.022907447,-0.0012217305,0.007941248,10.289843,-112.94085,-20.097185,STD
7097145296000,0.074997,-3.36353537570354,9.059659,-2.19831298252757,-0.0143553335,-0.0009162979,0.016493361,10.274969,-112.9636,-20.111456,STD
7097150289000,0.07999,-3.3725511263701,9.06243202174131,-2.29869080472898,-0.019242255,0.007330383,0.014049901,10.249518,-112.994576,-20.131983,STD
7097155293000,0.084994,-3.39175648939986,9.06723347530308,-2.33230037803827,-0.024740042,0.011301007,0.018020526,10.227014,-113.02155,-20.147814,STD
7097160278000,0.089979,-3.40246118263909,9.07732023536266,-2.34092817844451,-0.02443461,0.010079277,0.010079277,10.177932,-113.055336,-20.149895,STD
7097165291000,0.094992,-3.40712265447131,9.09130445616079,-2.33160513743082,-0.024129177,0.013744468,0.015271631,10.128579,-113.08304,-20.146505,STD
7097170340000,0.100041,-3.42469184372616,9.08517546356153,-2.29902481983537,-0.025045475,0.00580322,0.016187929,10.084033,-113.11629,-20.149485,STD
7097175288000,0.104989,-3.45323189977916,9.06139208351737,-2.24670138373821,-0.018325957,0.011301007,0.018020526,10.036033,-113.147995,-20.149525,STD
7097180307000,0.110008,-3.45679743570449,9.05258369331766,-2.21681591785224,-0.027183503,0.010079277,0.013133603,9.994106,-113.17743,-20.152107,STD
7097185322000,0.115023,-3.43797413490104,9.05728961679404,-2.20740426745052,-0.02687807,0.01985312,0.020158553,9.949138,-113.2048,-20.149729,STD
7097190333000,0.120034,-3.43314315534739,9.06198222619048,-2.19337288930523,-0.03573562,0.011301007,0.016493361,9.919792,-113.23768,-20.161776,STD
7097195293000,0.124994,-3.44241343793911,9.06661746428571,-2.17483232412178,-0.029932396,0.02107485,0.013133603,9.883353,-113.269844,-20.169737,STD
7097200297000,0.129998,-3.44935642003074,9.07435398883585,-2.1472981640644,-0.02687807,0.02076942,0.017104227,9.850961,-113.29493,-20.17358,STD
7097205288000,0.134989,-3.45322324381523,9.08595429868134,-2.10862984546558,-0.038789943,0.0143553335,0.019242255,9.818033,-113.31914,-20.178339,STD
7097210924000,0.140625,-3.45764509672727,9.09713021090909,-2.06441123054545,-0.03390302,0.018936822,0.016798794,9.789017,-113.34906,-20.183325,STD
7097215514000,0.145215,-3.46174369924475,9.08893304867133,-2.02342518397203,-0.04520403,0.021380283,0.014049901,9.763355,-113.37363,-20.188026,STD
7097220235000,0.149936,-3.46595927712821,9.08050193692308,-1.98126938312821,-0.043676864,0.014966198,0.015271631,9.743442,-113.39781,-20.193743,STD
7097225313000,0.155014,-3.47049363520746,9.07143326811189,-1.935925778662,-0.039095376,0.019242255,0.011911872,9.719802,-113.42168,-20.200363,STD
7097230239000,0.15994,-3.47489226614452,9.06263605216783,-1.89193944632634,-0.05222898,0.016798794,0.014966198,9.701181,-113.44041,-20.205297,STD
7097235290000,0.164991,-3.48549267194002,9.06269635407685,-1.85275577482662,-0.04153884,0.015271631,0.020158553,9.679141,-113.46371,-20.21097,STD
7097240425000,0.170126,-3.49931934522962,9.06730534142455,-1.81588464605436,-0.05497787,0.011911872,0.013439035,9.658445,-113.48302,-20.21903,STD
7097245294000,0.174995,-3.51230969070796,9.07643439048672,-1.79564070619469,-0.052534413,0.007941248,0.01160644,9.648791,-113.50273,-20.230148,STD
7097250284000,0.179985,-3.52552546283186,9.08964997861357,-1.78683019144543,-0.060170226,0.008246681,0.010995574,9.639,-113.519485,-20.242235,STD
7097255245000,0.184946,-3.5319734315158,9.09236157257632,-1.77194523807177,-0.049785517,0.01282817,0.013439035,9.636022,-113.53579,-20.256224,STD
7097260282000,0.189983,-3.52680596053562,9.07685937546867,-1.74610782921264,-0.059253927,0.013439035,0.01160644,9.6341,-113.548645,-20.271273,STD
7097265295000,0.194996,-3.51727848353629,9.06690717921181,-1.72175813922716,-0.055283304,0.009162978,0.00580322,9.641346,-113.56245,-20.2853,STD
7097270277000,0.199978,-3.50355378770735,9.06233218506089,-1.69888364617892,-0.055283304,0.015271631,0.0106901415,9.646,-113.571465,-20.295746,STD
7097275951000,0.205652,-3.49011878428162,9.05153568952108,-1.70176484715514,-0.049785517,0.027794369,0.011301007,9.65107,-113.583176,-20.309193,STD
7097280302000,0.210003,-3.48159061056079,9.03874360704052,-1.72734936831764,-0.05681047,0.022296581,0.010995574,9.660064,-113.59147,-20.321829,STD
7097285250000,0.214951,-3.46555180928303,9.03309461722299,-1.74947619443018,-0.054061573,0.025961773,0.0070249503,9.662445,-113.59951,-20.331957,STD
7097290327000,0.220028,-3.44154360584634,9.03789585680427,-1.7638811164922,-0.051618114,0.028710667,0.014660766,9.667611,-113.603134,-20.338936,STD
7097295347000,0.225048,-3.42243941148825,9.04454334334204,-1.78180486860313,-0.05131268,0.018936822,0.008246681,9.671574,-113.61106,-20.349411,STD
7097300295000,0.229996,-3.40918334852667,9.05338090320776,-1.80389835301194,-0.04520403,0.014966198,0.01160644,9.674273,-113.61536,-20.354229,STD
7097305238000,0.234939,-3.40453833025273,9.0603407185584,-1.82913716762375,-0.04734206,0.01282817,0.013133603,9.678564,-113.60635,-20.354483,STD
7097310282000,0.239983,-3.42139380377848,9.06274869363441,-1.86284813981855,-0.040927973,0.005192355,0.0125227375,9.685659,-113.59929,-20.354939,STD
7097315228000,0.244929,-3.43792179189472,9.06510988410349,-1.89590414070585,-0.040317107,0.005192355,0.011911872,9.690739,-113.58439,-20.348932,STD
7097320245000,0.249946,-3.45468703984846,9.06750496954289,-1.92943466162205,-0.049480084,0.004581489,0.021380283,9.698675,-113.56704,-20.340923,STD
7097325285000,0.254986,-3.47622096467316,9.06654538247566,-1.96039500333797,-0.03634648,0.011301007,0.017715093,9.701508,-113.55734,-20.337366,STD
7097330305000,0.260006,-3.50965318720445,9.05699311941188,-1.98427516228889,-0.04795292,0.004886922,0.016798794,9.709019,-113.54026,-20.331392,STD
7097335246000,0.264947,-3.53934326047573,9.04568071298166,-2.00375325499868,-0.041233405,0.0027488936,0.020463986,9.714089,-113.53105,-20.32782,STD
7097340302000,0.270003,-3.56059337152638,9.0286807839024,-2.01225326391644,-0.043676864,0.010079277,0.021380283,9.71775,-113.520294,-20.325188,STD
7097345992000,0.275693,-3.58109803075552,9.01240278235469,-2.02635613631053,-0.033292156,0.004276057,0.019547688,9.72749,-113.518684,-20.329967,STD
7097350297000,0.279998,-3.57701563408258,9.01648526428359,-2.06309779162293,-0.03604105,0.0125227375,0.014049901,9.730412,-113.51591,-20.334204,STD
7097355648000,0.285349,-3.57170591536918,9.02157354462871,-2.10623297536706,-0.03634648,0.013744468,0.016187929,9.740391,-113.5187,-20.342754,STD
7097360304000,0.290005,-3.56228581472483,9.02628364413225,-2.09210287358192,-0.03848451,0.01038471,0.013439035,9.748378,-113.52356,-20.353785,STD
7097365337000,0.295038,-3.55239893163914,9.0321215201186,-2.07757073163914,-0.040317107,0.0125227375,0.009162978,9.75087,-113.52804,-20.36144,STD
7097370278000,0.299979,-3.54571829224905,9.0454826128759,-2.07089009224905,-0.043066,0.014660766,0.013744468,9.754534,-113.53075,-20.367456,STD
7097375493000,0.305194,-3.5386671822674,9.05958463650054,-2.0638389822674,-0.044593163,0.01160644,0.01160644,9.757848,-113.53416,-20.374983,STD
7097380302000,0.310003,-3.53216501776084,9.07258878446044,-2.05733681776084,-0.042760566,0.0033597588,0.010079277,9.762233,-113.53655,-20.38114,STD
7097385548000,0.315249,-3.52507199322321,9.08677463602993,-2.05024379322321,-0.04184427,0.0012217305,0.008857546,9.765417,-113.539246,-20.387518,STD
7097390298000,0.319999,-3.49005193944086,9.09266569688172,-2.04088338486021,-0.04062254,0.009468411,0.005192355,9.76751,-113.5434,-20.394768,STD
7097395644000,0.325345,-3.44758984127105,9.09784488633619,-2.02991964762631,-0.05497787,0.0036651916,0.009162978,9.774658,-113.54406,-20.40107,STD
7097400292000,0.329993,-3.44617538412456,9.09501606066095,-2.02143290474738,-0.05589417,-0.0018325958,0.0070249503,9.779491,-113.54539,-20.404041,STD
7097405245000,0.334946,-3.44466811083572,9.09200160851605,-2.0123892650143,-0.04550946,-0.009162978,0.015577064,9.783111,-113.53685,-20.396656,STD
7097410251000,0.339952,-3.44314470884017,9.08895489996822,-2.00324885304099,-0.050701816,0.0033597588,0.0143553335,9.781507,-113.52933,-20.391916,STD
7097415437000,0.345138,-3.44156653010486,9.08579864137274,-1.99377978062917,-0.05681047,0.0027488936,0.0070249503,9.785957,-113.52289,-20.387943,STD
7097420248000,0.349949,-3.44010246957738,9.08287061204322,-1.98499541746425,-0.055588737,-0.002443461,0.004581489,9.78916,-113.51401,-20.382198,STD
7097425290000,0.354991,-3.43856811223387,9.07980199348586,-1.97578927340324,-0.052839845,-0.0012217305,0.009468411,9.790451,-113.504875,-20.376265,STD
7097430297000,0.359998,-3.44412530732436,9.0909163514574,-1.94861533910688,-0.055283304,-0.0027488936,0.012217305,9.79364,-113.496704,-20.372221,STD
7097435299000,0.365,-3.45307582182362,9.10881728699552,-1.91281323437967,-0.03726278,0.005497787,0.0027488936,9.792888,-113.493996,-20.369753,STD
7097440331000,0.370032,-3.4521368415111,9.10693920329267,-1.89238993113332,-0.05131268,0.008246681,0.010079277,9.795529,-113.48067,-20.36376,STD
7097445301000,0.375002,-3.44280827156647,9.08828191729139,-1.88539350367485,-0.047647487,0.00030543262,0.007941248,9.797615,-113.477295,-20.363274,STD
7097450305000,0.380006,-3.43341588444314,9.06949699593317,-1.87834921333235,-0.043982297,-0.0018325958,0.010995574,9.800923,-113.4682,-20.360403,STD
7097455279000,0.38498,-3.42407980659513,9.05082469400755,-1.87134715494635,-0.04428773,0.002443461,0.017104227,9.804589,-113.45913,-20.357414,STD
7097460298000,0.389999,-3.4343332839056,9.03389939886559,-1.8608716068976,-0.044898596,0.00061086525,0.015577064,9.812806,-113.45183,-20.35481,STD
7097465292000,0.394993,-3.46824250849792,9.0193670763699,-1.84633908207232,-0.046120327,-0.0009162979,0.012217305,9.819712,-113.44364,-20.350912,STD
7097470256000,0.399957,-3.48891706776892,9.01251488239346,-1.82394954570416,-0.03268129,-0.0027488936,0.019547688,9.823605,-113.436584,-20.346272,STD
7097475324000,0.405025,-3.49528589267461,9.01410712187121,-1.79210538792442,-0.034208454,0.0027488936,0.018325957,9.824906,-113.43045,-20.344671,STD
7097480240000,0.409941,-3.50146370310009,9.01565160673162,-1.76121630354296,-0.040011674,0.009468411,0.019242255,9.826088,-113.431786,-20.350876,STD
7097485467000,0.415168,-3.50803233920546,9.01729380005249,-1.72837308872158,-0.03604105,0.008246681,0.017715093,9.827788,-113.43512,-20.358057,STD
7097490245000,0.419946,-3.51403672858971,9.01879492874717,-1.69835111045173,-0.021685716,0.005497787,0.016798794,9.828069,-113.438644,-20.364311,STD
7097495297000,0.424998,-3.520385446708,9.02038214142309,-1.66660748671391,-0.03940081,0.0036651916,0.016493361,9.828424,-113.43843,-20.370646,STD
7097500227000,0.429928,-3.52896688038362,9.02448662205843,-1.65034543662197,-0.029626964,0.009162978,0.01985312,9.829502,-113.44158,-20.374773,STD
7097505278000,0.434979,-3.54185359119084,9.03307749347305,-1.65893662201403,-0.03756821,0.016187929,0.014049901,9.830032,-113.44221,-20.38142,STD
7097510286000,0.439987,-3.55356519600743,9.04107499600743,-1.66978430462396,-0.029321533,0.005192355,0.017104227,9.843454,-113.44288,-20.390795,STD
7097515284000,0.444985,-3.55800956425255,9.04551936425255,-1.69644995721448,-0.03970624,0.010995574,0.013744468,9.848935,-113.44292,-20.401907,STD
7097520803000,0.450504,-3.56192489798798,9.05040565438551,-1.72544343813257,-0.032986723,0.010079277,0.010995574,9.860541,-113.44726,-20.414417,STD
7097525298000,0.454999,-3.55442587081265,9.05415520712481,-1.74419081031269,-0.040317107,0.010995574,0.0076358155,9.869554,-113.44914,-20.42727,STD
7097530243000,0.459944,-3.5461761067677,9.05828013221845,-1.76481500506925,-0.040011674,0.009773844,0.013439035,9.879438,-113.45117,-20.437384,STD
7097535311000,0.465012,-3.54026019691951,9.06123813451789,-1.79539575608131,-0.03145956,0.011301007,0.00580322,9.887113,-113.457466,-20.451677,STD
7097540450000,0.470151,-3.53550763304524,9.06361446608083,-1.83104003476413,-0.034513887,0.008552114,0.01038471,9.89746,-113.45765,-20.460974,STD
7097545314000,0.475015,-3.53100939006325,9.06586363454203,-1.86477690409927,-0.03145956,0.004581489,0.009162978,9.904028,-113.46217,-20.471167,STD
7097550281000,0.479982,-3.52641589234706,9.06816043136498,-1.89922818493554,-0.028405234,0.0021380284,0.00580322,9.911052,-113.465614,-20.480537,STD
7097555281000,0.484982,-3.53243594333121,9.0637884573495,-1.92353254333121,-0.030543262,0.0067195175,0.005192355,9.9139805,-113.46963,-20.49094,STD
7097560304000,0.490005,-3.54778510299936,9.05355547053818,-1.93888170299936,-0.035430185,-0.0036651916,0.008552114,9.922163,-113.47338,-20.501883,STD
7097565291000,0.494992,-3.5519660232613,9.05625708192534,-1.94923768369352,-0.02687807,-0.0061086523,0.00580322,9.9117985,-113.48718,-20.514515,STD
7097570275000,0.499976,-3.55040312963982,9.06563447629339,-1.95705215180092,-0.029321533,-0.009773844,0.007941248,9.9056425,-113.49642,-20.52514,STD
7097575436000,0.505137,-3.54878473197119,9.07534489610347,-1.96514414014407,-0.02565634,-0.0070249503,0.008246681,9.899194,-113.51143,-20.539066,STD
7097580302000,0.510003,-3.54725884104781,9.08450027351015,-1.97277359476097,-0.025961773,-0.00061086525,0.004581489,9.8928175,-113.52566,-20.55312,STD
7097585315000,0.515016,-3.54568685354289,9.0939322313687,-1.98063353228553,-0.025961773,-0.0076358155,0.011911872,9.890542,-113.53719,-20.56424,STD
7097590410000,0.520111,-3.54408915229862,9.10351847220039,-1.98862203850688,-0.024740042,-0.009773844,0.011911872,9.884444,-113.551216,-20.577385,STD
7097595318000,0.525019,-3.53383294574372,9.10514658639075,-1.98239034574372,-0.025961773,-0.015577064,0.01160644,9.882153,-113.56281,-20.588863,STD
7097600994000,0.530695,-3.51418432228447,9.10023432794144,-1.96274172228448,-0.025045475,-0.01038471,0.009468411,9.877244,-113.575,-20.60002,STD
7097605253000,0.534954,-3.50352032748846,9.09637517732367,-1.95844121753461,-0.02321288,-0.01038471,0.010995574,9.871364,-113.582924,-20.608597,STD
7097610332000,0.540033,-3.49858745722834,9.09144246158917,-1.97323982831499,-0.02076942,-0.0061086523,0.014966198,9.862842,-113.59077,-20.616236,STD
7097615251000,0.544952,-3.49380998355053,9.08666513756909,-1.98757224934841,-0.021991149,-0.009468411,0.016187929,9.855998,-113.59554,-20.62197,STD
7097620247000,0.549948,-3.48895772526748,9.08181303128645,-2.00212902419756,-0.016798794,-0.00580322,0.01740966,9.846189,-113.60037,-20.625744,STD
7097625294000,0.554995,-3.49340603032771,9.07508871678252,-2.00461204047666,-0.022296581,-0.008857546,0.016798794,9.840301,-113.6012,-20.629837,STD
7097630297000,0.559998,-3.5124379490864,9.06557258351539,-1.98795915503476,-0.022296581,-0.018325957,0.015882496,9.835418,-113.6032,-20.63369,STD
7097635247000,0.564948,-3.53126825047666,9.05615726077458,-1.97148268432969,-0.020158553,-0.0067195175,0.022602014,9.816996,-113.60425,-20.633205,STD
7097640323000,0.570024,-3.55057786862959,9.04650227527309,-1.95458681255214,-0.023823744,-0.002443461,0.023518313,9.810838,-113.60575,-20.63618,STD
7097645229000,0.57493,-3.56579665604533,9.04372952338423,-1.93764288790934,-0.024129177,-0.0070249503,0.013439035,9.805833,-113.60588,-20.634909,STD
7097650308000,0.580009,-3.57513893342937,9.05307199587055,-1.91895833314127,-0.017715093,-0.0125227375,0.01863139,9.801734,-113.6023,-20.629187,STD
7097655235000,0.584936,-3.58429872870259,9.05837250878244,-1.90192519351297,-0.019242255,-0.013744468,0.013133603,9.803965,-113.60915,-20.638744,STD
7097660297000,0.589998,-3.59397492862275,9.05353430778443,-1.88741084311377,-0.013133603,-0.012217305,0.021991149,9.808438,-113.612564,-20.642387,STD
7097665229000,0.59493,-3.59962280198807,9.04819712922465,-1.86825790735586,-0.017104227,-0.0067195175,0.02076942,9.816358,-113.620415,-20.649324,STD
7097671024000,0.600725,-3.59410614632207,9.03992226093439,-1.82964128889165,-0.020463986,-0.0027488936,0.014660766,9.82441,-113.62806,-20.655136,STD
7097675299000,0.605,-3.59003648230616,9.0338178499006,-1.8011536195328,-0.010995574,-0.012217305,0.008552114,9.836778,-113.63828,-20.663967,STD
7097680303000,0.610004,-3.58527283347913,9.02667247614314,-1.76780805287276,-0.020158553,-0.017104227,0.003970624,9.84624,-113.64649,-20.673456,STD
7097685289000,0.61499,-3.57994296050234,9.02254051415907,-1.74476162708692,-0.02443461,-0.018325957,0.008857546,9.85832,-113.65607,-20.681652,STD
7097690329000,0.62003,-3.5728116025117,9.02729457079537,-1.75189293543462,-0.019547688,-0.016493361,0.0076358155,9.870195,-113.668106,-20.692787,STD
7097695572000,0.625273,-3.56539300926865,9.03224011026841,-1.75931147703521,-0.016798794,-0.01740966,0.008246681,9.88729,-113.674965,-20.703117,STD
7097700299000,0.63,-3.55870453124846,9.03669892489535,-1.76599990849544,-0.020463986,-0.007330383,0.014049901,9.900649,-113.680466,-20.711432,STD
7097705245000,0.634946,-3.55216171876761,9.04008829419632,-1.77212594496776,-0.01863139,-0.0143553335,0.015271631,9.912699,-113.68982,-20.725624,STD
7097710299000,0.64,-3.54753777348937,9.03777651468832,-1.77443794174827,-0.013133603,-0.007330383,0.016493361,9.917881,-113.697495,-20.7365,STD
7097715276000,0.644977,-3.54298427613088,9.03549995619775,-1.7767147142011,-0.01985312,-0.01160644,0.009468411,9.927432,-113.70403,-20.74544,STD
7097720275000,0.649976,-3.53841065079532,9.03321333455935,-1.77900155074755,-0.013744468,-0.010079277,0.0076358155,9.933529,-113.71123,-20.75172,STD
7097725653000,0.655354,-3.53234630497586,9.03167664360864,-1.78184683563405,-0.018325957,0.00030543262,0.0143553335,9.938335,-113.7155,-20.757147,STD
7097730294000,0.659995,-3.51427426277001,9.04071261753494,-1.78862385146125,-0.014660766,-0.010079277,0.0067195175,9.947916,-113.725555,-20.768066,STD
7097735293000,0.664994,-3.49480816947395,9.05044561336722,-1.79592363644727,-0.010079277,-0.008246681,0.01160644,9.950745,-113.7292,-20.770723,STD
7097741078000,0.670779,-3.47228139417535,9.06170894221093,-1.80437117718424,-0.01740966,-0.010995574,0.0125227375,9.957353,-113.73446,-20.777367,STD
7097745351000,0.675052,-3.45797090494181,9.0688641397634,-1.80815723376264,-0.02076942,-0.01160644,0.016798794,9.969763,-113.7358,-20.777483,STD
7097750302000,0.680003,-3.46701779232971,9.06434060160275,-1.78553996805953,-0.010995574,-0.0076358155,0.009468411,9.980791,-113.740616,-20.780571,STD
7097755625000,0.685326,-3.47654512707049,9.059659,-1.7627897091399,-0.0125227375,-0.009468411,0.01038471,9.9902,-113.731285,-20.772219,STD
7097760283000,0.689984,-3.48039153658978,9.059659,-1.77817536729899,-0.019547688,-0.015271631,0.01282817,9.999087,-113.724174,-20.765722,STD
7097765273000,0.694974,-3.48451209981462,9.059659,-1.79465764171158,-0.0106901415,-0.02107485,0.018325957,10.01132,-113.71907,-20.760927,STD
7097770233000,0.699934,-3.48860789011425,9.059659,-1.81104082429403,-0.01985312,-0.021991149,0.02107485,10.023579,-113.71087,-20.756462,STD
7097775466000,0.705167,-3.4929291140332,9.059659,-1.82832574253072,-0.015577064,-0.008857546,0.013133603,10.032776,-113.707214,-20.75321,STD
7097780233000,0.709934,-3.4985757320725,9.06117969779354,-1.84787089621749,-0.009773844,-0.0018325958,0.011301007,10.038127,-113.70579,-20.751623,STD
7097785318000,0.715019,-3.50816951221434,9.06597668804176,-1.87665223664303,-0.003970624,0.0030543262,0.01038471,10.039736,-113.706665,-20.751385,STD
7097790383000,0.720084,-3.51612069355138,9.0721012973425,-1.89907310206281,-0.014966198,0.007941248,0.015577064,10.039126,-113.706,-20.74957,STD
7097795281000,0.724982,-3.52047928548597,9.08081820813975,-1.90779033144397,-0.018936822,0.0018325958,0.018936822,10.040244,-113.707634,-20.748882,STD
7097800302000,0.730003,-3.51844486423101,9.09032901910379,-1.91406807418787,-0.019547688,0.004581489,0.011911872,10.040989,-113.70626,-20.74671,STD
7097805178000,0.734879,-3.48144615913373,9.10266217836077,-1.90584609679549,-0.014966198,0.011911872,0.012217305,10.042727,-113.70253,-20.741787,STD
7097810192000,0.739893,-3.44340032087332,9.11534438929483,-1.89739142192975,-0.018325957,0.009162978,0.014966198,10.038825,-113.70363,-20.742817,STD
7097815181000,0.744882,-3.43949131958976,9.11144915124832,-1.90187859316275,-0.01985312,0.01160644,0.016493361,10.031243,-113.7057,-20.743288,STD
7097820178000,0.749879,-3.4411438376187,9.10483911364343,-1.90848868253393,-0.02321288,0.004276057,0.01740966,10.027649,-113.706474,-20.743832,STD
7097825212000,0.754913,-3.44280859162264,9.09818013239407,-1.91514771593287,-0.021991149,0.013439035,0.018325957,10.014263,-113.70023,-20.7351,STD
7097830179000,0.75988,-3.44445118859077,9.09160977882524,-1.92171812095722,-0.015882496,-0.0018325958,0.021685716,10.01244,-113.68856,-20.726797,STD
7097835196000,0.764897,-3.44611032066024,9.08497328519631,-1.92835466655962,-0.014660766,0.0061086523,0.017715093,10.000522,-113.6783,-20.718552,STD
7097840231000,0.769932,-3.4490539205583,9.07811122506543,-1.93276059563827,-0.013133603,0.0067195175,0.01985312,9.995906,-113.66685,-20.709154,STD
7097845188000,0.774889,-3.46745934756228,9.06890831937579,-1.90975376383639,-0.022602014,0.011301007,0.020463986,9.987377,-113.655716,-20.700747,STD
7097850412000,0.780113,-3.4852828371118,9.0599963767469,-1.88674336048137,-0.01985312,0.01160644,0.015577064,9.983061,-113.644646,-20.693342,STD
7097855242000,0.784943,-3.4718154621118,9.06672997049689,-1.88898792298137,-0.017104227,0.004276057,0.01160644,9.979653,-113.632355,-20.685873,STD
7097860478000,0.790179,-3.45721604689441,9.07402957647516,-1.89142115885093,-0.018020526,-0.0015271631,0.01985312,9.984048,-113.62033,-20.678022,STD
7097865187000,0.794888,-3.44408605333851,9.08059448185171,-1.89360949111025,-0.013744468,0.0030543262,0.010079277,9.985975,-113.615265,-20.676313,STD
7097870194000,0.799895,-3.43012515341615,9.08757483462733,-1.89593630776398,-0.027183503,0.011301007,0.014660766,9.989704,-113.60237,-20.668602,STD
7097875187000,0.804888,-3.43267968287681,9.09257197023131,-1.89411625856159,-0.021991149,0.009162978,0.008246681,9.993721,-113.59811,-20.667177,STD
7097880144000,0.809845,-3.43738246137996,9.09727484694636,-1.89176486931002,-0.008552114,0.0106901415,0.018936822,9.995347,-113.588005,-20.659122,STD
7097885180000,0.814881,-3.44216018834019,9.10205267368369,-1.88937600582991,-0.02565634,0.0009162979,0.017104227,9.996011,-113.574936,-20.65157,STD
7097890190000,0.819891,-3.4469132487196,9.10680583332508,-1.8869994756402,-0.02076942,0.015271631,0.014660766,9.98948,-113.564476,-20.640003,STD
7097895189000,0.82489,-3.45145767397363,9.12277201638418,-1.8752090780791,-0.013744468,0.020463986,0.017104227,9.98863,-113.55167,-20.628946,STD
7097900195000,0.829896,-3.45597193581921,9.14082896949152,-1.86166629254237,-0.028710667,0.022602014,0.014049901,9.983816,-113.538895,-20.619698,STD
7097905281000,0.834982,-3.45609691790792,9.1345471790792,-1.86468220435477,-0.021685716,0.028710667,0.0143553335,9.977594,-113.52949,-20.609665,STD
7097910306000,0.840007,-3.45455937932841,9.11917179328413,-1.87390745188664,-0.020158553,0.018325957,0.015271631,9.97547,-113.518265,-20.601332,STD
7097915279000,0.84498,-3.4530377515959,9.10395551595898,-1.88303723417042,-0.019242255,0.028710667,0.009773844,9.9682455,-113.50569,-20.5921,STD
7097920276000,0.849977,-3.45150878039554,9.0886658039554,-1.89221107733793,-0.017104227,0.03176499,0.014660766,9.966871,-113.491066,-20.580965,STD
7097925316000,0.855017,-3.44996665214863,9.07324452148631,-1.90146386292214,-0.027794369,0.027794369,0.010995574,9.959264,-113.48352,-20.576038,STD
7097930299000,0.86,-3.44844196463785,9.05799764637848,-1.91061200390747,-0.020463986,0.029321533,0.014660766,9.949902,-113.475784,-20.567308,STD
7097935307000,0.865008,-3.44556893552384,9.04800049205494,-1.90911698483706,-0.02443461,0.030848695,0.01740966,9.941482,-113.466415,-20.560173,STD
7097940326000,0.870027,-3.44125383011042,9.04368529652572,-1.89617162353892,-0.022907447,0.03359759,0.018325957,9.932393,-113.45851,-20.552483,STD
7097945247000,0.874948,-3.43927186443455,9.0423024341883,-1.88782917069063,-0.026572637,0.024129177,0.016493361,9.930141,-113.4493,-20.544104,STD
7097950306000,0.880007,-3.44423260074745,9.04974369405621,-1.89278993290329,-0.032070424,0.021685716,0.02321288,9.925498,-113.43792,-20.53272,STD
7097955236000,0.884937,-3.44906684269697,9.05699520841653,-1.89762420009215,-0.02565634,0.01740966,0.02076942,9.924036,-113.429924,-20.525137,STD
7097960304000,0.890005,-3.45403640419802,9.06444970634311,-1.90259378753904,-0.01282817,0.01863139,0.01863139,9.921957,-113.42064,-20.51566,STD
7097965230000,0.894931,-3.45272933213483,9.0752331258427,-1.90428529505618,-0.01863139,0.027794369,0.02076942,9.91876,-113.40958,-20.505695,STD
7097970302000,0.900003,-3.43908508224719,9.09342536404494,-1.89973716426966,-0.023823744,0.013744468,0.017104227,9.921571,-113.40257,-20.499443,STD
7097975333000,0.905034,-3.4326486740968,9.11065686221914,-1.8930937944274,-0.022907447,0.020463986,0.020158553,9.9190855,-113.394196,-20.487566,STD
7097980300000,0.910001,-3.45148187833317,9.12478156874196,-1.87896889125012,-0.034513887,0.014966198,0.019242255,9.923835,-113.38563,-20.479618,STD
7097985289000,0.91499,-3.46523625584528,9.13392141650837,-1.86669342792264,-0.02687807,0.009162978,0.013439035,9.920987,-113.37941,-20.471024,STD
7097990296000,0.919997,-3.45695598687619,9.12150118597824,-1.86255329343809,-0.019547688,0.015577064,0.016187929,9.916507,-113.36995,-20.460148,STD
7097996312000,0.926013,-3.44911968621574,9.10644105068034,-1.85973711160521,-0.030848695,0.011301007,0.005192355,9.918198,-113.36547,-20.45856,STD
7098000283000,0.929984,-3.46411849228949,9.09519210274108,-1.87848565835141,-0.021991149,0.01038471,0.013133603,9.918227,-113.359406,-20.450493,STD
7098005241000,0.934942,-3.4828452816407,9.08114720627095,-1.90189419392625,-0.019242255,0.008552114,0.01160644,9.918208,-113.35568,-20.44792,STD
7098010280000,0.939981,-3.48397458703085,9.070880782472,-1.91173363890745,-0.021685716,0.009773844,0.0143553335,9.918225,-113.34953,-20.441938,STD
7098015252000,0.944953,-3.48163543151896,9.0615239650226,-1.91875110544311,-0.029321533,0.004581489,0.01740966,9.920567,-113.343506,-20.436909,STD
7098020316000,0.950017,-3.47925299316172,9.05199401257615,-1.92589842051484,-0.027794369,0.004276057,0.018020526,9.921849,-113.342606,-20.434944,STD
7098025289000,0.95499,-3.47691336718412,9.0426353132246,-1.93291729844763,-0.028710667,0.004886922,0.008552114,9.923884,-113.34225,-20.4353,STD
7098030303000,0.960004,-3.47981454319756,9.03363772873372,-1.94481622959269,-0.030848695,0.007941248,0.0125227375,9.926705,-113.34104,-20.430923,STD
7098035247000,0.964948,-3.48418765663619,9.02489177583818,-1.95793556990856,-0.029321533,0.004276057,0.010079277,9.930352,-113.34418,-20.43141,STD
7098040336000,0.970037,-3.48299227779003,9.03024784277549,-1.9454534667402,-0.021685716,0.009773844,0.011911872,9.929912,-113.34667,-20.428928,STD
7098045299000,0.975,-3.47822644419934,9.04454514449012,-1.91685846519603,-0.021380283,0.011911872,0.014049901,9.931413,-113.34889,-20.427515,STD
7098050308000,0.980009,-3.46505484210325,9.06140789876449,-1.90861608947419,-0.021685716,0.014049901,0.011301007,9.93591,-113.3526,-20.42455,STD
7098055285000,0.984986,-3.44679462426971,9.07966802126233,-1.91318114393257,-0.023823744,0.019547688,0.0061086523,9.938654,-113.35618,-20.421556,STD
7098060305000,0.990006,-3.44327744095395,9.09359294962993,-1.90755561140008,-0.021685716,0.018936822,0.005497787,9.943593,-113.35746,-20.417557,STD
7098065652000,0.995353,-3.45380522664474,9.10412095518092,-1.89176387789885,-0.01985312,0.015882496,0.0076358155,9.947425,-113.35899,-20.414202,STD
7098070282000,0.999983,-3.45451756274459,9.11115583081137,-1.87850198823376,-0.016187929,0.023518313,0.014049901,9.945649,-113.35659,-20.405018,STD
7098075315000,1.005016,-3.44980193193321,9.11744330573311,-1.86435509579963,-0.025350908,0.025045475,0.010995574,9.946114,-113.35458,-20.398653,STD
7098080294000,1.009995,-3.44513689600835,9.12366332115836,-1.85035998802505,-0.020463986,0.023518313,0.014660766,9.94952,-113.34833,-20.389174,STD
7098085316000,1.015017,-3.44043157156274,9.12993705433081,-1.83624401468823,-0.019242255,0.022907447,0.00580322,9.951116,-113.344444,-20.384155,STD
7098090323000,1.020024,-3.43574030125228,9.13619204875424,-1.82217020375685,-0.030543262,0.015882496,0.008552114,9.958446,-113.33725,-20.373684,STD
7098095301000,1.025002,-3.43107620226976,9.14241081492956,-1.80817790680929,-0.019242255,0.015271631,0.0106901415,9.963342,-113.33579,-20.365805,STD
7098100304000,1.030005,-3.43280420629685,9.13938898050974,-1.79613229370315,-0.01740966,0.0143553335,0.01160644,9.967635,-113.33083,-20.360092,STD
7098105284000,1.034985,-3.44233793223388,9.12508859070465,-1.78659856776612,-0.02687807,0.014966198,0.007941248,9.971379,-113.326645,-20.355232,STD
7098110299000,1.04,-3.44326930493209,9.11054822015725,-1.79004829013581,-0.024740042,0.013744468,0.0033597588,9.976592,-113.32011,-20.348392,STD
7098115278000,1.044979,-3.43353114763607,9.09594067915858,-1.80952460472787,-0.02107485,0.0067195175,0.01282817,9.983847,-113.31011,-20.33916,STD
7098120230000,1.049931,-3.43505539568014,9.09276148843237,-1.82396569712009,-0.014049901,0.004581489,-0.003970624,9.989934,-113.31066,-20.34118,STD
7098125381000,1.055082,-3.44926200894691,9.10223276173562,-1.83343677263128,-0.015271631,0.0106901415,0.014966198,9.998234,-113.29942,-20.330654,STD
7098130222000,1.059923,-3.45538267431953,9.1020095,-1.84428047704142,-0.025045475,0.009468411,0.013133603,10.005094,-113.29764,-20.330072,STD
7098135330000,1.065031,-3.45055838493097,9.08753683333333,-1.8587533452071,-0.03023783,0.004581489,0.010079277,10.012158,-113.292046,-20.324614,STD
7098140283000,1.069984,-3.45810796426144,9.07532707244829,-1.876191955084,-0.025045475,0.007941248,0.00030543262,10.011286,-113.29473,-20.326279,STD
7098145290000,1.074991,-3.48604874561523,9.06601328416044,-1.89947598817131,-0.010995574,0.008552114,0.011301007,10.013761,-113.29347,-20.323416,STD
7098150226000,1.079927,-3.50123526070826,9.06095100674536,-1.91923733929174,-0.01282817,0.00580322,0.006414085,10.013661,-113.29775,-20.327364,STD
7098155281000,1.084982,-3.48834521260318,9.06524777917813,-1.93212738739682,-0.016187929,0.014049901,0.01282817,10.011485,-113.29806,-20.324413,STD
7098160406000,1.090107,-3.47673720347228,9.06959241091534,-1.94337899305544,-0.016493361,0.005497787,0.0125227375,10.016139,-113.30648,-20.330473,STD
7098165285000,1.094986,-3.48075312158144,9.07360841289213,-1.93534715683713,-0.01863139,0.0125227375,0.004886922,10.0136595,-113.31426,-20.335348,STD
7098170239000,1.09994,-3.48483077239364,9.07768614886119,-1.92719185521272,-0.01038471,0.006414085,0.004886922,10.0112705,-113.323265,-20.338882,STD
7098175328000,1.105029,-3.49253060664207,9.08209922878229,-1.92165169667897,-0.012217305,0.005192355,0.0143553335,10.005628,-113.329834,-20.341043,STD
7098180258000,1.109959,-3.50124160738007,9.08645436531365,-1.91729619630996,-0.022296581,0.01038471,0.006414085,9.998989,-113.34047,-20.347925,STD
7098185299000,1.115,-3.50242345507703,9.088389,-1.90461040627553,-0.017104227,0.003970624,0.008552114,9.998494,-113.347885,-20.350744,STD
7098190376000,1.120077,-3.49763717623665,9.088389,-1.88546526592509,-0.009468411,0.0036651916,0.007941248,9.994105,-113.35669,-20.355747,STD
7098195386000,1.125087,-3.49291406081607,9.088389,-1.8665727795836,-0.004581489,0.00061086525,0.0106901415,9.993477,-113.36371,-20.36159,STD
7098200296000,1.129997,-3.48828521915637,9.088389,-1.84805738877787,-0.016798794,0.0012217305,0.009468411,9.991665,-113.370346,-20.368345,STD
7098205280000,1.134981,-3.48471651935899,9.08218359679497,-1.84619338384604,-0.014049901,0.00061086525,0.011911872,9.991613,-113.37789,-20.373411,STD
7098210259000,1.13996,-3.4822595251198,9.06989862559901,-1.86093534928119,-0.01160644,0.00061086525,0.011911872,9.99098645717141,-113.382018016492,-20.3767970185907,STD
7098215285000,1.144986,-3.4797793377235,9.05749768861751,-1.87581647365899,-0.00580322,0.0021380284,0.008246681,9.990354,-113.386185,-20.380215,STD
7098220274000,1.149975,-3.47731740877003,9.04518804385016,-1.89058804737981,-0.017715093,-0.006414085,0.008246681,9.987995,-113.389854,-20.38914,STD
7098225279000,1.15498,-3.47344608083637,9.03170096508531,-1.89327298083637,-0.02076942,-0.00580322,0.011911872,9.982615,-113.39564,-20.397131,STD
7098230295000,1.159996,-3.46870821430121,9.01748756336917,-1.88853511430121,-0.014966198,-0.004886922,0.01038471,9.979499,-113.402145,-20.406761,STD
7098235314000,1.165015,-3.46544023243551,9.01859383782246,-1.89481351962728,-0.01160644,-0.004886922,0.00580322,9.97442105032987,-113.408062543483,-20.411371115054,STD
7098240299000,1.17,-3.46317636919575,9.02991315402124,-1.90839672270486,-0.013439035,0.005497787,0.0070249503,9.9693775,-113.41394,-20.41595,STD
7098245304000,1.175005,-3.46090342325493,9.04127788372534,-1.92203442208365,-0.024740042,0.004276057,0.0033597588,9.962592,-113.42485,-20.425985,STD
7098250290000,1.179991,-3.45863910588012,9.05259947059939,-1.93562034997629,-0.016493361,0.011911872,0.009468411,9.952578,-113.4359,-20.43192,STD
7098255282000,1.184983,-3.46704060574663,9.06947240574663,-1.94016643770135,-0.01740966,0.007941248,0.004276057,9.945722,-113.44754,-20.442488,STD
7098260304000,1.190005,-3.49321316212451,9.09564496212451,-1.9296974151502,-0.009162978,0.010079277,-0.0033597588,9.935242,-113.46029,-20.450975,STD
7098265298000,1.194999,-3.5051112,9.1083159227174,-1.92416529342383,-0.008857546,0.0076358155,0.0061086523,9.927895,-113.46203,-20.452408,STD
7098270277000,1.199978,-3.5051112,9.10973546613676,-1.92274577964931,-0.013133603,0.0070249503,0.005497787,9.918476,-113.46849,-20.458342,STD
7098275341000,1.205042,-3.5051112,9.11117924357715,-1.92130203235986,-0.014660766,0.010079277,-0.0027488936,9.911392,-113.476265,-20.466295,STD
7098280299000,1.21,-3.5051112,9.11259279976779,-1.91988850568902,-0.007941248,0.006414085,0.0018325958,9.907402,-113.48135,-20.471048,STD
7098285375000,1.215076,-3.5051112,9.11403999848174,-1.91844133719746,-0.010995574,0.009162978,0.0030543262,9.894794,-113.4949,-20.48086,STD
7098290295000,1.219996,-3.5051112,9.11544272063946,-1.9170386443333,-0.0061086523,0.008246681,0.01038471,9.885365,-113.50729,-20.48777,STD
7098295231000,1.224932,-3.5051112,9.11685000449525,-1.91563138986633,-0.021685716,0.016187929,0.01160644,9.869668,-113.518875,-20.496763,STD
7098300296000,1.229997,-3.51272310164061,9.10760512294924,-1.91916735082031,-0.01863139,0.018325957,0.008552114,9.856515,-113.53244,-20.50498,STD
7098305309000,1.23501,-3.5219893626713,9.09602229666088,-1.92380048133565,-0.0125227375,0.017104227,0.005497787,9.842409,-113.54358,-20.51228,STD
7098310304000,1.240005,-3.53122235166956,9.08448106041305,-1.92841697583478,-0.018936822,0.0125227375,0.0067195175,9.834086,-113.548065,-20.51611,STD
7098315283000,1.244984,-3.54042576552789,9.07297679309014,-1.93301868276395,-0.016187929,0.009162978,0.0070249503,9.825745,-113.55537,-20.520844,STD
7098320929000,1.25063,-3.53971495988861,9.07108775872665,-1.93821844011139,-0.010079277,0.017715093,0.013439035,9.815865,-113.56018,-20.522903,STD
7098325421000,1.255122,-3.53558388142315,9.07315334109569,-1.94234951857685,-0.014660766,0.012217305,0.00580322,9.810501,-113.56715,-20.529661,STD
7098330301000,1.260002,-3.53109597783646,9.07539733975128,-1.94683742216354,-0.020463986,0.0143553335,0.011301007,9.803677,-113.5739,-20.534122,STD
7098335302000,1.265003,-3.52649679631248,9.07769697853747,-1.95143660368752,-0.015882496,0.0070249503,0.01038471,9.800643,-113.58467,-20.543135,STD
7098340304000,1.270005,-3.52243960127304,9.08063817331557,-1.94940979661757,-0.014966198,0.006414085,0.009162978,9.797155,-113.58975,-20.54916,STD
7098345295000,1.274996,-3.51890190541041,9.08417581992451,-1.94115516062468,-0.014660766,-0.0012217305,0.015882496,9.798477,-113.59348,-20.55388,STD
7098350286000,1.279987,-3.51536420954778,9.08771346653344,-1.93290052463178,-0.0106901415,0.005497787,0.01160644,9.79328,-113.59951,-20.55897,STD
7098355287000,1.284988,-3.51181942553475,9.09125820119409,-1.92462934959662,-0.01863139,-0.00061086525,0.01282817,9.794996,-113.60082,-20.561768,STD
7098360301000,1.290002,-3.50826542692621,9.09481215032196,-1.91633667380653,-0.025350908,-0.00580322,0.01160644,9.800234,-113.602516,-20.561956,STD
7098365289000,1.29499,-3.5047298575087,9.09834767051538,-1.90808699952631,-0.026267206,-0.013133603,0.014049901,9.808152,-113.60272,-20.56134,STD
7098370237000,1.299938,-3.50122264069277,9.10185483850196,-1.89990348141514,-0.018936822,-0.014049901,0.008552114,9.813014,-113.60805,-20.564308,STD
7098375364000,1.305065,-3.49758854598475,9.10548888261417,-1.89142391444749,-0.013744468,-0.0076358155,0.004581489,9.818024,-113.61197,-20.566217,STD
7098380297000,1.309998,-3.49148394006027,9.10349245547127,-1.89473184102671,-0.0106901415,-0.004886922,0.00580322,9.824307,-113.61661,-20.568493,STD
7098385313000,1.315014,-3.48150010366829,9.09350841057882,-1.91469956593578,-0.017104227,-0.007330383,0.009162978,9.83009,-113.621,-20.571186,STD
7098391306000,1.321007,-3.47948578344311,9.08373158967919,-1.92338570827844,-0.015882496,0.0036651916,0.007941248,9.834078,-113.62204,-20.569729,STD
7098395295000,1.324996,-3.48310629760698,9.0783008940435,-1.92157545119651,-0.014660766,0.0009162979,0.01038471,9.843214,-113.620514,-20.567387,STD
7098400290000,1.329991,-3.48763988202625,9.07150061209307,-1.91930865898687,-0.02443461,-0.0027488936,0.007941248,9.846927,-113.6191,-20.564798,STD
7098405283000,1.334984,-3.49217165119651,9.06470305297825,-1.91704277440174,-0.019547688,0.0033597588,0.01038471,9.848921,-113.61809,-20.559893,STD
7098410277000,1.339978,-3.4977915759371,9.05853038846224,-1.91648998796855,-0.016493361,0.010079277,0.009162978,9.853611,-113.61485,-20.55576,STD
7098415300000,1.345001,-3.50658738255623,9.05413239330773,-1.92088789127811,-0.014049901,0.023518313,0.0021380284,9.854118,-113.6132,-20.552004,STD
7098420329000,1.35003,-3.51344234629371,9.05091245314685,-1.9253534179021,-0.009773844,0.015882496,0.009162978,9.861286,-113.61108,-20.548174,STD
7098425316000,1.355017,-3.49802776804734,9.06118905325444,-1.93049161065089,-0.02565634,0.014660766,0.015882496,9.862056,-113.60832,-20.545267,STD
7098430264000,1.359965,-3.48691887441055,9.07596486064864,-1.93163117676836,-0.021685716,0.0027488936,0.0033597588,9.875177,-113.611465,-20.544283,STD
7098435350000,1.365051,-3.4916063544221,9.10877692705226,-1.91756873673371,-0.004581489,0.01740966,0.0021380284,9.881613,-113.609924,-20.537064,STD
7098440300000,1.370001,-3.49492131370615,9.13474028426537,-1.90670422944077,-0.015271631,0.011911872,0.0036651916,9.898858,-113.60146,-20.529425,STD
7098445296000,1.374997,-3.49046930916535,9.12361027291337,-1.91338223625198,-0.0143553335,0.010995574,0.007330383,9.910158,-113.59693,-20.520723,STD
7098450287000,1.379988,-3.48602176019354,9.11249140048385,-1.92005355970969,-0.022907447,-0.0030543262,0.0036651916,9.9269285,-113.589584,-20.514307,STD
7098455284000,1.384985,-3.48156886453894,9.10135916134735,-1.92673290319159,-0.007941248,0.005192355,0.012217305,9.937986,-113.58196,-20.502554,STD
7098460375000,1.390076,-3.47703220418722,9.09001751046804,-1.93353789371918,-0.009468411,-0.0018325958,0.010995574,9.9566145,-113.57461,-20.496656,STD
7098465314000,1.395015,-3.4702194747936,9.08017394261543,-1.934515,-0.0070249503,-0.0015271631,0.0027488936,9.970347,-113.56981,-20.489815,STD
7098470236000,1.399937,-3.46301271560493,9.07056498053205,-1.934515,-0.005497787,-0.0015271631,0.010079277,9.98683,-113.5614,-20.47977,STD
7098475341000,1.405042,-3.45553800905107,9.06059875716033,-1.934515,-0.011301007,-0.0070249503,0.007330383,10.00713,-113.55339,-20.472088,STD
7098480233000,1.409934,-3.44837517565997,9.05104836250128,-1.934515,-0.017104227,-0.009162978,0.0067195175,10.026593,-113.54365,-20.462029,STD
7098485306000,1.415007,-3.46884268074246,9.05855908932715,-1.93875345614849,-0.012217305,-0.0067195175,0.011301007,10.046045,-113.53439,-20.451782,STD
7098490292000,1.419993,-3.4919236575406,9.06779167285383,-1.94336965150812,-0.004886922,-0.0070249503,0.010995574,10.066165,-113.52649,-20.44378,STD
7098495296000,1.424997,-3.49940137287066,9.07310285173502,-1.95375923217666,-0.013744468,-0.008246681,0.009773844,10.081462,-113.51843,-20.435707,STD
7098500262000,1.429963,-3.50394762932798,9.07764896577765,-1.96512487331995,-0.005192355,0.0009162979,0.01160644,10.093581,-113.51341,-20.426643,STD
7098505290000,1.434991,-3.50855064533027,9.08225183758723,-1.97663241332569,-0.0076358155,0.0030543262,0.009773844,10.109405,-113.50996,-20.423018,STD
7098510306000,1.440007,-3.51314267561419,9.08684372402256,-1.98811248903547,-0.008857546,0.008246681,0.007941248,10.121408,-113.5076,-20.418436,STD
7098515278000,1.444979,-3.5178421682078,9.09469746815766,-1.99828413641561,-0.014660766,0.0067195175,0.009162978,10.134603,-113.50415,-20.414043,STD
7098520287000,1.449988,-3.52265313914352,9.10431961097182,-2.00790607828703,-0.02076942,0.008246681,0.0125227375,10.145128,-113.50058,-20.409304,STD
7098525309000,1.45501,-3.52747659612877,9.11396672640658,-2.01755299225755,-0.016187929,0.005192355,0.014966198,10.153637,-113.497536,-20.407572,STD
7098530355000,1.460056,-3.53232310428242,9.12365994514091,-2.02724600856484,-0.017104227,0.005192355,0.018020526,10.160832,-113.492134,-20.404587,STD
7098535313000,1.465014,-3.53076737437262,9.1236227101711,-2.03950567688213,-0.024129177,-0.0012217305,0.013439035,10.170321,-113.48806,-20.403769,STD
7098540356000,1.470057,-3.52617651863118,9.11903175855513,-2.05327824410646,-0.020463986,-0.0061086523,0.014660766,10.179694,-113.48339,-20.400545,STD
7098545294000,1.474995,-3.52184394327959,9.1098572781687,-2.05417168655919,-0.022296581,-0.0009162979,0.010079277,10.186342,-113.4806,-20.400116,STD
7098550287000,1.479988,-3.51758483911998,9.09707969885098,-2.04565347823996,-0.02321288,-0.004886922,0.013133603,10.197516,-113.47646,-20.398174,STD
7098555277000,1.484978,-3.51353484852697,9.0876202564335,-2.03524719410787,-0.022602014,-0.00580322,0.011301007,10.209265,-113.4689,-20.39489,STD
7098560306000,1.490007,-3.50989670626983,9.08519490424032,-2.02069462507932,-0.0106901415,-0.014049901,0.015882496,10.224627,-113.46084,-20.38985,STD
7098565285000,1.494986,-3.50629473563983,9.08279366570983,-2.0062867425593,-0.028710667,-0.007330383,0.01038471,10.23353,-113.45277,-20.38887,STD
7098570279000,1.49998,-3.50268191352168,9.08038519308053,-1.99183545408672,-0.020158553,-0.007330383,0.0106901415,10.247213,-113.4478,-20.386074,STD
7098575393000,1.505094,-3.49898227949841,9.07791884766077,-1.97703691799365,-0.024740042,-0.0076358155,0.0106901415,10.258306,-113.44036,-20.384672,STD
7098580296000,1.509997,-3.49543528974165,9.07555426189757,-1.96284895896661,-0.012217305,-0.009468411,0.010995574,10.269604,-113.436646,-20.383335,STD
7098585321000,1.515022,-3.49180004121469,9.0731308387974,-1.94830796485874,-0.022907447,-0.008246681,0.003970624,10.273029,-113.437454,-20.387589,STD
7098590295000,1.519996,-3.48820168774739,9.07073201163318,-1.93391455098958,-0.0125227375,-0.0070249503,0.0030543262,10.277309,-113.44134,-20.390154,STD
7098595238000,1.524939,-3.48428531613393,9.07258046296121,-1.92995505159822,-0.011301007,0.0021380284,0.008246681,10.276435,-113.44165,-20.394047,STD
7098600293000,1.529994,-3.47969357526321,9.08176365702362,-1.94373027421038,-0.023518313,-0.0021380284,0.01863139,10.279464,-113.440475,-20.39732,STD
7098605237000,1.534938,-3.47373632275921,9.08574460559932,-1.95631307724079,-0.021685716,0.00030543262,0.0143553335,10.2796135,-113.440674,-20.40188,STD
7098610322000,1.540023,-3.46336842239727,9.07537703001916,-1.96668097760273,-0.021685716,-0.006414085,0.017104227,10.284746,-113.4348,-20.402334,STD
7098615233000,1.544934,-3.45885432205422,9.07411729820166,-1.97607644410844,-0.014966198,-0.0021380284,0.02107485,10.282178,-113.435295,-20.401754,STD
7098620277000,1.549978,-3.46317617757896,9.08708268426232,-1.98472015515791,-0.017715093,0.007330383,0.015271631,10.2796,-113.4363,-20.403236,STD
7098625447000,1.555148,-3.46767470274891,9.09622464905294,-1.99110509725109,-0.022907447,0.0021380284,0.0106901415,10.279117,-113.43619,-20.402653,STD
7098630300000,1.560001,-3.47218914766391,9.08719604205925,-1.98659065233609,-0.018325957,-0.0036651916,0.013133603,10.276122,-113.436714,-20.401205,STD
7098635324000,1.565025,-3.47727427244811,9.07814288166959,-1.98105879132784,-0.020463986,0.0036651916,0.022296581,10.277748,-113.432335,-20.393751,STD
7098640305000,1.570006,-3.48586575172227,9.0716991376469,-1.96817157241659,-0.026572637,0.0027488936,0.010995574,10.282318,-113.43267,-20.392378,STD
7098646028000,1.575729,-3.4957370699086,9.06429549439416,-1.95336459513711,-0.026572637,0.0027488936,0.007941248,10.281665,-113.4346,-20.390068,STD
7098650285000,1.579986,-3.50307975757576,9.05878836363636,-1.94235056363636,-0.02107485,0.008246681,0.016798794,10.279711,-113.4362,-20.387327,STD
7098655245000,1.584946,-3.51163501499392,9.05237178657301,-1.92951767750912,-0.02687807,-0.0030543262,0.011911872,10.281772,-113.44038,-20.39027,STD
7098660298000,1.589999,-3.52107837284553,9.06605793211382,-1.91535260736789,-0.018936822,-0.0021380284,0.015882496,10.279679,-113.442696,-20.38726,STD
7098665275000,1.594976,-3.53076612357724,9.09027730894309,-1.90082093069106,-0.026267206,0.0018325958,0.01038471,10.279154,-113.445656,-20.388788,STD
7098670249000,1.59995,-3.52241332060877,9.10123129087347,-1.910901219122,-0.032070424,0.0070249503,0.0070249503,10.284311,-113.44954,-20.392132,STD
7098675367000,1.605068,-3.50517998710131,9.1061552032749,-1.93305838790999,-0.035124753,0.006414085,0.009773844,10.289562,-113.45277,-20.395582,STD
7098680307000,1.610008,-3.48854601532975,9.1109078658898,-1.95444494785775,-0.029932396,0.002443461,0.0125227375,10.295765,-113.45636,-20.40012,STD
7098685356000,1.615057,-3.47154501867497,9.11576539494701,-1.97630339748857,-0.03390302,0.005192355,0.016493361,10.30034,-113.45723,-20.403109,STD
7098690272000,1.619973,-3.46973745683475,9.11712,-1.97359862949574,-0.02443461,0.008552114,0.016493361,10.304484,-113.46326,-20.407217,STD
7098695298000,1.624999,-3.47394029436368,9.11712,-1.96099011690897,-0.03176499,0.002443461,0.018325957,10.310973,-113.4649,-20.41006,STD
7098700239000,1.62994,-3.47807205326348,9.11712,-1.94859484020956,-0.028710667,0.005192355,0.015577064,10.307167,-113.466675,-20.406384,STD
7098705284000,1.634985,-3.48229077895656,9.11712,-1.93593866313032,-0.030543262,0.0067195175,0.0143553335,10.305759,-113.46596,-20.402328,STD
7098710249000,1.63995,-3.48692706400209,9.11518108211886,-1.92736186000524,-0.031154128,0.008857546,0.015882496,10.297077,-113.47197,-20.401714,STD
7098716079000,1.64578,-3.4966718487128,9.09569161445152,-1.95172382178201,-0.03848451,0.006414085,0.017715093,10.28946,-113.47676,-20.401476,STD
7098720278000,1.649979,-3.50369043379003,9.08165451758443,-1.96927028447509,-0.025045475,0.0021380284,0.014049901,10.284488,-113.48547,-20.404554,STD
7098725314000,1.655015,-3.5133607081387,9.0746881597901,-1.9810717081387,-0.035430185,0.006414085,0.01038471,10.277941,-113.48921,-20.406683,STD
7098730244000,1.659945,-3.52307644514868,9.06983018983435,-1.99078744514868,-0.03268129,0.0106901415,0.0125227375,10.272952,-113.49586,-20.408373,STD
7098735348000,1.665049,-3.51262209446295,9.08087854344107,-1.98421399630863,-0.02565634,0.008246681,0.010079277,10.269747,-113.50677,-20.413403,STD
7098740300000,1.670001,-3.49981279034843,9.09368766921761,-1.97567446023229,-0.027488936,0.009468411,0.010079277,10.264629,-113.51537,-20.416569,STD
7098745298000,1.674999,-3.48252411391428,9.09146106073532,-1.96956962847857,-0.029626964,-0.00061086525,0.01740966,10.262861,-113.52256,-20.422064,STD
7098750289000,1.67999,-3.46310595068048,9.08175228326224,-1.96471508767012,-0.027488936,0.005192355,0.013439035,10.2554455,-113.53262,-20.429491,STD
7098755281000,1.684982,-3.46323546183653,9.07580880634406,-1.97526192367306,-0.018020526,0.016187929,0.016187929,10.249273,-113.5367,-20.430231,STD
7098760305000,1.690006,-3.47190696642336,9.07147296350365,-1.99260493284672,-0.030848695,0.0125227375,0.012217305,10.245205,-113.540474,-20.434378,STD
7098765291000,1.694992,-3.48105784186046,9.07391301744186,-1.99921407906977,-0.0290161,0.0021380284,0.0125227375,10.235053,-113.54743,-20.43606,STD
7098770244000,1.699945,-3.49073427809058,9.08358940315178,-1.99437586095471,-0.03604105,0.0015271631,0.016493361,10.223311,-113.55118,-20.437286,STD
7098775374000,1.705075,-3.50075651064871,9.09361158338433,-1.98936474467564,-0.035430185,0.0015271631,0.0125227375,10.2202233111332,-113.555172833002,-20.4393889940358,STD
7098780304000,1.710005,-3.5103880128927,9.10324303534272,-1.98454899355365,-0.028405234,0.00030543262,0.01038471,10.217256,-113.55901,-20.44141,STD
7098785806000,1.715507,-3.51620015042572,9.107543,-1.97635039829714,-0.021380283,0.0012217305,0.015271631,10.211812,-113.56191,-20.441174,STD
7098790303000,1.720004,-3.51826017480149,9.107543,-1.96811030079403,-0.026572637,-0.0070249503,0.016187929,10.204754,-113.5658,-20.447145,STD
7098795300000,1.725001,-3.52054924347077,9.107543,-1.9589540261169,-0.027794369,-0.0036651916,0.012217305,10.196194,-113.57218,-20.454426,STD
7098800295000,1.729996,-3.52283739596288,9.107543,-1.94980141614847,-0.027488936,0.00061086525,0.015577064,10.190474,-113.57584,-20.459599,STD
7098805247000,1.734948,-3.5215522105523,9.11025555168158,-1.94318760351743,-0.029626964,0.009162978,0.014966198,10.182164,-113.578674,-20.466494,STD
7098810281000,1.739982,-3.51411475124961,9.11769290743598,-1.94070845041654,-0.028405234,0.009468411,0.019242255,10.175691,-113.579895,-20.471075,STD
7098815243000,1.744944,-3.5067836680037,9.12502388861462,-1.93826475600123,-0.020463986,0.0015271631,0.013744468,10.170334,-113.5843,-20.479565,STD
7098820277000,1.749978,-3.49934620870102,9.13246124436902,-1.93578560290034,-0.030848695,-0.0061086523,0.013439035,10.165519,-113.58391,-20.485142,STD
7098825267000,1.754968,-3.49324788444621,9.13398667545076,-1.93222848444621,-0.023518313,-0.0018325958,0.015577064,10.163429,-113.58598,-20.488623,STD
7098830275000,1.759976,-3.48849648615019,9.1292356740638,-1.92747708615019,-0.031154128,0.005192355,0.019547688,10.162878,-113.5842,-20.491838,STD
7098835279000,1.76498,-3.47568350304147,9.12258727539171,-1.92288338060829,-0.032986723,0.004276057,0.0106901415,10.1612425,-113.58405,-20.495134,STD
7098840320000,1.770021,-3.453436199447,9.1136881681106,-1.9184339198894,-0.01985312,0.0012217305,0.014049901,10.159178,-113.58098,-20.49358,STD
7098845272000,1.774973,-3.43977776413234,9.10725896671304,-1.91507737264461,-0.03726278,0.008246681,0.018936822,10.146176,-113.57864,-20.497787,STD
7098850290000,1.779991,-3.44559115340229,9.1062900482671,-1.91410847443295,-0.036651913,0.0021380284,0.015271631,10.137889,-113.58181,-20.504152,STD
7098855254000,1.784955,-3.45134198328192,9.10533155660396,-1.91315000278635,-0.02565634,-0.00030543262,0.014660766,10.125223,-113.57922,-20.504246,STD
7098860194000,1.789895,-3.45706500898808,9.10437769906651,-1.91219616516865,-0.036651913,-0.006414085,0.018325957,10.115684,-113.573555,-20.504572,STD
7098865140000,1.794841,-3.46279498573762,9.10342268299764,-1.91124116904373,-0.030543262,-0.0009162979,0.016798794,10.107718,-113.5666,-20.503536,STD
7098870177000,1.799878,-3.46863038664489,9.10245009586887,-1.91026860222585,-0.032375857,-0.004276057,0.013744468,10.104323,-113.556816,-20.502748,STD
7098875171000,1.804872,-3.47441597174137,9.10148581154862,-1.90930433804311,-0.03023783,-0.0009162979,0.0125227375,10.100666,-113.54834,-20.498886,STD
7098880188000,1.809889,-3.48022820250408,9.10051708619125,-1.90833563291599,-0.02565634,0.003970624,0.02107485,10.097911,-113.53853,-20.493284,STD
7098885136000,1.814837,-3.48596049626807,9.09956168394524,-1.90738025062199,-0.03634648,0.0009162979,0.022907447,10.095989,-113.52912,-20.490206,STD
7098890232000,1.819933,-3.4918642491018,9.09857770459082,-1.90639629181637,-0.038179077,0.003970624,0.01740966,10.090809,-113.52152,-20.486225,STD
7098895148000,1.824849,-3.49393475868132,9.09636632527473,-1.91058352395604,-0.032375857,0.005497787,0.011911872,10.087043,-113.513336,-20.482098,STD
7098900203000,1.829904,-3.48930879365504,9.09174026364071,-1.92446141903488,-0.03726278,0.0027488936,0.016187929,10.083874,-113.50262,-20.476892,STD
7098905232000,1.834933,-3.48723756535002,9.08710914157215,-1.93323503464998,-0.034208454,0.0030543262,0.02076942,10.082319,-113.499214,-20.47792,STD
7098910254000,1.839955,-3.49193982283926,9.08240727688698,-1.92853277716074,-0.03573562,0.005497787,0.01985312,10.080833,-113.49497,-20.479263,STD
7098915251000,1.844952,-3.4939188120235,9.07665883771184,-1.92278407707473,-0.034513887,0.0061086523,0.01863139,10.078758,-113.4907,-20.478617,STD
7098920225000,1.849926,-3.48697931755451,9.06740598518914,-1.9135313936289,-0.028710667,0.006414085,0.022296581,10.076272,-113.48601,-20.476719,STD
7098925308000,1.855009,-3.47988775133298,9.05795036609527,-1.90407594731705,-0.042760566,0.0033597588,0.014049901,10.081872,-113.481804,-20.47512,STD
7098930244000,1.859945,-3.47300127270432,9.04876820283592,-1.89489395184286,-0.0421497,-0.0021380284,0.016493361,10.088864,-113.47697,-20.469812,STD
7098935221000,1.864922,-3.46540002082572,9.03956904320424,-1.88709889305809,-0.034513887,0.0018325958,0.019547688,10.093319,-113.473274,-20.466385,STD
7098940249000,1.86995,-3.45220524084764,9.03077279877603,-1.89149715305079,-0.027488936,0.005497787,0.01160644,10.098811,-113.471924,-20.465832,STD
7098945268000,1.874969,-3.43903407921081,9.02199229941542,-1.89588754026306,-0.02565634,0.0030543262,0.01740966,10.101187,-113.47055,-20.462818,STD
7098950243000,1.879944,-3.4428274471944,9.01184410705439,-1.9104692912224,-0.036957346,-0.004276057,0.015271631,10.102975,-113.47224,-20.464323,STD
7098955318000,1.885019,-3.44801473478261,9.00401967391304,-1.92530253478261,-0.03268129,-0.0018325958,0.012217305,10.102877,-113.475044,-20.464073,STD
7098960280000,1.889981,-3.45254563501144,9.02667417505721,-1.92983343501144,-0.03756821,0.004276057,0.017104227,10.104339,-113.471634,-20.459526,STD
7098965616000,1.895317,-3.45684276684913,9.05027422058965,-1.93470721657543,-0.04337143,0.008857546,0.015577064,10.104716,-113.47272,-20.458626,STD
7098970330000,1.900031,-3.44817186793431,9.05460976058773,-1.93904266603284,-0.029626964,0.005497787,0.013439035,10.105894,-113.47475,-20.45672,STD
7098975359000,1.90506,-3.43892156020359,9.05923501104389,-1.9436678198982,-0.03726278,0.004581489,0.01863139,10.105671,-113.4686,-20.451883,STD
7098980299000,1.91,-3.465499742711,9.06423011924553,-1.93952077621483,-0.03756821,0.004581489,0.017715093,10.105635,-113.46746,-20.449583,STD
7098985604000,1.915305,-3.49606901853368,9.06852317901005,-1.934515,-0.03970624,0.0012217305,0.022296581,10.107489,-113.462456,-20.444643,STD
7098990297000,1.919998,-3.50234143048009,9.06016000674544,-1.934515,-0.034208454,-0.0021380284,0.019547688,10.107388,-113.45925,-20.440174,STD
7098995274000,1.924975,-3.50899342158541,9.05129073157797,-1.934515,-0.035430185,-0.010995574,0.014660766,10.113074,-113.45779,-20.440216,STD
7099000296000,1.929997,-3.51570555727577,9.04234126404913,-1.934515,-0.032375857,-0.005497787,0.021380283,10.115934,-113.45551,-20.437199,STD
7099005842000,1.935543,-3.52311804324526,9.03245800102345,-1.934515,-0.017715093,-0.005192355,0.01160644,10.121559,-113.46012,-20.441034,STD
7099010291000,1.939992,-3.5242648,9.02922537851092,-1.93792217182345,-0.014660766,-0.005192355,0.013439035,10.1267299520008,-113.457339667052,-20.4388592656234,STD
7099015363000,1.945064,-3.5242648,9.02681914955169,-1.94273452924159,-0.032986723,-0.012217305,0.018020526,10.132625,-113.45417,-20.43638,STD
7099020278000,1.949979,-3.5242648,9.0244874036261,-1.94739792370337,-0.034513887,-0.004276057,0.01985312,10.138109,-113.455734,-20.434969,STD
7099025305000,1.955006,-3.5242648,9.02210252330708,-1.95216758473275,-0.029626964,0.00061086525,0.02076942,10.145858,-113.46159,-20.43766,STD
7099030297000,1.959998,-3.51814526697274,9.03665083256816,-1.9444893004591,-0.030848695,0.00061086525,0.010995574,10.1476371574494,-113.467378044727,-20.4419168026594,STD
7099035232000,1.964933,-3.50928899263562,9.05879151841094,-1.93120488895343,-0.02687807,-0.0015271631,0.005192355,10.149396,-113.4731,-20.446125,STD
7099040347000,1.970048,-3.49849020833499,9.069236,-1.92096559117384,-0.022296581,0.00061086525,0.018020526,10.152066,-113.47797,-20.44579,STD
7099045302000,1.975003,-3.48671876459615,9.069236,-1.91390270034729,-0.035124753,-0.00030543262,0.01038471,10.153637,-113.49013,-20.455732,STD
7099050291000,1.979992,-3.47486654808494,9.069236,-1.90679134568863,-0.02565634,-0.0036651916,0.0076358155,10.155816,-113.49819,-20.458105,STD
7099055279000,1.98498,-3.4630167072435,9.069236,-1.89968141643679,-0.029626964,0.006414085,0.01863139,10.154676,-113.50094,-20.457962,STD
7099060305000,1.990006,-3.45199301481951,9.06400170550982,-1.89097351481951,-0.03359759,-0.00030543262,0.018020526,10.155901,-113.507126,-20.464966,STD
7099065299000,1.995,-3.4418966375343,9.05390511737387,-1.8808771375343,-0.032986723,0.00580322,0.011301007,10.150655,-113.51206,-20.469156,STD
7099070248000,1.999949,-3.44339539800109,9.06338649500273,-1.86374960499727,-0.02443461,0.0021380284,0.010995574,10.149267,-113.51239,-20.469076,STD
7099076075000,2.005776,-3.45353605102671,9.08873812756678,-1.83839797243322,-0.025961773,0.0067195175,0.011301007,10.143286,-113.512886,-20.469784,STD
7099080295000,2.009996,-3.4541222103182,9.09693098182473,-1.83745008329214,-0.029321533,0.0018325958,0.012217305,10.143371,-113.50965,-20.469303,STD
7099085285000,2.014986,-3.44674064837813,9.09447040979302,-1.85713427415817,-0.03268129,-0.0070249503,0.0125227375,10.143269,-113.50635,-20.468851,STD
7099090298000,2.019999,-3.43932506320667,9.09199849644733,-1.87690919375965,-0.03390302,0.0015271631,0.008857546,10.14109,-113.50289,-20.469305,STD
7099095291000,2.024992,-3.43193906345381,9.08953644511379,-1.89660521880857,-0.026572637,0.0021380284,0.01282817,10.144342,-113.498314,-20.46851,STD
7099100288000,2.029989,-3.43842402740949,9.09087085868194,-1.91074821370475,-0.030848695,-0.0021380284,0.013744468,10.146304,-113.49371,-20.469273,STD
7099105283000,2.034984,-3.45699575059691,9.09551388644084,-1.92003407529846,-0.036651913,-0.0070249503,0.009468411,10.14801,-113.4904,-20.470387,STD
7099110254000,2.039955,-3.47122260464748,9.09575665153762,-1.91168236298823,-0.028405234,-0.003970624,0.015577064,10.145635,-113.485214,-20.465092,STD
7099115307000,2.045008,-3.48079277579353,9.09097146603382,-1.88297179958469,-0.03848451,-0.011301007,0.021685716,10.14764,-113.47792,-20.461866,STD
7099120242000,2.049943,-3.48178399407875,9.09256269308201,-1.85286967927563,-0.038179077,-0.010995574,0.013744468,10.146324,-113.47744,-20.463495,STD
7099125414000,2.055115,-3.47200777586105,9.10233911546432,-1.81865291551367,-0.04062254,-0.007330383,0.011911872,10.146865,-113.47231,-20.46198,STD
7099130246000,2.059947,-3.47075639051117,9.10161449677419,-1.80834448102233,-0.027488936,-0.017104227,0.022907447,10.154491,-113.46893,-20.462402,STD
7099135293000,2.064994,-3.48035125097767,9.08722240645161,-1.82753420195534,-0.03268129,-0.002443461,0.014660766,10.152332,-113.46811,-20.467014,STD
7099140251000,2.069952,-3.48781203770602,9.08066728279518,-1.84060133770602,-0.023518313,0.00030543262,0.021380283,10.160014,-113.461365,-20.463789,STD
7099145635000,2.075336,-3.49278181999036,9.08563664992771,-1.84557111999036,-0.030848695,0.0015271631,0.01985312,10.162645,-113.45596,-20.464426,STD
7099150228000,2.079929,-3.49246654857825,9.09145691549016,-1.83758622002386,-0.03145956,0.0027488936,0.021380283,10.165088,-113.45314,-20.46411,STD
7099155281000,2.084982,-3.48284404501889,9.10107962000398,-1.80390745756612,-0.03573562,-0.005497787,0.01740966,10.1695,-113.45069,-20.466236,STD
7099160280000,2.089981,-3.47901232953261,9.10359576065742,-1.78391762953261,-0.035124753,-0.003970624,0.01985312,10.171108,-113.44744,-20.465878,STD
7099165323000,2.095024,-3.48728074288649,9.09119331330252,-1.79218604288649,-0.03604105,-0.005192355,0.01282817,10.175087,-113.4469,-20.469898,STD
7099170793000,2.100494,-3.4932188028394,9.07788674179237,-1.80182905829636,-0.021991149,0.004886922,0.018020526,10.178469,-113.44221,-20.466774,STD
7099175417000,2.105118,-3.46866072653061,9.06806330612245,-1.81656390408163,-0.029321533,0.004581489,0.012217305,10.184092,-113.43915,-20.469385,STD
7099180296000,2.109997,-3.44509812288739,9.05880822319538,-1.83257313615014,-0.032070424,0.00061086525,0.014049901,10.189247,-113.4379,-20.470213,STD
7099185295000,2.114996,-3.43127490155919,9.0542003865255,-1.85100409792108,-0.04062254,0.0012217305,0.01282817,10.19253,-113.43711,-20.473232,STD
7099190295000,2.119996,-3.42092861722846,9.05309493632959,-1.86647299138577,-0.026572637,0.0012217305,0.014049901,10.196977,-113.43295,-20.4701,STD
7099195274000,2.124975,-3.43972731117682,9.08129307539917,-1.85707364441159,-0.036651913,-0.004886922,0.021991149,10.203276,-113.423195,-20.465834,STD
7099200286000,2.129987,-3.4579134675537,9.10685671811443,-1.85141190757461,-0.036957346,-0.0027488936,0.023823744,10.2041445,-113.417015,-20.460024,STD
7099205278000,2.134979,-3.46700059654058,9.09776939935373,-1.89230403545904,-0.032986723,0.0033597588,0.015577064,10.205354,-113.410866,-20.455145,STD
7099210874000,2.140575,-3.47651396558586,9.08825584553815,-1.934515,-0.038179077,0.005192355,0.0125227375,10.204351,-113.40765,-20.453075,STD
7099215291000,2.144992,-3.47784171365077,9.08692820838695,-1.934515,-0.036651913,0.00580322,0.02076942,10.202112,-113.40511,-20.449856,STD
7099220280000,2.149981,-3.47934140463919,9.08542864267554,-1.934515,-0.033292156,-0.0030543262,0.014049901,10.199571,-113.40978,-20.45313,STD
7099225297000,2.154998,-3.48084951241407,9.08392066088076,-1.934515,-0.038179077,0.005192355,0.018020526,10.192964,-113.40872,-20.450073,STD
7099230225000,2.159926,-3.48233086683198,9.0824394302081,-1.934515,-0.03726278,0.0009162979,0.013439035,10.191874,-113.41266,-20.452501,STD
7099235292000,2.164993,-3.48385400458269,9.08091641969302,-1.934515,-0.024740042,0.0009162979,0.0143553335,10.184705,-113.42022,-20.45297,STD
7099240293000,2.169994,-3.48535730276531,9.07941324708873,-1.934515,-0.028099801,-0.0030543262,0.008857546,10.179499,-113.42824,-20.456905,STD
7099245291000,2.174992,-3.50085958942238,9.07583253987348,-1.92855420423105,-0.023518313,-0.0027488936,0.0106901415,10.173711,-113.43666,-20.458195,STD
7099250286000,2.179987,-3.52566313396246,9.070871727367,-1.91863278641502,-0.029321533,-0.003970624,0.012217305,10.169383,-113.44436,-20.461315,STD
7099255275000,2.184976,-3.52506330444323,9.07216215962699,-1.9270657940757,-0.021380283,0.008552114,0.009468411,10.155069,-113.4586,-20.469185,STD
7099260298000,2.189999,-3.51186959451454,9.0765601547815,-1.94465740731395,-0.028405234,0.008857546,0.01282817,10.145536,-113.467674,-20.475416,STD
7099265286000,2.194987,-3.51490392657987,9.06902006891077,-1.94387587342013,-0.028099801,0.007330383,0.0125227375,10.135911,-113.48316,-20.486925,STD
7099270305000,2.200006,-3.53525576703715,9.04866780342966,-1.92352403296285,-0.024129177,0.01282817,0.013744468,10.124707,-113.49649,-20.496284,STD
7099275289000,2.20499,-3.53666517850565,9.03915446852749,-1.90725752010348,-0.034208454,0.008552114,0.016798794,10.111949,-113.50745,-20.503906,STD
7099280293000,2.209994,-3.52529085324219,9.03687979350612,-1.89360830603342,-0.027794369,-0.004886922,0.009162978,10.100095,-113.52307,-20.514074,STD
7099285259000,2.21496,-3.51400290375012,9.03462239219596,-1.8800627430694,-0.028710667,0.0009162979,0.014966198,10.088773,-113.53483,-20.523136,STD
7099290320000,2.220021,-3.50249901482958,9.0323218066078,-1.86625805234026,-0.022907447,-0.006414085,0.016798794,10.084963,-113.5508,-20.53659,STD
7099295402000,2.225103,-3.49651921361598,9.032898565532,-1.86085494084794,-0.02107485,-0.0027488936,0.013744468,10.072706,-113.56748,-20.550694,STD
7099300296000,2.229997,-3.49890755743987,9.03767510354668,-1.86801997231961,-0.028710667,0.005192355,0.01740966,10.062223,-113.581,-20.562155,STD
7099305248000,2.234949,-3.50132420611496,9.04250824949042,-1.87526991834488,-0.033292156,-0.005192355,0.0143553335,10.055394,-113.5933,-20.573889,STD
7099310300000,2.240001,-3.50378965625764,9.04743899531186,-1.88266626877293,-0.024129177,-0.009162978,0.023823744,10.045596,-113.601974,-20.5799,STD
7099315279000,2.24498,-3.50832310993404,9.05757650123068,-1.88877218446884,-0.028405234,-0.0143553335,0.013439035,10.044116,-113.60926,-20.589172,STD
7099320308000,2.250009,-3.51543570132913,9.07417264684454,-1.8935139368219,-0.025045475,-0.008552114,0.009773844,10.041611,-113.61465,-20.593393,STD
7099325285000,2.254986,-3.5224747483312,9.09059718785074,-1.89820665932362,-0.021380283,-0.013439035,0.013744468,10.039106,-113.62018,-20.601662,STD
7099330871000,2.260572,-3.53037511332086,9.10903148281973,-1.903473596815,-0.027488936,-0.011301007,0.01282817,10.032412,-113.62674,-20.611254,STD
7099335219000,2.26492,-3.5338416,9.11712,-1.90410741347397,-0.028710667,-0.003970624,0.017104227,10.028677,-113.63303,-20.616333,STD
7099340305000,2.270006,-3.5338416,9.11712,-1.89961074996769,-0.032986723,-0.012217305,0.020158553,10.028954,-113.6384,-20.622593,STD
7099345225000,2.274926,-3.5338416,9.11712,-1.89526085133401,-0.03268129,-0.013744468,0.02107485,10.0252695,-113.64374,-20.62741,STD
7099350283000,2.279984,-3.5338416,9.11712,-1.89078894334841,-0.03604105,-0.01160644,0.019242255,10.023045,-113.64778,-20.632269,STD
7099355396000,2.285097,-3.53308405384096,9.11686747934017,-1.88599961153413,-0.029932396,-0.015882496,0.02321288,10.022208,-113.651184,-20.636583,STD
7099360301000,2.290002,-3.52402121503585,9.11384646998296,-1.87844724586321,-0.034208454,-0.022602014,0.02107485,10.021056,-113.65458,-20.642946,STD
7099365594000,2.295295,-3.51424147889,9.11058648985498,-1.87029746574166,-0.03634648,-0.021685716,0.021991149,10.017971,-113.65617,-20.648676,STD
7099370252000,2.299953,-3.50563501545387,9.10771760879771,-1.86312541287823,-0.028099801,-0.0125227375,0.018936822,10.014094,-113.66009,-20.655815,STD
7099375628000,2.305329,-3.49570192240265,9.10440650863372,-1.85484783533554,-0.025045475,-0.021991149,0.014966198,10.015569,-113.662964,-20.663776,STD
7099380296000,2.309997,-3.48707698223094,9.10153146853597,-1.84766038519245,-0.03359759,-0.01985312,0.021380283,10.011391,-113.66342,-20.668243,STD
7099385617000,2.315318,-3.47724551122544,9.09825424309463,-1.83946749268787,-0.028405234,-0.015271631,0.015271631,10.008369,-113.6702,-20.677502,STD
7099390275000,2.319976,-3.47241961618954,9.10192726653504,-1.85855283973347,-0.036957346,-0.014966198,0.020158553,10.007126,-113.6695,-20.681814,STD
7099395234000,2.324935,-3.46773142752221,9.10661555310958,-1.88199380754689,-0.0290161,-0.009468411,0.020463986,10.002391,-113.67433,-20.688322,STD
7099400949000,2.33065,-3.46232852406713,9.11201856939783,-1.9090083530306,-0.03726278,-0.007941248,0.02687807,9.998377,-113.668976,-20.688265,STD
7099405289000,2.33499,-3.45822553176703,9.11612164738401,-1.92952333595262,-0.032375857,-0.009773844,0.02321288,9.993195,-113.66894,-20.690706,STD
7099410253000,2.339954,-3.46825028648848,9.11160834165378,-1.92624768513364,-0.025045475,-0.009162978,0.023518313,9.987526,-113.66558,-20.68994,STD
7099415321000,2.345022,-3.482545322907,9.10446067417716,-1.91552640781975,-0.030848695,-0.004581489,0.023823744,9.981053,-113.66206,-20.69,STD
7099420316000,2.350017,-3.49515855577358,9.0972143154717,-1.90597252211321,-0.036957346,-0.0070249503,0.010079277,9.979382,-113.65782,-20.686216,STD
7099425318000,2.355019,-3.49033811264403,9.08757347954717,-1.90838274367799,-0.01863139,-0.01038471,0.01985312,9.978053,-113.650314,-20.675726,STD
7099430252000,2.359953,-3.4855832013283,9.07806370656604,-1.91076019933585,-0.03756821,-0.014660766,0.013439035,9.984504,-113.64356,-20.674656,STD
7099435294000,2.364995,-3.48072421007296,9.06834577479245,-1.91318969496352,-0.019547688,-0.016187929,0.014049901,9.991994,-113.640305,-20.669127,STD
7099440321000,2.370022,-3.47490628282669,9.06015051598895,-1.91339537197,-0.021991149,-0.024740042,0.019547688,10.0025835,-113.63235,-20.664843,STD
7099445335000,2.375036,-3.46068853454402,9.06488986439005,-1.894438324773,-0.03176499,-0.013133603,0.01282817,10.006678,-113.628944,-20.662891,STD
7099450313000,2.380014,-3.44693837026022,9.06887997769517,-1.87563004052045,-0.023518313,-0.020158553,0.017104227,10.018938,-113.62373,-20.657549,STD
7099455277000,2.384978,-3.43763701334377,9.06422920211309,-1.85702732668754,-0.021991149,-0.015577064,0.0076358155,10.022809,-113.62163,-20.656734,STD
7099460427000,2.390128,-3.42813400200557,9.06014272813371,-1.83850503467038,-0.030543262,-0.0076358155,0.015271631,10.030261,-113.61387,-20.64678,STD
7099465293000,2.394994,-3.42164365259053,9.0687964821727,-1.83417813506035,-0.018325957,-0.009773844,0.019547688,10.038428,-113.61248,-20.64096,STD
7099470774000,2.400475,-3.41433300623955,9.0785439597493,-1.82930437082637,-0.02076942,-0.013133603,0.01282817,10.044603,-113.60737,-20.63514,STD
7099475715000,2.405416,-3.40774262061281,9.08733109470752,-1.82491078040854,-0.024129177,-0.008552114,0.01160644,10.049478,-113.601524,-20.626543,STD
7099480233000,2.409934,-3.40171643922006,9.09536596128134,-1.8208933261467,-0.020158553,-0.0009162979,0.014966198,10.054157,-113.59703,-20.61881,STD
7099485295000,2.414996,-3.40507455704388,9.09973542263279,-1.83197899976905,-0.022602014,-0.008246681,0.010995574,10.058798,-113.59334,-20.61596,STD
7099490297000,2.419998,-3.41244994635874,9.10219393707981,-1.84918824150372,-0.018325957,-0.007330383,0.012217305,10.059153,-113.589066,-20.609938,STD
7099495296000,2.424997,-3.41982091220939,9.10465097700795,-1.86638716182191,-0.027183503,-0.015577064,0.015577064,10.062915,-113.579926,-20.602314,STD
7099500263000,2.429964,-3.42714469444188,9.10709228873492,-1.88347598703105,-0.025961773,-0.007330383,0.01282817,10.061074,-113.57414,-20.595251,STD
7099505277000,2.434978,-3.43955442788163,9.11122895293565,-1.87188739615782,-0.026267206,-0.0018325958,0.014660766,10.060783,-113.566536,-20.588064,STD
7099510366000,2.440067,-3.45328942136214,9.11580737970878,-1.85357407151714,-0.01740966,-0.01038471,0.01160644,10.061714,-113.562416,-20.583492,STD
7099515278000,2.444979,-3.45211513191884,9.11584195628986,-1.83682153347246,-0.02443461,-0.009773844,0.008857546,10.057565,-113.55835,-20.57883,STD
7099520297000,2.449998,-3.44468464547246,9.11398429588406,-1.82010291957101,-0.025350908,-0.010079277,0.018020526,10.056777,-113.554016,-20.572191,STD
7099525316000,2.455017,-3.43725415902609,9.11212663547826,-1.80338430566957,-0.027183503,-0.005497787,0.013439035,10.055841,-113.55399,-20.572618,STD
7099530306000,2.460007,-3.42986660625314,9.11027970871498,-1.78676229264541,-0.022907447,-0.0143553335,0.0036651916,10.059273,-113.55361,-20.572632,STD
7099535333000,2.465034,-3.42242427603478,9.10841908730435,-1.77001703022609,-0.02076942,-0.014966198,0.0076358155,10.056657,-113.554375,-20.57051,STD
7099540374000,2.470075,-3.413208309758,9.0904078696331,-1.747853174395,-0.025961773,-0.018020526,0.004581489,10.056471,-113.55882,-20.573719,STD
7099545324000,2.475025,-3.40263506117988,9.05868801349392,-1.7214200529497,-0.034208454,-0.01282817,0.0070249503,10.054647,-113.56058,-20.573736,STD
7099550286000,2.479987,-3.38953764273487,9.04667234303984,-1.72106757151008,-0.018020526,-0.008552114,0.009162978,10.054702,-113.56198,-20.572996,STD
7099555299000,2.485,-3.37536887783571,9.04194932277423,-1.73051341477619,-0.02565634,-0.01282817,0.013439035,10.05605,-113.55786,-20.571169,STD
7099560295000,2.489996,-3.37433204499106,9.05039323822302,-1.74329003172332,-0.017104227,-0.0076358155,0.0036651916,10.053878,-113.56079,-20.572615,STD
7099565293000,2.494994,-3.37908908595707,9.06466451013715,-1.75756100560525,-0.01985312,-0.00580322,0.009468411,10.055186,-113.55619,-20.568989,STD
7099570278000,2.499979,-3.37429987940976,9.07554882283043,-1.78107149473069,-0.021380283,-0.0015271631,0.011911872,10.051473,-113.55483,-20.566273,STD
7099575319000,2.50502,-3.36489564276809,9.08495276487776,-1.80928425375475,-0.021991149,-0.0030543262,0.0021380284,10.048575,-113.554855,-20.565647,STD
7099580292000,2.509993,-3.37863114801947,9.09125103941968,-1.83676517790398,-0.015577064,-0.0070249503,0.0009162979,10.045044,-113.55313,-20.561493,STD
7099585299000,2.515,-3.4060918452515,9.09582792583755,-1.86422592292641,-0.018325957,-0.0033597588,0.0009162979,10.039237,-113.55216,-20.559374,STD
7099590335000,2.520036,-3.42022092825627,9.0992669554246,-1.88095689835298,-0.010995574,-0.0021380284,-0.0021380284,10.032098,-113.553474,-20.555984,STD
7099595313000,2.525014,-3.42262212249421,9.1016681998086,-1.88816050613982,-0.0143553335,-0.004886922,0.0070249503,10.02593,-113.549805,-20.549234,STD
7099600288000,2.529989,-3.42502186964843,9.10406799707867,-1.89535977266042,-0.025350908,0.0018325958,0.005192355,10.016805,-113.55396,-20.549511,STD
7099605278000,2.534979,-3.42742885222121,9.1064750299184,-1.90258074551224,-0.018936822,-0.005192355,0.0036651916,10.013326,-113.557526,-20.548117,STD
7099610243000,2.539944,-3.43242080607685,9.10623497065833,-1.90186058026512,-0.021685716,0.00030543262,0.0033597588,10.006072,-113.56006,-20.544334,STD
7099615300000,2.545001,-3.43963407351802,9.10383049796445,-1.89464728771721,-0.01740966,0.008552114,0.009773844,10.000532,-113.56296,-20.539404,STD
7099620284000,2.549985,-3.44674321429848,9.10146073488233,-1.88753812219243,-0.021380283,0.004276057,0.0012217305,9.995707,-113.56882,-20.539356,STD
7099625345000,2.555046,-3.4539621873101,9.09905436029193,-1.88031912405422,-0.0125227375,0.0021380284,0.0036651916,9.989021,-113.572464,-20.533905,STD
7099630332000,2.560033,-3.4597900056338,9.10309171830986,-1.86167726619718,-0.02565634,0.004581489,0.002443461,9.984366,-113.57254,-20.530403,STD
7099635283000,2.564984,-3.46449291545328,9.1124977343781,-1.8334598072803,-0.021685716,0.0018325958,0.003970624,9.982304,-113.574776,-20.52598,STD
7099640289000,2.56999,-3.47912332126787,9.10480067873213,-1.8097378429857,-0.01282817,0.008246681,0.004886922,9.979229,-113.578026,-20.524454,STD
7099645295000,2.574996,-3.50309165483452,9.08083234516548,-1.79056317613239,-0.02443461,0.008857546,0.0015271631,9.9785795,-113.5796,-20.524246,STD
7099650290000,2.579991,-3.5073847675163,9.06680153833235,-1.77885166375222,-0.020158553,-0.00030543262,0.002443461,9.978643,-113.584404,-20.525358,STD
7099655939000,2.58564,-3.49135058162419,9.06145669808338,-1.77350687931239,-0.023823744,0.004886922,0.010079277,9.974546,-113.58551,-20.524574,STD
7099660262000,2.589963,-3.49051019690014,9.06193534598784,-1.76260400619973,-0.017715093,0.016798794,0.015882496,9.977206,-113.589775,-20.529112,STD
7099665287000,2.594988,-3.49995171544046,9.0666562038454,-1.74372096911909,-0.024740042,0.015271631,0.01160644,9.982146,-113.592285,-20.534733,STD
7099670271000,2.599972,-3.50326846262574,9.06739322414238,-1.72971652525148,-0.028099801,0.0061086523,0.007941248,9.985184,-113.59268,-20.53632,STD
7099675358000,2.605059,-3.49907989916602,9.06320457320953,-1.72133939833204,-0.03023783,0.0027488936,0.01282817,9.987215,-113.591194,-20.536417,STD
7099680301000,2.610002,-3.49423408632633,9.06225961376958,-1.71554871367367,-0.018020526,0.009773844,0.014049901,9.996861,-113.59279,-20.536089,STD
7099685306000,2.615007,-3.48401733603325,9.08269300767345,-1.72576546396675,-0.015271631,0.003970624,0.0021380284,10.010641,-113.59497,-20.539177,STD
7099690557000,2.620258,-3.47779743087774,9.09513282699843,-1.73906852351097,-0.014966198,-0.0012217305,0.0015271631,10.023018,-113.59473,-20.538183,STD
7099695302000,2.625003,-3.48224902923197,9.08622990918887,-1.7568749169279,-0.02076942,-0.0021380284,0.0070249503,10.035355,-113.59544,-20.538961,STD
7099700251000,2.629952,-3.48687028709214,9.07698758769496,-1.7844868383504,-0.023518313,-0.00580322,0.008246681,10.0493965,-113.59195,-20.5379,STD
7099705281000,2.634982,-3.49147954017797,9.06776888900584,-1.84901647781074,-0.018020526,-0.007330383,0.010079277,10.063199,-113.587456,-20.535229,STD
7099710278000,2.639979,-3.49699492157839,9.06014585069321,-1.90724512157839,-0.021685716,0.0036651916,0.005497787,10.073267,-113.58467,-20.534525,STD
7099715284000,2.644985,-3.50977703874867,9.06440664539637,-1.92002723874867,-0.018936822,-0.0027488936,0.007941248,10.089311,-113.58147,-20.532629,STD
7099720310000,2.650011,-3.522610223107,9.06868446285105,-1.932860423107,-0.02443461,0.003970624,0.0015271631,10.093524,-113.58338,-20.532818,STD
7099726161000,2.655862,-3.54896406564886,9.06429606434024,-1.90487595343511,-0.018936822,0.0012217305,-0.0009162979,10.102759,-113.58562,-20.532284,STD
7099730262000,2.659963,-3.56843200499653,9.06040241142064,-1.88151448313671,-0.016493361,0.0076358155,0.002443461,10.107112,-113.58682,-20.531048,STD
7099735302000,2.665003,-3.54551531688287,9.06346387998133,-1.88846854129725,-0.022296581,0.0027488936,0.005497787,10.115844,-113.59036,-20.533161,STD
7099740255000,2.669956,-3.51452714857676,9.06789084041064,-1.90174919146057,-0.014660766,0.00061086525,0.002443461,10.1216135,-113.59672,-20.535545,STD
7099745300000,2.675001,-3.50344296498376,9.0809135405964,-1.88242927493357,-0.014966198,0.0076358155,0.009468411,10.128564,-113.600365,-20.54076,STD
7099750267000,2.679968,-3.5011022521799,9.09729838357445,-1.84965924679658,-0.02443461,0.011911872,0.008857546,10.136231,-113.60637,-20.549124,STD
7099755284000,2.684985,-3.49873797673457,9.11384816356658,-1.81655934118689,-0.014966198,0.014966198,0.0036651916,10.135762,-113.61248,-20.551287,STD
7099760334000,2.690035,-3.49635814994587,9.13050680198799,-1.78324171644523,-0.014966198,0.01282817,0.009162978,10.13623,-113.61337,-20.550655,STD
7099765293000,2.694994,-3.47852918075576,9.13060477115207,-1.76037238717051,-0.01740966,0.014660766,0.018325957,10.134581,-113.615456,-20.549978,STD
7099770282000,2.699983,-3.45210780460829,9.12179792165898,-1.74275813640553,-0.025350908,0.0067195175,0.016798794,10.136209,-113.61798,-20.551455,STD
7099775303000,2.705004,-3.4357254518304,9.11477180279214,-1.7357501481696,-0.017715093,0.009773844,0.013133603,10.137408,-113.61589,-20.549263,STD
7099780300000,2.710001,-3.43077661319545,9.10982286080662,-1.74069898680455,-0.02321288,0.00061086525,0.008246681,10.144355,-113.611725,-20.549118,STD
7099785290000,2.714991,-3.42601536194332,9.10258002024291,-1.76779320647773,-0.025961773,-0.0027488936,0.01038471,10.145332,-113.60145,-20.545544,STD
7099790340000,2.720041,-3.42135343404665,9.09325596973202,-1.81441253412377,-0.02321288,-0.00061086525,0.0106901415,10.14687,-113.593124,-20.544079,STD
7099795912000,2.725613,-3.42150100649899,9.08064608830549,-1.84132790649899,-0.018325957,-0.011301007,0.015271631,10.1528425,-113.58319,-20.541172,STD
7099800298000,2.729999,-3.42535669263815,9.06907919093079,-1.84518359263815,-0.028710667,-0.0030543262,0.02321288,10.15262,-113.57088,-20.536041,STD
7099805242000,2.734943,-3.4326973657289,9.05685856436488,-1.8511240771526,-0.027794369,0.0027488936,0.015271631,10.152236,-113.56652,-20.533287,STD
7099810291000,2.739992,-3.44815557007673,9.04655287958227,-1.86142954671782,-0.022907447,0.005497787,0.009773844,10.1508465,-113.55894,-20.527489,STD
7099815240000,2.744941,-3.45350153402547,9.03305370695397,-1.87679148438786,-0.028710667,0.005497787,0.009468411,10.148894,-113.55252,-20.523876,STD
7099820283000,2.749984,-3.44404104383937,9.01413282536729,-1.90044275924584,-0.018936822,0.015271631,0.014049901,10.143168,-113.54914,-20.519718,STD
7099825253000,2.754954,-3.43972879227128,9.00550845367597,-1.91867178454256,-0.027794369,0.015882496,0.005192355,10.140452,-113.54872,-20.522621,STD
7099830326000,2.760027,-3.44442235872863,9.0148957826297,-1.92805891745725,-0.02687807,0.0125227375,0.009773844,10.137185,-113.54646,-20.520126,STD
7099835280000,2.764981,-3.45160362964215,9.02662294533672,-1.93319725678595,-0.025350908,0.013133603,0.007941248,10.127514,-113.553444,-20.521248,STD
7099840322000,2.770023,-3.4652092158918,9.04476363229079,-1.9286620613694,-0.015577064,0.010079277,0.011911872,10.120777,-113.55885,-20.519823,STD
7099845305000,2.775006,-3.47664638465689,9.06045574287782,-1.92175118134417,-0.020158553,0.009162978,0.009162978,10.116726,-113.56,-20.518297,STD
7099850332000,2.780033,-3.47823012613988,9.06520690117771,-1.90274626701099,-0.026267206,0.004581489,0.004886922,10.114894,-113.561584,-20.516562,STD
7099855202000,2.784903,-3.47976440523719,9.06980967438647,-1.88433490182249,-0.025350908,0.0015271631,0.007941248,10.114497,-113.56296,-20.514915,STD
7099870191000,2.799892,-3.48448664535825,9.08397619751299,-1.8276679710606,-0.017104227,0.01038471,0.0061086523,10.116811,-113.57198,-20.511786,STD
7099875248000,2.804949,-3.4855779332584,9.08952802401144,-1.80697916210279,-0.021991149,0.00030543262,0.01282817,10.122022,-113.57724,-20.515715,STD
7099880188000,2.809889,-3.48074403196076,9.10403003075508,-1.76830790124655,-0.021991149,0.005497787,0.009773844,10.119977,-113.58753,-20.522587,STD
7099885182000,2.814883,-3.47486911982691,9.11460053304485,-1.73541757356412,-0.02565634,0.0030543262,0.013744468,10.122834,-113.58945,-20.523245,STD
7099890226000,2.819927,-3.46061694264359,9.09084690440598,-1.75442047647522,-0.02076942,0.003970624,0.014049901,10.122767,-113.59408,-20.525234,STD
7099895192000,2.824893,-3.44836067645497,9.06888085435588,-1.77230109828191,-0.021685716,0.0030543262,0.016187929,10.125957,-113.59322,-20.525202,STD
7099900205000,2.829906,-3.45780528088134,9.06415845352307,-1.78017161840716,-0.024740042,-0.005497787,0.009468411,10.1306095,-113.594864,-20.527971,STD
7099905222000,2.834923,-3.46725742139742,9.05943228456671,-1.78804841862028,-0.018936822,0.004276057,0.015271631,10.130779,-113.593544,-20.522955,STD
7099910231000,2.839932,-3.47669448973409,9.05471365185744,-1.79591265865766,-0.03023783,-0.0015271631,0.0125227375,10.137159,-113.593254,-20.5237,STD
7099915541000,2.845242,-3.48669864882127,9.0497114678514,-1.80424947530739,-0.016493361,-0.0021380284,0.02107485,10.144387,-113.59148,-20.516209,STD
7099920212000,2.849913,-3.49549891757763,9.04531124158169,-1.8115830479196,-0.02565634,0.004886922,0.02443461,10.150432,-113.58705,-20.511019,STD
7099925523000,2.855224,-3.5049209746436,9.04031479053412,-1.82073465213838,-0.022296581,0.0012217305,0.01740966,10.159593,-113.586815,-20.507269,STD
7099930232000,2.859933,-3.50063498802509,9.0360291619464,-1.84645057184946,-0.02565634,-0.0070249503,0.0143553335,10.168347,-113.58268,-20.501581,STD
7099935174000,2.864875,-3.49613693199012,9.03153148165748,-1.8734389080593,-0.016493361,0.0027488936,0.02107485,10.177417,-113.58346,-20.49779,STD
7099940304000,2.870005,-3.51237223272012,9.03513810654206,-1.83916897637973,-0.02107485,0.009162978,0.018020526,10.188965,-113.58512,-20.498419,STD
7099945224000,2.874925,-3.53091344511559,9.03977302242991,-1.79745124848992,-0.016798794,0.00061086525,0.013744468,10.202254,-113.58792,-20.497993,STD
7099950222000,2.879923,-3.54524147428088,9.05950465820643,-1.79466283164129,-0.018325957,-0.009162978,0.0106901415,10.211531,-113.59026,-20.496666,STD
7099955232000,2.884933,-3.55877224190637,9.08205578059786,-1.79917305611957,-0.008857546,-0.008552114,0.009468411,10.220004,-113.59528,-20.496044,STD
7099960299000,2.89,-3.56595420385951,9.10529901929757,-1.80720370771903,-0.0143553335,-0.003970624,0.014049901,10.234893,-113.59824,-20.499075,STD
7099965285000,2.894986,-3.57056149108452,9.12833545542262,-1.81641828216905,-0.02107485,-0.011911872,0.0125227375,10.252718,-113.60408,-20.504898,STD
7099970285000,2.899986,-3.5659427830388,9.12386076048968,-1.81649022392141,-0.017104227,-0.007330383,0.013439035,10.263738,-113.611435,-20.510082,STD
7099975354000,2.905055,-3.55635737360055,9.10469024187975,-1.81169756924672,-0.016187929,-0.0036651916,0.0076358155,10.27674,-113.61941,-20.51807,STD
7099980990000,2.910691,-3.56342156203556,9.09101535810366,-1.82044278945537,-0.01282817,-0.0018325958,0.00030543262,10.289388,-113.62681,-20.524384,STD
7099985305000,2.915006,-3.57508298043458,9.0832413768225,-1.8321041266767,-0.01160644,-0.003970624,0.008552114,10.302635,-113.63148,-20.527946,STD
7099990260000,2.919961,-3.58647803958665,9.07168449175278,-1.83637078020668,-0.01740966,-0.0125227375,0.0021380284,10.315615,-113.640656,-20.537521,STD
7099995290000,2.924991,-3.59605103322735,9.05732470141097,-1.83158428338633,-0.0143553335,-0.01038471,0.0125227375,10.32752,-113.64483,-20.539558,STD
7100000284000,2.929985,-3.59272453939004,9.05241200188138,-1.82567517016536,-0.020158553,-0.01160644,0.020463986,10.344371,-113.64972,-20.546644,STD
7100005279000,2.93498,-3.57614597661155,9.05714881889296,-1.81857009302901,-0.02687807,-0.0067195175,0.017104227,10.358512,-113.65509,-20.553488,STD
7100010245000,2.939946,-3.55966366574908,9.06185813486484,-1.81150626659075,-0.022602014,-0.018936822,0.016798794,10.377611,-113.66328,-20.562363,STD
7100015304000,2.945005,-3.54287268494901,9.06665564382612,-1.80431015343103,-0.024740042,-0.025045475,0.017715093,10.393159,-113.670074,-20.57109,STD
7100020301000,2.950002,-3.52563420216511,9.07333957036619,-1.81069894729361,-0.027794369,-0.02687807,0.014966198,10.410658,-113.678215,-20.581312,STD
7100025357000,2.955058,-3.50740195108726,9.08245541033606,-1.83348926114092,-0.027794369,-0.030543262,0.013439035,10.430458,-113.68588,-20.591335,STD
7100030294000,2.959995,-3.48830384522705,9.08919241175271,-1.84912709497477,-0.014966198,-0.027488936,0.013744468,10.452234,-113.68251,-20.59204,STD
7100035284000,2.964985,-3.46638375511951,9.09162802818409,-1.85156266054228,-0.028099801,-0.034208454,0.010995574,10.477334,-113.677,-20.594978,STD
7100040254000,2.969955,-3.44455152108455,9.09405388262576,-1.85398846432394,-0.03359759,-0.035430185,0.01160644,10.495936,-113.67126,-20.592232,STD
7100045293000,2.974994,-3.4224161835992,9.09651341593191,-1.85644794626675,-0.028099801,-0.042760566,0.0106901415,10.517737,-113.66662,-20.591654,STD
7100050781000,2.980482,-3.41403814957065,9.10266104761905,-1.85555302521468,-0.020463986,-0.031154128,0.008857546,10.536069,-113.66181,-20.588877,STD
7100055278000,2.984979,-3.42244308118657,9.1110661547619,-1.85135055940671,-0.016493361,-0.030848695,0.0106901415,10.559718,-113.65689,-20.5867,STD
7100060234000,2.989935,-3.43011635733281,9.12521778666404,-1.84994325733281,-0.013744468,-0.025350908,0.01740966,10.5732975,-113.64646,-20.575474,STD
7100065290000,2.994991,-3.43488542074264,9.14906310371319,-1.85471232074264,-0.0061086523,-0.03145956,0.0076358155,10.589008,-113.64128,-20.569418,STD
7100070232000,2.999933,-3.43563179894878,9.16256219894878,-1.85741213978976,-0.010079277,-0.019547688,0.01282817,10.601182,-113.62932,-20.556631,STD
7100075426000,3.005127,-3.42751226331494,9.15444266331494,-1.85578823266299,-0.013439035,-0.02321288,0.009468411,10.618362,-113.623375,-20.550617,STD
7100080231000,3.009932,-3.42000083306454,9.14693123306454,-1.85428594661291,-0.0143553335,-0.023823744,0.010079277,10.630908,-113.61463,-20.540794,STD
7100085397000,3.015098,-3.41192506851229,9.13885546851229,-1.85267079370246,-0.012217305,-0.01863139,0.012217305,10.642409,-113.6066,-20.531708,STD
7100090307000,3.020008,-3.40424949670595,9.13117989670595,-1.85113567934119,-0.016187929,-0.017104227,0.01282817,10.650636,-113.59867,-20.526136,STD
7100095290000,3.024991,-3.39645980743691,9.12339020743691,-1.84957774148738,-0.021685716,-0.0015271631,0.01038471,10.652856,-113.59132,-20.51991,STD
7100100248000,3.029949,-3.38882485310494,9.11848473264446,-1.844229440314,-0.01038471,-0.010079277,0.0125227375,10.659012,-113.58774,-20.515442,STD
7100105278000,3.034979,-3.3815759862811,9.12573352377608,-1.82248273891954,-0.019242255,-0.013133603,0.016493361,10.658799,-113.580864,-20.51,STD
7100110272000,3.039973,-3.37437900001505,9.13293043489165,-1.80089167992075,-0.018936822,-0.009468411,0.021380283,10.657743,-113.57422,-20.501549,STD
7100115283000,3.044984,-3.36715751459671,9.14015184490369,-1.779227123124,-0.028405234,-0.0125227375,0.016493361,10.659155,-113.56665,-20.495508,STD
7100120945000,3.050646,-3.36251402317761,9.14637737260212,-1.7621324,-0.023823744,-0.01282817,0.020463986,10.6722,-113.55101,-20.477804,STD
7100125444000,3.055145,-3.36529224306993,9.14776651155818,-1.7621324,-0.02443461,-0.019547688,0.020463986,10.687143,-113.53608,-20.463663,STD
7100130581000,3.060282,-3.36846444035529,9.14935264332463,-1.7621324,-0.029626964,-0.021380283,0.020158553,10.701533,-113.51667,-20.44671,STD
7100135309000,3.06501,-3.37138407219589,9.15081248973144,-1.7621324,-0.027794369,-0.013744468,0.02321288,10.714862,-113.49794,-20.429234,STD
7100140436000,3.070137,-3.374550094287,9.15239553383628,-1.7621324,-0.03023783,-0.014660766,0.015882496,10.730178,-113.48122,-20.415922,STD
7100145297000,3.074998,-3.37755185621111,9.15389644614244,-1.7621324,-0.02443461,-0.013744468,0.009162978,10.742482,-113.46556,-20.401573,STD
7100150613000,3.080314,-3.38093675411643,9.15413157677091,-1.76342783337415,-0.02443461,-0.008246681,0.0106901415,10.753378,-113.44907,-20.387228,STD
7100155280000,3.084981,-3.38514685762999,9.13729107479277,-1.78026846723813,-0.02687807,-0.009468411,0.01740966,10.772864,-113.4299,-20.369713,STD
7100160243000,3.089944,-3.389623982922,9.11938248012434,-1.79817720215712,-0.02443461,-0.007941248,0.019242255,10.787832,-113.41394,-20.355959,STD
7100165294000,3.094995,-3.39155007020744,9.12120135379873,-1.79907922979256,-0.02565634,-0.015271631,0.02107485,10.805784,-113.39606,-20.341442,STD
7100170280000,3.099981,-3.39308336687432,9.12580117975724,-1.79754593312568,-0.032986723,-0.013744468,0.0143553335,10.819779,-113.37994,-20.328732,STD
7100175407000,3.105108,-3.39466002391625,9.13053108502986,-1.79596927608375,-0.03145956,-0.010995574,0.01863139,10.838813,-113.36277,-20.312817,STD
7100180344000,3.110045,-3.396178252084,9.13508570612035,-1.794451047916,-0.030848695,-0.010995574,0.0125227375,10.856684,-113.34933,-20.30227,STD
7100185289000,3.11499,-3.39769894041487,9.13964770759746,-1.79293035958513,-0.028099801,-0.00061086525,0.009468411,10.870633,-113.335106,-20.289406,STD
7100190421000,3.120122,-3.39927713505876,9.14438222561171,-1.79135216494124,-0.03023783,0.0018325958,0.0027488936,10.885937,-113.32325,-20.280195,STD
7100195296000,3.124997,-3.40294736603621,9.14903103246688,-1.79404386603621,-0.02687807,-0.007941248,0.0018325958,10.901623,-113.31227,-20.270714,STD
7100200281000,3.129982,-3.40777596399312,9.15385973126327,-1.79887246399312,-0.024129177,0.00030543262,0.0012217305,10.910505,-113.30289,-20.262165,STD
7100205278000,3.134979,-3.41095107077412,9.155427,-1.81169479541886,-0.027488936,0.008246681,0.010995574,10.917438,-113.29236,-20.255451,STD
7100210291000,3.139992,-3.41333646769353,9.155427,-1.82839257385472,-0.03970624,0.010079277,0.0070249503,10.922669,-113.284836,-20.252789,STD
7100215295000,3.144996,-3.41571758203319,9.155427,-1.84506037423234,-0.030543262,0.004581489,0.0015271631,10.928123,-113.27854,-20.248362,STD
7100220286000,3.149987,-3.41809251042433,9.155427,-1.86168487297029,-0.027183503,0.003970624,0.0067195175,10.931842,-113.268364,-20.241808,STD
7100225335000,3.155036,-3.412830439343,9.14324794227259,-1.8705220803285,-0.021991149,0.007330383,0.015271631,10.935859,-113.25521,-20.236353,STD
7100230431000,3.160132,-3.40345509157622,9.12449734463548,-1.87520975421189,-0.02565634,0.007941248,0.014049901,10.940387,-113.24286,-20.2325,STD
7100235295000,3.164996,-3.40490482004316,9.11583536816177,-1.86806186492446,-0.025350908,0.014966198,0.013133603,10.939184,-113.232735,-20.22653,STD
7100240280000,3.169981,-3.4138642547809,9.11359546270057,-1.85238285413343,-0.03573562,0.007941248,0.008246681,10.941548,-113.22227,-20.222927,STD
7100245298000,3.174999,-3.4228829997185,9.11134072937975,-1.83660005049263,-0.03145956,0.008857546,0.016493361,10.939295,-113.21105,-20.21454,STD
7100250289000,3.17999,-3.43185321812893,9.10909812794407,-1.82090216827437,-0.03268129,0.008246681,0.017715093,10.938767,-113.20095,-20.210075,STD
7100255274000,3.184975,-3.44600913892997,9.10436871813832,-1.80049383671161,-0.035124753,0.007330383,0.015882496,10.936693,-113.1923,-20.20513,STD
7100260304000,3.190005,-3.4722005830361,9.09389192170509,-1.76906404908656,-0.036651913,0.005497787,0.012217305,10.934962,-113.18404,-20.200565,STD
7100265292000,3.194993,-3.4859576,9.0905618860735,-1.75038275930367,-0.02076942,0.008552114,0.015271631,10.940622,-113.17473,-20.196445,STD
7100270282000,3.199983,-3.4859576,9.09518366847195,-1.7457610734236,-0.02443461,0.01160644,0.011911872,10.945992,-113.165436,-20.195341,STD
7100275393000,3.205094,-3.4859576,9.099917522147,-1.74102731860735,-0.024129177,0.02107485,0.013744468,10.953443,-113.15995,-20.196684,STD
7100280332000,3.210033,-3.4859576,9.10449206789168,-1.73645286839458,-0.021685716,0.013439035,0.005192355,10.964063,-113.15796,-20.20267,STD
7100285259000,3.21496,-3.48556364291508,9.10793696531224,-1.73734157496284,-0.024740042,0.018020526,0.013439035,10.959636,-113.1533,-20.208107,STD
7100290291000,3.219992,-3.48434968574955,9.10915094782981,-1.74948115929415,-0.022602014,0.0076358155,0.015882496,10.961146,-113.15331,-20.218523,STD
7100295254000,3.224955,-3.48315237465803,9.11034828392574,-1.76145428271154,-0.026267206,0.0125227375,0.01160644,10.957222,-113.15102,-20.226803,STD
7100300279000,3.22998,-3.48194010622465,9.1115605776759,-1.77357697970376,-0.023823744,0.004886922,0.011911872,10.960548,-113.14821,-20.234192,STD
7100305243000,3.234944,-3.48074255388568,9.11275815502431,-1.78555251559816,-0.021991149,0.002443461,0.0067195175,10.956621,-113.14861,-20.245747,STD
7100310292000,3.239993,-3.47952449551351,9.11397623883417,-1.79773311203869,-0.017715093,0.004581489,0.006414085,10.953974,-113.148445,-20.255676,STD
7100315225000,3.244926,-3.47833442184548,9.11516633735547,-1.80963386114568,-0.03176499,0.0027488936,0.016798794,10.953635,-113.14467,-20.26406,STD
7100320278000,3.249979,-3.47711539848351,9.11638538617528,-1.82182410749427,-0.026267206,0.002443461,0.0125227375,10.951365,-113.147896,-20.276075,STD
7100325367000,3.255068,-3.47262504804298,9.1133641696086,-1.83292585195702,-0.02107485,-0.0021380284,0.011911872,10.956203,-113.1455,-20.281387,STD
7100330331000,3.260032,-3.46350393614735,9.10424286722947,-1.84204696385265,-0.02107485,0.011911872,0.011301007,10.955237,-113.14431,-20.286694,STD
7100335222000,3.264923,-3.45995286907863,9.09932886300048,-1.84877797817977,-0.029321533,0.0033597588,0.01038471,10.957408,-113.14279,-20.292154,STD
7100340390000,3.270091,-3.46950287436565,9.10410396536421,-1.85036964572761,-0.02107485,0.0012217305,0.010995574,10.953576,-113.14329,-20.296028,STD
7100345231000,3.274932,-3.47844861267728,9.10857692793054,-1.85186060211288,-0.01863139,0.010995574,0.008246681,10.944677,-113.14448,-20.300947,STD
7100350287000,3.279988,-3.48779165190545,9.11324854510372,-1.85341777531758,-0.018020526,0.0036651916,0.006414085,10.941731,-113.14611,-20.306337,STD
7100355512000,3.285213,-3.49744698813314,9.11807631403763,-1.85502699802219,-0.013133603,0.0076358155,0.004886922,10.930548,-113.15171,-20.312084,STD
7100360297000,3.289998,-3.50628924341534,9.12249753400868,-1.85650070723589,-0.019547688,0.0125227375,0.00580322,10.921504,-113.155525,-20.317768,STD
7100365245000,3.294946,-3.51399241553573,9.12565360151392,-1.85859608446427,-0.019242255,0.0125227375,0.01282817,10.9180775843687,-113.158517102204,-20.3208602521042,STD
7100370277000,3.299978,-3.50530710282058,9.11262536036767,-1.86728139717942,-0.015577064,0.0067195175,0.0067195175,10.914593,-113.16156,-20.324005,STD
7100376175000,3.305876,-3.49495670771066,9.09758088387152,-1.87609127951776,-0.021380283,0.0036651916,0.010995574,10.9058695,-113.16414,-20.32836,STD
7100380286000,3.309987,-3.48489360177217,9.09087235673511,-1.85931943628696,-0.016798794,0.0027488936,0.0125227375,10.900587,-113.172104,-20.336945,STD
7100385220000,3.314921,-3.47281591636704,9.08282081869302,-1.83918996061174,-0.023823744,0.005497787,0.018325957,10.896737,-113.17505,-20.34043,STD
7100390291000,3.319992,-3.46156042127303,9.06570405318258,-1.82130473190955,-0.03268129,0.010079277,0.011911872,10.892073,-113.18091,-20.346718,STD
7100395305000,3.325006,-3.45150638542714,9.04056896356784,-1.8062236781407,-0.030543262,0.010995574,0.011911872,10.888498,-113.1841,-20.34951,STD
7100400293000,3.329994,-3.44950372062129,9.03834224378078,-1.8004397,-0.034513887,0.012217305,0.014966198,10.88369,-113.18396,-20.351639,STD
7100405274000,3.334975,-3.452515593383,9.05038967192827,-1.8004397,-0.032070424,0.011911872,0.009773844,10.878667,-113.18698,-20.355982,STD
7100410414000,3.340115,-3.45562360904155,9.06282166965526,-1.8004397,-0.024740042,0.015271631,0.014966198,10.874383,-113.18556,-20.35593,STD
7100415284000,3.344985,-3.45856836317717,9.07460062470009,-1.8004397,-0.024129177,0.0143553335,0.0106901415,10.870659,-113.18724,-20.360125,STD
7100420277000,3.349978,-3.46158749200657,9.08667707696679,-1.8004397,-0.025350908,0.017715093,0.013439035,10.865457,-113.18654,-20.360378,STD
7100425306000,3.355007,-3.46462838903902,9.09884060159111,-1.8004397,-0.021380283,0.011301007,-0.002443461,10.862164,-113.19235,-20.367558,STD
7100430226000,3.359927,-3.47070234638202,9.10624352406856,-1.80303859758801,-0.016798794,0.018936822,0.00580322,10.855361,-113.19123,-20.366116,STD
7100435297000,3.364998,-3.48565583692908,9.10125892312429,-1.81300759128605,-0.020158553,0.018020526,0.0125227375,10.852114,-113.19383,-20.370205,STD
7100440291000,3.369992,-3.48943847155164,9.09644198606137,-1.82264126422418,-0.016798794,0.0125227375,0.007330383,10.847941,-113.201096,-20.374044,STD
7100446010000,3.375711,-3.46823250148098,9.09114038282838,-1.83324424925951,-0.018020526,0.007941248,0.00580322,10.844514,-113.20451,-20.374916,STD
7100450261000,3.379962,-3.45834623774135,9.09174618333333,-1.83986593774135,-0.01985312,0.013744468,0.013133603,10.84093,-113.20968,-20.37678,STD
7100455278000,3.384979,-3.4627220852459,9.104874,-1.8442417852459,-0.010995574,0.011911872,0.0125227375,10.840536,-113.21828,-20.381859,STD
7100460254000,3.389955,-3.46705739526236,9.11661319889157,-1.84756351421293,-0.01985312,0.01740966,0.011911872,10.836915,-113.221016,-20.379177,STD
7100465253000,3.394954,-3.47133686457495,9.1080540815232,-1.83472510627514,-0.022296581,0.0061086523,0.0106901415,10.838883,-113.22594,-20.377964,STD
7100470274000,3.399975,-3.47563516731921,9.09945729650487,-1.82183019804237,-0.021685716,0.008857546,0.012217305,10.8350115,-113.22935,-20.374931,STD
7100475458000,3.405159,-3.48050364657384,9.09590453366272,-1.81753187671308,-0.018325957,0.00061086525,0.005497787,10.837288,-113.23508,-20.375883,STD
7100480278000,3.409979,-3.48511114031043,9.09360073868343,-1.81522812984479,-0.02321288,0.0070249503,0.008552114,10.835072,-113.23681,-20.37274,STD
7100485288000,3.414989,-3.4899002572441,9.09120613020911,-1.81283357137795,-0.013744468,-0.00061086525,0.006414085,10.833932,-113.24708,-20.38004,STD
7100490327000,3.420028,-3.49471709561312,9.08879766072765,-1.81042515219344,-0.015577064,-0.00061086525,0.007330383,10.8311159401479,-113.250760564548,-20.382828367506,STD
7100495296000,3.424997,-3.49355166359016,9.09235455563384,-1.81596470922953,-0.014966198,0.0012217305,0.0036651916,10.828339,-113.25439,-20.385578,STD
7100500228000,3.429929,-3.49117469325147,9.09710859559157,-1.82309562024558,-0.015271631,0.0021380284,0.01038471,10.825889,-113.26098,-20.389374,STD
7100505279000,3.43498,-3.48874037103316,9.10197734170399,-1.83039858690051,-0.0106901415,-0.0070249503,0.009162978,10.826829,-113.27188,-20.398401,STD
7100510231000,3.439932,-3.48635376172311,9.10675066000704,-1.83755841483066,-0.015882496,-0.004581489,0.0106901415,10.824713,-113.278786,-20.403889,STD
7100515625000,3.445326,-3.48160108742849,9.09883002034725,-1.82567736228546,-0.011301007,-0.004886922,0.013744468,10.826264,-113.2873,-20.409811,STD
7100520280000,3.449981,-3.4771654868116,9.08995886542958,-1.8123705604348,-0.017104227,-0.010995574,0.014660766,10.828857,-113.29365,-20.415941,STD
7100525306000,3.455007,-3.47237637216059,9.08038068613502,-1.79800321648177,-0.01282817,-0.007330383,0.01282817,10.827213,-113.3016,-20.41945,STD
7100530231000,3.459932,-3.46768349717925,9.07099498517487,-1.78392459153773,-0.02107485,-0.007330383,0.01282817,10.828705,-113.30621,-20.42269,STD
7100535291000,3.464992,-3.47071662310883,9.08097370590559,-1.77737343603595,-0.018020526,-0.014966198,0.01282817,10.831342,-113.313194,-20.426592,STD
7100540377000,3.470078,-3.4755267756666,9.09540396267035,-1.77256323325104,-0.018325957,-0.023518313,0.015882496,10.834496,-113.31768,-20.429611,STD
7100545244000,3.474945,-3.47820952176887,9.09979475995954,-1.77902410617082,-0.02076942,-0.021991149,0.01038471,10.837799,-113.32328,-20.435106,STD
7100550269000,3.47997,-3.48052771725035,9.10211300385375,-1.7882969123031,-0.01282817,-0.0143553335,0.01160644,10.842371,-113.327705,-20.437965,STD
7100555280000,3.484981,-3.48283945407775,9.104424788959,-1.79754388375163,-0.018325957,-0.014660766,0.007330383,10.846643,-113.332794,-20.44551,STD
7100560295000,3.489996,-3.48515303623489,9.10673841943253,-1.80679823653837,-0.019547688,-0.016187929,0.009162978,10.849473,-113.33753,-20.450506,STD
7100565292000,3.494993,-3.47622623898376,9.10429914525198,-1.81326028700541,-0.01985312,-0.013744468,0.010079277,10.852607,-113.34203,-20.455559,STD
7100570306000,3.500007,-3.46122684023324,9.09929924125364,-1.81826008658892,-0.019242255,-0.004886922,0.0143553335,10.854578,-113.34511,-20.45878,STD
7100575299000,3.505,-3.4642140357795,9.10495279930157,-1.82308671788975,-0.017715093,-0.0021380284,0.016187929,10.856662,-113.34947,-20.46256,STD
7100580329000,3.51003,-3.47382666815665,9.11456538149164,-1.82789303407832,-0.013744468,-0.0021380284,0.0070249503,10.856544,-113.35584,-20.467812,STD
7100585292000,3.514993,-3.48331125950611,9.12404992332252,-1.83263532975306,-0.008552114,0.0018325958,0.009773844,10.851948,-113.36037,-20.467453,STD
7100590449000,3.52015,-3.49316659651783,9.13390520888002,-1.83756299825892,-0.016187929,0.006414085,0.015577064,10.84695,-113.36499,-20.468672,STD
7100595298000,3.524999,-3.48725917188951,9.131307932261,-1.83047167188951,-0.02107485,0.006414085,0.01282817,10.845445,-113.36734,-20.469534,STD
7100600281000,3.529982,-3.47583660632869,9.12445448834315,-1.81904910632869,-0.027488936,0.005497787,0.015271631,10.843551,-113.36565,-20.467133,STD
7100605279000,3.53498,-3.46437965616353,9.11758041394993,-1.80759215616353,-0.011301007,0.0015271631,0.0070249503,10.847365,-113.36726,-20.467705,STD
7100610263000,3.539964,-3.45295479829575,9.11072559466705,-1.79616729829575,-0.027183503,0.0015271631,0.0076358155,10.850853,-113.36096,-20.465021,STD
7100615283000,3.544984,-3.43706536138058,9.10225037016236,-1.79350915965486,-0.01985312,-0.002443461,0.004276057,10.849495,-113.36597,-20.470215,STD
7100620286000,3.549987,-3.41749516617992,9.09246506821199,-1.79840170845502,-0.01282817,-0.0009162979,0.004581489,10.846799,-113.36766,-20.473753,STD
7100625302000,3.555003,-3.4093432,9.09116724913426,-1.80414395482009,-0.014660766,-0.004276057,0.005497787,10.846131,-113.366684,-20.47597,STD
7100630291000,3.559992,-3.4093432,9.09589463144355,-1.81044699960094,-0.015577064,-0.00061086525,0.011301007,10.843264,-113.36545,-20.476152,STD
7100635287000,3.564988,-3.4093432,9.10062864668052,-1.81675888810066,-0.020158553,0.00061086525,0.013744468,10.839991,-113.362206,-20.474594,STD
7100640411000,3.570112,-3.4093432,9.10548394973781,-1.82323249031694,-0.023823744,0.005192355,0.0061086523,10.834378,-113.36011,-20.473854,STD
7100645311000,3.575012,-3.4093432,9.11012699910953,-1.82942309352924,-0.015577064,0.004276057,0.01282817,10.839064,-113.35001,-20.463877,STD
7100650302000,3.580003,-3.4093432,9.11485627654101,-1.8357286650869,-0.026267206,-0.0018325958,0.014966198,10.843069,-113.34019,-20.457535,STD
7100655235000,3.584936,-3.41391590630631,9.12169256306306,-1.83646054684685,-0.016493361,0.006414085,0.0143553335,10.842692,-113.33462,-20.449759,STD
7100660293000,3.589994,-3.4230073954955,9.13078376745495,-1.83191480225225,-0.017104227,-0.00061086525,0.008857546,10.848389,-113.32718,-20.444216,STD
7100665249000,3.59495,-3.43029502040575,9.13537396490449,-1.8291701,-0.01282817,0.0067195175,0.002443461,10.84549,-113.32205,-20.436707,STD
7100670280000,3.599981,-3.43505151192063,9.13299591781431,-1.8291701,-0.021685716,0.004886922,-0.0027488936,10.847092,-113.31632,-20.431522,STD
7100675293000,3.604994,-3.43979098557678,9.13062637894269,-1.8291701,-0.014966198,0.007330383,0.015577064,10.847271,-113.30964,-20.422148,STD
7100680295000,3.609996,-3.44452005943038,9.12826203953798,-1.8291701,-0.0143553335,0.009468411,0.009468411,10.84626,-113.308495,-20.421274,STD
7100685224000,3.614925,-3.45503542640358,9.12226589162139,-1.82769309471928,-0.0143553335,0.016493361,0.011301007,10.841731,-113.303894,-20.414501,STD
7100690385000,3.620086,-3.47859174362787,9.10813180611953,-1.82298183127443,-0.01740966,0.01160644,0.01038471,10.839619,-113.30123,-20.410852,STD
7100695263000,3.624964,-3.49118986199786,9.10013831436631,-1.8163348964984,-0.016798794,0.01038471,0.006414085,10.835386,-113.30096,-20.40886,STD
7100700862000,3.630563,-3.47032788234608,9.11056952203093,-1.80068841175956,-0.015882496,0.014966198,0.0076358155,10.831168,-113.29926,-20.405659,STD
7100705272000,3.634973,-3.45637766048819,9.11542088549315,-1.78831427259377,-0.017104227,0.013439035,0.009773844,10.829095,-113.303314,-20.41046,STD
7100710282000,3.639983,-3.45161681825759,9.10589900218297,-1.77403169618972,-0.019547688,-0.00061086525,0.0125227375,10.82963,-113.30671,-20.415037,STD
7100715274000,3.644975,-3.44565993102397,9.09464855170661,-1.76014193102397,-0.01282817,-0.0076358155,0.013133603,10.830375,-113.30619,-20.413996,STD
7100720279000,3.64998,-3.4334810835606,9.074350472601,-1.7479630835606,-0.020158553,-0.0076358155,0.0061086523,10.832859,-113.304756,-20.414782,STD
7100725326000,3.655027,-3.42120003597866,9.05388205996443,-1.73568203597866,-0.016798794,-0.018020526,0.007941248,10.841733,-113.30285,-20.414114,STD
7100730291000,3.659992,-3.42257990041746,9.06472152523719,-1.74438170125237,-0.022296581,-0.005497787,0.003970624,10.8428755,-113.30206,-20.415747,STD
7100735336000,3.665037,-3.42716386208729,9.08305727618596,-1.75813358626186,-0.013744468,-0.0018325958,0.016187929,10.8507395,-113.299164,-20.413456,STD
7100740294000,3.669995,-3.4316672702513,9.09790060938834,-1.76847337360835,-0.02321288,-0.0030543262,0.0106901415,10.85502,-113.297646,-20.416203,STD
7100745271000,3.674972,-3.43618730188715,9.11146098748222,-1.77751348407776,-0.022602014,-0.0015271631,0.0106901415,10.858362,-113.2943,-20.41371,STD
7100750288000,3.679989,-3.43663985970058,9.11568622975863,-1.77985234472961,-0.015577064,0.00030543262,0.008552114,10.855313,-113.293625,-20.416044,STD
7100755283000,3.684984,-3.43420396419187,9.11325028337916,-1.77741642378552,-0.022602014,-0.0067195175,0.015882496,10.855063,-113.28879,-20.416042,STD
7100760253000,3.689954,-3.43178026035238,9.11082652892351,-1.77499269463795,-0.02565634,0.00061086525,0.006414085,10.848375,-113.29031,-20.42004,STD
7100765307000,3.695008,-3.42931559250433,9.10836180960383,-1.77252800105408,-0.024129177,0.0061086523,0.016493361,10.84596,-113.2848,-20.416962,STD
7100770922000,3.700623,-3.42123463165398,9.10572741999807,-1.78260247147674,-0.027794369,0.008552114,0.007330383,10.836146,-113.289925,-20.424112,STD
7100775309000,3.70501,-3.41314033985165,9.10370380478759,-1.79474393031018,-0.030543262,0.007330383,0.008552114,10.827199,-113.29009,-20.42527,STD
7100780295000,3.709996,-3.40394085525479,9.10140388560832,-1.8085431812205,-0.023518313,-0.002443461,0.005192355,10.820554,-113.29041,-20.429565,STD
7100785295000,3.714996,-3.39471553977459,9.09909750857336,-1.82238117852326,-0.03023783,0.004886922,0.0143553335,10.81011,-113.28503,-20.428919,STD
7100790330000,3.720031,-3.39576042434424,9.09876184866918,-1.83076176409836,-0.032070424,0.0070249503,0.008552114,10.805779,-113.28304,-20.432606,STD
7100795280000,3.724981,-3.40644035482604,9.10028758488623,-1.83381317280744,-0.02565634,0.014966198,0.005497787,10.798253,-113.278404,-20.432146,STD
7100800236000,3.729937,-3.41713323067812,9.10181517048051,-1.83686828019375,-0.021685716,0.011301007,0.011301007,10.790091,-113.27107,-20.427683,STD
7100805257000,3.734958,-3.42796634804158,9.10336279099482,-1.83996345658331,-0.023823744,0.01160644,0.007941248,10.777772,-113.26693,-20.425919,STD
7100810309000,3.74001,-3.43886634981816,9.10491996662483,-1.84307774280519,-0.020158553,0.01038471,0.0070249503,10.767613,-113.2621,-20.42213,STD
7100815293000,3.744994,-3.44961963739822,9.1064561826462,-1.8461501106852,-0.028710667,0.009468411,0.007941248,10.757302,-113.25578,-20.418703,STD
7100820275000,3.749976,-3.45592220975199,9.11145791623772,-1.84049375851193,-0.023518313,0.019547688,0.014049901,10.744441,-113.250786,-20.413498,STD
7100825329000,3.75503,-3.45139238783341,9.12504719279364,-1.81331482700047,-0.02107485,0.01863139,0.01038471,10.73472,-113.2466,-20.411423,STD
7100830322000,3.760023,-3.44836444816334,9.13555901148482,-1.79157694816334,-0.020463986,0.015882496,0.014660766,10.7262,-113.243904,-20.409891,STD
7100835294000,3.764995,-3.45270460399234,9.13121921821165,-1.79591710399234,-0.029321533,0.01985312,0.008857546,10.715263,-113.243706,-20.41178,STD
7100840845000,3.770546,-3.45691206161508,9.12480616310921,-1.80012456161508,-0.021685716,0.016187929,0.01160644,10.7093115,-113.240234,-20.40971,STD
7100845309000,3.77501,-3.45310995958734,9.10199347154038,-1.79632245958734,-0.025961773,0.0143553335,0.0106901415,10.701156,-113.23642,-20.409874,STD
7100850244000,3.779945,-3.44890669491284,9.07677379571327,-1.79211919491284,-0.027183503,0.0106901415,0.005497787,10.696045,-113.2383,-20.410686,STD
7100855200000,3.784901,-3.45109606829974,9.0640673896124,-1.78914006585013,-0.017715093,0.01282817,0.011301007,10.690443,-113.23842,-20.408407,STD
7100860175000,3.789876,-3.45602057269251,9.05668047875969,-1.78667781365375,-0.02443461,0.017715093,0.015577064,10.684802,-113.23783,-20.40799,STD
7100865207000,3.794908,-3.46100149854264,9.04920893395349,-1.78418735072868,-0.03268129,0.022602014,0.008246681,10.678115,-113.24104,-20.410704,STD
7100870153000,3.799854,-3.46589729728165,9.04186508248062,-1.78173945135917,-0.03176499,0.023518313,0.014660766,10.672391,-113.239944,-20.4082,STD
7100875220000,3.804921,-3.48663305865922,9.032573625,-1.78921772346369,-0.03940081,0.013439035,0.01740966,10.667933,-113.239296,-20.40908,STD
7100880167000,3.809868,-3.51026455786113,9.02312132142857,-1.79867032314445,-0.03023783,0.017715093,0.015271631,10.659414,-113.24056,-20.408604,STD
7100885206000,3.814907,-3.51851072694099,9.01752919322593,-1.81573060776398,-0.026572637,0.01160644,0.020463986,10.659351,-113.239525,-20.40894,STD
7100890210000,3.819911,-3.52316157197205,9.01287825106755,-1.8343339878882,-0.027183503,0.0125227375,0.012217305,10.655042,-113.24301,-20.412928,STD
7100895208000,3.824909,-3.52775635121018,9.01875824825409,-1.84573000242036,-0.030848695,0.0106901415,0.0106901415,10.660675,-113.24312,-20.41572,STD
7100900202000,3.829903,-3.53233174001722,9.0279092169712,-1.85488078003444,-0.026572637,0.008857546,0.013133603,10.66573,-113.24527,-20.419577,STD
7100905257000,3.834958,-3.53056732427496,9.05057438083291,-1.85462622427496,-0.03573562,0.013439035,0.009162978,10.668259,-113.24863,-20.425882,STD
7100910288000,3.839989,-3.5257323136578,9.07958404064225,-1.8497912136578,-0.03176499,0.014049901,0.014660766,10.673192,-113.251236,-20.429085,STD
7100915259000,3.84496,-3.53452161534156,9.09180800984762,-1.83122900776407,-0.025045475,0.01282817,0.011301007,10.6733265,-113.26233,-20.436924,STD
7100920235000,3.849936,-3.54934098617187,9.096747903286,-1.80653005638022,-0.025961773,0.0015271631,0.0070249503,10.676657,-113.27152,-20.443888,STD
7100925281000,3.854982,-3.54945637085631,9.10504380609579,-1.81813384571843,-0.032070424,-0.00030543262,0.011301007,10.676984,-113.276886,-20.44648,STD
7100930279000,3.85998,-3.54482503593614,9.11430666937591,-1.8412905203193,-0.028099801,-0.008857546,0.009162978,10.682114,-113.285965,-20.452988,STD
7100935250000,3.864951,-3.53698542842136,9.11068689407645,-1.85475667157864,-0.007941248,-0.00580322,0.00580322,10.6917,-113.292854,-20.45818,STD
7100940283000,3.869984,-3.52760890193561,9.10131017177317,-1.86413319806439,-0.016187929,-0.007330383,0.011911872,10.705503,-113.2946,-20.462036,STD
7100945248000,3.874949,-3.51827811966082,9.08599270183396,-1.85849727949122,-0.017104227,-0.008246681,0.010079277,10.713008,-113.30773,-20.467783,STD
7100950243000,3.879944,-3.50884484890554,9.06712625882469,-1.84434737335831,-0.01282817,-0.0070249503,0.007330383,10.720618,-113.31889,-20.47205,STD
7100955245000,3.884946,-3.49633069282683,9.06843938492625,-1.85338107862194,-0.014049901,-0.0015271631,0.011911872,10.726179,-113.32712,-20.473337,STD
7100960280000,3.889981,-3.48171586518489,9.08305400909275,-1.87773912469186,-0.016798794,0.0015271631,0.009468411,10.731526,-113.3379,-20.477436,STD
7100965301000,3.895002,-3.48545941244912,9.09444153469671,-1.89268333989874,-0.030543262,0.0033597588,0.009162978,10.739492,-113.34319,-20.477486,STD
7100970279000,3.89998,-3.49965775764916,9.10390729584037,-1.90214895278467,-0.03359759,0.0018325958,0.011911872,10.747544,-113.34922,-20.477467,STD
7100975302000,3.905003,-3.50364707769424,9.10607884711779,-1.91017696691729,-0.02443461,0.0033597588,0.009773844,10.752022,-113.35344,-20.473904,STD
7100980291000,3.909992,-3.50129911685095,9.10373083724016,-1.91722084944715,-0.03145956,-0.00030543262,0.0106901415,10.758781,-113.353584,-20.469305,STD
7100985288000,3.914989,-3.49894739098727,9.1013790622635,-1.92427602703818,-0.022296581,0.0067195175,0.01282817,10.762369,-113.35896,-20.465984,STD
7100990511000,3.920212,-3.49648930329746,9.09892092323947,-1.93165029010762,-0.023518313,-0.004581489,0.007330383,10.7720585,-113.36363,-20.465965,STD
7100995315000,3.925016,-3.4910024047749,9.08663601193724,-1.93224900238745,-0.023518313,0.00580322,0.017104227,10.773758,-113.3658,-20.459793,STD
7101000293000,3.929994,-3.48287257694407,9.06631144236016,-1.92818408847203,-0.026267206,0.004886922,0.0106901415,10.7808485,-113.37278,-20.461124,STD
7101005243000,3.934944,-3.4784248849387,9.05110406381348,-1.91982797698117,-0.0290161,0.0030543262,0.015271631,10.787134,-113.368965,-20.454489,STD
7101010279000,3.93998,-3.48898284570928,9.05638315444396,-1.89343301993214,-0.03145956,-0.0018325958,0.01985312,10.794113,-113.366516,-20.450043,STD
7101015237000,3.944938,-3.49723886396738,9.05795450043694,-1.87875856396738,-0.0290161,-0.004886922,0.014049901,10.802645,-113.362465,-20.446281,STD
7101020305000,3.950006,-3.50195147901738,9.05324178696961,-1.88347117901738,-0.027794369,-0.0021380284,0.01985312,10.811644,-113.354126,-20.438192,STD
7101025300000,3.955001,-3.51119721257461,9.04856046508158,-1.88358789371269,-0.0290161,-0.0021380284,0.013133603,10.823434,-113.35095,-20.43769,STD
7101030295000,3.959996,-3.53023267457222,9.04380150019897,-1.87407016271389,-0.01985312,-0.003970624,0.01863139,10.835789,-113.34507,-20.432297,STD
7101035230000,3.964931,-3.55162155282617,9.03777071089818,-1.86884448737902,-0.025350908,-0.0033597588,0.004581489,10.842984,-113.347466,-20.436895,STD
7101040282000,3.969983,-3.57971804643825,9.02840553900503,-1.87352722001549,-0.016798794,-0.004581489,0.009773844,10.85263,-113.346855,-20.434872,STD
7101045248000,3.974949,-3.603107700977,9.0219090868781,-1.87649702475575,-0.015577064,-0.0061086523,0.004581489,10.863286,-113.35321,-20.443306,STD
7101050284000,3.979985,-3.61277326835012,9.02432552918483,-1.87408063291247,-0.02076942,-0.0036651916,0.0125227375,10.8741045,-113.3552,-20.446404,STD
7101055283000,3.984984,-3.62236782182474,9.02672421764617,-1.87168199454382,-0.016798794,-0.008857546,0.01282817,10.88206,-113.37089,-20.463219,STD
7101060267000,3.989968,-3.63193358588106,9.02911570860264,-1.86929055352974,-0.017104227,-0.012217305,0.008552114,10.8889675,-113.384155,-20.478535,STD
7101065306000,3.995007,-3.63802933827563,9.02977171410761,-1.86400551482689,-0.0143553335,-0.012217305,0.0143553335,10.896071,-113.39596,-20.491362,STD
7101070283000,3.999984,-3.63345815446437,9.02520043483265,-1.85029196339311,-0.023823744,-0.019547688,0.008857546,10.905454,-113.4097,-20.508835,STD
7101075443000,4.005144,-3.63130806252285,9.02050285100548,-1.83619950621572,-0.021685716,-0.028405234,0.014660766,10.922387,-113.41781,-20.522131,STD
7101080397000,4.010098,-3.63998145689214,9.01616606325411,-1.82318941466179,-0.023823744,-0.033292156,0.01863139,10.939722,-113.42583,-20.537376,STD
7101085621000,4.015322,-3.65039001982489,9.01204609921517,-1.81055870597922,-0.02107485,-0.048258353,0.0125227375,10.961432,-113.43612,-20.555374,STD
7101090326000,4.020027,-3.68718447307535,9.01817841559679,-1.82282350949961,-0.02321288,-0.05009095,0.011301007,10.980976,-113.44322,-20.57019,STD
7101095935000,4.025636,-3.73104846633398,9.02548897087511,-1.83744482362201,-0.022296581,-0.052534413,0.0076358155,11.007968,-113.4545,-20.589231,STD
7101100282000,4.029983,-3.76504325661661,9.03115468379985,-1.84877640723586,-0.021380283,-0.06719518,0.016187929,11.039532,-113.46266,-20.605738,STD
