timestamp,rel_time,acc_x,acc_y,acc_z,gyro_x,gyro_y,gyro_z,azimuth,pitch,roll,label
10482261559000,0,1.7455213460177,9.99589807079646,1.55296814247788,0.063224554,-0.054367006,-0.7367035,307.6653,-50.5054,35.04487,STD
10482266560000,0.005001,1.6334723920354,9.60129114159292,1.8160395642661,0.10934488,-0.076052725,-0.72692966,308.66302,-51.047302,34.587822,STD
10482271561000,0.010002,1.57174643586416,9.18072072473771,1.76443538379348,0.09590584,-0.086437434,-0.7467828,309.598,-51.53137,34.16113,STD
10482276601000,0.015042,1.53176814099945,8.74540174075097,1.57342805745445,0.06536258,-0.09682214,-0.75808376,310.54865,-52.000454,33.757786,STD
10482281600000,0.020041,1.49539884099441,8.47156549940096,1.50214161192093,0.038789943,-0.09896017,-0.7648033,311.4583,-52.364166,33.422184,STD
10482286558000,0.024999,1.46221474305112,8.33882861261981,1.53532580886581,0.017715093,-0.105374254,-0.75228053,312.3583,-52.719265,33.092205,STD
10482291563000,0.030004,1.40932466158699,8.28661873760473,1.5931190334549,0.004886922,-0.14660765,-0.71776664,313.19342,-53.0587,32.77904,STD
10482296668000,0.035109,1.33703841511089,8.31071413632331,1.67504343941843,0.013439035,-0.19883664,-0.6808093,314.02054,-53.390602,32.47357,STD
10482301554000,0.039995,1.27308203909056,8.57070762859625,1.52903085023653,0.007330383,-0.24495697,-0.6236934,314.83096,-53.679955,32.20264,STD
10482306565000,0.045006,1.2128520735084,9.08034587333462,1.14911879871597,0.0290161,-0.22510384,-0.51923543,315.61612,-53.950363,31.954002,STD
10482311553000,0.049994,1.16493802848496,9.41658029853804,0.915940988187913,0.043982297,-0.18753563,-0.3930918,316.39832,-54.194706,31.724949,STD
10482316585000,0.055026,1.1335260062855,9.51530383704256,0.884528989417078,0.058643065,-0.11636983,-0.29993483,317.14392,-54.423134,31.51021,STD
10482321528000,0.059969,1.10816237061828,9.61248265044008,0.900373840030425,0.09865474,-0.040011674,-0.22327125,317.91455,-54.786457,31.209517,STD
10482326587000,0.065028,1.09763340588938,9.71250770542214,1.04777945617733,0.086132,-0.009162978,-0.20677789,318.65826,-55.129787,30.91904,STD
10482331509000,0.06995,1.11123714589687,9.86043549131776,1.16371245704716,0.07819075,-0.042760566,-0.25809056,319.37302,-55.5087,30.594715,STD
10482336548000,0.074989,1.15802718125165,10.0816242728955,1.24453162113706,0.06169739,-0.076358154,-0.3213151,320.063,-55.876137,30.273844,STD
10482341568000,0.080009,1.22000865444503,10.3432406438716,1.31038633243556,0.040927973,-0.089186326,-0.35918877,320.74915,-56.231598,29.951479,STD
10482346641000,0.085082,1.36312569668595,10.8237052477643,1.30016369037349,0.014966198,-0.08002335,-0.3707952,321.43063,-56.58612,29.625814,STD
10482351489000,0.08993,1.49958636901238,11.3595422639686,1.29168501167824,0.02565634,-0.081855945,-0.37140608,322.12613,-56.947594,29.291756,STD
10482356582000,0.095023,1.64198701818182,12.1599323636364,1.28677454545455,0.013133603,-0.06047566,-0.33322698,322.81674,-57.28629,28.977032,STD
10482361515000,0.099956,1.76076842146444,12.7402828629972,1.30743506623142,-0.02443461,-0.04184427,-0.29718593,323.54227,-57.64506,28.652994,STD
10482366566000,0.105007,1.82878914668542,12.7888690590599,1.39974894021695,-0.048258353,-0.080634214,-0.32162055,324.26437,-58.000706,28.332243,STD
10482371533000,0.109974,1.88081147886525,12.9085110363121,1.44646457106383,-0.03268129,-0.11148291,-0.30543262,325.0108,-58.38863,27.98912,STD
10482376569000,0.11501,1.8944934455792,13.2186348214657,1.37805497560284,-0.040011674,-0.10781772,-0.27885997,325.73843,-58.76119,27.652742,STD
10482381545000,0.119986,1.90424222211529,13.4444907238535,1.32699769441226,-0.04917465,-0.0842994,-0.22418754,326.44205,-59.09456,27.351366,STD
10482386572000,0.125013,1.89478669330256,13.2601084797211,1.36009187247373,-0.0571159,-0.06169739,-0.16676621,327.12384,-59.409233,27.066162,STD
10482391549000,0.12999,1.86730347084915,13.0419517937772,1.3823840001852,-0.044593163,-0.067500606,-0.09468412,327.78564,-59.747578,26.763256,STD
10482396607000,0.135048,1.71479467733123,12.5754542195574,1.33304285656079,-0.03390302,-0.055588737,-0.036651913,328.41266,-60.061623,26.479403,STD
10482401928000,0.140369,1.55156655864893,12.0792843602866,1.27836859625942,-0.030543262,-0.03726278,-0.009468411,329.00525,-60.336105,26.230366,STD
10482406603000,0.145044,1.35160049160696,11.5335439048106,1.17421967097795,-0.01038471,-0.0027488936,0.011301007,329.57004,-60.59269,26.000383,STD
10482411586000,0.150027,1.13846018955988,10.9518487840328,1.06320916944264,0.0067195175,0.024129177,0.02321288,330.0839,-60.829937,25.782745,STD
10482416591000,0.155032,1.08250593107299,10.7676839025375,1.03445855570709,0.007330383,0.032986723,0.026267206,330.58075,-61.058693,25.572113,STD
10482421512000,0.159953,1.06011119527656,10.669147214693,1.02326117611671,0.014660766,0.028405234,0.036651913,331.0615,-61.2799,25.370565,STD
10482426598000,0.165039,1.03696556913134,10.5673066143319,1.01168835095989,0.014049901,0.031154128,0.041233405,331.50797,-61.490078,25.176449,STD
10482432250000,0.170691,1.01124416154723,10.4541325928531,0.998827633738833,0.02565634,0.018325957,0.045814894,331.95218,-61.69623,24.989641,STD
10482436608000,0.175049,0.996537467831885,10.2877160799151,0.971915265174783,0.02687807,0.005497787,0.03940081,332.3868,-61.901783,24.803844,STD
10482441660000,0.180101,0.981873295190948,10.0579769158416,0.932810779278642,0.024129177,0.0033597588,0.048258353,332.81363,-62.099545,24.62655,STD
10482446572000,0.185013,0.979904753947103,9.82243944488189,0.87024613875429,0.01160644,0.025350908,0.034208454,333.2239,-62.292927,24.449343,STD
10482451596000,0.190037,0.984761794447809,9.57473053149606,0.792533414667878,-0.0143553335,0.03268129,0.047036625,333.64526,-62.472385,24.29079,STD
10482456569000,0.19501,0.983268532141422,9.3680555910004,0.747289092848534,-0.048258353,0.05100725,0.042760566,334.04895,-62.644722,24.136024,STD
10482461543000,0.199984,0.978483979791081,9.1814576496585,0.718581778746485,-0.08032878,0.069027774,0.04550946,334.4437,-62.80686,23.98776,STD
10482466566000,0.205007,0.992593969425928,9.09505651875435,0.72286739919212,-0.096516706,0.089491755,0.05100725,334.8083,-62.95751,23.849684,STD
10482471540000,0.209981,1.01629064286141,9.06188126007362,0.74419440033529,-0.11881329,0.102319926,0.05131268,335.16483,-63.102253,23.711258,STD
10482476575000,0.215016,1.04027792688787,9.02829914759725,0.765782950949657,-0.12461651,0.11056661,0.04795292,335.5013,-63.23493,23.583643,STD
10482481563000,0.220004,1.06404129783604,8.99503051263556,0.787169979840314,-0.12858713,0.11789699,0.049785517,335.8294,-63.362423,23.4576,STD
10482486546000,0.224987,1.1046219431597,9.02670797195192,0.835627101471093,-0.13652839,0.1160644,0.043066,336.157,-63.48868,23.330664,STD
10482491606000,0.230047,1.15547532934554,9.09605343274184,0.900349570160275,-0.12767084,0.12156218,0.04184427,336.47537,-63.61375,23.205648,STD
10482496579000,0.23502,1.16519591045923,9.14199842245573,0.957003261719206,-0.12461651,0.103847094,0.047036625,336.79587,-63.715683,23.101673,STD
10482502250000,0.240691,1.1387753294999,9.17370261198677,1.01512844603036,-0.111177474,0.09712757,0.043676864,337.1078,-63.822292,22.994137,STD
10482506570000,0.245011,1.13109750284329,9.2027746239806,1.05291257277937,-0.09254608,0.10323623,0.05009095,337.41083,-63.918854,22.895325,STD
10482511566000,0.250007,1.13320663631475,9.24073937884064,1.09087701931232,-0.10445796,0.1160644,0.04642576,337.71054,-64.01638,22.792784,STD
10482516553000,0.254994,1.13531197030637,9.27863574242892,1.12877307512894,-0.09468412,0.12156218,0.049480084,338.01044,-64.11433,22.69223,STD
10482521545000,0.259986,1.13741941512012,9.31657010116817,1.16670712578797,-0.08002335,0.110872045,0.04184427,338.30835,-64.21487,22.58799,STD
10482526990000,0.265431,1.13895302520357,9.357056223924,1.20805164779953,-0.0729984,0.10445796,0.038789943,338.59448,-64.31515,22.48201,STD
10482531566000,0.270007,1.12196061077937,9.36980035730904,1.24203643228965,-0.059864793,0.10903945,0.03604105,338.87735,-64.419624,22.374357,STD
10482536547000,0.274988,1.10346427855758,9.3836724133385,1.27902904844901,-0.06169739,0.10598512,0.037873644,339.1613,-64.52053,22.26575,STD
10482541623000,0.280064,1.02326788504633,9.36690289753967,1.20522715697092,-0.063224554,0.116980694,0.03176499,339.43674,-64.62561,22.153376,STD
10482546662000,0.285103,0.937215867906684,9.34735734894613,1.12061751814088,-0.07971791,0.14630222,0.02107485,339.7042,-64.72872,22.039675,STD
10482551560000,0.290001,0.894964750189155,9.36003250117096,1.12484262770672,-0.10415252,0.16737708,0.020463986,339.96457,-64.83504,21.922491,STD
10482556559000,0.295,0.85184238647541,9.3729690234192,1.1291548618267,-0.11575896,0.17531833,0.020158553,340.23145,-64.95681,21.791536,STD
10482561569000,0.30001,0.83885748681149,9.37179260902914,1.13786622637702,-0.13530666,0.18081611,0.01863139,340.4899,-65.07346,21.660173,STD
10482566489000,0.30493,0.834006477236693,9.36694175141563,1.14756824552661,-0.1255328,0.17837265,0.014049901,340.7458,-65.19229,21.529194,STD
10482571785000,0.310226,0.868099478929082,9.35302348508073,1.10993489196812,-0.116675265,0.17837265,0.0106901415,341.00217,-65.3142,21.391176,STD
10482576517000,0.314958,0.90514624213366,9.33913091140405,1.06825731600245,-0.12370021,0.17073683,0.005497787,341.25934,-65.43555,21.253546,STD
10482581564000,0.320005,0.935394211072429,9.27765906602641,1.03316176665666,-0.12034045,0.15668693,-0.004581489,341.51596,-65.56007,21.115158,STD
10482586547000,0.324988,0.964038405322129,9.2108222605042,0.999743513445378,-0.122478485,0.15790866,-0.020158553,341.76846,-65.68415,20.974855,STD
10482591635000,0.330076,0.963061684770198,9.18652782670537,0.916267349296565,-0.118507855,0.18051068,-0.02687807,342.0142,-65.805176,20.841629,STD
10482596538000,0.334979,0.958518380425738,9.168354704209,0.829944500334785,-0.11301007,0.19639318,-0.03634648,342.26022,-65.92921,20.70519,STD
10482601559000,0.34,0.965364162067622,9.21110453171587,0.829395500181234,-0.10354166,0.18753563,-0.050701816,342.49536,-66.04288,20.569963,STD
10482606563000,0.345004,0.974703011760694,9.26713733732827,0.848073219070447,-0.07971791,0.17715092,-0.0580322,342.72397,-66.15866,20.434874,STD
10482611564000,0.350005,0.994095799859879,9.3800419875759,0.942095671368519,-0.054367006,0.15454891,-0.06963864,342.95618,-66.28937,20.292946,STD
10482616541000,0.354982,1.01635816959365,9.50916410397011,1.05786008696871,-0.029626964,0.12736541,-0.07819075,343.1907,-66.42247,20.152773,STD
10482621542000,0.359983,1.03404981191538,9.65252323851498,1.09822230144146,0.002443461,0.11301007,-0.07666359,343.42776,-66.55879,20.013916,STD
10482626542000,0.364983,1.04894686158872,9.80397636513533,1.09325662685886,0.027488936,0.07941248,-0.07788532,343.6767,-66.698326,19.876669,STD
10482631557000,0.369998,1.06388860241108,9.95588385113554,1.08827605525251,0.09254608,0.07574729,-0.063224554,343.9181,-66.8388,19.744223,STD
10482636560000,0.375001,1.07879459031422,10.1074278496319,1.08330740126517,0.109650314,0.08124508,-0.05222898,344.16428,-66.97517,19.613516,STD
10482641549000,0.37999,1.08583007665974,10.2294593448105,1.11138621327793,0.115453534,0.082161374,-0.050701816,344.41202,-67.11474,19.488136,STD
10482646543000,0.384984,1.09056209795191,10.3430282511131,1.14924238361532,0.14172074,0.06505715,-0.03634648,344.65894,-67.25195,19.371452,STD
10482651559000,0.39,1.06654386410333,10.6165993757885,1.24883684577951,0.1469131,0.06261369,-0.026572637,344.90866,-67.40112,19.241623,STD
10482656600000,0.395041,1.03270617053169,10.9453077068189,1.36968562159808,0.1518,0.0693332,-0.015882496,345.16217,-67.5491,19.120592,STD
10482661566000,0.400007,1.01804388198597,10.8727297689184,1.41156257087486,0.13622294,0.05955936,-0.0012217305,345.42197,-67.69402,19.001226,STD
10482666618000,0.405059,1.00911401974899,10.671808101698,1.42942234197121,0.13194689,0.057421334,0.008246681,345.67676,-67.83959,18.884789,STD
10482671594000,0.410035,0.981100828284024,10.5369047926304,1.4579268737816,0.13439035,0.059253927,0.013133603,345.94067,-67.99823,18.74836,STD
10482676604000,0.415045,0.939805680946746,10.4439907178591,1.49406010412049,0.14049901,0.052534413,0.016187929,346.20337,-68.151794,18.616783,STD
10482681575000,0.420016,0.920076879612036,10.3544944709661,1.54496770710844,0.11789699,0.03756821,0.02076942,346.45386,-68.2852,18.498713,STD
10482686594000,0.425035,0.907888744423971,10.2651146121207,1.60184573353901,0.12064589,0.019547688,0.021380283,346.7044,-68.421486,18.382444,STD
10482691571000,0.430012,0.903930230629393,10.1773377556976,1.64690985078807,0.11942416,-0.006414085,0.02321288,346.96118,-68.548256,18.272001,STD
10482696546000,0.434987,0.914078165693291,10.0910800506922,1.67227975467519,0.115453534,-0.007941248,0.021380283,347.21472,-68.67532,18.16163,STD
10482701556000,0.439997,0.903588345912993,10.0077349170893,1.66973288413968,0.1001819,-0.052839845,0.018936822,347.48096,-68.79265,18.059595,STD
10482706561000,0.445002,0.870860737812134,9.92825393532969,1.63700525162895,0.07666359,-0.05955936,0.022296581,347.7352,-68.90753,17.957542,STD
10482711530000,0.449971,0.85635862100295,9.8591279899705,1.5983661739823,0.047647487,-0.057421334,0.026267206,347.99524,-69.00997,17.864351,STD
10482716557000,0.454998,0.865826187099312,9.80232239567355,1.5510282940708,0.041233405,-0.05467244,0.02565634,348.25485,-69.11255,17.771334,STD
10482721522000,0.459963,0.870553889403313,9.75898789403313,1.50587300925963,0.03176499,-0.052839845,0.029932396,348.5131,-69.21035,17.679853,STD
10482726569000,0.46501,0.868142489004191,9.73487389004191,1.46246780207543,0.01863139,-0.051923547,0.038789943,348.76773,-69.30522,17.589457,STD
10482731486000,0.469927,0.865793201157454,9.71138101157454,1.42018062083416,0.007941248,-0.05375614,0.0290161,349.02313,-69.40432,17.502106,STD
10482736604000,0.475045,0.863347877748952,9.68692777748952,1.37616479948114,-0.00580322,-0.06383542,0.031154128,349.27655,-69.495476,17.420755,STD
10482741603000,0.480044,0.863715536302727,9.65093968906294,1.32328573663301,-0.009468411,-0.0571159,0.027183503,349.52603,-69.593605,17.335672,STD
10482746691000,0.485132,0.868313701670284,9.59576151259791,1.25431320810607,-0.016493361,-0.04642576,0.032070424,349.77383,-69.68603,17.253784,STD
10482751491000,0.489932,0.87395922921488,9.55888793652863,1.18691911528126,-0.021685716,-0.043982297,0.036651913,350.0219,-69.78156,17.172316,STD
10482757454000,0.495895,0.885411477743909,9.56461416243858,1.09530135425649,-0.034513887,-0.03604105,0.03023783,350.26266,-69.87578,17.088112,STD
10482761524000,0.499965,0.895825118064322,9.56334350954774,1.04567569734673,-0.03756821,-0.021991149,0.03359759,350.4897,-69.97327,17.005112,STD
10482766596000,0.505037,0.915352160042211,9.5486984281407,1.01638507575879,-0.032375857,-0.01038471,0.033292156,350.713,-70.07166,16.919102,STD
10482771544000,0.509985,0.93557818773216,9.54070924144673,0.991569278690127,-0.02687807,-0.00061086525,0.03145956,350.93054,-70.17411,16.83301,STD
10482776611000,0.515052,0.959295532710166,9.54861476857283,0.97575772913001,-0.03023783,0.01740966,0.03604105,351.13934,-70.27336,16.747902,STD
10482781585000,0.520026,0.982577568218475,9.55637519721408,0.960236385630499,-0.03390302,0.036957346,0.029321533,351.34164,-70.37369,16.662558,STD
10482786606000,0.525047,1.01364792038225,9.5771078523544,0.96157167047088,-0.04153884,0.043066,0.040927973,351.53894,-70.46615,16.583801,STD
10482791564000,0.530005,1.04578503495987,9.60006291136752,0.966162682273504,-0.048258353,0.052839845,0.032070424,351.72867,-70.56359,16.496712,STD
10482796588000,0.535029,1.078349952999,9.62332354397783,0.970814808795565,-0.050701816,0.045814894,0.03726278,351.90967,-70.65147,16.417475,STD
10482801493000,0.539934,1.1101435284333,9.64603321813259,0.975356743626519,-0.064751714,0.044593163,0.03145956,352.08517,-70.74028,16.332556,STD
10482806643000,0.545084,1.14352516217166,9.66987721851935,0.980125543703871,-0.058948494,0.041233405,0.036957346,352.26053,-70.82658,16.253407,STD
10482811602000,0.550043,1.17566875861991,9.69283690743546,0.984717481487092,-0.065973446,0.03481932,0.043676864,352.43546,-70.90891,16.173866,STD
10482816593000,0.555034,1.19997295574512,9.73242713936279,0.98952331393628,-0.058948494,0.030848695,0.048258353,352.60855,-70.9924,16.09595,STD
10482821580000,0.560021,1.21960687212744,9.7815119303186,0.99443179303186,-0.06872234,0.020158553,0.054061573,352.78317,-71.06946,16.02149,STD
10482827373000,0.565814,1.24196790630063,9.82934646534653,0.983885445274527,-0.07086037,0.019547688,0.056199603,352.9455,-71.13698,15.959845,STD
10482831579000,0.57002,1.2580815259826,9.86157395709571,0.971800230513051,-0.063224554,0.01863139,0.059253927,353.1088,-71.20234,15.900856,STD
10482836603000,0.575044,1.26735129571275,9.88011339013934,0.980108682851018,-0.06078109,0.027488936,0.06078109,353.26715,-71.26988,15.842139,STD
10482841656000,0.580097,1.27206644434376,9.88954339199065,0.998969277375037,-0.06780604,0.0143553335,0.062308256,353.4302,-71.33576,15.785627,STD
10482846638000,0.585079,1.2585585548981,9.88677849187753,0.981313892010436,-0.070249505,0.02107485,0.06505715,353.58276,-71.40142,15.730026,STD
10482851602000,0.590043,1.2351563518854,9.87741790390863,0.943870342753766,-0.06261369,0.040317107,0.06963864,353.7336,-71.46629,15.675591,STD
10482856620000,0.595061,1.21084444115103,9.84071684793576,0.931947621769793,-0.0693332,0.043066,0.065973446,353.87915,-71.53417,15.61576,STD
10482861603000,0.600044,1.18627881034696,9.78667235756203,0.936860747930608,-0.0711658,0.058337633,0.065973446,354.0136,-71.60138,15.557132,STD
10482866592000,0.605033,1.15623328847815,9.73887403873343,0.941629057430044,-0.0729984,0.05467244,0.064446285,354.1553,-71.67309,15.495155,STD
10482871580000,0.610021,1.12340228227295,9.69431775537555,0.946319209918999,-0.07422013,0.058643065,0.064751714,354.2889,-71.7435,15.433188,STD
10482876591000,0.615032,1.09041989011291,9.64955602002946,0.951030989013255,-0.06811147,0.06352998,0.06169739,354.42368,-71.81623,15.3695965,STD
10482881575000,0.620016,1.05761521189985,9.60503546745214,0.955717380353461,-0.062002823,0.08155051,0.057421334,354.55206,-71.8881,15.305463,STD
10482886604000,0.625045,1.03698525061861,9.58225187270771,0.985227654379187,-0.06566802,0.08399397,0.051923547,354.68237,-71.959496,15.241241,STD
10482891632000,0.630073,1.02521150839161,9.57518749459631,1.0323225495232,-0.06352998,0.086437434,0.045814894,354.8064,-72.03286,15.175465,STD
10482896953000,0.635394,1.01275166702528,9.56771144926402,1.08216183692601,-0.050396383,0.09101892,0.050396383,354.93115,-72.109276,15.105041,STD
10482901602000,0.640043,1.00186540457235,9.56117956902538,1.12570681853391,-0.03970624,0.089186326,0.046731193,355.05655,-72.18794,15.031613,STD
10482906596000,0.645037,1.04379496599678,9.49311342845659,1.19224316438907,-0.01282817,0.09896017,0.04886922,355.17334,-72.26656,14.959884,STD
10482911611000,0.650052,1.14031366002814,9.36281312600482,1.27910999909566,-0.004276057,0.09560041,0.03390302,355.29437,-72.34782,14.883898,STD
10482916590000,0.655031,1.1737680293095,9.35606851486596,1.31373875886271,-0.014966198,0.07544186,0.006414085,355.41592,-72.42881,14.802709,STD
10482921539000,0.65998,1.14681680450853,9.46772374411048,1.29833800154346,-0.036651913,0.046120327,0.006414085,355.478805752968,-72.4672056558422,14.7647105071127,STD
10482926783000,0.665224,1.11650512138743,9.58178359393529,1.28030604710317,-0.035430185,0.027794369,-0.004581489,355.54544,-72.50789,14.724447,STD
10482931565000,0.670006,1.06995628440623,9.63996958953075,1.24539449025072,-0.0076358155,0.043676864,0.004581489,355.64844,-72.56462,14.66627,STD
10482936547000,0.674988,1.02146061191767,9.70058912739285,1.20902280973234,-0.00061086525,0.055283304,0.02321288,355.7743,-72.62645,14.599726,STD
10482941604000,0.680045,0.987687171268128,9.71688341958347,1.20425191149275,0.015882496,0.074830994,0.022602014,355.89258,-72.695564,14.529882,STD
10482946524000,0.684965,0.961998666197798,9.71174561127467,1.21452731352088,0.024129177,0.071776666,0.021991149,356.01212,-72.75919,14.466402,STD
10482951555000,0.689996,0.932933049968388,9.742700314366,1.20918374706709,0.024740042,0.06414085,0.031154128,356.1354,-72.83399,14.39379,STD
10482956568000,0.695009,0.903423066712329,9.78064161073059,1.2007523283105,0.025045475,0.059253927,0.027183503,356.25836,-72.91209,14.318256,STD
10482961595000,0.700036,0.884997770736842,9.7942506,1.18581032736842,0.014660766,0.059253927,0.019242255,356.38284,-72.98864,14.241541,STD
10482966826000,0.705267,0.87465795696388,9.78908114117647,1.1651307106192,0.0027488936,0.054061573,0.02687807,356.50858,-73.06103,14.169478,STD
10482971595000,0.710036,0.862307968042798,9.79055722166145,1.1679750639144,0.008246681,0.05375614,0.032375857,356.6446,-73.13294,14.094732,STD
10482976607000,0.715048,0.847773117452307,9.79540176713435,1.18250996509539,0.0076358155,0.05467244,0.027794369,356.78064,-73.2019,14.020251,STD
10482981566000,0.720007,0.845840135913143,9.80323540051795,1.17211840434783,-0.0030543262,0.048563786,0.029626964,356.91837,-73.26861,13.948966,STD
10482986585000,0.725026,0.850627820479108,9.81281096962,1.14817995652174,-0.004886922,0.038789943,0.02687807,357.0561,-73.338,13.875986,STD
10482991610000,0.730051,0.855421228517356,9.82239798590567,1.12421289130435,-0.01160644,0.020463986,0.025350908,357.20197,-73.40566,13.805213,STD
10482996575000,0.735016,0.860157401832761,9.8318705303551,1.100532,-0.01160644,0.003970624,0.021380283,357.34906,-73.474655,13.733969,STD
10483001565000,0.740006,0.894302686383602,9.80004627086383,1.08586689897511,-0.011911872,0.003970624,0.025045475,357.49503,-73.54045,13.665101,STD
10483006627000,0.745068,0.946353041073694,9.74326392201074,1.07640320710591,-0.021685716,-0.010995574,0.02443461,357.64908,-73.60613,13.595869,STD
10483011570000,0.750011,0.992169764898689,9.72876296305125,1.08921055733015,-0.023823744,-0.006414085,0.028099801,357.79465,-73.67548,13.5278845,STD
10483016597000,0.755038,1.03520548848828,9.7431079878824,1.11790100643623,-0.0143553335,-0.004581489,0.03145956,357.9439,-73.74476,13.460945,STD
10483021582000,0.760023,0.999357733821492,9.70321181120127,1.10301766691075,-0.028405234,0.002443461,0.04734206,358.08118,-73.79693,13.409086,STD
10483026587000,0.765028,0.904499364436968,9.62258257856719,1.05558848221848,-0.027794369,0.03390302,0.04153884,358.2101,-73.85675,13.351062,STD
10483031581000,0.770022,0.851474152595973,9.55245891786529,1.02907588174784,-0.04062254,0.05955936,0.05009095,358.32657,-73.90134,13.304251,STD
10483036610000,0.775051,0.832364231957147,9.49035144132527,1.01952093140561,-0.038789943,0.06688975,0.050396383,358.4387,-73.951256,13.253203,STD
10483046594000,0.785035,0.908844774421907,9.35533618627451,1.05776124800541,-0.03390302,0.070554934,0.03756821,358.66348,-74.06855,13.127678,STD
10483051591000,0.790032,0.968971712389381,9.28169971015418,1.07666168407992,-0.056505036,0.0571159,0.03940081,358.782,-74.11786,13.072641,STD
10483056617000,0.795058,1.03484122300885,9.2026558755588,1.08544427632515,-0.05222898,0.05222898,0.034513887,358.89868,-74.17798,13.011563,STD
10483061538000,0.799979,1.08869345441696,9.10676447349823,1.09305885088339,-0.052534413,0.04153884,0.03970624,359.01242,-74.21453,12.968632,STD
10483066505000,0.804946,1.11341179031386,8.95845445811682,1.09800251806277,-0.044898596,0.028710667,0.04184427,359.12744,-74.254715,12.9239,STD
10483071468000,0.809909,1.12372893858268,8.84350214566929,1.09816566929134,-0.04886922,0.03726278,0.047036625,359.22772,-74.277756,12.895502,STD
10483076505000,0.814946,1.10399753798957,8.79664012076899,1.08829996899478,-0.03481932,0.069027774,0.051618114,359.32373,-74.30473,12.866747,STD
10483081442000,0.819883,1.08465786661213,8.75070845173331,1.07863013330606,-0.019242255,0.07941248,0.035124753,359.4136,-74.32787,12.84048,STD
10483086491000,0.824932,1.06487945851314,8.70373478412926,1.06874092925657,-0.018325957,0.081855945,0.017715093,359.4955,-74.35026,12.813853,STD
10483091440000,0.829881,1.03974850127792,8.7646602175488,1.08259742612196,-0.024129177,0.086437434,-0.0021380284,359.5703,-74.382454,12.77803,STD
10483096504000,0.834945,1.00558881997384,8.98425784121554,1.1313968980479,-0.015271631,0.0711658,-0.029626964,359.65063,-74.4228,12.736046,STD
10483101422000,0.839863,0.977009188214421,9.08685877640045,1.16443476081567,-0.014049901,0.058948494,-0.032986723,359.7283,-74.465034,12.690734,STD
10483106566000,0.845007,0.953701509069834,9.03558183847464,1.17841940237509,0.0021380284,0.06414085,-0.027183503,359.80566,-74.51476,12.640675,STD
10483111523000,0.849964,0.91320122629968,8.8614990284148,1.16360525793513,0.0070249503,0.03481932,-0.030543262,359.90363,-74.57573,12.575203,STD
10483116559000,0.855,0.833884778442211,8.42085224924623,1.08869525256281,0.02107485,0.040317107,-0.044898596,359.98965,-74.641,12.507332,STD
10483121528000,0.859969,0.756586092277481,8.02471795861259,1.01857360896478,0.008857546,0.05100725,-0.049785517,0.07816034,-74.70402,12.437256,STD
10483126592000,0.865033,0.684125348704376,7.87462083647812,0.971991699679829,0.007941248,0.07971791,-0.036957346,0.15916768,-74.769135,12.36811,STD
10483131532000,0.869973,0.638233463650386,7.87528084376112,0.958252588155033,0.034513887,0.111177474,-0.01863139,0.23385672,-74.83326,12.3027725,STD
10483136549000,0.87499,0.661986121272494,8.29332735401424,1.03426105583844,0.05375614,0.13744467,-0.024740042,0.30204517,-74.89774,12.233916,STD
10483141639000,0.88008,0.702364236401968,8.72658436120872,1.10794167990162,0.061391957,0.13744467,-0.04062254,0.3789093,-74.96859,12.166175,STD
10483146647000,0.885088,0.78903139431784,9.17917940748921,1.17053464125088,0.05589417,0.10842858,-0.06169739,0.4568895,-75.041756,12.096215,STD
10483151899000,0.89034,0.877901760710099,9.59030177223246,1.23670726055937,0.062308256,0.07849618,-0.080634214,0.536175,-75.130554,12.007311,STD
10483156573000,0.895014,0.952867444749623,9.82644366521521,1.29667978430749,0.034513887,0.024740042,-0.10903945,0.6319172,-75.217865,11.913646,STD
10483161500000,0.899941,1.03189096320549,10.0753677359739,1.35989857431753,0.06963864,-0.005192355,-0.13439035,0.7308676,-75.320145,11.815893,STD
10483166561000,0.905002,1.0758278239116,10.0765867723757,1.44709040092818,0.08002335,-0.050396383,-0.1459968,0.8497379,-75.41486,11.718808,STD
10483171673000,0.910114,1.11195001514013,10.0070145710296,1.53124858485987,0.10598512,-0.09254608,-0.17989981,0.97764003,-75.52682,11.611212,STD
10483176573000,0.915014,1.12550861670038,9.62285419348936,1.51768998329962,0.16920967,-0.15027285,-0.22693644,1.1195639,-75.63733,11.508007,STD
10483181888000,0.920329,1.13638325970379,9.22112398211194,1.49991871602231,0.17928895,-0.21319197,-0.25961772,1.2697173,-75.73403,11.409742,STD
10483186545000,0.924986,1.06346672336026,9.19109936526255,1.41842381369494,0.19486602,-0.26206118,-0.27672195,1.4326235,-75.84775,11.305916,STD
10483191654000,0.930095,0.983473039834584,9.15816061338719,1.32901916349298,0.20097467,-0.28496864,-0.28221974,1.5944265,-75.949234,11.214697,STD
10483196585000,0.935026,0.845879604470065,9.5613865470267,1.22993108578074,0.20341812,-0.27977628,-0.2968805,1.7616938,-76.05682,11.117759,STD
10483201498000,0.939939,0.703128235679612,10.0039157803398,1.13000509781553,0.20616703,-0.27855456,-0.27275133,1.933528,-76.15594,11.03217,STD
10483206580000,0.945021,0.591449613595831,10.1654725008686,0.984026597475391,0.18203785,-0.2565634,-0.21930063,2.0953445,-76.26191,10.931953,STD
10483211505000,0.949946,0.486758153790774,10.2929231546999,0.838368919227948,0.18051068,-0.17501289,-0.18845193,2.2379854,-76.36955,10.830899,STD
10483216556000,0.954997,0.440300192718169,10.4264539102289,0.810408145979971,0.21471913,-0.09437868,-0.15271631,2.3977969,-76.50302,10.709632,STD
10483222089000,0.96053,0.402397144030758,10.5733282461552,0.805670267367668,0.23945917,-0.03268129,-0.12675454,2.5371597,-76.627205,10.593881,STD
10483226551000,0.964992,0.441135407351104,10.8020166378592,0.813542951915868,0.25045475,-0.0036651916,-0.08735373,2.6680527,-76.77235,10.465005,STD
10483231561000,0.970002,0.52106844454394,11.1167525166597,0.828530405518534,0.2489276,0.016187929,-0.054061573,2.7818208,-76.91168,10.342631,STD
10483236545000,0.974986,0.586049765926414,11.1773585933001,0.922796131928108,0.24709499,0.038789943,-0.04520403,2.8922863,-77.05654,10.215323,STD
10483241625000,0.980066,0.645563493224805,11.1224231759669,1.05555751256234,0.23884831,0.034513887,-0.046120327,3.0024643,-77.191,10.097881,STD
10483246557000,0.984998,0.710931993984199,11.1147273572235,1.12358318690745,0.22937989,-0.00580322,-0.049480084,3.1126885,-77.31863,9.989744,STD
10483251560000,0.990001,0.783035453971031,11.141766238243,1.14611550933032,0.1994475,-0.030848695,-0.05467244,3.2183225,-77.43796,9.883323,STD
10483256607000,0.995048,0.870353163661017,11.114906861017,1.13074493830508,0.16218472,-0.04642576,-0.064446285,3.3227208,-77.535225,9.788989,STD
10483261569000,1.00001,0.974279060509568,11.0213732966648,1.06838944577365,0.1337795,-0.040317107,-0.040011674,3.4256024,-77.61956,9.705174,STD
10483266557000,1.004998,1.0039561364388,10.8839288155466,1.04107562991059,0.102319926,-0.04062254,-0.027183503,3.5299203,-77.69298,9.6311245,STD
10483271544000,1.009985,0.985588863445823,10.7186235024517,1.03648376371503,0.10262536,-0.045814894,-0.0106901415,3.6315274,-77.75889,9.566463,STD
10483276552000,1.014993,0.997273637811803,10.5580752821436,1.02152053054147,0.100792766,-0.050396383,-0.01863139,3.720963,-77.80917,9.5180235,STD
10483281558000,1.019999,1.03616353712229,10.4025159387041,0.997214375197729,0.08979719,-0.0580322,-0.04184427,3.8115506,-77.856705,9.470814,STD
10483286547000,1.024988,1.03196839519598,10.2066405645541,0.979966985287674,0.077579886,-0.071776666,-0.056199603,3.9028842,-77.90034,9.426285,STD
10483292179000,1.03062,0.988199350385458,9.94840310419541,0.966836285555465,0.07452556,-0.09468412,-0.07971791,3.9992971,-77.95015,9.373817,STD
10483296538000,1.034979,0.947382031633974,9.74609786049985,0.951913444510604,0.07238753,-0.11056661,-0.098043874,4.090368,-77.99181,9.329922,STD
10483301560000,1.040001,0.827660011878921,9.48749811381061,0.884869099446381,0.09468412,-0.10354166,-0.10781772,4.1815076,-78.041626,9.281995,STD
10483306573000,1.045014,0.715462866622047,9.25738978188976,0.822206542685039,0.087964594,-0.10476339,-0.112704635,4.2775707,-78.09175,9.228983,STD
10483311558000,1.049999,0.682570879855315,9.33022230009842,0.805760541941929,0.09101892,-0.09590584,-0.14477506,4.3691835,-78.15483,9.165456,STD
10483316756000,1.055197,0.648273478207677,9.40616681958661,0.788611833443898,0.09468412,-0.09773844,-0.183565,4.4720078,-78.22956,9.087507,STD
10483321546000,1.059987,0.616668138867126,9.47615032253937,0.772809156701772,0.080634214,-0.10354166,-0.20525073,4.5731926,-78.30337,9.006209,STD
10483326839000,1.06528,0.590507372681716,9.55110060406485,0.755193324078815,0.076052725,-0.09193522,-0.2171626,4.670269,-78.38415,8.917436,STD
10483331559000,1.07,0.671157281486308,9.5896719856489,0.73766074475991,0.06414085,-0.089491755,-0.21288654,4.771172,-78.46038,8.829124,STD
10483336932000,1.075373,0.762964900131875,9.63357961981227,0.717702577666589,0.057421334,-0.1133155,-0.22113322,4.8834696,-78.56476,8.717529,STD
10483341600000,1.080041,0.776776807696277,9.63760683118319,0.702753355731663,0.053450707,-0.12003502,-0.23243423,4.9894557,-78.66469,8.607579,STD
10483346593000,1.085034,0.715088844815702,9.60235676649465,0.689534512458533,0.079107046,-0.12034045,-0.23487769,5.099681,-78.766335,8.500395,STD
10483351564000,1.090005,0.656069486607735,9.60112895712707,0.669938392119337,0.08093964,-0.11636983,-0.25411993,5.1994805,-78.86388,8.402004,STD
10483356554000,1.094995,0.603264755226519,9.69089712729282,0.632975085666298,0.0842994,-0.11148291,-0.25961772,5.2978683,-78.96165,8.30848,STD
10483361648000,1.100089,0.583698511848831,9.87141938925907,0.608370588821482,0.09468412,-0.09437868,-0.26725355,5.398078,-79.07098,8.200173,STD
10483366568000,1.105009,0.6024425815455,10.1432079203381,0.598998563759324,0.09621128,-0.08246681,-0.2666427,5.4975405,-79.17597,8.094684,STD
10483371537000,1.109978,0.640905773270641,10.3750389823209,0.57376907782208,0.09712757,-0.05589417,-0.2510656,5.60198,-79.28932,7.9887304,STD
10483376567000,1.115008,0.704324859014482,10.5562367620839,0.528469708563099,0.09437868,-0.044593163,-0.24678956,5.7068834,-79.401634,7.8819633,STD
10483381555000,1.119996,0.758206964111818,10.7069812149786,0.499596241765933,0.10903945,-0.03848451,-0.22724187,5.805147,-79.51578,7.7815523,STD
10483386592000,1.125033,0.793428482148743,10.7975505415667,0.50462787744237,0.09865474,-0.03481932,-0.19914207,5.9002748,-79.621666,7.6862197,STD
10483391628000,1.130069,0.829705503900529,10.830925845702,0.495813045374976,0.10476339,-0.043982297,-0.17867808,5.9922504,-79.730064,7.6035876,STD
10483396682000,1.135123,0.867615204605444,10.7835387816722,0.467380802009007,0.112704635,-0.045814894,-0.12889257,6.0780587,-79.821815,7.5385776,STD
10483401490000,1.139931,0.89382647367505,10.7356535345701,0.438967970503012,0.12339478,-0.020158553,-0.0888809,6.1482487,-79.91655,7.4747133,STD
10483406614000,1.145055,0.903211865890791,10.6793412302764,0.406119063447451,0.13530666,0.0021380284,-0.06078109,6.2176433,-80.00239,7.422978,STD
10483411498000,1.149939,0.908548859009401,10.6086375403821,0.386815665577681,0.13469578,0.022602014,-0.026267206,6.2731633,-80.07197,7.391978,STD
10483416599000,1.15504,0.90361089713737,10.4851887513899,0.401629561506115,0.1386664,0.03573562,0.0030543262,6.322847,-80.13774,7.367529,STD
10483421545000,1.159986,0.875912569083503,10.3441223073968,0.405406027448621,0.12644911,0.032375857,0.014966198,6.36834,-80.19453,7.3511534,STD
10483426606000,1.165047,0.790660178696538,10.1466952836512,0.382971198229957,0.12522738,0.02443461,0.020463986,6.4099994,-80.24784,7.3410163,STD
10483431561000,1.170002,0.70400987239291,9.95208021528804,0.362679475187592,0.12492194,0.021991149,0.023518313,6.4484363,-80.29687,7.3335023,STD
10483436604000,1.175045,0.59462491802068,9.7451998929099,0.353167741536189,0.12095132,0.0143553335,0.023518313,6.4903674,-80.34518,7.326598,STD
10483441635000,1.180076,0.485500249084195,9.53881184970458,0.343678641397341,0.12644911,0.01740966,0.021380283,6.5359893,-80.40294,7.3090425,STD
10483446685000,1.185126,0.375963461541113,9.33164436447563,0.334153704863614,0.1282817,0.024740042,0.01985312,6.581844,-80.45771,7.2918153,STD
10483451627000,1.190068,0.269377179201267,9.13988556087262,0.32541262494722,0.13469578,0.0076358155,-0.003970624,6.6364713,-80.52149,7.26924,STD
10483456611000,1.195052,0.168608412952146,9.06790792258973,0.323013365327234,0.13439035,-0.04337143,-0.063224554,6.6991506,-80.59102,7.2369924,STD
10483461574000,1.200015,0.0682642342012667,8.99623356087262,0.32062421494722,0.12950343,-0.06536258,-0.08368854,6.7739954,-80.67443,7.1816487,STD
10483466598000,1.205039,-0.0333132701397406,8.92367825294059,0.31820569963205,0.13316862,-0.057726767,-0.08582657,6.8554273,-80.76615,7.1162043,STD
10483471549000,1.20999,-0.12199352455516,8.87733322775801,0.318122091494662,0.1414153,-0.052839845,-0.09590584,6.941287,-80.87146,7.0403075,STD
10483477261000,1.215702,-0.0895482578410439,9.12067255871886,0.345159817520759,0.1337795,-0.055283304,-0.09896017,7.0261765,-80.97093,6.9669237,STD
10483481589000,1.22003,-0.0596344705038828,9.30739302320861,0.363301728187434,0.10995574,-0.07788532,-0.105374254,7.130503,-81.0926,6.8587537,STD
10483486556000,1.224997,0.041109618693964,9.55085798835157,0.354906384864102,0.10842858,-0.09407325,-0.11484267,7.2333503,-81.215324,6.7504735,STD
10483491535000,1.229976,0.142097100094423,9.79491115151783,0.346490758851041,0.10934488,-0.11484267,-0.11575896,7.3429813,-81.33029,6.6458616,STD
10483496573000,1.235014,0.273296088117505,10.0387998185529,0.352518748693943,0.11148291,-0.13347405,-0.10323623,7.4558063,-81.44148,6.544583,STD
10483501513000,1.239954,0.409174210721556,10.2771825727603,0.362054053883906,0.1151481,-0.14569137,-0.10293079,7.572297,-81.55327,6.4416614,STD
10483506558000,1.244999,0.547940431073264,10.520632166885,0.371792032564749,0.12950343,-0.1591304,-0.0842994,7.683978,-81.65028,6.3638434,STD
10483511496000,1.249937,0.683763542291646,10.7589184098559,0.381323477307266,0.13988814,-0.14294247,-0.06291912,7.7894874,-81.744255,6.287712,STD
10483516558000,1.254999,0.795327931248763,10.8420217134376,0.402764133168415,0.1563815,-0.1301143,-0.03848451,7.8968267,-81.831276,6.219444,STD
10483521507000,1.259948,0.89850461566891,10.8889201729666,0.426213382521275,0.15851954,-0.13347405,-0.009468411,8.002357,-81.90994,6.159517,STD
10483526596000,1.265037,0.834179904365763,10.6570242225043,0.459354144838154,0.17470746,-0.13836098,-0.0030543262,8.079942,-81.97391,6.1347775,STD
10483531567000,1.270008,0.730584719593798,10.3635044534409,0.493885868588267,0.1966986,-0.13347405,-0.004276057,8.153954,-82.03306,6.115842,STD
10483536546000,1.274987,0.6895301,10.2387513142007,0.510381300954843,0.21930063,-0.11209377,0.0009162979,8.213196,-82.07774,6.116174,STD
10483541642000,1.280083,0.6895301,10.2244715299425,0.51514122738418,0.23609942,-0.09437868,0.004276057,8.271047,-82.12447,6.115076,STD
10483547147000,1.285588,0.6895301,10.2090456640983,0.520283180875841,0.23487769,-0.09773844,0.0033597588,8.336003,-82.17595,6.1001115,STD
10483551563000,1.290004,0.6895301,10.1966713455574,0.524407952287135,0.25473082,-0.07880162,0.00580322,8.388677,-82.232735,6.0856214,STD
10483556580000,1.295021,0.676633925721868,10.1794051359873,0.539620547346072,0.2519819,-0.081855945,0.00580322,8.450071,-82.29463,6.0691957,STD
10483561565000,1.300006,0.651293985329087,10.1591333318471,0.564960434819533,0.25411993,-0.074830994,0.007941248,8.502284,-82.3586,6.0531783,STD
10483566558000,1.304999,0.635692369473737,10.1097395832078,0.57163158007432,0.25595254,-0.08827003,0.0076358155,8.560356,-82.420525,6.0371428,STD
10483571551000,1.309992,0.626087691858994,10.04250683489,0.566829233745104,0.27000242,-0.09560041,0.0076358155,8.614086,-82.484184,6.0210814,STD
10483576639000,1.31508,0.610314783880111,9.97167381512937,0.580253674339325,0.27305678,-0.09162979,0.007941248,8.672957,-82.54697,6.002607,STD
10483581562000,1.320003,0.591690816235434,9.9018339182303,0.603533659419317,0.2724459,-0.096516706,0.006414085,8.735679,-82.610634,5.9837627,STD
10483586550000,1.324991,0.576029291997732,9.84106413986014,0.615634282710263,0.27977628,-0.10415252,0.0036651916,8.79654,-82.6805,5.9618893,STD
10483591637000,1.330078,0.562217937973918,9.78581860839161,0.620238056168021,0.28344148,-0.105068825,-0.0076358155,8.856212,-82.75007,5.9371047,STD
10483596590000,1.335031,0.557884528112119,9.72960941488046,0.603054597491756,0.28221974,-0.087659165,-0.007330383,8.913064,-82.816086,5.912412,STD
10483601594000,1.340035,0.56282293569662,9.67034883326463,0.563547321345837,0.28069258,-0.08552113,-0.0106901415,8.97399,-82.884026,5.883994,STD
10483606593000,1.345034,0.577883532967823,9.62585220151648,0.538166830557014,0.28069258,-0.0888809,-0.014049901,9.0316,-82.95056,5.8542,STD
10483611603000,1.350044,0.601204135709147,9.5932031901429,0.524174451379411,0.28893927,-0.09285152,-0.02321288,9.088193,-83.01832,5.8220854,STD
10483616505000,1.354946,0.623172103336492,9.57110896877961,0.493215794594783,0.2864958,-0.09743301,-0.034513887,9.143985,-83.08402,5.790962,STD
10483621596000,1.360037,0.645056283909032,9.55895109914718,0.442152711670241,0.29871312,-0.10903945,-0.035430185,9.202151,-83.150955,5.76075,STD
10483626600000,1.365041,0.666566486145329,9.54700099511246,0.391962244776819,0.29871312,-0.1001819,-0.03848451,9.258044,-83.22059,5.732478,STD
10483631595000,1.370036,0.688038000967533,9.53507238407062,0.341862048507306,0.29352075,-0.10567969,-0.048563786,9.320606,-83.29086,5.7026453,STD
10483636592000,1.375033,0.70601086158349,9.5151150287727,0.299925364290108,0.29626966,-0.098043874,-0.059253927,9.376042,-83.36094,5.671651,STD
10483641714000,1.380155,0.720611229556504,9.4859141911896,0.265857813610477,0.2929099,-0.090713486,-0.05681047,9.432256,-83.426346,5.6419826,STD
10483646592000,1.385033,0.749861697779741,9.44283039281508,0.18072133320318,0.29779682,-0.100792766,-0.084910266,9.4885235,-83.50283,5.610228,STD
10483651942000,1.390383,0.800152149389478,9.37745305673341,0.0248209248109541,0.27550024,-0.09712757,-0.11881329,9.537897,-83.573265,5.5774283,STD
10483656559000,1.395,0.803220183621226,9.39384979115257,-0.0315758900455412,0.112704635,-0.07666359,-0.103847094,9.582144,-83.61588,5.5542016,STD
10483661570000,1.400011,0.755081579081152,9.50456831116461,0.00693499559715117,0.1994475,-0.04337143,-0.10720685,9.621736,-83.701,5.516441,STD
10483666523000,1.404964,0.71782738314407,9.60126380092821,0.00871057165498173,0.22907446,-0.0143553335,-0.10842858,9.648725,-83.75652,5.4913483,STD
10483671535000,1.409976,0.694128893166782,9.68183886481683,-0.0386864429436161,0.26236662,0.02443461,-0.10262536,9.662751,-83.820885,5.467305,STD
10483676506000,1.414947,0.672417875982054,9.73568747457627,-0.0632699442857428,0.2602286,0.056199603,-0.103847094,9.676541,-83.89095,5.4310675,STD
10483681555000,1.419996,0.653134370727817,9.75014986440678,-0.0536282077670987,0.2452624,0.076358154,-0.10720685,9.682195,-83.95986,5.396542,STD
10483686732000,1.425173,0.651312847812733,9.76843282762472,-0.0517507666837305,0.2321288,0.09773844,-0.102319926,9.679145,-84.034584,5.3574276,STD
10483691612000,1.430053,0.673062141185778,9.79018207557707,-0.0604504740403946,0.22449298,0.112399206,-0.099571034,9.672316,-84.10635,5.317976,STD
10483696617000,1.435058,0.69686957425897,9.81398949980499,-0.0682608962207488,0.226631,0.13255776,-0.090713486,9.657197,-84.17541,5.2773304,STD
10483701558000,1.439999,0.724552278315133,9.84167230021451,-0.0728746821571763,0.21319197,0.13347405,-0.089491755,9.643716,-84.240166,5.236855,STD
10483706617000,1.445058,0.762165221170575,9.86613428282221,-0.0573936544373622,0.23090707,0.12003502,-0.08277224,9.626346,-84.29956,5.205669,STD
10483711567000,1.450008,0.833429822493486,9.87563641751854,0.0328748065067148,0.22479841,0.11453723,-0.06780604,9.606673,-84.34969,5.178366,STD
10483716563000,1.455004,0.886411541684393,9.89088170575011,0.0994207570976221,0.21991149,0.087659165,-0.073303826,9.592771,-84.4065,5.1494713,STD
10483721560000,1.460001,0.865721818569823,9.92812307427583,0.0704551581316904,0.22266038,0.0720821,-0.06078109,9.577058,-84.45232,5.130945,STD
10483726938000,1.465379,0.843454592051881,9.9682039387808,0.0392810554223087,0.21563543,0.08552113,-0.040927973,9.559222,-84.480415,5.1272783,STD
10483731565000,1.470006,0.782358741089109,9.97808433168317,0.0469358348366337,0.20861048,0.106595986,-0.021685716,9.543524,-84.50382,5.127474,STD
10483736547000,1.474988,0.714874083117802,9.98772468791675,0.0565764996139624,0.1957823,0.11026118,-0.0061086523,9.52881,-84.52001,5.1325693,STD
10483741569000,1.48001,0.652017316558652,10.0263868650897,0.0149610450226831,0.16615535,0.11728613,0.0067195175,9.509555,-84.53326,5.137994,STD
10483746639000,1.48508,0.591080923644296,10.0638834330734,-0.0267195839580433,0.16737708,0.13988814,0.023823744,9.484691,-84.541885,5.148947,STD
10483751560000,1.490001,0.556084176730716,10.0463849454191,-0.000472039760512393,0.15485434,0.14630222,0.032375857,9.469738,-84.55486,5.1495576,STD
10483756616000,1.495057,0.520127348363501,10.0284064139051,0.0264955650886475,0.13622294,0.13805555,0.04153884,9.455181,-84.57712,5.1419506,STD
10483761566000,1.500007,0.483526229816949,10.0227139700726,-0.00909356053849879,0.12767084,0.14202617,0.03970624,9.435582,-84.598946,5.133853,STD
10483766560000,1.505001,0.44646932779661,10.0180820048426,-0.050782582566586,0.122783914,0.14263703,0.05100725,9.419377,-84.6127,5.1324863,STD
10483771552000,1.509993,0.416857471802634,10.0094479646157,-0.0929742822960488,0.099265605,0.12797627,0.05497787,9.412092,-84.6315,5.122787,STD
10483776506000,1.514947,0.388878210807942,10.0001213560055,-0.134943173788087,0.08674286,0.12522738,0.058948494,9.401336,-84.64718,5.116514,STD
10483781561000,1.520002,0.341297395281142,9.9905906140325,-0.181629259838503,0.076358154,0.122783914,0.06261369,9.397026,-84.667595,5.1046414,STD
10483786547000,1.524988,0.289574158258986,9.98118644357459,-0.228650396902019,0.06994407,0.112399206,0.058337633,9.39599,-84.68795,5.0920215,STD
10483791601000,1.530042,0.255524037178981,9.97533205867246,-0.265324096207033,0.067500606,0.11209377,0.06261369,9.394191,-84.71364,5.0764747,STD
10483796513000,1.534954,0.227644968115369,9.97068569676017,-0.297849667886211,0.047036625,0.089491755,0.06352998,9.401944,-84.73871,5.059458,STD
10483802292000,1.540733,0.191819217971577,9.94507250222643,-0.334905152028423,0.034513887,0.08124508,0.06566802,9.410442,-84.77558,5.034075,STD
10483806519000,1.54496,0.164972405628612,9.92206088242539,-0.361751964371388,0.020463986,0.07819075,0.074830994,9.423853,-84.8075,5.0117116,STD
10483811563000,1.550004,0.140459833333333,9.89284133333333,-0.35114958,0.017104227,0.07238753,0.069027774,9.440562,-84.85227,4.978402,STD
10483816582000,1.555023,0.120400992710485,9.86275299123631,-0.316046615455399,0.021380283,0.064751714,0.070249505,9.458498,-84.890884,4.9504514,STD
10483821543000,1.559984,0.110514175950901,9.84792272540222,-0.300948437925133,0.018325957,0.057726767,0.06841691,9.480802,-84.93545,4.9159007,STD
10483826570000,1.565011,0.104342442565156,9.83866509938465,-0.293233768373502,0.013439035,0.04917465,0.06505715,9.5055895,-84.978966,4.8820925,STD
10483831559000,1.57,0.0982173624256137,9.82947745343247,-0.285577415400936,0.01740966,0.038179077,0.058643065,9.534981,-85.025215,4.8444996,STD
10483836547000,1.574988,0.0920935100030767,9.82029164906096,-0.277922597075187,0.009162978,0.025045475,0.053450707,9.567259,-85.06974,4.807148,STD
10483841665000,1.580106,0.0858100543698481,9.81086643920261,-0.270068274663163,0.018325957,0.021991149,0.06261369,9.599526,-85.1122,4.7728653,STD
10483846598000,1.585039,0.0797537263826037,9.80178192176784,-0.262497861912377,0.0067195175,0.0070249503,0.06383542,9.638793,-85.1554,4.735713,STD
10483851560000,1.590001,0.0863977054102156,9.79951886227036,-0.287923527295317,0.005192355,-0.022907447,0.06658431,9.687822,-85.19712,4.703432,STD
10483856555000,1.594996,0.106716766031433,9.80459873006265,-0.348880715524052,0.01863139,-0.025045475,0.06261369,9.7327385,-85.239456,4.670014,STD
10483861565000,1.600006,0.120676803447445,9.81528285644012,-0.399393509504066,0.02107485,-0.034208454,0.06291912,9.789613,-85.280685,4.63608,STD
10483866559000,1.605,0.130279572073085,9.82968729515109,-0.44260595829234,0.017104227,-0.049785517,0.06536258,9.848376,-85.32181,4.602124,STD
10483872293000,1.610734,0.144534864213788,9.82840781642138,-0.487578907304415,0.023518313,-0.06047566,0.0571159,9.903757,-85.368904,4.5654054,STD
10483876572000,1.615013,0.156438182104957,9.82047211096049,-0.519321095252711,0.028710667,-0.05955936,0.06414085,9.959545,-85.40935,4.534195,STD
10483881559000,1.62,0.161541742239507,9.8086431149594,-0.555260859808238,0.036957346,-0.0580322,0.056199603,10.018756,-85.45255,4.500433,STD
10483886540000,1.624981,0.159208208798063,9.79464188019763,-0.590263849246649,0.027183503,-0.07452556,0.05375614,10.082064,-85.490364,4.4705906,STD
10483891572000,1.630013,0.156850782522747,9.78049728808336,-0.625625231068389,0.045814894,-0.0720821,0.049785517,10.136867,-85.52841,4.4412527,STD
10483896580000,1.635021,0.154504599933959,9.76642015825262,-0.660817957650915,0.043982297,-0.06811147,0.042760566,10.195169,-85.56563,4.410638,STD
10483901559000,1.64,0.157313082415879,9.76080812778828,-0.684037470283554,0.044898596,-0.07391469,0.04520403,10.247583,-85.60728,4.3755226,STD
10483906549000,1.64499,0.166346779381853,9.76532506824197,-0.693071162533081,0.05681047,-0.07238753,0.04734206,10.296176,-85.649445,4.3388896,STD
10483911558000,1.649999,0.175414873189981,9.76985920746692,-0.702139251606805,0.056505036,-0.077579886,0.04917465,10.347302,-85.68915,4.303825,STD
10483916559000,1.655,0.184468484117202,9.77438610510397,-0.711192857807183,0.063224554,-0.08093964,0.0421497,10.396823,-85.72922,4.267367,STD
10483921511000,1.659952,0.194530310604614,9.77492575894988,-0.713270202466189,0.06994407,-0.06536258,0.04520403,10.444072,-85.76309,4.2358375,STD
10483926584000,1.665025,0.209024087519889,9.76043168943914,-0.68911392442323,0.07696902,-0.06352998,0.04917465,10.495524,-85.79688,4.203073,STD
10483931508000,1.669949,0.224188479666667,9.74722809761905,-0.665474083309524,0.06963864,-0.070249505,0.050701816,10.542253,-94.1746,4.174264,STD
10483936574000,1.675015,0.244277959637681,9.73718367753623,-0.640362209746377,0.07452556,-0.07666359,0.04734206,10.587718,-94.147575,4.1455836,STD
10483941901000,1.680342,0.26987690010281,9.73488012611378,-0.614418769013023,0.079107046,-0.087964594,0.045814894,10.634018,-94.12275,4.1175084,STD
10483946572000,1.685013,0.30053713280329,9.7480200291785,-0.59251861194556,0.08552113,-0.09010262,0.04795292,10.678882,-94.09996,4.089939,STD
10483951575000,1.690016,0.328735632192297,9.76189025526243,-0.571484209982535,0.082161374,-0.0888809,0.056505036,10.718375,-94.08033,4.065201,STD
10483956548000,1.694989,0.341868859387811,9.7750237475871,-0.558350991929405,0.090713486,-0.10293079,0.05375614,10.762293,-94.05987,4.0381947,STD
10483961641000,1.700082,0.352589080538188,9.78399144400475,-0.544826331005144,0.09132435,-0.1020145,0.05955936,10.797997,-94.04998,4.02155,STD
10483966530000,1.704971,0.32942870543332,9.73767073248912,-0.530930088529877,0.07849618,-0.09865474,0.059864793,10.83642,-94.038414,4.002703,STD
10483971757000,1.710198,0.308254719346769,9.69891659138291,-0.514272501945796,0.08246681,-0.09865474,0.052839845,10.873738,-94.02966,3.9855995,STD
10483976541000,1.714982,0.330996429597935,9.78988335639829,-0.477885776942321,0.083383106,-0.09040806,0.04886922,10.907178,-94.02185,3.9695888,STD
10483981810000,1.720251,0.355335242576782,9.88657625796793,-0.440864228562874,0.07391469,-0.08277224,0.043982297,10.940983,-94.007675,3.9484198,STD
10483986581000,1.725022,0.368573869039985,9.93070478245123,-0.445277117874252,0.06627888,-0.0711658,0.050701816,10.970874,-93.99627,3.9297624,STD
10483992052000,1.730493,0.384104038586861,9.97868857284672,-0.450568498181022,0.073303826,-0.06505715,0.061391957,10.998436,-93.98705,3.9136295,STD
10483996543000,1.734984,0.402940289129927,9.97240980518248,-0.458940163632117,0.06780604,-0.06780604,0.056199603,11.02487,-93.974525,3.8950858,STD
10484001543000,1.739984,0.423911398618978,9.96541941588808,-0.468260655116302,0.050701816,-0.061086524,0.054061573,11.048352,-93.96993,3.8845942,STD
10484006467000,1.744908,0.444563747243796,9.95853528051095,-0.477439475129927,0.042455133,-0.043066,0.06352998,11.069062,-93.967445,3.8759732,STD
10484011471000,1.749912,0.465551633620438,9.95153929890511,-0.486767423007299,0.03023783,-0.022602014,0.06505715,11.086809,-93.961006,3.8645287,STD
10484016458000,1.754899,0.489605302315659,9.91368689208782,-0.480280427727838,0.02565634,-0.024740042,0.07147124,11.10571,-93.95864,3.8571572,STD
10484021458000,1.759899,0.514400258819387,9.86905609258492,-0.470362433734466,0.03176499,-0.022296581,0.06566802,11.117251,-93.953354,3.8468492,STD
10484026461000,1.764902,0.529915676703626,9.81303838207971,-0.486287675606832,0.026267206,-0.016798794,0.06780604,11.124877,-93.95982,3.8490932,STD
10484031462000,1.769903,0.544267992202577,9.75562904015583,-0.505424066299071,0.016798794,-0.01740966,0.058337633,11.133322,-93.9615,3.8461528,STD
10484036459000,1.7749,0.539497608482603,9.75769634858573,-0.509697532730914,0.006414085,-0.012217305,0.057421334,11.135821,-93.9697,3.85051,STD
10484041457000,1.779898,0.532308880618773,9.76728149922403,-0.512093770347935,0.0021380284,-0.0106901415,0.040927973,11.139313,-93.97059,3.847549,STD
10484046484000,1.784925,0.525078441448811,9.77692226598248,-0.514503911704631,0.0027488936,-0.004886922,0.04428773,11.138021,-93.98,3.8532162,STD
10484051425000,1.789866,0.517971697876345,9.78639810217772,-0.516872821281602,-0.0033597588,-0.007330383,0.044593163,11.138523,-93.98316,3.8532565,STD
10484056530000,1.794971,0.536356734570937,9.77895941180231,-0.525684963276125,-0.0018325958,-0.007330383,0.032375857,11.137075,-93.98468,3.8502765,STD
10484061428000,1.799869,0.557117245384804,9.76973233611999,-0.534911860717974,-0.0036651916,0.019547688,0.033292156,11.128642,-93.989174,3.8512661,STD
10484066473000,1.804914,0.578500825837227,9.76022833513646,-0.54441567811163,-0.005497787,0.046731193,0.03390302,11.124055,-93.98974,3.847909,STD
10484071451000,1.809892,0.599600422168675,9.75085055180723,-0.553793280289157,-0.027488936,0.06505715,0.03145956,11.114343,-93.98813,3.8441546,STD
10484076482000,1.814923,0.587357267475113,9.75717994479638,-0.547464022081448,-0.03634648,0.082161374,0.040011674,11.097414,-93.99074,3.8440492,STD
10484081426000,1.819867,0.568313426895928,9.76670205399698,-0.53794211173454,-0.032070424,0.11942416,0.04428773,11.069681,-93.99107,3.8424566,STD
10484086467000,1.824908,0.550109816403199,9.77953418188581,-0.491535810256649,-0.03390302,0.15302174,0.044898596,11.036641,-94.002,3.8510365,STD
10484091485000,1.829926,0.532235022875209,9.79294009038497,-0.437911383010973,-0.03940081,0.17470746,0.04520403,10.996735,-94.01412,3.860963,STD
10484096477000,1.834918,0.53626427739759,9.81297279566265,-0.380040004713253,-0.035430185,0.1872302,0.041233405,10.953513,-94.02286,3.8696856,STD
10484101562000,1.840003,0.550345634891566,9.83644172481928,-0.319020749696386,-0.03481932,0.18295415,0.036957346,10.90951,-94.03113,3.8785596,STD
10484106540000,1.844981,0.565172220762172,9.86763108550146,-0.251533085756234,-0.04062254,0.16126843,0.03756821,10.875576,-94.03783,3.8877356,STD
10484111574000,1.850015,0.580785848632193,9.90406305052359,-0.178669536128684,-0.036957346,0.15393804,0.03604105,10.839273,-94.04379,3.8952358,STD
10484116559000,1.855,0.578055003314954,9.94571129536664,-0.122959234996543,-0.03756821,0.13164146,0.040317107,10.82207,-94.05676,3.910193,STD
10484121560000,1.860001,0.570171919318575,9.9890682491153,-0.0717192577524484,-0.046731193,0.113926366,0.048563786,10.805917,-94.06994,3.9256282,STD
10484126726000,1.865167,0.567043266556401,10.037456665564,-0.018190547362223,-0.04917465,0.10140363,0.0571159,10.794977,-94.084564,3.9418654,STD
10484131561000,1.870002,0.57214899243577,10.0885139243577,0.0328667471515051,-0.046120327,0.07941248,0.054061573,10.791868,-94.09769,3.9566104,STD
10484136566000,1.875007,0.573348629228727,10.096730901047,0.0448631234738239,-0.05375614,0.03390302,0.061391957,10.802778,-94.111084,3.9749744,STD
10484141679000,1.88012,0.5709416008455,10.0654393812614,0.0207928228017991,-0.062002823,-0.0009162979,0.061086524,10.816744,-94.121414,3.9897234,STD
10484146586000,1.885027,0.568631550331809,10.0354085798555,-0.00230769849638696,-0.07238753,-0.040927973,0.070249505,10.847861,-94.13534,4.008996,STD
10484151560000,1.890001,0.566289958472202,10.0049677389766,-0.0257236334744138,-0.07880162,-0.064751714,0.07086037,10.883693,-94.14596,4.0250125,STD
10484156546000,1.894987,0.569444186585657,9.97978389133466,-0.0802267403564741,-0.082161374,-0.10629055,0.07238753,10.934398,-94.15748,4.040973,STD
10484162148000,1.900589,0.580131307231076,9.9584098062749,-0.181754243090139,-0.08124508,-0.13927728,0.07574729,10.988682,-94.16882,4.056814,STD
10484166555000,1.904996,0.598913259651487,9.93557412534899,-0.245514580863579,-0.0720821,-0.16737708,0.08552113,11.052019,-94.18356,4.0744147,STD
10484171545000,1.909986,0.631118701395976,9.90336900067392,-0.30072390339174,-0.06291912,-0.17684549,0.090713486,11.118436,-94.19705,4.090518,STD
10484176519000,1.91496,0.66200513752902,9.87427980205915,-0.356752731946099,-0.0580322,-0.18051068,0.10354166,11.19082,-94.22136,4.1133356,STD
10484181563000,1.920004,0.691260439356011,9.84990038386999,-0.415263381422227,-0.049785517,-0.1881465,0.101098195,11.265746,-94.24228,4.131877,STD
10484186546000,1.924987,0.730786735031847,9.82857992957747,-0.467112263410783,-0.040011674,-0.18600847,0.10720685,11.333349,-94.276085,4.1618,STD
10484191670000,1.930111,0.788015614012739,9.81097069014085,-0.511134474829102,-0.02107485,-0.1863139,0.109650314,11.402502,-94.30779,4.1884475,STD
10484196672000,1.935113,0.83070065383237,9.79645263370186,-0.55704495160023,-0.018020526,-0.19242255,0.116675265,11.4676485,-94.34764,4.222387,STD
10484201553000,1.939994,0.818057202011698,9.79329187388849,-0.613940453438145,0.00061086525,-0.19211712,0.106901415,11.529655,-94.384254,4.2507086,STD
10484206525000,1.944966,0.805178029208507,9.79007218575244,-0.671896699112824,0.0061086523,-0.1881465,0.10842858,11.588956,-94.43911,4.295237,STD
10484211564000,1.950005,0.792125303594009,9.78680911082936,-0.730633932007979,0.02076942,-0.17348573,0.101098195,11.643581,-94.48906,4.3327756,STD
10484216487000,1.954928,0.779373057473713,9.7836211533286,-0.788019007924401,0.034513887,-0.16340645,0.093462385,11.699803,-94.53994,4.3715324,STD
10484221548000,1.959989,0.766263344368935,9.78034383199784,-0.847012684384488,0.046731193,-0.13805555,0.087964594,11.746059,-94.58879,4.4073973,STD
10484226521000,1.964962,0.750599183583299,9.77433881536279,-0.882287124552088,0.061086524,-0.116980694,0.079107046,11.789327,-94.63444,4.43871,STD
10484232132000,1.970573,0.723372073327929,9.75800220804621,-0.844169113334009,0.053145275,-0.106901415,0.07238753,11.827344,-94.67702,4.467882,STD
10484236565000,1.975006,0.698690199228129,9.73919556053437,-0.814861046987661,0.06414085,-0.09743301,0.062308256,11.860318,-94.71944,4.488405,STD
10484241617000,1.980058,0.66278183087856,9.70328741246869,-0.78344122526765,0.073303826,-0.08979719,0.051618114,11.889947,-94.7584,4.506034,STD
10484246619000,1.98506,0.625791021641317,9.67131933249904,-0.754056417443204,0.09315695,-0.09743301,0.044898596,11.924495,-94.79278,4.518873,STD
10484251558000,1.989999,0.58025787761263,9.66221251636504,-0.735843165537158,0.089491755,-0.096516706,0.038179077,11.953494,-94.8224,4.5282526,STD
10484256710000,1.995151,0.536803726810604,9.65409104974037,-0.717757973189396,0.08552113,-0.10354166,0.013439035,11.99424,-94.84294,4.5251403,STD
10484261562000,2.000003,0.543153362448757,9.66255740739729,-0.711408337551243,0.092240654,-0.10140363,0.013744468,12.03137,-94.86883,4.527036,STD
10484266493000,2.004934,0.549606382508882,9.67116161382891,-0.704955317491118,0.096516706,-0.113926366,0.0027488936,12.074137,-94.87281,4.5071545,STD
10484271540000,2.009981,0.556211207543045,9.67996823111961,-0.698350492456955,0.10354166,-0.12705997,-0.016187929,12.115705,-94.87599,4.4852643,STD
10484276503000,2.014944,0.562706104837387,9.68862827502961,-0.691855595162613,0.10415252,-0.14538592,-0.01740966,12.161726,-94.88091,4.46535,STD
10484281561000,2.020002,0.588435565102149,9.71178925324537,-0.686186677910194,0.096516706,-0.14782938,-0.02687807,12.205996,-94.878815,4.438015,STD
10484286538000,2.024979,0.623937404271122,9.74221896382209,-0.681114988869972,0.10415252,-0.15302174,-0.036651913,12.255543,-94.87846,4.4103227,STD
10484291650000,2.030091,0.650484753435322,9.74550620836561,-0.665220864329977,0.10934488,-0.15974127,-0.0421497,12.304477,-94.876434,4.3846655,STD
10484296612000,2.035053,0.673490248723858,9.7409055003873,-0.646816446959721,0.1151481,-0.16890424,-0.056199603,12.354712,-94.870926,4.3539968,STD
10484301943000,2.040384,0.704350326363468,9.76749517027177,-0.666043062756517,0.108123146,-0.1863139,-0.06627888,12.405358,-94.86874,4.3282347,STD
10484306576000,2.045017,0.733060365261601,9.80030647199113,-0.69475314448142,0.106901415,-0.1777618,-0.06383542,12.450479,-94.86778,4.302526,STD
10484311563000,2.050004,0.757971916486656,9.83269855196232,-0.733390962012559,0.110872045,-0.16768251,-0.06872234,12.503905,-94.870155,4.279828,STD
10484316559000,2.055,0.778001547142857,9.86274304761905,-0.778457585238095,0.10598512,-0.14080444,-0.074830994,12.549243,-94.87131,4.257861,STD
10484321539000,2.05998,0.807727445412266,9.8877062916435,-0.820107903740967,0.09132435,-0.14049901,-0.07238753,12.596244,-94.88011,4.243114,STD
10484326593000,2.065034,0.84360009032796,9.91012668593663,-0.860464627515286,0.089491755,-0.12217305,-0.08155051,12.629521,-94.88548,4.22391,STD
10484331562000,2.070003,0.885137652370318,9.9308619627449,-0.883388717362704,0.09437868,-0.099571034,-0.06627888,12.658892,-94.90159,4.2159085,STD
10484336540000,2.074981,0.933532089666024,9.95021961638412,-0.888228186358745,0.08093964,-0.076358154,-0.08002335,12.681876,-94.905266,4.197304,STD
10484341571000,2.080012,0.979283656219248,9.95027774739225,-0.878641416542019,0.07513642,-0.0720821,-0.07422013,12.704105,-94.92948,4.199734,STD
10484346561000,2.085002,1.02160746914977,9.93146728390081,-0.855128184953749,0.05375614,-0.05955936,-0.074830994,12.716753,-94.9442,4.196588,STD
10484351553000,2.089994,1.06318607463789,9.91513384067026,-0.855635063203635,0.0421497,-0.049480084,-0.07513642,12.723826,-94.96791,4.2028055,STD
10484356545000,2.094986,1.10391943357001,9.90155577080375,-0.88279066418063,0.03634648,-0.035124753,-0.07360926,12.726005,-94.989525,4.208984,STD
10484361549000,2.09999,1.13835561677891,9.89118265864922,-0.910170746280547,0.022296581,-0.015882496,-0.067500606,12.719668,-95.01417,4.2231836,STD
10484366554000,2.104995,1.16141314232249,9.8865715483933,-0.937839738410622,0.016798794,-0.024129177,-0.05955936,12.717131,-95.03977,4.23763,STD
10484371671000,2.110112,1.18634038884428,9.87906836793805,-0.981461132998757,0.00580322,-0.019242255,-0.06383542,12.704077,-95.07228,4.259951,STD
10484376571000,2.115012,1.21325539888156,9.86561058187554,-1.05772037494503,0.00580322,-0.012217305,-0.061086524,12.692902,-95.108604,4.285669,STD
10484381572000,2.120013,1.23030047333333,9.85368271111111,-1.12389148444444,0.008246681,-0.004886922,-0.05375614,12.677304,-95.14875,4.3152566,STD
10484386560000,2.125001,1.20398142187328,9.84929611092746,-1.14143751875115,0.0061086523,-0.0009162979,-0.0421497,12.660764,-95.18928,4.346061,STD
10484391653000,2.130094,1.17646117428545,9.84524007719478,-1.15950127894688,0.010079277,-0.003970624,-0.032986723,12.648047,-95.24914,4.386824,STD
10484396636000,2.135077,1.12988655519357,9.85411160965748,-1.18167967009341,0.015882496,0.00580322,-0.03573562,12.630333,-95.30771,4.4265776,STD
10484401493000,2.139934,1.0844896206302,9.86275881679602,-1.20329725905563,0.021685716,0.01863139,-0.024129177,12.606704,-95.364006,4.460866,STD
10484406561000,2.145002,1.0371205318167,9.87178167983455,-1.22585396913603,0.021685716,0.026572637,-0.020158553,12.581527,-95.41691,4.4915614,STD
10484411503000,2.149944,0.990929127531719,9.88058021754892,-1.24784987703211,0.036957346,0.03390302,-0.017104227,12.553054,-95.47485,4.5247173,STD
10484416558000,2.154999,0.908541311146964,9.89350879875352,-1.2340738172497,0.04886922,0.04520403,-0.016798794,12.523761,-95.534355,4.5583553,STD
10484421553000,2.159994,0.812368917766385,9.90793444712505,-1.20522211881785,0.057726767,0.05497787,-0.005192355,12.493113,-95.59846,4.5953035,STD
10484426576000,2.165017,0.754388609858219,9.94633892782074,-1.14215057962522,0.07391469,0.058337633,-0.0070249503,12.470625,-95.65052,4.6113925,STD
10484431549000,2.16999,0.711891169276224,9.99355826789609,-1.06659958619869,0.07880162,0.052839845,-0.014966198,12.448103,-95.703156,4.6285095,STD
10484436540000,2.174981,0.679820830135408,9.99490570959378,-0.960299098833189,0.06536258,0.032375857,-0.027794369,12.438122,-95.73856,4.6246543,STD
10484441619000,2.18006,0.651793949207721,9.97622125237684,-0.838849380656871,0.06719518,0.00061086525,-0.03390302,12.432986,-95.77687,4.620371,STD
10484446621000,2.185062,0.628955850536238,9.96311078613322,-0.740941732084206,0.07971791,-0.03970624,-0.03970624,12.442149,-95.80153,4.602084,STD
10484451697000,2.190138,0.608590628064516,9.9529279516129,-0.654389371774194,0.07819075,-0.055283304,-0.049480084,12.4530115,-95.82178,4.5812597,STD
10484456526000,2.194967,0.570132606203994,9.93520827026059,-0.59282550430823,0.070249505,-0.087964594,-0.049785517,12.484574,-95.83056,4.5546985,STD
10484461567000,2.200008,0.52257788331602,9.91359250559685,-0.53662447555476,0.076052725,-0.11453723,-0.06566802,12.518075,-95.83586,4.521295,STD
10484466557000,2.204998,0.47351281351276,9.89017744070341,-0.497778287450139,0.083383106,-0.14721853,-0.06841691,12.562542,-95.83443,4.4839478,STD
10484471542000,2.209983,0.422322182057688,9.86458214368432,-0.477302039144328,0.07696902,-0.16401732,-0.082161374,12.609147,-95.82572,4.439491,STD
10484476596000,2.215037,0.393819029023054,9.86294102069161,-0.466461241217876,0.064751714,-0.17440203,-0.09315695,12.668738,-95.80559,4.3859477,STD
10484481596000,2.220037,0.380246457216553,9.8765138664966,-0.461937058489229,0.052839845,-0.17959438,-0.10170906,12.730902,-95.78218,4.32989,STD
10484487237000,2.225678,0.397491690226415,9.91026067169811,-0.489682012301887,0.038179077,-0.17837265,-0.10842858,12.796542,-95.74522,4.263238,STD
10484491568000,2.230009,0.43044275969712,9.94733050496524,-0.530870841613704,0.022296581,-0.18295415,-0.11911872,12.864641,-95.7038,4.1939917,STD
10484496512000,2.234953,0.473574055042961,9.98225453833443,-0.58745133516193,0.01160644,-0.18600847,-0.12156218,12.933227,-95.659164,4.1238,STD
10484501562000,2.240003,0.523804589789444,10.0096528505807,-0.655947521074497,-0.002443461,-0.19272798,-0.122783914,13.003601,-95.60976,4.0520697,STD
10484506547000,2.244988,0.564411634123872,10.0322906146903,-0.738516967152194,-0.0030543262,-0.19761491,-0.124311075,13.066193,-95.56818,3.98502,STD
10484511542000,2.249983,0.589225492387177,10.0471789690321,-0.847697935219421,-0.0061086523,-0.20250183,-0.12522738,13.130324,-95.524086,3.9189394,STD
10484516517000,2.254958,0.600341491725251,10.0496522909313,-0.931777198018089,0.002443461,-0.19058995,-0.11575896,13.184468,-95.4974,3.8663478,STD
10484521675000,2.260116,0.593096729587876,10.035162736397,-0.984905415027133,0.0033597588,-0.17134771,-0.10140363,13.237539,-95.46997,3.8159192,STD
10484526495000,2.264936,0.586326711460279,10.0216226718651,-1.03455217849817,0.016187929,-0.15760323,-0.093767814,13.284945,-95.46599,3.7700536,STD
10484531573000,2.270014,0.579194314769005,10.0073578486923,-1.08685638283549,0.014049901,-0.13897185,-0.08460484,13.325283,-95.46242,3.7299995,STD
10484536523000,2.274964,0.560553212131036,9.97632241972322,-1.12204808663505,0.013133603,-0.13652839,-0.0729984,13.363086,-95.45982,3.6927762,STD
10484541633000,2.280074,0.517928873845931,9.91001803087196,-1.12678412147489,0.024740042,-0.13347405,-0.0720821,13.395049,-95.45929,3.6562316,STD
10484546593000,2.285034,0.477404739574447,9.85034549954513,-1.12318044977257,0.027183503,-0.14110987,-0.0720821,13.42719,-95.46785,3.6208198,STD
10484551557000,2.289998,0.438961979129688,9.80229209289397,-1.09915374644698,0.03573562,-0.1469131,-0.06811147,13.457748,-95.48141,3.587467,STD
10484557089000,2.29553,0.379382152790887,9.7655641382308,-1.05716907265953,0.043066,-0.1432479,-0.06505715,13.491224,-95.491486,3.548112,STD
10484561563000,2.300004,0.307752800329862,9.75942456906763,-1.00191212958731,0.052839845,-0.13500121,-0.06627888,13.524656,-95.50392,3.5093703,STD
10484566576000,2.305017,0.227493984083301,9.75254534237677,-0.939998169904471,0.05222898,-0.12797627,-0.06169739,13.560801,-95.514885,3.465674,STD
10484571586000,2.310027,0.147283198247421,9.74567023251815,-0.878121262262132,0.039095376,-0.118202426,-0.06963864,13.59317,-95.52275,3.4192104,STD
10484576526000,2.314967,0.0721287902732759,9.73562571495004,-0.816627662685268,0.035430185,-0.124311075,-0.070554934,13.62801,-95.53463,3.3767447,STD
10484581602000,2.320043,0.0288412825226081,9.69714765617888,-0.749291557039675,0.03848451,-0.13041973,-0.082161374,13.659407,-95.54191,3.3301024,STD
10484586556000,2.324997,-0.00985238530733489,9.66327358387541,-0.694214930922549,0.034208454,-0.15271631,-0.08093964,13.716528,-95.51803,3.2574153,STD
10484591799000,2.33024,-0.0130703297736085,9.66649159336047,-0.74891998332105,0.019547688,-0.16920967,-0.08002335,13.773285,-95.4914,3.1828861,STD
10484596624000,2.335065,-0.0160317224971961,9.66945304591919,-0.799263656375172,0.007941248,-0.18753563,-0.09132435,13.838627,-95.450226,3.0967517,STD
10484601581000,2.340022,-0.0190741315605794,9.67249551645464,-0.850984607116993,0.007941248,-0.19242255,-0.09315695,13.8702175458914,-95.4289985880565,3.05651197169053,STD
10484606822000,2.345263,-0.022290848506553,9.67571229839459,-0.90566879167174,-0.009468411,-0.18845193,-0.09743301,13.903618,-95.406555,3.0139668,STD
10484611598000,2.350039,-0.0252221669827923,9.67864367609831,-0.955501202553914,-0.01282817,-0.18784106,-0.109650314,13.972754,-95.36205,2.927429,STD
10484616495000,2.354936,-0.0282277504371776,9.68164932028071,-1.00659611798314,-0.02321288,-0.183565,-0.10842858,14.041014,-95.31433,2.8446465,STD
10484621588000,2.360029,-0.0211778282514992,9.70480983873051,-1.0831148584648,-0.02321288,-0.16768251,-0.11362094,14.10514,-95.26697,2.7584746,STD
10484626991000,2.365432,-0.0116301789260079,9.7334528669619,-1.16904374376788,-0.019547688,-0.1572978,-0.111177474,14.169603,-95.22089,2.6764224,STD
10484631599000,2.37004,0.0332653925408428,9.76268165408428,-1.24684406155382,-0.014049901,-0.12889257,-0.106901415,14.221839,-95.19168,2.5966856,STD
10484636568000,2.375009,0.0950422031962253,9.79594576962253,-1.33238117384661,-0.02687807,-0.105374254,-0.1142318,14.272064,-95.15886,2.5161047,STD
10484641723000,2.380164,0.131800709167328,9.82352901506741,-1.41729525122918,-0.027183503,-0.08307768,-0.11484267,14.312,-95.14265,2.4436634,STD
10484646615000,2.385056,0.155021240856463,9.84674952735924,-1.49624499302141,-0.031154128,-0.067500606,-0.10598512,14.347119,-95.12375,2.373887,STD
10484651594000,2.390035,0.172057416305333,9.86378588629569,-1.54738341376218,-0.028710667,-0.04184427,-0.110872045,14.36703,-95.123726,2.3144863,STD
10484656611000,2.395052,0.185958512550873,9.87768726801042,-1.58445303923233,-0.030543262,-0.018936822,-0.111177474,14.383566,-95.12408,2.2605104,STD
10484661602000,2.400043,0.184302026847606,9.87603090137987,-1.56749665096388,-0.03390302,0.01282817,-0.101098195,14.390934,-95.13801,2.2184112,STD
10484666597000,2.405038,0.172168264172585,9.86389714630682,-1.51410810330256,-0.02565634,0.025045475,-0.101098195,14.3971815,-95.153625,2.1745265,STD
10484671557000,2.409998,0.16011952285765,9.85184841254059,-1.46109364956879,-0.015271631,0.059864793,-0.099571034,14.3861475,-95.175865,2.1391797,STD
10484676602000,2.415043,0.147864301096794,9.83959319845779,-1.40717068201096,-0.018325957,0.08246681,-0.08827003,14.375623,-95.19889,2.107351,STD
10484681592000,2.420033,0.109938427256929,9.83844562119127,-1.30895012836642,-0.03145956,0.09132435,-0.082161374,14.364045,-95.22313,2.0791411,STD
10484686540000,2.424981,0.0587052415282092,9.84310279123255,-1.1878534942009,-0.03726278,0.10751228,-0.08032878,14.344461,-95.25003,2.054225,STD
10484691685000,2.430126,-0.0161844618913779,9.8419299390681,-1.08514831964357,-0.046120327,0.10720685,-0.07819075,14.332235,-95.261406,2.025936,STD
10484696613000,2.435054,-0.10076242814546,9.83723155913978,-1.0005703666368,-0.04153884,0.09560041,-0.073303826,14.319166,-95.27569,1.9999151,STD
10484701593000,2.440034,-0.16962122731398,9.83811507215333,-0.939914465811725,-0.05467244,0.07147124,-0.073303826,14.318209,-95.26556,1.962759,STD
10484706593000,2.445034,-0.22810416136133,9.84261338105975,-0.894927571786922,-0.045814894,0.050396383,-0.070249505,14.320246,-95.26384,1.9286516,STD
10484711593000,2.450034,-0.279481055124323,9.84611853922115,-0.873812437205651,-0.0571159,0.03481932,-0.06352998,14.337589,-95.23337,1.8811816,STD
10484716586000,2.455027,-0.323067725114195,9.84854006963083,-0.878655412056515,-0.05467244,0.021685716,-0.067500606,14.360249,-95.20916,1.832167,STD
10484721558000,2.459999,-0.366471074441181,9.85095141535423,-0.883478017896389,-0.0580322,0.009773844,-0.06688975,14.39472,-95.172806,1.7757779,STD
10484726598000,2.465039,-0.410468033533701,9.85339574006178,-0.888366580533752,-0.0693332,-0.007330383,-0.06658431,14.434372,-95.135826,1.7188978,STD
10484731596000,2.470037,-0.443492406710448,9.84951971963263,-0.900671932278293,-0.071776666,-0.025350908,-0.06963864,14.473307,-95.09659,1.6602974,STD
10484736586000,2.475027,-0.467089227715781,9.84008129676081,-0.919549364443018,-0.08552113,-0.027794369,-0.06963864,14.512767,-95.05306,1.6037298,STD
10484741668000,2.480109,-0.471370843468816,9.8304012284513,-0.914011234337772,-0.09132435,-0.02687807,-0.067500606,14.56471,-95.00754,1.5333788,STD
10484746645000,2.485086,-0.457055967070778,9.82085778486335,-0.885381476559215,-0.112399206,-0.0290161,-0.063224554,14.618175,-94.95626,1.4648252,STD
10484751592000,2.490033,-0.438627553392367,9.81393047911734,-0.869192927076428,-0.124005646,-0.03268129,-0.062308256,14.67882,-94.90992,1.3969662,STD
10484756573000,2.495014,-0.416039197198598,9.80941271824983,-0.864675260554977,-0.12492194,-0.03970624,-0.0580322,14.740954,-94.86325,1.3323069,STD
10484761562000,2.500003,-0.386404528330227,9.80604147418163,-0.85826151879656,-0.13958271,-0.03573562,-0.057421334,14.797074,-94.810715,1.2675871,STD
10484766561000,2.505002,-0.345698950874129,9.80447584342195,-0.848867923873246,-0.14019357,-0.03634648,-0.06078109,14.856269,-94.763695,1.2037528,STD
10484771558000,2.509999,-0.305009658906112,9.80291083903986,-0.83947808713954,-0.14660765,-0.036651913,-0.054367006,14.911975,-94.71459,1.1479454,STD
10484776558000,2.514999,-0.264295938705975,9.8013448950914,-0.830082613121423,-0.1518,-0.03359759,-0.051923547,14.966496,-94.66688,1.0910699,STD
10484781537000,2.519978,-0.223753216130678,9.79978552810752,-0.820726600094182,-0.15668693,-0.01740966,-0.043676864,15.012715,-94.62005,1.0355389,STD
10484786534000,2.524975,-0.183063924162661,9.79822052372543,-0.811336763360476,-0.15302174,-0.009468411,-0.040927973,15.060201,-94.575745,0.98000306,STD
10484791607000,2.530048,-0.145910611887915,9.79829274084787,-0.80079261896773,-0.14446963,-0.008857546,-0.040317107,15.105187,-94.53361,0.9273415,STD
10484796571000,2.535012,-0.120127764600199,9.80258996836301,-0.787901223592154,-0.1563815,-0.0036651916,-0.040011674,15.146561,-94.48862,0.8765475,STD
10484801636000,2.540077,-0.0928869550198556,9.80484930806257,-0.774280842689531,-0.15882497,-0.013133603,-0.041233405,15.173108,-94.44928,0.8423501,STD
10484806532000,2.544973,-0.0552711961750903,9.78133947412756,-0.755472926444043,-0.14630222,-0.01160644,-0.038789943,15.195193,-94.41246,0.8102462,STD
10484812272000,2.550713,-0.0164978393185943,9.75433971209964,-0.742725651951068,-0.1301143,-0.028710667,-0.041233405,15.221967,-94.37767,0.78007436,STD
10484816556000,2.554997,-0.00554756142144128,9.73608926227758,-0.76462621841726,-0.122478485,-0.029626964,-0.034208454,15.243959,-94.34576,0.75418353,STD
10484821512000,2.559953,0.00712040712624555,9.71497599679715,-0.789962167858541,-0.1151481,-0.035430185,-0.03390302,15.265572,-94.31407,0.73096913,STD
10484826554000,2.564995,0.00700834846045411,9.7185873968061,-0.773043069597805,-0.11575896,-0.03573562,-0.034513887,15.285971,-94.283585,0.7099131,STD
10484831494000,2.569935,0.00389926118151349,9.72791468429008,-0.74661582431801,-0.10048734,-0.022602014,-0.040927973,15.304001,-94.260284,0.6877405,STD
10484836586000,2.575027,0.000694509678605461,9.73752896523511,-0.719375433029606,-0.099265605,-0.02687807,-0.03756821,15.320172,-94.239624,0.6674073,STD
10484841640000,2.580081,-0.00248632576831072,9.74707149781487,-0.692338328243354,-0.09407325,-0.030848695,-0.040927973,15.332313,-94.22439,0.64407396,STD
10484846816000,2.585257,-0.00574394434235862,9.75684438040942,-0.664648566792298,-0.096516706,-0.042455133,-0.036651913,15.348141,-94.20838,0.6240534,STD
10484851548000,2.589989,-0.00872212268323859,9.76577893999934,-0.639334047629547,-0.0870483,-0.037873644,-0.040317107,15.360273,-94.19723,0.6014877,STD
10484856585000,2.595026,0.00775889080417241,9.78221147598898,-0.607799259445975,-0.09285152,-0.032986723,-0.042760566,15.377956,-94.179344,0.5828181,STD
10484861581000,2.600022,0.0313003820326707,9.80104455727219,-0.574841180378862,-0.09590584,-0.03726278,-0.042760566,15.39685,-94.16533,0.56400776,STD
10484866595000,2.605036,0.044945213936327,9.82324495607743,-0.545117631913137,-0.08827003,-0.03573562,-0.04428773,15.415873,-94.1435,0.5414696,STD
10484871599000,2.61004,0.0543629872931119,9.84678937348924,-0.516864301517146,-0.095294975,-0.024129177,-0.04795292,15.43315,-94.11735,0.51880085,STD
10484876596000,2.615037,0.0728084648723099,9.87909037159254,-0.504501220794835,-0.10476339,-0.03359759,-0.039095376,15.449983,-94.09149,0.49913517,STD
10484882250000,2.620691,0.0987038605834529,9.92052329459589,-0.499322151386896,-0.10995574,-0.032375857,-0.03970624,15.460307,-94.06518,0.47666386,STD
10484886540000,2.624981,0.126824153247779,9.9392036100691,-0.495309042596249,-0.112704635,-0.03573562,-0.040927973,15.471377,-94.03529,0.45527783,STD
10484891670000,2.630111,0.165622981332675,9.95375295853899,-0.49045919225074,-0.10048734,-0.03390302,-0.029321533,15.480989,-94.00943,0.4379919,STD
10484896671000,2.635112,0.202091881293869,9.95700286289641,-0.476912835832981,-0.105374254,-0.03145956,-0.027488936,15.492139,-93.98301,0.42253807,STD
10484901580000,2.640021,0.236879172494715,9.95203314904863,-0.457034385200846,-0.10170906,-0.029321533,-0.02687807,15.503053,-93.96313,0.41038603,STD
10484906601000,2.645042,0.258000466017699,9.93979802446643,-0.457612839953149,-0.105068825,-0.026267206,-0.022907447,15.5094,-93.94104,0.40630746,STD
10484911606000,2.650047,0.271610401858407,9.92391992191567,-0.468954448021864,-0.105068825,-0.025350908,-0.027488936,15.515589,-93.92097,0.40011397,STD
10484916582000,2.655023,0.285141478930008,9.90813382035872,-0.480230340479391,-0.10720685,-0.019547688,-0.021991149,15.516897,-93.89915,0.40344125,STD
10484921563000,2.660004,0.29868615234111,9.89233185656145,-0.491517563214708,-0.10262536,-0.01863139,-0.013133603,15.519326,-93.87947,0.4064013,STD
10484926616000,2.665057,0.302209848498535,9.88007895650197,-0.496931957679095,-0.1001819,-0.009468411,-0.014660766,15.517662,-93.85871,0.40825576,STD
10484931599000,2.67004,0.292566275837122,9.87284612973628,-0.494521065772456,-0.10629055,-0.017104227,-0.008552114,15.520842,-93.83756,0.41447145,STD
10484936591000,2.675032,0.282905285524907,9.8656002394665,-0.492105819455391,-0.096516706,-0.020158553,-0.00580322,15.511938,-93.82245,0.42280275,STD
10484941680000,2.680121,0.273056571642922,9.85821355365262,-0.489643642270385,-0.106901415,-0.0076358155,0.0015271631,15.50104,-93.8006,0.43422657,STD
10484946607000,2.685048,0.256787638928571,9.85680663730158,-0.48614456015873,-0.109650314,-0.00580322,0.0018325958,15.494027,-93.783844,0.44403338,STD
10484952156000,2.690597,0.230427659419643,9.86207873779762,-0.480872569761905,-0.11301007,0.0033597588,0.0018325958,15.481554,-93.764595,0.45605484,STD
10484956554000,2.694995,0.207695950061011,9.85992071470075,-0.466269745685648,-0.1151481,0.0036651916,0.004886922,15.4733095,-93.744316,0.46550554,STD
10484961602000,2.700043,0.179605472640906,9.85055703157079,-0.438179258488282,-0.1142318,0.0067195175,0.014966198,15.46192,-93.724686,0.47710782,STD
10484966529000,2.70497,0.167296171648481,9.85124366588027,-0.416889047413742,-0.10293079,0.018020526,0.018325957,15.449192,-93.71014,0.4814879,STD
10484971570000,2.710011,0.179160095526885,9.86785324800944,-0.405025121057702,-0.11728613,0.01863139,0.015271631,15.438856,-93.689,0.48676953,STD
10484976510000,2.714951,0.190786317300206,9.88413004541433,-0.393398896856385,-0.12034045,0.015882496,0.016493361,15.4329405,-93.67116,0.49069357,STD
10484981598000,2.720039,0.20276085502949,9.90089448776172,-0.381424356626364,-0.13469578,0.004276057,0.01740966,15.429452,-93.64636,0.493541,STD
10484986526000,2.724967,0.20639657212403,9.91056391181827,-0.376357578085881,-0.1337795,0.0036651916,0.016187929,15.423708,-93.625496,0.49628773,STD
10484991665000,2.730106,0.192244781806767,9.90584655314866,-0.385792103322151,-0.12950343,0.009468411,0.017715093,15.419591,-93.60219,0.49997017,STD
10484996567000,2.735008,0.178745642648327,9.90134674925717,-0.394791527861593,-0.1255328,-0.0021380284,0.03145956,15.422237,-93.58271,0.5106872,STD
10485001599000,2.74004,0.16488850918336,9.89672761152114,-0.404029615230519,-0.116675265,-0.0067195175,0.024740042,15.420896,-93.56532,0.51612854,STD
10485006555000,2.744996,0.14978854084287,9.89077680853816,-0.413866901637974,-0.1151481,0.009162978,0.03390302,15.417474,-93.54842,0.529973,STD
10485011612000,2.750053,0.125691661580257,9.87631889133247,-0.42832503020201,-0.12370021,0.011911872,0.03145956,15.418713,-93.53053,0.5380944,STD
10485016583000,2.755024,0.106010819569487,9.86211320910624,-0.44452874089376,-0.11911872,0.026267206,0.026572637,15.405397,-93.515465,0.53860253,STD
10485021883000,2.760324,0.111045740708263,9.84700865598651,-0.474738294013491,-0.1160644,0.0290161,0.022602014,15.394778,-93.49778,0.5386571,STD
10485026547000,2.764988,0.113293009326344,9.83700964686469,-0.502337071607455,-0.11636983,0.023823744,0.020463986,15.383088,-93.48388,0.53269666,STD
10485031574000,2.770015,0.0992736129625316,9.85102883828383,-0.539722126951077,-0.12034045,0.024129177,0.015271631,15.369228,-93.46964,0.5252541,STD
10485036590000,2.775031,0.0855688299180082,9.86379977862214,-0.575230831056894,-0.11759156,0.04153884,0.015577064,15.350957,-93.46094,0.52069634,STD
10485041604000,2.780045,0.075966170129987,9.8589983509649,-0.584833505885412,-0.11942416,0.043676864,0.009468411,15.337058,-93.449486,0.5129182,STD
10485046634000,2.785075,0.0668059885451916,9.8537231929271,-0.592719563223559,-0.12217305,0.06078109,0.010079277,15.314845,-93.44247,0.5063413,STD
10485051587000,2.790028,0.0636880016276211,9.84281034664432,-0.578688619001512,-0.12217305,0.06505715,-0.0030543262,15.295729,-93.435,0.49435902,STD
10485056846000,2.795287,0.0603773831742589,9.83122329665418,-0.563790832677315,-0.1142318,0.070249505,0.00061086525,15.2729225,-93.430595,0.4867209,STD
10485061611000,2.800052,0.057377745043384,9.8207246670282,-0.550292458112798,-0.11056661,0.06505715,-0.009468411,15.251892,-93.42409,0.4718869,STD
10485066556000,2.804997,0.0542647942443962,9.80982944698613,-0.53628417642937,-0.10781772,0.0720821,-0.0076358155,15.22663,-93.42032,0.46236446,STD
10485071580000,2.810021,0.0511021117744035,9.798760167817,-0.522052102177085,-0.1151481,0.064751714,-0.010995574,15.207171,-93.41423,0.44875312,STD
10485076906000,2.815347,0.0482662470552033,9.78711477732189,-0.507188525503543,-0.10934488,0.07360926,-0.018325957,15.181522,-93.41265,0.43551663,STD
10485081599000,2.82004,0.0566481874947781,9.77873266971279,-0.498806597317232,-0.09896017,0.07147124,-0.0106901415,15.161764,-93.41084,0.4258645,STD
10485086551000,2.824992,0.0654927153142484,9.76988796549795,-0.489962082427266,-0.10415252,0.06811147,-0.007941248,15.142269,-93.4011,0.41120058,STD
10485091635000,2.830076,0.055012485849504,9.78437645565476,-0.45234165712996,-0.096516706,0.051923547,-0.008552114,15.127575,-93.39827,0.39808625,STD
10485096496000,2.834937,0.0411574673769841,9.80284970238095,-0.410776601230159,-0.087659165,0.028099801,-0.007330383,15.116521,-93.39466,0.38661465,STD
10485101596000,2.840037,0.00702667916092412,9.818380442143,-0.413956085337582,-0.08552113,0.021991149,0.0036651916,15.09965,-93.37752,0.38005155,STD
10485106508000,2.844949,-0.0304489430306712,9.832434084047,-0.428009443537144,-0.0852157,0.02107485,0.0125227375,15.088414,-93.362854,0.3732733,STD
10485111594000,2.850035,-0.0852433206711308,9.84711485157587,-0.407488253777062,-0.071776666,0.008246681,0.0125227375,15.088577,-93.34991,0.3653186,STD
10485116491000,2.854932,-0.141911479129594,9.86128168371765,-0.379154175287484,-0.08093964,-0.00030543262,0.007941248,15.087994,-93.33115,0.35883057,STD
10485121565000,2.860006,-0.164560619226769,9.86788831266249,-0.392381644674049,-0.08032878,-0.015577064,0.004886922,15.096789,-93.3194,0.34643695,STD
10485126503000,2.864944,-0.178221747195956,9.8724421139143,-0.415150194459316,-0.080634214,-0.017715093,0.008552114,15.10436,-93.30513,0.33502954,STD
10485131599000,2.87004,-0.195417166669794,9.88714575938086,-0.418015035562852,-0.06780604,-0.031154128,0.004886922,15.129964,-93.28446,0.31413308,STD
10485136527000,2.874968,-0.213126170437148,9.90485466144465,-0.413587777686679,-0.07513642,-0.04520403,0.008246681,15.156417,-93.258865,0.29654247,STD
10485141708000,2.880149,-0.204275166497281,9.90559831702217,-0.427794070181932,-0.08582657,-0.04428773,0.0012217305,15.182871,-93.23819,0.27326405,STD
10485146629000,2.88507,-0.179637220906524,9.8957429391468,-0.452432026063363,-0.07422013,-0.05375614,0.0015271631,15.21624,-93.22259,0.2529048,STD
10485151594000,2.890035,-0.168998056355413,9.87591868177706,-0.449533328464167,-0.07849618,-0.057726767,0.0012217305,15.247297,-93.202385,0.22489563,STD
10485156581000,2.895022,-0.164197623990351,9.85191651995176,-0.43513201633129,-0.086132,-0.077579886,0.00030543262,15.285388,-93.184975,0.1968524,STD
10485161603000,2.900044,-0.142751068053875,9.8282448016787,-0.417586534362678,-0.07666359,-0.07788532,0.008552114,15.315671,-93.175156,0.17647614,STD
10485166596000,2.905037,-0.114749704192856,9.80491034803826,-0.39891896170408,-0.077579886,-0.09010262,0.004581489,15.354528,-93.16038,0.15213323,STD
10485171613000,2.910054,-0.0767059197493036,9.8002551707123,-0.408559607934739,-0.08155051,-0.10445796,0.005192355,15.393818,-93.14661,0.1322266,STD
10485176603000,2.915044,-0.0339189701532033,9.80500937186629,-0.432330127214485,-0.08246681,-0.111177474,0.0027488936,15.433939,-93.13365,0.11045189,STD
10485181576000,2.920017,-0.00381808109348833,9.81891835356123,-0.443600214011427,-0.08002335,-0.106901415,0.00030543262,15.483784,-93.11158,0.103266545,STD
10485186525000,2.924966,0.0195272133864644,9.83759447837651,-0.448269284218304,-0.09468412,-0.12614368,-0.0030543262,15.541527,-93.08488,0.094332635,STD
10485191642000,2.930083,0.0348445897511595,9.85412844041137,-0.462338268225449,-0.09437868,-0.112704635,-0.00030543262,15.582787,-93.067276,0.09438472,STD
10485196590000,2.935031,0.0444001525839887,9.86846207501512,-0.481449391895543,-0.09468412,-0.108123146,-0.0027488936,15.631236,-93.04577,0.091124155,STD
10485201557000,2.939998,0.0741154358953142,9.88243167266429,-0.494246343223323,-0.099571034,-0.106901415,-0.0033597588,15.673564,-93.024574,0.09299221,STD
10485207078000,2.945519,0.119902214556721,9.89769370768787,-0.50442116958626,-0.09712757,-0.10445796,-0.005497787,15.713562,-93.00584,0.0933764,STD
10485211604000,2.950045,0.142194641205859,9.90512450170546,-0.515690092510032,-0.087659165,-0.098043874,0.00030543262,15.755572,-92.9863,0.10226421,STD
10485216596000,2.955037,0.156582909327849,9.90992068790128,-0.530078380664125,-0.089491755,-0.095294975,-0.0021380284,15.797097,-92.96475,0.10754908,STD
10485221571000,2.960012,0.17358333330003,9.90930054181237,-0.530912379282646,-0.089491755,-0.1001819,0.0036651916,15.833677,-92.94917,0.12358127,STD
10485226583000,2.965024,0.192765647880907,9.90450486552103,-0.521321196954741,-0.07971791,-0.09010262,0.0015271631,15.864411,-92.936295,0.13617787,STD
10485231595000,2.970036,0.195959559472534,9.89726478359627,-0.522300933980232,-0.0720821,-0.09162979,0.0033597588,15.903138,-92.93158,0.15518208,STD
10485236532000,2.974973,0.186972544402205,9.88827805474244,-0.53128797251093,-0.0729984,-0.09101892,0.0076358155,15.93767,-92.9274,0.17362197,STD
10485241616000,2.980057,0.176500124152762,9.87016286857171,-0.5363012,-0.059253927,-0.09193522,0.008246681,15.970588,-92.9292,0.19370794,STD
10485246599000,2.98504,0.164824921261438,9.84214230165876,-0.5363012,-0.06047566,-0.09254608,0.006414085,16.002573,-92.9266,0.21344988,STD
10485251514000,2.989955,0.153309042832608,9.81450411454714,-0.5363012,-0.07269296,-0.09101892,0.00030543262,16.038816,-92.926,0.23282811,STD
10485256542000,2.994983,0.14152840463522,9.78623050217742,-0.5363012,-0.06261369,-0.080634214,-0.003970624,16.071926,-92.93136,0.2514243,STD
10485261493000,2.999934,0.127664804800983,9.76513768847499,-0.531493323078378,-0.051923547,-0.07971791,0.0015271631,16.106646,-92.93355,0.27012727,STD
10485266558000,3.004999,0.109320647635435,9.75596542696417,-0.517735189401532,-0.058337633,-0.07513642,-0.0018325958,16.136497,-92.93335,0.28454602,STD
10485271506000,3.009947,0.0951769879701126,9.75332655516888,-0.506388589051177,-0.06047566,-0.06688975,-0.0125227375,16.163536,-92.93447,0.29237434,STD
10485277191000,3.015632,0.092390696734698,9.77283070204708,-0.500816011817298,-0.073303826,-0.0711658,-0.018020526,16.192331,-92.93072,0.3000789,STD
10485281516000,3.019957,0.0902709588994882,9.78766894923234,-0.496576540131013,-0.06719518,-0.06383542,-0.018325957,16.213013,-92.92146,0.3021246,STD
10485286560000,3.025001,0.0877988299651996,9.80497394779939,-0.491632286908905,-0.065973446,-0.058643065,-0.025045475,16.235012,-92.907234,0.3004059,STD
10485291618000,3.030059,0.0876841196801683,9.81771989023321,-0.483938569712432,-0.06383542,-0.057421334,-0.025961773,16.25582,-92.89553,0.300078,STD
10485296639000,3.03508,0.0918998949637033,9.8219357517973,-0.471291240340172,-0.07360926,-0.06566802,-0.028099801,16.277472,-92.88087,0.2972631,STD
10485301638000,3.040079,0.0950211636365083,9.82636416712261,-0.460807080038299,-0.06994407,-0.076052725,-0.029321533,16.297335,-92.87023,0.29124904,STD
10485306577000,3.045018,0.0856106001281273,9.83342198706789,-0.474922918913703,-0.06414085,-0.082161374,-0.029932396,16.318104,-92.857796,0.2847014,STD
10485311570000,3.050011,0.0760971472839592,9.84055697289232,-0.489193091722954,-0.06536258,-0.07849618,-0.026267206,16.335632,-92.83883,0.27876586,STD
10485316555000,3.054996,0.0665989373043522,9.84768052673464,-0.50344040024571,-0.058643065,-0.08093964,-0.02443461,16.356415,-92.82421,0.27193475,STD
10485321732000,3.060173,0.0572748588670167,9.85434801513839,-0.516589597261328,-0.0571159,-0.08093964,-0.028405234,16.374435,-92.81028,0.2633773,STD
10485326599000,3.06504,0.0548990841315052,9.85197219277231,-0.509462281489373,-0.058643065,-0.0852157,-0.032375857,16.394201,-92.797775,0.25524414,STD
10485331554000,3.069995,0.0524803531238086,9.84955341327285,-0.502206097053367,-0.052839845,-0.07788532,-0.02565634,16.411732,-92.79071,0.24653469,STD
10485336560000,3.075001,0.0500367270038228,9.84710973816199,-0.494875227368877,-0.05131268,-0.07941248,-0.033292156,16.432566,-92.78182,0.23250198,STD
10485341658000,3.080099,0.0474540070340687,9.84409695509725,-0.48841715,-0.059864793,-0.081855945,-0.029626964,16.456264,-92.772896,0.22673813,STD
10485346894000,3.085335,0.0441813170317191,9.8375516133664,-0.48841715,-0.052839845,-0.08246681,-0.029626964,16.479448,-92.768776,0.21774611,STD
10485351552000,3.089993,0.0412698980036549,9.83172880935909,-0.48841715,-0.0580322,-0.08307768,-0.034208454,16.503983,-92.75724,0.20736244,STD
10485356574000,3.095015,0.0381309657668712,9.82545098159509,-0.48841715,-0.053450707,-0.0888809,-0.03634648,16.529922,-92.75076,0.19759007,STD
10485361557000,3.099998,0.0350164099453074,9.81922190637645,-0.48841715,-0.04886922,-0.0870483,-0.03390302,16.548182,-92.744705,0.18382716,STD
10485366558000,3.104999,0.0318906034705652,9.81297032998303,-0.48841715,-0.058337633,-0.0842994,-0.03726278,16.56756,-92.73596,0.16793494,STD
10485372004000,3.110445,0.0279559348709176,9.8070372503888,-0.486093694167963,-0.064446285,-0.0729984,-0.03634648,16.583895,-92.72975,0.15430267,STD
10485376593000,3.115034,0.0188428265187144,9.81159389663038,-0.458754363877657,-0.06291912,-0.08002335,-0.03573562,16.604498,-92.72317,0.13962883,STD
10485381626000,3.120067,0.00907489989285034,9.81756541098629,-0.431290905017612,-0.059253927,-0.084910266,-0.034513887,16.622166,-92.7156,0.12422929,STD
10485386564000,3.125005,0.00232171925223724,9.83557378551028,-0.435793029205541,-0.06414085,-0.09193522,-0.03634648,16.642305,-92.706276,0.10824318,STD
10485391667000,3.130108,-0.00465711444744859,9.85418389794364,-0.440445588891851,-0.053145275,-0.08979719,-0.03604105,16.658575,-92.69287,0.090323314,STD
10485396583000,3.135024,-0.0113802080135187,9.87211204074638,-0.444927655013328,-0.06352998,-0.0983493,-0.042760566,16.679726,-92.67249,0.06993176,STD
10485401491000,3.139932,-0.0180923608252094,9.89001100837776,-0.44940242729246,-0.06780604,-0.10262536,-0.03970624,16.699093,-92.65761,0.05281359,STD
10485406554000,3.144995,-0.00723496538116896,9.88092252603058,-0.442164157616605,-0.07544186,-0.10720685,-0.03756821,16.720808,-92.639305,0.03371552,STD
10485411553000,3.149994,0.00666317421424424,9.86702459009096,-0.432898723479776,-0.076052725,-0.10567969,-0.036651913,16.741901,-92.6224,0.015451595,STD
10485416564000,3.155005,-0.00185019605329185,9.86792007778001,-0.465237300012043,-0.0711658,-0.11301007,-0.031154128,16.766953,-92.599014,-0.0016836416,STD
10485421541000,3.159982,-0.0162009894411883,9.87270377197912,-0.508289668687274,-0.0711658,-0.124311075,-0.027183503,16.792578,-92.57496,-0.01878558,STD
10485426545000,3.164986,-0.0153741700872583,9.85479079424888,-0.509588661646009,-0.07269296,-0.113926366,-0.03176499,16.820477,-92.55545,-0.030057956,STD
10485431559000,3.17,-0.0106128304444224,9.8309841134358,-0.500065994292514,-0.08460484,-0.11362094,-0.027183503,16.85426,-92.53353,-0.037955362,STD
10485436580000,3.175021,-0.0132030571397052,9.83547394315445,-0.48228019897389,-0.07727446,-0.11575896,-0.028099801,16.885447,-92.52175,-0.050257392,STD
10485441650000,3.180091,-0.0178811966329126,9.84794890798728,-0.462008260627228,-0.07941248,-0.09560041,-0.0290161,16.909887,-92.504456,-0.061012384,STD
10485446626000,3.185067,-0.0224726013899541,9.86019258155892,-0.442112172814015,-0.081855945,-0.106595986,-0.025045475,16.943336,-92.488815,-0.07045341,STD
10485451580000,3.190021,-0.0270437065278929,9.87238212313325,-0.42230405001927,-0.081855945,-0.10293079,-0.02687807,16.966484,-92.47387,-0.0813749,STD
10485456545000,3.194986,-0.031624961475383,9.88459873070623,-0.40245194471529,-0.07819075,-0.10476339,-0.030543262,16.9882,-92.45762,-0.09511128,STD
10485461564000,3.200005,-0.0362560427606706,9.89694820772714,-0.382383925275075,-0.07696902,-0.10781772,-0.029626964,17.009106,-92.4413,-0.10791277,STD
10485466555000,3.204996,-0.0440932360345957,9.92556205063844,-0.364816446297064,-0.071776666,-0.1001819,-0.030848695,17.027252,-92.42785,-0.12212729,STD
10485471534000,3.209975,-0.0545009452048456,9.96719291340172,-0.349204882269999,-0.07269296,-0.101098195,-0.03268129,17.048561,-92.413605,-0.13627093,STD
10485476560000,3.215001,-0.0676984094600731,9.96538230998914,-0.358415130237884,-0.07727446,-0.08399397,-0.032070424,17.07006,-92.392815,-0.15044448,STD
10485481557000,3.219998,-0.0818693608705952,9.9464875732899,-0.377309728830323,-0.077579886,-0.096516706,-0.03604105,17.100002,-92.3738,-0.16669014,STD
10485486594000,3.225035,-0.108907886261213,9.94397029767532,-0.399298423067425,-0.087964594,-0.10354166,-0.037873644,17.120247,-92.34951,-0.18660107,STD
10485491618000,3.230059,-0.141395313057779,9.94861145210765,-0.422503729999035,-0.08368854,-0.10354166,-0.042760566,17.141901,-92.33033,-0.20825289,STD
10485496732000,3.235173,-0.14849171567957,9.94556487493096,-0.443588815989356,-0.07971791,-0.11362094,-0.040927973,17.169266,-92.311,-0.2304102,STD
10485501554000,3.239995,-0.141535944969122,9.93860920590451,-0.462137534655822,-0.06963864,-0.12186762,-0.04062254,17.195932,-92.29565,-0.25398484,STD
10485506540000,3.244981,-0.134343603044133,9.93141696912186,-0.481317109784606,-0.076052725,-0.12308934,-0.043066,17.22604,-92.2801,-0.28263095,STD
10485511564000,3.250005,-0.127096445837727,9.92416991785911,-0.500642858971733,-0.07086037,-0.12308934,-0.040011674,17.258017,-92.27118,-0.3092571,STD
10485516556000,3.254997,-0.139254448509577,9.8994381290037,-0.514948729526799,-0.05589417,-0.12003502,-0.044593163,17.289778,-92.2647,-0.33801523,STD
10485521534000,3.259975,-0.162273928754225,9.86490901279575,-0.526458485673588,-0.056505036,-0.14110987,-0.04337143,17.328316,-92.25554,-0.36410955,STD
10485526523000,3.264964,-0.18272892244703,9.83768974519706,-0.531683641299813,-0.052534413,-0.13194689,-0.048563786,17.354189,-92.25682,-0.38940912,STD
10485532120000,3.270561,-0.188613360870568,9.85534281468877,-0.496376980036228,-0.055283304,-0.13713925,-0.043066,17.39002,-92.25574,-0.41140205,STD
10485536570000,3.275011,-0.192978394649653,9.86843772919109,-0.473071289895392,-0.049785517,-0.14813483,-0.044593163,17.426983,-92.260994,-0.44102457,STD
10485541628000,3.280069,-0.197346642911895,9.88154227784291,-0.455598292285147,-0.05681047,-0.15088372,-0.049480084,17.462803,-92.2622,-0.4696243,STD
10485546601000,3.285042,-0.198670472770745,9.8931463145804,-0.438090633089545,-0.049785517,-0.14752395,-0.0421497,17.50125,-92.26555,-0.4962152,STD
10485551552000,3.289993,-0.178911232162838,9.89561626962546,-0.418331395060687,-0.057421334,-0.13897185,-0.043676864,17.538511,-92.26409,-0.52629817,STD
10485556533000,3.294974,-0.159032262769183,9.89810119107152,-0.398452428261708,-0.04886922,-0.13103059,-0.043066,17.575888,-92.26691,-0.55445087,STD
10485561562000,3.300003,-0.138961727318331,9.90061005875918,-0.378381895430536,-0.04642576,-0.1255328,-0.048258353,17.611132,-92.266884,-0.58422524,STD
10485566612000,3.305053,-0.112710944105879,9.91420550992615,-0.3612992045363,-0.047036625,-0.13225232,-0.034513887,17.64755,-92.267265,-0.6080323,STD
10485571536000,3.309977,-0.0720083662779323,9.95490796355615,-0.352254184407788,-0.04550946,-0.1133155,-0.040927973,17.674534,-92.271126,-0.638291,STD
10485576584000,3.315025,-0.0239715439684481,9.9876533184481,-0.343809328509764,-0.04886922,-0.10262536,-0.037873644,17.697039,-92.27637,-0.6625926,STD
10485581559000,3.32,0.0494785312961973,9.98275680380267,-0.338912660472765,-0.03970624,-0.09315695,-0.021380283,17.714489,-92.284775,-0.68412197,STD
10485586584000,3.325025,0.103638271792744,9.97561930449454,-0.330637284741049,-0.054061573,-0.099265605,-0.017715093,17.722458,-92.28668,-0.7056532,STD
10485591626000,3.330067,0.0967045743060502,9.96175199447157,-0.312147424615642,-0.06261369,-0.087964594,-0.013439035,17.723028,-92.29102,-0.72151315,STD
10485596591000,3.335032,0.0898767662891059,9.94809646209075,-0.293939936412024,-0.069027774,-0.08155051,-0.014049901,17.719463,-92.289246,-0.72559553,STD
10485602226000,3.340667,0.0821275823665518,9.93259818918725,-0.273275445772066,-0.06414085,-0.06505715,-0.013439035,17.70995,-92.287766,-0.727736,STD
10485606637000,3.345078,0.0750924629687685,9.92005001798774,-0.257432277133821,-0.08399397,-0.059864793,-0.0125227375,17.701963,-92.27798,-0.7298698,STD
10485611564000,3.350005,0.0564386077178296,9.90139627327535,-0.243441890686895,-0.08399397,-0.06291912,-0.022602014,17.691711,-92.275925,-0.73470515,STD
10485616719000,3.35516,0.0349401652783862,9.8829282870317,-0.228159829262248,-0.08979719,-0.05497787,-0.0125227375,17.68116,-92.27455,-0.73945516,STD
10485621530000,3.359971,-0.00931921707867435,9.87850225946206,-0.206030139701249,-0.089491755,-0.05222898,-0.021380283,17.672867,-92.2773,-0.7521621,STD
10485626974000,3.365415,-0.0593060653465437,9.87553322399781,-0.181221239822847,-0.093767814,-0.02687807,-0.02687807,17.65869,-92.27524,-0.7638222,STD
10485631560000,3.370001,-0.099411294916446,9.91563842425349,-0.165179147157337,-0.10445796,-0.0070249503,-0.027183503,17.64551,-92.27175,-0.7760629,STD
10485636566000,3.375007,-0.143189484891791,9.95941658222993,-0.147667870252945,-0.110872045,0.009162978,-0.02443461,17.632967,-92.26572,-0.7955463,STD
10485641626000,3.380067,-0.157240955482973,9.9493957935318,-0.131615967740416,-0.11026118,0.014966198,-0.030848695,17.618052,-92.25994,-0.8169063,STD
10485646555000,3.384996,-0.162296009722639,9.92412054872564,-0.11645081029985,-0.1142318,0.019242255,-0.027794369,17.599552,-92.25029,-0.83388966,STD
10485651558000,3.389999,-0.142365640022736,9.89704383914362,-0.110833667419477,-0.11026118,0.013744468,-0.03023783,17.588291,-92.24463,-0.8618094,STD
10485656526000,3.394967,-0.119829839461917,9.87000080693444,-0.106326511072376,-0.1133155,-0.008857546,-0.025350908,17.58132,-92.23553,-0.8860175,STD
10485661560000,3.400001,-0.1497364653148,9.82929631970564,-0.14402797210139,-0.11453723,-0.022296581,-0.02687807,17.573309,-92.23068,-0.9144397,STD
10485666494000,3.404935,-0.193202090502862,9.78583082563369,-0.192323107837285,-0.113926366,-0.032375857,-0.02687807,17.571262,-92.22522,-0.94039106,STD
10485671968000,3.410409,-0.214270506244996,9.74283290632506,-0.253743204979984,-0.10873401,-0.033292156,-0.016493361,17.568493,-92.21834,-0.95925176,STD
10485676594000,3.415035,-0.227571839603683,9.70736243094476,-0.306948538414732,-0.09743301,-0.033292156,-0.018020526,17.568493,-92.21496,-0.98096466,STD
10485681555000,3.419996,-0.292674439620527,9.69737838812426,-0.351377103824223,-0.09101892,-0.027794369,-0.01740966,17.56382,-92.2165,-1.0082836,STD
10485686583000,3.425024,-0.368415189640189,9.69264498977586,-0.393981277563901,-0.07544186,-0.03390302,-0.002443461,17.56294,-92.22178,-1.0312537,STD
10485691563000,3.430004,-0.386832973224226,9.70677174294394,-0.398465174629557,-0.063224554,-0.044898596,0.008246681,17.5617,-92.23438,-1.0558122,STD
10485696540000,3.434981,-0.39150406624069,9.72545597843983,-0.393794091368091,-0.061391957,-0.056199603,0.009773844,17.562618,-92.247246,-1.0781097,STD
10485701556000,3.439997,-0.485016157916545,9.66253708824392,-0.495673929635493,-0.051923547,-0.06505715,0.022907447,17.572989,-92.27021,-1.1054732,STD
10485706557000,3.444998,-0.606704186541581,9.57361136177074,-0.631402926744845,-0.04184427,-0.09743301,0.030848695,17.593403,-92.29374,-1.1335012,STD
10485711562000,3.450003,-0.657932891537215,9.60345211150291,-0.62477326491947,-0.034208454,-0.10629055,0.022907447,17.61351,-92.31449,-1.1593902,STD
10485716574000,3.455015,-0.680804816553893,9.68121620756695,-0.560731960850091,-0.018936822,-0.11056661,0.025961773,17.64153,-92.33648,-1.179815,STD
10485721537000,3.459978,-0.683449813494954,9.75040405275205,-0.508939888505879,-0.010079277,-0.115453534,0.030848695,17.680326,-92.37956,-1.2199614,STD
10485726613000,3.465054,-0.673333938601602,9.81615755644574,-0.463418414515659,-0.01282817,-0.116980694,0.030543262,17.719074,-92.42271,-1.260005,STD
10485731558000,3.469999,-0.672020857037258,9.83044782586694,-0.418867123970829,-0.0106901415,-0.12675454,0.03359759,17.772337,-92.45361,-1.2961073,STD
10485736543000,3.474984,-0.674389282298953,9.82334240169668,-0.373867011848489,-0.01863139,-0.13316862,0.03023783,17.824503,-92.48185,-1.3335918,STD
10485741654000,3.480095,-0.676817571468969,9.8160573820509,-0.327729484655455,-0.020158553,-0.1591304,0.029932396,17.889605,-92.50471,-1.3652422,STD
10485746564000,3.485005,-0.679150363451903,9.8090588599494,-0.283406405313291,-0.03268129,-0.1853976,0.01985312,17.955818,-92.524895,-1.4004145,STD
10485751553000,3.489994,-0.683152030707705,9.77146389541359,-0.242560730957781,-0.036651913,-0.21502456,0.01740966,18.02973,-92.545494,-1.4335605,STD
10485756550000,3.494991,-0.687997152667814,9.71816745266781,-0.203799719862306,-0.045814894,-0.2302962,0.009162978,18.106037,-92.56448,-1.4711221,STD
10485761582000,3.500023,-0.692775341241163,9.68183382364493,-0.178555158258052,-0.04520403,-0.25900686,0.005192355,18.199514,-92.570984,-1.5077622,STD
10485766595000,3.505036,-0.69748945145326,9.65354955616654,-0.159698707564808,-0.070554934,-0.26908615,-0.0036651916,18.290874,-92.572495,-1.5479525,STD
10485771532000,3.509973,-0.6810249558251,9.62274930930255,-0.150215254735401,-0.079107046,-0.27855456,-0.005192355,18.395786,-92.574554,-1.5861272,STD
10485776570000,3.515011,-0.652707630754182,9.58971229042356,-0.145495703842316,-0.0842994,-0.27855456,-0.025045475,18.499422,-92.57784,-1.6319902,STD
10485781556000,3.519997,-0.616267947160976,9.58244668507317,-0.123913600914341,-0.093462385,-0.27885997,-0.022602014,18.610006,-92.57604,-1.6714213,STD
10485786546000,3.524987,-0.574307548331707,9.59177141287805,-0.0912777127640976,-0.101098195,-0.28405234,-0.03573562,18.720472,-92.5816,-1.7208505,STD
10485791605000,3.530046,-0.510880622408397,9.61693695859656,-0.0661264125519487,-0.11056661,-0.28588495,-0.038179077,18.828852,-92.58016,-1.7601066,STD
10485796566000,3.535007,-0.432381334147147,9.65387758003693,-0.0476559923802119,-0.12034045,-0.2883284,-0.04795292,18.93754,-92.58277,-1.8051727,STD
10485801557000,3.539998,-0.349296295063887,9.69311046738399,-0.0314620505565376,-0.12461651,-0.27458394,-0.051618114,19.040394,-92.57552,-1.8397909,STD
10485806548000,3.544989,-0.26204881537996,9.73443809549428,-0.0176861329640696,-0.13316862,-0.24281894,-0.052534413,19.137571,-92.56893,-1.876325,STD
10485811493000,3.549934,-0.170427912122131,9.77627113442623,-0.00782629227786885,-0.13836098,-0.23151793,-0.04795292,19.227673,-92.55356,-1.8989831,STD
10485816556000,3.554997,-0.0688605552832423,9.82043082331512,-0.00341032016120219,-0.14966199,-0.19853121,-0.0571159,19.301447,-92.54051,-1.925551,STD
10485821528000,3.559969,0.0304925772160407,9.86223985084966,-0.0022016601437385,-0.1518,-0.18020524,-0.052839845,19.366337,-92.51487,-1.9320662,STD
10485826574000,3.565015,0.129872027790562,9.89885352635567,-0.0126626555159649,-0.14172074,-0.15974127,-0.052534413,19.420403,-92.49408,-1.9423962,STD
10485831490000,3.569931,0.210958932536679,9.91734965449785,-0.0411098270123993,-0.13713925,-0.14202617,-0.04917465,19.46647,-92.45061,-1.9252511,STD
10485836556000,3.574997,0.266082695926493,9.90536623583461,-0.103423650609495,-0.12339478,-0.1160644,-0.033292156,19.503752,-92.40942,-1.9051299,STD
10485841635000,3.580076,0.321347913900608,9.89335206619572,-0.165897379399397,-0.12370021,-0.10720685,-0.033292156,19.536753,-92.356995,-1.8695145,STD
10485846619000,3.58506,0.37557942529714,9.88156261522502,-0.227202570241861,-0.115453534,-0.10170906,-0.025350908,19.562807,-92.304924,-1.8283644,STD
10485851533000,3.589974,0.40619424256235,9.86527531895437,-0.287780132495843,-0.08857546,-0.07788532,-0.009773844,19.575235,-92.25954,-1.7899963,STD
10485857231000,3.595672,0.386032175357473,9.83503212867172,-0.358347372976168,-0.08155051,-0.06383542,0.005192355,19.588438,-92.21199,-1.7507664,STD
10485861557000,3.599998,0.372712558099812,9.80996381749843,-0.40927200282418,-0.06383542,-0.05955936,0.008246681,19.580652,-92.165306,-1.6906794,STD
10485866558000,3.604999,0.367712184660681,9.76996103883901,-0.454275400325747,-0.03848451,-0.032070424,0.018020526,19.561945,-92.11859,-1.625775,STD
10485871550000,3.609991,0.359939465552762,9.74060771499176,-0.50035473645799,-0.0143553335,-0.018325957,0.030543262,19.55842,-92.08007,-1.5556206,STD
10485876544000,3.614985,0.343351738449666,9.74475429818781,-0.550117930757825,0.01038471,-0.013133603,0.04428773,19.54897,-92.04724,-1.4839903,STD
10485881525000,3.619966,0.326807191252926,9.74889008731466,-0.599751585304778,0.02321288,-0.005192355,0.038179077,19.533052,-92.02494,-1.4161189,STD
10485886564000,3.625005,0.272927505433596,9.76016481129672,-0.614314665049723,0.053145275,-0.004581489,0.040011674,19.517336,-92.01048,-1.3438246,STD
10485891994000,3.630435,0.211787568546318,9.77290228839465,-0.627052158108068,0.06505715,-0.0027488936,0.048563786,19.498524,-91.99855,-1.2729316,STD
10485896640000,3.635081,0.15947520265713,9.78380068960956,-0.637950572978984,0.07574729,0.00061086525,0.04795292,19.472334,-92.00906,-1.2126224,STD
10485901493000,3.639934,0.104832087792681,9.79518466315583,-0.649334560789693,0.07086037,0.0030543262,0.028099801,19.445482,-92.02335,-1.1567043,STD
10485906588000,3.645029,0.0425399501382565,9.81608302776235,-0.662628916657413,0.064446285,0.005192355,0.027488936,19.417614,-92.03924,-1.0967119,STD
10485911576000,3.650017,-0.0193485887760503,9.83818606237276,-0.675890737423654,0.05681047,0.02687807,0.01863139,19.383005,-92.06006,-1.0456609,STD
10485916597000,3.655038,-0.0830933481173017,9.88285299227601,-0.628277009031926,0.042455133,0.03604105,0.014660766,19.362345,-92.083694,-1.0118785,STD
10485921591000,3.660032,-0.147124807853862,9.93703352059732,-0.554394559248198,0.024129177,0.04795292,0.008857546,19.334566,-92.10622,-0.9815358,STD
10485927367000,3.665808,-0.215990330568587,10.0075776122162,-0.454478706428974,0.013744468,0.067500606,-0.009162978,19.308344,-92.134346,-0.9670658,STD
10485931590000,3.670031,-0.265320137384125,10.0607019061738,-0.378586681313567,-0.017715093,0.05955936,-0.007330383,19.286842,-92.1502,-0.9489453,STD
10485936609000,3.67505,-0.347943504512687,10.1103651936755,-0.255249880244521,-0.027794369,0.064446285,-0.020463986,19.267881,-92.168564,-0.9501808,STD
10485941696000,3.680137,-0.446276989388697,10.1525079865436,-0.11009093294579,-0.04062254,0.059253927,-0.029626964,19.254309,-92.17704,-0.94985116,STD
10485946581000,3.685022,-0.495029348440451,10.1666007403134,-0.0359820790879065,-0.06811147,0.040011674,-0.03940081,19.25362,-92.17492,-0.9657029,STD
10485951592000,3.690033,-0.507278415495942,10.1592514100771,-0.0139337663180356,-0.09682214,0.015271631,-0.057421334,19.25605,-92.171585,-0.9861717,STD
10485956591000,3.695032,-0.5194981493236,10.151919679514,0.00806174666072796,-0.105374254,0.0030543262,-0.049480084,19.276943,-92.15724,-1.021479,STD
10485961598000,3.700039,-0.53173743863648,10.1445762158354,0.0300924595002297,-0.12522738,-0.009468411,-0.051618114,19.304882,-92.13857,-1.0641456,STD
10485966590000,3.705031,-0.505571916652665,10.0971408446747,-0.00918347267562774,-0.1386664,-0.02443461,-0.048563786,19.329903,-92.11922,-1.1062759,STD
10485971566000,3.710007,-0.456641064193037,10.0259686703071,-0.0848038635831233,-0.14996742,-0.03268129,-0.049785517,19.356688,-92.09909,-1.1493511,STD
10485976565000,3.715006,-0.41127075981916,9.97384505812702,-0.146644726557589,-0.15607607,-0.03481932,-0.052534413,19.39031,-92.07803,-1.1961708,STD
10485981599000,3.72004,-0.369755464775027,9.94270903659849,-0.193349441610334,-0.16646078,-0.047036625,-0.044593163,19.429316,-92.05509,-1.2395344,STD
10485986541000,3.724982,-0.340094410840434,9.9083529218629,-0.236335157892138,-0.16707164,-0.04184427,-0.034513887,19.455385,-92.038025,-1.2718139,STD
10485991673000,3.730114,-0.316300753474051,9.87028280373741,-0.279163740157823,-0.16432275,-0.045814894,-0.031154128,19.48756,-92.021416,-1.3033603,STD
10485997065000,3.735506,-0.293977622453658,9.83581364829579,-0.303121115515248,-0.15363261,-0.035124753,-0.031154128,19.508406,-92.0069,-1.3251884,STD
10486001600000,3.740041,-0.276664163942595,9.80984338369544,-0.311777840251146,-0.15485434,-0.034513887,-0.018020526,19.533316,-91.98881,-1.3421183,STD
10486006584000,3.745025,-0.27209239129577,9.79838695695711,-0.317348552261246,-0.14813483,-0.021685716,-0.012217305,19.542065,-91.978775,-1.3588363,STD
10486011624000,3.750065,-0.279306127000448,9.80079158406815,-0.319753134177253,-0.14660765,-0.011301007,-0.009773844,19.551441,-91.96656,-1.3725457,STD
10486016557000,3.754998,-0.286366713951079,9.80314516056394,-0.322106666437503,-0.13439035,0.0027488936,0.0036651916,19.553946,-91.95427,-1.3778589,STD
10486021602000,3.760043,-0.293587606139591,9.80555217321776,-0.324513633851442,-0.12034045,0.01282817,0.01282817,19.5547,-91.94373,-1.3835166,STD
10486026612000,3.765053,-0.304574842437722,9.81434397775801,-0.32817604569395,-0.122783914,0.009773844,0.017715093,19.555357,-91.9311,-1.3864698,STD
10486031574000,3.770015,-0.318667403137604,9.82843682295374,-0.332873562657177,-0.1255328,0.0106901415,0.020158553,19.552147,-91.92033,-1.3873769,STD
10486036600000,3.775041,-0.33780568327775,9.84025854247657,-0.325432844359151,-0.1142318,0.01863139,0.024129177,19.543228,-91.90895,-1.3902149,STD
10486041570000,3.780011,-0.361287042863345,9.84965078815984,-0.306647754729156,-0.10293079,0.026267206,0.027488936,19.534355,-91.89734,-1.3924438,STD
10486046562000,3.785003,-0.384782144447925,9.86356329287392,-0.285594333194988,-0.09560041,0.021991149,0.03145956,19.528137,-91.88851,-1.3955165,STD
10486051579000,3.79002,-0.408297632768207,9.88237556959671,-0.262078839963782,-0.084910266,0.021991149,0.034208454,19.518745,-91.88246,-1.3977804,STD
10486056573000,3.795014,-0.4447388170307,9.89496461660795,-0.244749823263211,-0.070249505,0.021685716,0.032986723,19.520039,-91.8863,-1.4036202,STD
10486061598000,3.800039,-0.498020963231001,9.89980854464016,-0.235062164455964,-0.05955936,0.016798794,0.029932396,19.522678,-91.89121,-1.4091212,STD
10486066667000,3.805108,-0.527786839603588,9.90029318735616,-0.214969194899629,-0.05681047,0.016493361,0.03390302,19.527552,-91.89715,-1.4171978,STD
10486071596000,3.810037,-0.530003928852567,9.89585914776197,-0.183929923189329,-0.06688975,0.014049901,0.032986723,19.534382,-91.90417,-1.4273703,STD
10486076572000,3.815013,-0.532242158940397,9.89138282781457,-0.152594679523179,-0.057726767,0.0067195175,0.032986723,19.548536,-91.91926,-1.4448241,STD
10486081505000,3.819946,-0.534461047409704,9.88694518989244,-0.121530218710253,-0.058643065,0.00580322,0.02687807,19.56148,-91.93188,-1.4639021,STD
10486086464000,3.824905,-0.538366870032305,9.8816124308434,-0.096181198351573,-0.06383542,0.010079277,0.028099801,19.570366,-91.94584,-1.48357,STD
10486091533000,3.829974,-0.550430097444461,9.87196165543462,-0.0985938458494111,-0.07544186,-0.005192355,0.017104227,19.585045,-91.96217,-1.5081185,STD
10486096489000,3.83493,-0.562224406983748,9.86252601863725,-0.100952709727747,-0.07147124,-0.01985312,0.01038471,19.598295,-91.980484,-1.5361047,STD
10486101502000,3.839943,-0.574154365361563,9.85298186059341,-0.103338703396451,-0.07391469,-0.018325957,0.016187929,19.611404,-91.99504,-1.5629599,STD
10486106654000,3.845095,-0.57851824442701,9.84452111406364,-0.109268183436969,-0.07666359,-0.018020526,0.011911872,19.629017,-92.01387,-1.5940421,STD
10486111559000,3.85,-0.54885270196648,9.84223934189944,-0.129805860446927,-0.083383106,-0.03359759,0.0009162979,19.650772,-92.03172,-1.6248533,STD
10486116522000,3.854963,-0.518836374294389,9.83993058853534,-0.150586388683507,-0.08857546,-0.03023783,0.007330383,19.67412,-92.049225,-1.6528804,STD
10486121536000,3.859977,-0.488511597556959,9.83759811032305,-0.17158045851591,-0.09468412,-0.031154128,0.0106901415,19.702976,-92.06851,-1.6844034,STD
10486126680000,3.865121,-0.459250318518987,9.83505368481013,-0.191208821531646,-0.08827003,-0.022907447,0.006414085,19.728142,-92.08923,-1.7156188,STD
10486131565000,3.870006,-0.453610450569922,9.83082369882459,-0.186978922410187,-0.083383106,-0.018936822,0.005497787,19.754717,-92.10708,-1.7443999,STD
10486136523000,3.874964,-0.447886302096745,9.82653050117541,-0.182685812923146,-0.08552113,-0.02107485,0.004886922,19.77568,-92.117455,-1.7601954,STD
10486141595000,3.880036,-0.442030537462628,9.82213858942134,-0.178293991358348,-0.09101892,-0.023518313,0.009773844,19.795473,-92.12681,-1.774397,STD
10486146531000,3.884972,-0.436331788599458,9.81786444186257,-0.174019931570524,-0.07269296,-0.016798794,0.018325957,19.813126,-92.13868,-1.7874275,STD
10486151570000,3.890011,-0.43051412338035,9.81350110524412,-0.169656684554551,-0.0720821,-0.002443461,0.019242255,19.828424,-92.14855,-1.8017548,STD
10486156541000,3.894982,-0.424774966046715,9.80919665072333,-0.165352318427064,-0.0693332,-0.009773844,0.01740966,19.847881,-92.16003,-1.8143271,STD
10486161543000,3.899984,-0.424329256711667,9.81058298430806,-0.156906208630069,-0.077579886,-0.0061086523,0.014660766,19.859976,-92.16964,-1.8265377,STD
10486166536000,3.904977,-0.431475367949587,9.82011107293016,-0.142613991128823,-0.0693332,-0.0009162979,0.017104227,19.87362,-92.18118,-1.8376223,STD
10486171534000,3.909975,-0.438628635317326,9.8296487029989,-0.12830746137292,-0.070554934,0.0009162979,0.015577064,19.892275,-92.18475,-1.8433003,STD
10486176655000,3.915096,-0.445957943478629,9.83942105265518,-0.113648850152436,-0.064446285,-0.0061086523,0.015271631,19.911766,-92.18979,-1.847976,STD
10486181515000,3.919956,-0.44450964021194,9.85055740089552,-0.107211641313433,-0.063224554,-0.008552114,0.017104227,19.929197,-92.193695,-1.8524488,STD
10486186592000,3.925033,-0.429995770250746,9.86507155880597,-0.112049592915423,-0.062002823,-0.0076358155,0.016493361,19.947418,-92.19913,-1.8577492,STD
10486191558000,3.929999,-0.420499287520482,9.86840671777003,-0.119322736882946,-0.0580322,-0.009468411,0.01740966,19.972822,-92.20145,-1.8622408,STD
10486196554000,3.934995,-0.418246448612864,9.85488966550523,-0.130586917306714,-0.06963864,-0.012217305,0.01863139,19.997898,-92.20172,-1.866904,STD
10486201534000,3.939975,-0.416000824561635,9.84141590243902,-0.141815023493738,-0.06658431,-0.0106901415,0.014966198,20.020176,-92.20414,-1.8702455,STD
10486206538000,3.944979,-0.413744378225822,9.82787720557491,-0.153097241035879,-0.06658431,-0.01863139,0.01985312,20.045671,-92.202126,-1.8710186,STD
10486211546000,3.949987,-0.409799526817301,9.8178962937379,-0.159800988970949,-0.064751714,-0.0021380284,0.02565634,20.056143,-92.20441,-1.8767927,STD
10486216537000,3.954978,-0.395557735457119,9.82976444907384,-0.138438293007995,-0.07360926,0.00030543262,0.019242255,20.07268,-92.20693,-1.8847812,STD
10486221540000,3.959981,-0.381281702162189,9.84166113934548,-0.117024234121468,-0.0720821,0.0033597588,0.01740966,20.082806,-92.20926,-1.888505,STD
10486226589000,3.96503,-0.366874408117396,9.85366721353727,-0.0954132840279088,-0.074830994,0.0067195175,0.017715093,20.092022,-92.21069,-1.8933938,STD
10486231562000,3.970003,-0.354886721026244,9.86520074481003,-0.076069592746181,-0.082161374,0.012217305,0.020158553,20.099672,-92.2116,-1.8981004,STD
10486236608000,3.975049,-0.35961885310615,9.87466520661966,-0.0713374586897767,-0.074830994,0.02321288,0.020158553,20.104702,-92.2148,-1.9032986,STD
10486241566000,3.980007,-0.363250875120811,9.883265,-0.0662029187092583,-0.0870483,0.02443461,0.016493361,20.11422,-92.20242,-1.9002541,STD
10486246683000,3.985124,-0.354089869150816,9.883265,-0.0547516586161611,-0.08277224,0.026572637,0.021991149,20.120274,-92.19164,-1.8947024,STD
10486252456000,3.990897,-0.343754421141282,9.883265,-0.0418323456363976,-0.08674286,0.021685716,0.0290161,20.128576,-92.17929,-1.8907977,STD
10486256587000,3.995028,-0.336358658846567,9.883265,-0.0325876406442959,-0.09285152,0.020463986,0.029932396,20.135132,-92.16784,-1.8872004,STD
10486261497000,3.999938,-0.327568246629901,9.883265,-0.0215996228492779,-0.083383106,0.013744468,0.03573562,20.147255,-92.156166,-1.8796661,STD
10486266598000,4.005039,-0.318117520734088,9.87951796602889,-0.0116596970816087,-0.08277224,0.01038471,0.035124753,20.15856,-92.14425,-1.8739735,STD
10486271512000,4.009953,-0.308929616723936,9.87492392288169,-0.00247179594962905,-0.082161374,0.009162978,0.03756821,20.171001,-92.13189,-1.8660923,STD
10486276612000,4.015053,-0.295542340639582,9.86277230028158,0.0109154793604183,-0.08552113,0.011911872,0.040011674,20.182041,-92.1163,-1.8561074,STD
10486281494000,4.019935,-0.281437160587289,9.84866683547868,0.0250206594127112,-0.08368854,0.01160644,0.031154128,20.194016,-92.10427,-1.8490692,STD
10486286632000,4.025073,-0.264497500119917,9.84255164083681,0.0323385742844108,-0.07849618,0.020158553,0.03390302,20.197954,-92.0892,-1.839287,STD
10486291583000,4.030024,-0.24750185032586,9.83946162183916,0.0369737512076382,-0.086132,-0.00030543262,0.027794369,20.210093,-92.07755,-1.8349587,STD
10486296676000,4.035117,-0.230018747033368,9.83628297777633,0.0417418699856622,-0.08674286,0.01038471,0.030543262,20.214613,-92.06196,-1.8231963,STD
10486301576000,4.040017,-0.213198168566215,9.83322478890772,0.0463293001863921,-0.0870483,0.0033597588,0.03145956,20.229794,-92.04788,-1.814257,STD
