timestamp,rel_time,acc_x,acc_y,acc_z,gyro_x,gyro_y,gyro_z,azimuth,pitch,roll,label
3689055645000,0,0.8547443896106,9.81499816051766,0.636574963042144,-0.19730948,0.076052725,-0.017104227,329.77524,-33.495552,-23.838482,STD
3689060617000,0.004972,0.838661202762181,9.81224103510871,0.6466843965645,0.005497787,0.033292156,-0.0290161,329.4832,-33.99954,-23.64035,STD
3689065629000,0.009984,0.822448625834532,9.80946172848168,0.656875161008193,0.08093964,0.06566802,-0.018936822,329.2264,-34.576576,-23.392567,STD
3689070633000,0.014988,0.806261926922728,9.80668685809826,0.66704965926762,0.020463986,0.07941248,-0.018020526,328.99142,-35.165268,-23.133202,STD
3689075609000,0.019964,0.790165801066386,9.80392751456751,0.677167225882109,0.022907447,0.07819075,-0.022602014,328.75677,-35.786667,-22.875559,STD
3689080673000,0.025028,0.773785017035736,9.80111937235695,0.687463720523543,0.027183503,0.076358154,-0.01863139,328.5221,-36.391838,-22.617931,STD
3689085629000,0.029984,0.75775358621901,9.79837111943525,0.697540621677363,0.040927973,0.07788532,-0.017715093,328.29364,-36.995903,-22.361128,STD
3689090626000,0.034981,0.741589530571071,9.795600130765,0.707700887025555,0.02687807,0.07544186,-0.022907447,328.07175,-37.59046,-22.102623,STD
3689095627000,0.039982,0.72541253591521,9.79282692397294,0.717869285465881,0.029932396,0.076358154,-0.0143553335,327.85037,-38.191196,-21.841703,STD
3689100627000,0.044982,0.70923877601133,9.79005427171133,0.728035650633173,0.03940081,0.07574729,-0.015577064,327.63815,-38.784214,-21.582262,STD
3689105777000,0.050132,0.692579803310333,9.78719843988188,0.738507006755484,0.046731193,0.07452556,-0.015882496,327.42868,-39.374737,-21.32075,STD
3689110703000,0.055058,0.67664541505303,9.78446682287374,0.7485229097183,0.040011674,0.0729984,-0.020463986,327.2256,-39.95913,-21.05995,STD
3689115634000,0.059989,0.660694853035823,9.78173243321334,0.758548979046284,0.04428773,0.06536258,-0.014966198,327.02682,-40.54503,-20.79569,STD
3689121007000,0.065362,0.643314530643113,9.77875294109302,0.769473755055056,0.04642576,0.07391469,-0.014049901,326.83188,-41.12285,-20.536413,STD
3689125686000,0.070041,0.628179126125062,9.77615829310661,0.778987439578609,0.044898596,0.08155051,-0.013439035,326.64255,-41.696728,-20.274658,STD
3689130671000,0.075026,0.612053887500893,9.77339395880179,0.789123305650399,0.043066,0.07941248,-0.013133603,326.45822,-42.266186,-20.01299,STD
3689135659000,0.080014,0.595918944620781,9.77062796090561,0.79926527154129,0.038789943,0.06658431,-0.007330383,326.27814,-42.830334,-19.750044,STD
3689140708000,0.085063,0.579586681869843,9.76782813665184,0.809531267087222,0.031154128,0.06505715,-0.0076358155,326.10208,-43.387146,-19.490824,STD
3689145665000,0.09002,0.563552016301136,9.76507932919968,0.819610201514075,0.0290161,0.0580322,-0.0106901415,325.9342,-43.9393,-19.228306,STD
3689150657000,0.095012,0.547404134413102,9.76231111318169,0.8297603004971,0.034208454,0.05681047,-0.008246681,325.76907,-44.48659,-18.966606,STD
3689155886000,0.100241,0.530489616305623,9.7594114734465,0.840392285189054,0.044898596,0.03940081,-0.0070249503,325.61475,-45.02863,-18.70259,STD
3689160951000,0.105306,0.514105597522992,9.75660277670549,0.850690813103522,0.04153884,0.033292156,-0.009773844,325.4631,-45.562523,-18.442211,STD
3689165706000,0.110061,0.498724351854402,9.7539659844047,0.860359026377616,0.043066,0.023823744,-0.0106901415,325.3202,-46.09498,-18.178808,STD
3689170717000,0.115072,0.482515009678733,9.75118723230812,0.870547757548277,0.03940081,0.026267206,-0.013439035,325.1814,-46.618793,-17.91917,STD
3689175678000,0.120033,0.466467405102103,9.74843620673416,0.880634825067264,0.040011674,0.024129177,-0.022602014,325.05173,-47.137215,-17.660353,STD
3689180782000,0.125137,0.449957230992222,9.74560588330551,0.891012650630036,0.03481932,0.024740042,-0.022907447,324.92404,-47.648006,-17.403063,STD
3689185720000,0.130075,0.433984025711149,9.74286761193194,0.901052952869254,0.031154128,0.02107485,-0.019242255,324.8031,-48.15266,-17.147709,STD
3689190702000,0.135057,0.417868491342923,9.74010494121848,0.911182719121944,0.041233405,0.020158553,-0.0290161,324.68814,-48.651722,-16.898102,STD
3689195728000,0.140083,0.401610627887542,9.73731787116511,0.921401949388107,0.03848451,0.0290161,-0.02565634,324.57266,-49.14258,-16.64795,STD
3689200687000,0.145042,0.385569492814873,9.73456795465205,0.931484950361027,0.04795292,0.03268129,-0.029321533,324.46573,-49.63094,-16.40268,STD
3689205759000,0.150114,0.369162830768377,9.73175537619787,0.941797711186729,0.042760566,0.028710667,-0.031154128,324.36145,-50.109314,-16.158684,STD
3689210731000,0.155086,0.353079643919958,9.72899825078893,0.951907144709084,0.04153884,0.030848695,-0.029626964,324.25867,-50.58492,-15.918689,STD
3689215772000,0.160127,0.336773259184866,9.72620286277878,0.962156874070748,0.04550946,0.040927973,-0.03145956,324.15958,-51.053696,-15.68285,STD
3689220726000,0.165081,0.320748297872101,9.72345571891798,0.972229708678501,0.046731193,0.04184427,-0.03390302,324.0656,-51.51537,-15.447953,STD
3689225746000,0.170101,0.304509842928605,9.72067197604733,0.982436739306463,0.05009095,0.029626964,-0.03481932,323.97598,-51.97239,-15.214997,STD
3689230726000,0.175081,0.28840077806434,9.71791041439477,0.992562439013086,0.043676864,0.030848695,-0.03268129,323.88623,-52.421062,-14.986662,STD
3689235725000,0.18008,0.272230252912441,9.71513831666361,1.00272677090735,0.048258353,0.0290161,-0.029321533,323.80353,-52.867302,-14.758178,STD
3689240706000,0.185061,0.256117953296195,9.7123762004806,1.012854503887,0.047647487,0.027183503,-0.025350908,323.72333,-53.30469,-14.531746,STD
3689245728000,0.190083,0.239873028848737,9.70959134854904,1.02306560106103,0.06261369,0.016493361,-0.025961773,323.64923,-53.741013,-14.306436,STD
3689250688000,0.195043,0.223828659024088,9.70684087750553,1.03315063530698,0.064446285,0.011301007,-0.029626964,323.57727,-54.167706,-14.084111,STD
3689255747000,0.200102,0.207464048753342,9.70403550794723,1.04343696358325,0.05589417,0.0012217305,-0.021380283,323.5104,-54.59075,-13.859265,STD
3689260945000,0.2053,0.191575181194682,9.70152629049285,1.05326656101446,0.051923547,-0.0033597588,-0.025045475,323.44904,-55.007458,-13.640901,STD
3689265721000,0.210076,0.192255869172061,9.70538352915643,1.05009001577746,0.056199603,-0.008857546,-0.031154128,323.3924,-55.418655,-13.422233,STD
3689270704000,0.215059,0.192966059329365,9.70940794713396,1.04677579364263,0.05131268,-0.012217305,-0.032070424,323.3386,-55.769478,-13.272652,STD
3689276747000,0.221102,0.193827323451497,9.71428845241958,1.04275655937396,0.04520403,-0.006414085,-0.024740042,323.28598,-56.115532,-13.124991,STD
3689280741000,0.225096,0.194396558749163,9.71751412478607,1.04010012686212,0.045814894,-0.01160644,-0.027794369,323.24112,-56.455017,-12.979878,STD
3689285708000,0.230063,0.195104468544733,9.72152562069102,1.03679654641987,0.040927973,-0.015577064,-0.032375857,323.19595,-56.786488,-12.836381,STD
3689290706000,0.235061,0.195816796541161,9.72556215311159,1.03347234769824,0.040317107,-0.012217305,-0.028710667,323.15173,-57.114254,-12.69389,STD
3689295727000,0.240082,0.196532402557581,9.72961726101148,1.03013285154352,0.028099801,-0.019242255,-0.03176499,323.11502,-57.431038,-12.553971,STD
3689300724000,0.245079,0.197244588031401,9.73365298580251,1.02680931792767,0.030543262,-0.03176499,-0.031154128,323.07996,-57.747044,-12.413861,STD
3689305694000,0.250049,0.197952925394796,9.73766690459608,1.02350374216807,0.0290161,-0.034208454,-0.038179077,323.04776,-58.052402,-12.278782,STD
3689310940000,0.255295,0.19870059899809,9.74190372914155,1.02001459721135,0.038789943,-0.038179077,-0.03756821,323.01993,-58.357185,-12.141638,STD
3689315722000,0.260077,0.199382142111119,9.74576581358236,1.01683406133963,0.028710667,-0.04734206,-0.041233405,322.99765,-58.65001,-12.008223,STD
3689320716000,0.265071,0.200093900017114,9.74979911548478,1.01351252304115,0.019547688,-0.05009095,-0.040011674,322.97583,-58.941223,-11.87578,STD
3689325694000,0.270049,0.200803377561376,9.75381949531463,1.01020162643525,0.01282817,-0.054367006,-0.04550946,322.96005,-59.22433,-11.746476,STD
3689330724000,0.275079,0.201520266281271,9.75788187188035,1.00685614432845,0.01863139,-0.045814894,-0.038789943,322.94153,-59.505035,-11.6172,STD
3689335713000,0.280068,0.202231311574224,9.76191113563509,1.0035379315589,0.022907447,-0.034513887,-0.044898596,322.92758,-59.776787,-11.494319,STD
3689340711000,0.285066,0.202943639570653,9.76594766805566,1.00021373283726,0.025961773,-0.058337633,-0.050701816,322.92114,-60.045845,-11.368107,STD
3689346742000,0.291097,0.203803193421485,9.77081848178684,0.996202479838034,0.03145956,-0.06291912,-0.043066,322.90747,-60.31286,-11.246089,STD
3689350730000,0.295085,0.204371573583501,9.77403930837612,0.99355003796091,0.027183503,-0.061391957,-0.046731193,322.9022,-60.571598,-11.128007,STD
3689355747000,0.300102,0.205086609509487,9.77809118575787,0.990213202229332,0.028405234,-0.06505715,-0.05131268,322.9,-60.82944,-11.008953,STD
3689360867000,0.305222,0.205816325264132,9.78222624898182,0.986807860601731,0.018936822,-0.06414085,-0.03970624,322.896,-61.080276,-10.889486,STD
3689365720000,0.310075,0.206507987482352,9.78614567511968,0.983580102219163,0.024740042,-0.057726767,-0.029321533,322.89368,-61.330406,-10.773677,STD
3689370716000,0.315071,0.207220030433564,9.79018059228117,0.980257233709105,0.026572637,-0.050701816,-0.034208454,322.89273,-61.57227,-10.660988,STD
3689375724000,0.320079,0.207933783656076,9.7942252009971,0.976926383929608,0.023823744,-0.055283304,-0.030848695,322.89206,-61.812225,-10.544856,STD
3689380759000,0.325114,0.208651384989012,9.79829161571049,0.973577576293871,0.015271631,-0.048258353,-0.03481932,322.88934,-62.045517,-10.436159,STD
3689385696000,0.330051,0.209355019106332,9.80227888272937,0.970293949025225,0.005192355,-0.05375614,-0.029626964,322.89075,-62.2749,-10.324016,STD
3689390711000,0.335066,0.210069769987102,9.80632914485205,0.966958443505221,0.012217305,-0.05100725,-0.03176499,322.89078,-62.501225,-10.218575,STD
3689395727000,0.340082,0.21078466339048,9.81038021460426,0.963622272879431,0.005192355,-0.047036625,-0.03634648,322.8927,-62.717518,-10.113786,STD
3689400667000,0.345022,0.211488725075626,9.81436990451174,0.960336650293425,0.0018325958,-0.05009095,-0.035430185,322.89642,-62.933067,-10.009462,STD
3689405690000,0.350045,0.212204616137262,9.81842662767071,0.956995823927127,0.0067195175,-0.04886922,-0.034208454,322.89957,-63.144638,-9.909062,STD
3689410778000,0.355133,0.21292977116844,9.82253584674951,0.953611765684699,-0.002443461,-0.055588737,-0.044593163,322.90793,-63.346664,-9.811901,STD
3689415688000,0.360043,0.213629557175335,9.82650130777091,0.950346096272292,-0.009162978,-0.061391957,-0.0421497,322.91498,-63.54846,-9.713139,STD
3689420717000,0.365072,0.214346303372622,9.83056287670709,0.947001279271275,-0.009773844,-0.06719518,-0.034513887,322.92535,-63.745274,-9.616653,STD
3689425756000,0.370111,0.215064474795992,9.83463252193864,0.943649811212392,0.004886922,-0.06414085,-0.03634648,322.93665,-63.940086,-9.5241,STD
3689430718000,0.375073,0.21577167197852,9.83863997969591,0.94034955629908,0.002443461,-0.06841691,-0.03604105,322.95108,-64.127785,-9.429215,STD
3689435708000,0.380063,0.216482859794082,9.84267005108019,0.937030678423742,0.0070249503,-0.07666359,-0.036957346,322.96695,-64.31744,-9.336766,STD
3689440671000,0.385026,0.217190199499219,9.846678316467,0.933729758404643,0.00030543262,-0.07696902,-0.03573562,322.98233,-64.500275,-9.245834,STD
3689445767000,0.390122,0.217916494711263,9.85079399658209,0.930340379315921,0.010079277,-0.07574729,-0.03756821,323.00073,-64.68492,-9.156885,STD
3689450759000,0.395114,0.218627967572042,9.85482568322544,0.92702017122901,0.013439035,-0.08307768,-0.0290161,323.0208,-64.86401,-9.065579,STD
3689455679000,0.400034,0.21932917880502,9.8587992205422,0.923747850758737,0.017715093,-0.0720821,-0.03023783,323.03778,-65.041435,-8.981227,STD
3689460834000,0.405189,0.220063882850956,9.86296255079991,0.920319230428603,0.010995574,-0.077579886,-0.03481932,323.06113,-65.21413,-8.894504,STD
3689465672000,0.410027,0.220917591873859,9.86427376378254,0.920187252767205,0.01740966,-0.07941248,-0.03970624,323.08142,-65.388054,-8.811498,STD
3689470646000,0.415001,0.22186556678035,9.86451076233476,0.921372222018985,0.029321533,-0.074830994,-0.039095376,323.10196,-65.55864,-8.729962,STD
3689475682000,0.420037,0.222825358020617,9.86475071503057,0.922571961695697,0.032375857,-0.07147124,-0.046731193,323.11105,-65.7581,-8.646303,STD
3689480737000,0.425092,0.223788770395429,9.86499157302845,0.923776227792952,0.028405234,-0.06963864,-0.04153884,323.11868,-65.95631,-8.561191,STD
3689485945000,0.4303,0.224781342432623,9.86523972109036,0.925016943487216,0.03145956,-0.05955936,-0.03970624,323.12527,-66.15213,-8.481938,STD
3689490716000,0.435071,0.225690628375299,9.86546704720469,0.926153551508978,0.029932396,-0.06261369,-0.02565634,323.1338,-66.343666,-8.3985,STD
3689495720000,0.440075,0.22664432086265,9.86570547518122,0.927345667740563,0.028710667,-0.063224554,-0.03726278,323.14233,-66.529854,-8.324359,STD
3689500714000,0.445069,0.227596107489714,9.86594342668298,0.928535401645547,0.027794369,-0.06536258,-0.048258353,323.15128,-66.71355,-8.247496,STD
3689505679000,0.450034,0.228542367121947,9.86617999640791,0.929718226803385,0.021991149,-0.06536258,-0.032070424,323.15884,-66.89364,-8.168215,STD
3689510701000,0.455056,0.229499490157813,9.86641928203903,0.930914631222854,0.026572637,-0.06811147,-0.03481932,323.17166,-67.06967,-8.097861,STD
3689515660000,0.460015,0.230444606273875,9.86665556587909,0.932096026984731,0.029626964,-0.064446285,-0.03848451,323.18176,-67.24191,-8.02566,STD
3689520711000,0.465066,0.231407256304572,9.86689623328706,0.933299340151346,0.020463986,-0.06658431,-0.03023783,323.19382,-67.409676,-7.951626,STD
3689525736000,0.470091,0.232364951098524,9.86713566186062,0.934496459268795,0.0106901415,-0.070249505,-0.029321533,323.2071,-67.573654,-7.8821955,STD
3689530719000,0.475074,0.233314641279273,9.86737308924014,0.935683572614517,0.018020526,-0.06291912,-0.02443461,323.2173,-67.737816,-7.8118734,STD
3689535713000,0.480068,0.234266427906337,9.8676110407419,0.9368733065195,0.009773844,-0.06414085,-0.022907447,323.2316,-67.89182,-7.7424,STD
3689540707000,0.485062,0.235218214533401,9.86784899224367,0.938063040424484,0.01740966,-0.0693332,-0.019547688,323.24484,-68.049644,-7.672907,STD
3689545717000,0.490072,0.236173050536923,9.86808770610507,0.939256586052031,0.015882496,-0.07422013,-0.024129177,323.25952,-68.19919,-7.6064425,STD
3689550706000,0.495061,0.237123884233844,9.86832541936944,0.940445128793713,0.014966198,-0.06994407,-0.023823744,323.27277,-68.34881,-7.539576,STD
3689555763000,0.500118,0.238087677780713,9.86856637266228,0.941649871356289,0.018325957,-0.06719518,-0.013439035,323.2877,-68.496826,-7.4719605,STD
3689560749000,0.505104,0.239037939719548,9.86880394298422,0.942837699399991,0.011911872,-0.06811147,-0.015577064,323.3041,-68.63792,-7.4090223,STD
3689565723000,0.510078,0.239985914626039,9.86904094153644,0.944022668651771,0.014049901,-0.067500606,-0.017104227,323.31873,-68.78051,-7.3449025,STD
3689570716000,0.515071,0.240937510667075,9.86927884539073,0.945212164324094,0.007941248,-0.06566802,-0.013439035,323.33337,-68.91677,-7.281301,STD
3689575666000,0.520021,0.241880911508878,9.86951470040349,0.94639141599203,0.016187929,-0.055588737,-0.010079277,323.34622,-69.05462,-7.220318,STD
3689580689000,0.525044,0.242838225130773,9.86975403368209,0.947588058644159,0.011301007,-0.05497787,-0.010995574,323.36157,-69.18466,-7.1600122,STD
3689585779000,0.530134,0.243808308016587,9.86999655934168,0.948800662884521,0.01160644,-0.054367006,-0.0125227375,323.37433,-69.31601,-7.1011662,STD
3689590718000,0.535073,0.244749612412076,9.87023189023219,0.949977293993194,0.008246681,-0.05222898,-0.020158553,323.38757,-69.44186,-7.045611,STD
3689595654000,0.540009,0.245690345049478,9.87046707818027,0.951153210403887,0.010995574,-0.051618114,-0.014966198,323.40036,-69.56811,-6.9880757,STD
3689601520000,0.545875,0.246808322693523,9.87074657828226,0.952550683188555,0.0067195175,-0.0421497,-0.016187929,323.4118,-69.687805,-6.936461,STD
3689605676000,0.550031,0.247600398228581,9.87094460119803,0.9535407781243,0.0027488936,-0.048258353,-0.016798794,323.42712,-69.80654,-6.8829775,STD
3689611219000,0.555574,0.248656816585372,9.87120871116484,0.954861301759728,0.004886922,-0.046731193,-0.017104227,323.43823,-69.9234,-6.8323913,STD
3689615658000,0.560013,0.249502827966537,9.87142021831669,0.955918816538307,0.010079277,-0.050701816,-0.023823744,323.45343,-70.037094,-6.7836676,STD
3689620655000,0.56501,0.250455186351687,9.87165831276089,0.957109265141271,-0.004276057,-0.050701816,-0.019547688,323.46646,-70.14499,-6.733573,STD
3689625675000,0.57003,0.251411928215496,9.87189750309706,0.958305193095419,0.004276057,-0.041233405,-0.008552114,323.47827,-70.25829,-6.6849494,STD
3689630726000,0.575081,0.252374578246193,9.87213817050503,0.959508506262034,0.014966198,-0.04153884,-0.020158553,323.49466,-70.36445,-6.6413794,STD
3689635722000,0.580077,0.253326746045314,9.87237621730175,0.960698716632338,-0.0015271631,-0.0290161,-0.01985312,323.50314,-70.46577,-6.5946074,STD
3689640677000,0.585032,0.254271099817261,9.8726123105519,0.961879159463574,-0.006414085,-0.03359759,-0.01863139,323.51764,-70.56998,-6.5500712,STD
3689645851000,0.590206,0.255257191929482,9.87285883859958,0.963111775247392,0.0009162979,-0.03573562,-0.01740966,323.52826,-70.6711,-6.507678,STD
3689650704000,0.595059,0.256182105926506,9.87309007180704,0.964267918347289,-0.003970624,-0.03023783,-0.02107485,323.5386,-70.76539,-6.4674125,STD
3689655676000,0.600031,0.25712969966094,9.87332697506431,0.965452411133748,-0.0021380284,-0.032375857,-0.007941248,323.55026,-70.86332,-6.422232,STD
3689660769000,0.605124,0.25810035430484,9.87356964366632,0.966665730072091,0.0106901415,-0.029932396,-0.017104227,323.5617,-70.95856,-6.3858275,STD
3689665684000,0.610039,0.25857377,9.87345344389649,0.966671121374744,-0.00030543262,-0.028405234,-0.008857546,323.5715,-71.049034,-6.3416967,STD
3689670725000,0.61508,0.25857377,9.8729670607958,0.965455187746641,0.007330383,-0.020463986,-0.015271631,323.58118,-71.143814,-6.3056383,STD
3689675683000,0.620038,0.25857377,9.87248868598659,0.964259274450047,0.00580322,-0.026267206,-0.005192355,323.58197,-71.244064,-6.2568326,STD
3689680744000,0.625099,0.25857377,9.87200037317711,0.963038516645678,0.0070249503,-0.019242255,-0.0070249503,323.57898,-71.3433,-6.2157345,STD
3689685682000,0.630037,0.25857377,9.87152392807669,0.96184742752535,-0.0012217305,-0.021380283,-0.016187929,323.58014,-71.43787,-6.173527,STD
3689690701000,0.635056,0.25857377,9.87103966765567,0.960636800491142,-0.0061086523,-0.023518313,0.004276057,323.57724,-71.53438,-6.125233,STD
3689695672000,0.640027,0.25857377,9.87056003853574,0.959437751479974,0.008246681,-0.0106901415,0.0009162979,323.5739,-71.62883,-6.087882,STD
3689700749000,0.645104,0.25857377,9.87007018195923,0.958213134334591,0.009162978,-0.016493361,-0.0009162979,323.57468,-71.71862,-6.043668,STD
3689705625000,0.64998,0.25857377,9.86959971895606,0.957037000160692,0.003970624,-0.017715093,0.004886922,323.57056,-71.80917,-6.000633,STD
3689710550000,0.654905,0.25857377,9.86912452816635,0.955849046754938,0.0067195175,-0.013744468,-0.00580322,323.56842,-71.89854,-5.963407,STD
3689715547000,0.659902,0.25857377,9.868642390425,0.954643726314623,0.0033597588,-0.008246681,-0.0009162979,323.56464,-71.985115,-5.9212117,STD
3689720547000,0.664902,0.25857377,9.86815996322733,0.953437682247868,0.011301007,-0.0070249503,0.0018325958,323.5623,-72.07252,-5.883283,STD
3689725580000,0.669935,0.25857377,9.86767435201016,0.952223678290272,0.0143553335,-0.010079277,-0.00061086525,323.55984,-72.156,-5.8463135,STD
3689730547000,0.674902,0.25857377,9.86719510883199,0.951025594114358,0.004886922,-0.003970624,0.0021380284,323.55414,-72.23728,-5.808804,STD
3689735545000,0.6799,0.25857377,9.8667128746052,0.94982003246523,0.004886922,-0.0018325958,0.003970624,323.5509,-72.319954,-5.772379,STD
3689740571000,0.684926,0.25857377,9.8662279387861,0.948607716969328,0.013439035,0.0009162979,-0.0027488936,323.54654,-72.40023,-5.7388334,STD
3689745614000,0.689969,0.25857377,9.86574136271453,0.947391300923599,0.015577064,-0.0027488936,0.0076358155,323.542,-72.479,-5.7004604,STD
3689750775000,0.69513,0.25857377,9.86524340136109,0.946146422237894,0.01740966,0.0015271631,0.0021380284,323.53662,-72.55628,-5.6698318,STD
3689755680000,0.700035,0.25857377,9.86477014028018,0.944963293008407,0.01740966,-0.0012217305,-0.00061086525,323.53336,-72.633316,-5.635441,STD
3689760714000,0.705069,0.25857377,9.86428443257756,0.943749047841998,0.021991149,0.010079277,0.00030543262,323.52542,-72.71037,-5.6037054,STD
3689765733000,0.710088,0.25857377,9.86380017215654,0.94253842080779,0.0061086523,0.005192355,0.002443461,323.52307,-72.780235,-5.571499,STD
3689770689000,0.715044,0.25857377,9.86332199031821,0.941342989928822,0.015882496,0.015882496,0.002443461,323.518851597829,-72.8170227539946,-5.55740973596623,STD
3689775684000,0.720039,0.25857377,9.86284004554773,0.940138151906134,0.0076358155,0.013439035,-0.0012217305,323.5146,-72.8541,-5.5432096,STD
3689780690000,0.725045,0.25857377,9.86235703943743,0.938930660586499,0.005192355,0.019242255,0.005192355,323.5074,-72.92235,-5.511585,STD
3689785650000,0.730005,0.25857377,9.86187847165734,0.937734264872278,0.016798794,0.014966198,0.005497787,323.50168,-72.99254,-5.4830627,STD
3689790698000,0.735053,0.25857377,9.86139141315857,0.936516642782482,-0.00061086525,0.013133603,0.0033597588,323.49362,-73.05324,-5.454686,STD
3689795675000,0.74003,0.25857377,9.86091120512601,0.935316146518434,0.0027488936,0.0106901415,0.0033597588,323.490080865814,-73.0867260339185,-5.44023725022315,STD
3689800781000,0.745136,0.25857377,9.86041855047175,0.934084534317464,0.00030543262,0.011911872,0.005192355,323.48645,-73.12108,-5.425414,STD
3689805708000,0.750063,0.25857377,9.85994316671116,0.932896098494084,0.004886922,0.013439035,0.00580322,323.47952,-73.18364,-5.3976903,STD
3689811225000,0.75558,0.25857377,9.85941085654125,0.931565349470826,0.005192355,0.02443461,0.00580322,323.4704,-73.24419,-5.370828,STD
3689815696000,0.760051,0.25857377,9.8589794701411,0.930486904866334,0.004581489,0.028405234,0.0027488936,323.46317,-73.304276,-5.344748,STD
3689820711000,0.765066,0.25857377,9.85849559566183,0.929277242667379,-0.0076358155,0.01985312,-0.00061086525,323.45663,-73.36006,-5.319144,STD
3689825685000,0.77004,0.25857377,9.85801567708559,0.928077470029771,0.0012217305,0.030543262,0.008246681,323.44318,-73.42107,-5.2932973,STD
3689830665000,0.77502,0.25857377,9.85753517959671,0.926876250139283,-0.0021380284,0.023823744,-0.007941248,323.4393,-73.47176,-5.273723,STD
3689835657000,0.780012,0.25857377,9.85705352428256,0.925672135743035,-0.0021380284,0.027488936,0.004276057,323.433683501199,-73.501039616307,-5.25963785851319,STD
3689840673000,0.785028,0.25857377,9.85656955331785,0.924462232335266,0.006414085,0.02321288,0.004886922,323.42804,-73.53046,-5.245485,STD
3689845708000,0.790063,0.25857377,9.8560837491298,0.923247745960044,0.0036651916,0.022296581,0.004886922,323.42117,-73.58145,-5.225106,STD
3689850707000,0.795062,0.25857377,9.85560141841757,0.922041943102102,0.006414085,0.023823744,0.004886922,323.413,-73.63635,-5.201784,STD
3689855691000,0.800046,0.25857377,9.85512053498693,0.920839758376361,0.0021380284,0.03023783,0.007330383,323.40372,-73.68777,-5.1785507,STD
3689860727000,0.805082,0.25857377,9.85463463431343,0.919625030792325,-0.0015271631,0.025350908,0.00061086525,323.39807,-73.7382,-5.157532,STD
3689865750000,0.810105,0.257247736834485,9.85491287430482,0.91369044975846,-0.0015271631,0.029626964,0.006414085,323.393440297517,-73.7633225731229,-5.14669334646698,STD
3689870676000,0.815031,0.25560652091154,9.85538180265296,0.906656666042424,-0.0018325958,0.02565634,-0.0021380284,323.3889,-73.78796,-5.136064,STD
3689875682000,0.820037,0.253938651055619,9.85585834656501,0.899508651165753,-0.0030543262,0.03359759,0.002443461,323.37906,-73.83557,-5.1150284,STD
3689880747000,0.825102,0.252251123924129,9.85634050695545,0.892276390808115,0.0021380284,0.035430185,0.013439035,323.35547,-73.90153,-5.0927744,STD
3689885710000,0.830065,0.250597580557182,9.8568129575019,0.885189775180285,-0.0021380284,0.040011674,0.013439035,323.3298,-73.96266,-5.073459,STD
3689890675000,0.83503,0.248943370841911,9.85728559843744,0.87810030377344,-0.005497787,0.036957346,0.0067195175,323.30588,-74.02449,-5.052929,STD
3689895700000,0.840055,0.247269170676908,9.85776395104593,0.870925158996118,0.00061086525,0.045814894,0.008552114,323.27716,-74.0872,-5.0316606,STD
3689900675000,0.84503,0.245611629220015,9.85823754392696,0.863821408694194,-0.0018325958,0.05375614,0.0021380284,323.2511,-74.14407,-5.014574,STD
3689905692000,0.850047,0.24394009444831,9.85871513497905,0.856657687032936,-0.01160644,0.05100725,0.0125227375,323.22458,-74.20105,-4.9925323,STD
3689910783000,0.855138,0.242243904788603,9.85919977042776,0.849388301548092,0.0009162979,0.048563786,0.01038471,323.1976,-74.26049,-4.976612,STD
3689915721000,0.860076,0.240598690775711,9.85966984111048,0.84233738315796,-0.006414085,0.039095376,0.004276057,323.1733,-74.31133,-4.9585214,STD
3689920705000,0.86506,0.238938150751358,9.86014429074246,0.835220781850464,-0.009468411,0.04184427,-0.002443461,323.1469,-74.36531,-4.9422317,STD
3689926616000,0.870971,0.236968758278656,9.86070698572131,0.826780526969122,-0.004581489,0.040927973,0.007330383,323.12378,-74.419304,-4.9223943,STD
3689930665000,0.87502,0.23561973609595,9.86109242845002,0.820999002351535,-0.004581489,0.03940081,0.0067195175,323.10165,-74.46854,-4.907704,STD
3689935660000,0.880015,0.233955531155813,9.86156792522203,0.813866694259452,-0.014049901,0.040011674,0.0027488936,323.0791,-74.51604,-4.8916245,STD
3689940685000,0.88504,0.232281330990811,9.86204627783051,0.806691549482131,-0.01282817,0.044593163,-0.0021380284,323.0563,-74.56527,-4.876438,STD
3689945660000,0.890015,0.230623789533917,9.86251987071155,0.799587799180206,-0.0070249503,0.053145275,-0.0021380284,323.044325261845,-74.5883361346633,-4.86786382942643,STD
3689950710000,0.895065,0.22894126001486,9.86300060318375,0.792376957165186,-0.011911872,0.05222898,0.006414085,323.03217,-74.61175,-4.8591604,STD
3689955702000,0.900057,0.22727805459721,9.86347581437212,0.785248932741627,-0.0076358155,0.044593163,0.0009162979,323.0127,-74.65681,-4.846582,STD
3689960816000,0.905171,0.225574201931772,9.86396263929546,0.7779467057981,-0.01160644,0.04734206,0.0076358155,322.98706,-74.70085,-4.8297896,STD
3689965717000,0.910072,0.223941315362881,9.86442918777987,0.770948619319762,-0.009162978,0.03848451,0.0061086523,322.96814,-74.7456,-4.815658,STD
3689970666000,0.915021,0.222292436434205,9.86490030560263,0.763881994145043,-0.014660766,0.033292156,0.0021380284,322.94745,-74.786606,-4.8010626,STD
3689976732000,0.921087,0.220271401966363,9.86547775573657,0.755220416389973,-0.0125227375,0.04642576,0.009468411,322.9237,-74.83037,-4.784688,STD
3689980684000,0.925039,0.21895469767739,9.86585396459403,0.749577397054655,-0.01740966,0.04520403,0.011301007,322.90637,-74.86903,-4.769791,STD
3689985644000,0.929999,0.21730215383293,9.86632612955683,0.742495065095349,-0.01863139,0.054061573,0.005497787,322.8829,-74.9084,-4.756887,STD
3689990701000,0.935056,0.215617292094737,9.86680752839088,0.735274227853774,-0.010995574,0.04886922,0.008857546,322.8632,-74.94906,-4.7401023,STD
3689996775000,0.94113,0.213593592233598,9.86738574008121,0.72660122698264,-0.014660766,0.0421497,0.006414085,322.8426,-74.9845,-4.7272654,STD
3690000691000,0.945046,0.212288882214464,9.8677585219349,0.721009611669607,-0.013439035,0.04337143,0.0015271631,322.82147,-75.02261,-4.714602,STD
3690005691000,0.950046,0.210623011403516,9.86823449467966,0.713870164129984,-0.0027488936,0.05375614,0.004581489,322.79953,-75.06207,-4.700806,STD
3690010921000,0.955276,0.208880510535264,9.86873236217068,0.706402302003539,-0.0125227375,0.05467244,0.0027488936,322.78088,-75.09467,-4.689336,STD
3690015746000,0.960101,0.2072729452027,9.86919167586937,0.699512735127802,-0.010079277,0.048258353,0.004276057,322.76123,-75.13331,-4.6764846,STD
3690020717000,0.965072,0.205616736442455,9.86966488797221,0.692414696383909,-0.007941248,0.04795292,0.008246681,322.73987,-75.16855,-4.6641245,STD
3690025687000,0.970042,0.203960860856373,9.8701380048805,0.685318085529524,-0.016187929,0.040317107,0.008857546,322.72275,-75.20076,-4.6515045,STD
3690030662000,0.975017,0.20230331939948,9.87061159776153,0.678214335227599,-0.0036651916,0.03940081,0.007941248,322.70395,-75.2387,-4.6388607,STD
3690035655000,0.98001,0.200639780807668,9.87108690414445,0.671084882914532,-0.011301007,0.04428773,0.0067195175,322.68588,-75.2683,-4.6262236,STD
3690040687000,0.985042,0.19896324842353,9.87156592311477,0.663899742910655,-0.015271631,0.044593163,0.008857546,322.6694,-75.30182,-4.612743,STD
3690045688000,0.990043,0.19729704443842,9.87204199105408,0.656758867481524,-0.01282817,0.049480084,0.014966198,322.65036,-75.33461,-4.599347,STD
3690050706000,0.995061,0.195625176492553,9.87251967730072,0.649593717930759,-0.009773844,0.046120327,0.0125227375,322.63422,-75.36529,-4.5873857,STD
3690055694000,1.000049,0.193963303771551,9.87299450771089,0.642471405065231,-0.008857546,0.046731193,0.016187929,322.615,-75.39652,-4.572861,STD
3690060642000,1.004997,0.192314758017037,9.8734655303391,0.63540620778002,-0.0030543262,0.042455133,0.017104227,322.59866,-75.428825,-4.5594206,STD
3690065695000,1.01005,0.19153613,9.86935642098251,0.623406255142381,-0.009468411,0.04153884,0.01863139,322.5812,-75.45783,-4.5452886,STD
3690070725000,1.01508,0.19153613,9.86133438767694,0.607362527773522,-0.017104227,0.04550946,0.013439035,322.56418,-75.486885,-4.53305,STD
3690075687000,1.020042,0.189931310363316,9.85506895086428,0.591622278994878,-0.007330383,0.0421497,0.011301007,322.5306,-75.55993,-4.523935,STD
3690080704000,1.025059,0.178396381828585,9.85891400600192,0.576242363575544,-0.012217305,0.044898596,0.013439035,322.49506,-75.625305,-4.5158315,STD
3690085664000,1.030019,0.166992505900288,9.86271537604033,0.561037185086428,-0.003970624,0.045814894,0.01282817,322.43436,-75.724724,-4.505692,STD
3690090708000,1.035063,0.166871588736745,9.86207802423763,0.557487733306988,-0.0033597588,0.04184427,0.014049901,322.37555,-75.81857,-4.494388,STD
3690095727000,1.040082,0.173203141696634,9.85891218329711,0.560653508134097,-0.003970624,0.03726278,0.013439035,322.31827,-75.91169,-4.48383,STD
3690100713000,1.045068,0.179493064601199,9.85576715780807,0.563798467944411,-0.017104227,0.052534413,0.018020526,322.22217,-76.039474,-4.4691844,STD
3690105701000,1.050056,0.179235287541968,9.85998219300384,0.5650316,-0.008246681,0.04520403,0.020158553,322.13678,-76.1688,-4.4535627,STD
3690110702000,1.055057,0.17474371605083,9.86896551420801,0.5650316,-0.0018325958,0.03573562,0.0106901415,322.051,-76.28948,-4.4407234,STD
3690115721000,1.060076,0.17238252,9.873688,0.569054554530275,-0.01282817,0.03634648,0.01038471,321.8987,-76.46816,-4.4156365,STD
3690120713000,1.065068,0.17238252,9.873688,0.577457311440373,-0.005497787,0.034208454,0.007941248,321.75684,-76.645355,-4.3926916,STD
3690125655000,1.07001,0.167734301371341,9.87275833744222,0.585114883143297,-0.016187929,0.040011674,0.018020526,321.5119,-76.91738,-4.3483596,STD
3690130662000,1.075017,0.143106120764253,9.86783260154083,0.590040516178737,-0.003970624,0.034513887,0.014049901,321.2853,-77.18195,-4.306947,STD
3690135650000,1.080005,0.128679668636775,9.86515631567029,0.589580860271739,-0.003970624,0.038789943,0.016187929,320.87976,-77.64008,-4.208675,STD
3690140708000,1.085063,0.146230209337862,9.86954403903986,0.57203031498913,-0.003970624,0.023518313,0.010079277,320.695919331427,-77.8523179893502,-4.159755745745,STD
3690145791000,1.090146,0.163441817638376,9.87326392619926,0.556726995719557,-0.008552114,0.038789943,0.017104227,320.51117,-78.065605,-4.1105947,STD
3690150672000,1.095027,0.173588198595615,9.86649953331886,0.5770197646972,-0.005497787,0.035124753,0.012217305,320.09406,-78.613396,-3.9494286,STD
3690155687000,1.100042,0.184013132113451,9.85954943491788,0.597869638989943,-0.0070249503,0.027183503,0.0125227375,319.6265,-79.27039,-3.7238002,STD
3690160769000,1.105124,0.19153613,9.85153037270876,0.609911918615071,-0.007330383,0.025961773,0.008552114,319.19434,-79.88086,-3.5067153,STD
3690165665000,1.11002,0.19153613,9.84147858923786,0.599859820255118,-0.009773844,0.02443461,0.00580322,318.79602,-80.448494,-3.295091,STD
3690170650000,1.115005,0.189635110198995,9.83728186099892,0.588058972656881,-0.006414085,0.026572637,0.002443461,318.41476,-81.03688,-3.049137,STD
3690175680000,1.120035,0.184889636452566,9.8420269383312,0.573822531596887,-0.007941248,0.017715093,0.010995574,318.05927,-81.58896,-2.8075593,STD
3690180674000,1.125029,0.177911040354504,9.844957,0.560983313172625,-0.008552114,0.01282817,0.010995574,317.77026,-82.058495,-2.5939164,STD
3690185653000,1.130008,0.167234962947235,9.844957,0.550307243197254,-0.008857546,0.010995574,0.008552114,317.49338,-82.507965,-2.3832297,STD
3690190668000,1.135023,0.156481693576386,9.844957,0.539553981312038,-0.0021380284,0.015271631,0.009162978,317.26703,-82.90005,-2.1911716,STD
3690195698000,1.140053,0.15322891,9.844957,0.5363012,-0.012217305,0.01740966,0.0067195175,317.04736,-83.27396,-2.003913,STD
3690200668000,1.145023,0.15322891,9.844957,0.5363012,-0.010079277,0.013439035,0.007941248,316.83316,-83.64064,-1.8187406,STD
3690205924000,1.150279,0.162150127066747,9.8390097124045,0.545222410856454,-0.011301007,0.009162978,0.0070249503,316.6501,-83.96264,-1.6522228,STD
3690210675000,1.15503,0.175871299706474,9.82986255689586,0.558943573944511,-0.009468411,0.012217305,0.014660766,316.46848,-84.277664,-1.4853942,STD
3690215704000,1.160059,0.184112156904725,9.83010951893182,0.571490089706018,-0.0009162979,0.015882496,0.009162978,316.29306,-84.58141,-1.3259333,STD
3690220709000,1.165064,0.187800927414191,9.83748682884408,0.582556416641527,-0.011911872,0.0076358155,0.013744468,316.1222,-84.872345,-1.1636385,STD
3690226068000,1.170423,0.191819548255873,9.84580727163633,0.593478622040069,-0.016187929,0.01160644,0.018325957,315.94293,-85.15924,-1.0028219,STD
3690230674000,1.175029,0.196305543055019,9.85926552303468,0.58899263192515,-0.018936822,0.008552114,0.011911872,315.77063,-85.43347,-0.8459719,STD
3690235923000,1.180278,0.201778370032559,9.87324437102264,0.58418524,-0.008552114,0.008552114,0.005497787,315.597,-85.696,-0.6919968,STD
3690241472000,1.185827,0.2135754027823,9.86537952375314,0.58418524,-0.0076358155,0.0021380284,0.009162978,315.42813,-85.94531,-0.53920865,STD
3690245659000,1.190014,0.222476858201865,9.85944510034039,0.58418524,-0.004276057,0.0070249503,0.009773844,315.25497,-86.18927,-0.39199615,STD
3690251910000,1.196265,0.227769761440895,9.85660763969845,0.59455321980415,-0.014049901,-0.0036651916,0.00580322,315.0902,-86.419106,-0.24703331,STD
3690255662000,1.200017,0.224977176446724,9.85940028009637,0.608516127279086,-0.0106901415,-0.008246681,0.015271631,314.92413,-86.64266,-0.100642875,STD
3690260746000,1.205101,0.221193194007927,9.86318433760783,0.627436015765913,-0.011301007,-0.0030543262,0.006414085,314.75458,-86.85124,0.037685566,STD
3690265655000,1.21001,0.229961545291951,9.87057446067416,0.615910919136121,-0.012217305,-0.007941248,0.005192355,314.59085,-87.04824,0.17877536,STD
3690270636000,1.214991,0.243141341020446,9.87936116853933,0.5939446128007,-0.017104227,-0.008552114,0.003970624,314.4264,-87.23074,0.31490058,STD
3690275670000,1.220025,0.237382107693035,9.883265,0.570247404261393,-0.015271631,-0.0036651916,0.0030543262,314.2624,-87.396805,0.44769615,STD
3690280761000,1.225116,0.216421007372313,9.883265,0.545094082125537,-0.010079277,-0.0070249503,0.00580322,314.10257,-87.54725,0.57910913,STD
3690285678000,1.230033,0.202701456178322,9.8824707257384,0.532284207038805,-0.003970624,-0.0027488936,0.007330383,313.93713,-87.68717,0.7091949,STD
3690290670000,1.235025,0.2093151949291,9.87916378902954,0.555432294393028,-0.008857546,-0.003970624,-0.004581489,313.77606,-87.80854,0.83411,STD
3690295712000,1.240067,0.215995177056789,9.8758237299578,0.578812233583731,-0.01038471,-0.004276057,0.0009162979,313.62134,-87.916,0.9589538,STD
3690300686000,1.245041,0.225196755432438,9.88026156834673,0.600335640951167,-0.013133603,-0.00580322,0.0036651916,313.4691,-88.00329,1.0775993,STD
3690305693000,1.250048,0.239302777489704,9.89906948646794,0.619143652358306,-0.01282817,-0.006414085,0.0021380284,313.31824,-88.06968,1.1945431,STD
3690310658000,1.255013,0.247532781801766,9.90906655939005,0.627676662347512,-0.013133603,-0.01282817,0.0067195175,313.17123,-88.10572,1.3126518,STD
3690315699000,1.260054,0.242689623857344,9.89938003109952,0.61314717839988,-0.0143553335,-0.0061086523,0.007330383,313.02203,-88.12246,1.4271036,STD
3690320681000,1.265036,0.23942018,9.89155250370686,0.607204650465275,-0.0067195175,-0.00580322,0.005497787,312.8736,-88.11781,1.542337,STD
3690325684000,1.270039,0.23942018,9.8874699533873,0.619453320356199,-0.014049901,-0.0143553335,0.009162978,312.72705,-88.09141,1.6573101,STD
3690331021000,1.275376,0.239128290988902,9.88282715802551,0.631631397321517,-0.009468411,-0.0106901415,0.0061086523,312.57965,-88.05584,1.7669425,STD
3690335716000,1.280071,0.231680362145933,9.87165504894815,0.620459525443929,-0.003970624,-0.0143553335,0.005497787,312.43808,-88.00373,1.8764158,STD
3690340699000,1.285054,0.223775563546464,9.85979762199768,0.608602350243499,-0.0067195175,-0.0125227375,0.01282817,312.29504,-87.93669,1.9860996,STD
3690345692000,1.290047,0.226722275295116,9.85776192837232,0.59526918085323,-0.01038471,-0.015271631,0.009162978,312.1556,-87.86367,2.090597,STD
3690350695000,1.29505,0.238336080995031,9.86356894946067,0.580751919180705,-0.008552114,-0.014660766,0.0070249503,312.01587,-87.78061,2.1956952,STD
3690355700000,1.300055,0.249954529431584,9.86937829196461,0.566228854085565,-0.0009162979,-0.008857546,0.00061086525,311.87564,-87.69461,2.2961795,STD
3690360806000,1.305161,0.262147197928079,9.873688,0.552774732552066,-0.018936822,-0.014660766,0.007941248,311.73972,-87.59976,2.398209,STD
3690365775000,1.31013,0.274894048878993,9.873688,0.543214606817116,-0.015577064,-0.01160644,0.007330383,311.6008,-92.49444,2.494406,STD
3690370630000,1.314985,0.287348458491931,9.873688,0.53387381179937,-0.01740966,-0.0125227375,0.0033597588,311.47318,-92.59661,2.5939999,STD
3690375636000,1.319991,0.293145283501663,9.873688,0.530460133897793,-0.01160644,-0.009468411,0.004276057,311.34454,-92.70195,2.6929924,STD
3690380751000,1.325106,0.278332653897793,9.873688,0.545272753190203,-0.015577064,-0.0061086523,0.009162978,311.2171,-92.808105,2.7902153,STD
3690385665000,1.33002,0.263114060780589,9.87620618809367,0.561750472709489,-0.0106901415,-0.0106901415,0.004276057,311.0897,-92.91614,2.8861144,STD
3690390711000,1.335066,0.244934964284774,9.88529544211417,0.584474338583655,-0.011911872,-0.0036651916,0.003970624,310.95905,-93.02653,2.9829416,STD
3690395685000,1.34004,0.22984336,9.89391868706995,0.60387767228211,-0.0106901415,-0.0018325958,0.005497787,310.83057,-93.134384,3.0756435,STD
3690400822000,1.345177,0.22984336,9.90097101634174,0.607403763279817,-0.007941248,-0.004581489,0.008552114,310.70245,-93.241974,3.1670449,STD
3690406981000,1.351336,0.22984336,9.90942639807913,0.611631365860092,-0.0030543262,-0.0067195175,0.003970624,310.5769,-93.3429,3.2519798,STD
3690410826000,1.355181,0.227845407882055,9.90200524984147,0.616911537977172,-0.021685716,-0.01282817,0.011301007,310.45425,-93.445366,3.3396297,STD
3690415666000,1.360021,0.222946680298034,9.87751163749736,0.62670897779962,-0.02107485,-0.010995574,0.010079277,310.3308,-93.54449,3.422045,STD
3690420650000,1.365005,0.229008799503712,9.86192539312231,0.623326987342712,-0.016798794,-0.01863139,0.009468411,310.2133,-93.64172,3.5041823,STD
3690425685000,1.37004,0.247851790193435,9.85721454953107,0.60448401140973,-0.012217305,-0.009773844,0.003970624,310.09128,-93.735756,3.5832157,STD
3690430652000,1.375007,0.256773355582685,9.85633445201681,0.588360789228155,-0.013133603,-0.018936822,-0.0021380284,309.98264,-93.82686,3.6604586,STD
3690435675000,1.38003,0.252471033214382,9.86063686423397,0.575453804153475,-0.0125227375,-0.023823744,-0.0067195175,309.8709,-93.91573,3.7352905,STD
3690440720000,1.385075,0.25049751975206,9.86261042126109,0.566532150535488,-0.01160644,-0.018936822,-0.0018325958,309.7559,-94.00947,3.8138018,STD
3690445667000,1.390022,0.258003302991128,9.85510449302915,0.574037937693283,-0.009773844,-0.022602014,0.003970624,309.64548,-94.10059,3.8898087,STD
3690450884000,1.395239,0.265918740864227,9.84718890224968,0.581953379698986,-0.020463986,-0.02687807,0.0030543262,309.5348,-94.18959,3.9638832,STD
3690456691000,1.401046,0.264603262320178,9.84850440064924,0.591279893135144,-0.021991149,-0.011301007,0.014660766,309.42047,-94.28268,4.041894,STD
3690461429000,1.405784,0.260727043241073,9.85238068853579,0.599032307008372,-0.01740966,-0.015577064,0.004886922,309.31375,-94.36743,4.1119485,STD
3690465628000,1.409983,0.261410875417336,9.85027840778902,0.604757390486814,-0.015271631,-0.018020526,0.0009162979,309.19806,-94.45472,4.18638,STD
3690470641000,1.414996,0.270487078006428,9.83666431477455,0.60929548467341,-0.008857546,-0.006414085,0.006414085,309.08044,-94.54091,4.2594705,STD
3690475722000,1.420077,0.2777274,9.82410804026187,0.61291564,-0.01740966,-0.013439035,0.006414085,309.025799287846,-94.5809353829322,4.29354235990651,STD
3690480695000,1.42505,0.2777274,9.81631320867431,0.61291564,-0.011301007,-0.020158553,0.0018325958,308.97232,-94.62011,4.32689,STD
3690485660000,1.430015,0.2777274,9.80853091653028,0.61291564,-0.008857546,-0.006414085,0.011301007,308.854,-94.70384,4.398948,STD
3690490877000,1.435232,0.28141721446384,9.81771967456359,0.61291564,-0.0067195175,-0.017104227,0.0106901415,308.74658,-94.783035,4.4671764,STD
3690495640000,1.439995,0.285792267063111,9.83084510646461,0.61291564,-0.0143553335,-0.014966198,0.004276057,308.63242,-94.86061,4.535396,STD
3690500678000,1.445033,0.276580578298259,9.84074263868945,0.602192015498886,-0.0125227375,-0.018936822,-0.00030543262,308.52383,-94.94131,4.605309,STD
3690505945000,1.4503,0.259929247076834,9.84906803697285,0.585540679930676,-0.0125227375,-0.013744468,0.007330383,308.4129,-95.02076,4.6757264,STD
3690510659000,1.455014,0.243121399300508,9.854534,0.580483970699492,-0.015882496,-0.01038471,0.00580322,308.30457,-95.09493,4.7414494,STD
3690515717000,1.460072,0.219460064429465,9.854534,0.604145305570535,-0.01038471,-0.0143553335,0.012217305,308.1978,-95.17236,4.810341,STD
3690520651000,1.465006,0.203753977790898,9.85629472740485,0.625133472387138,-0.02076942,-0.013133603,0.0061086523,308.09143,-95.23706,4.8678265,STD
3690525703000,1.470058,0.216938288976292,9.86508444563539,0.638317806517395,-0.025961773,-0.015271631,-0.0015271631,307.988,-95.302536,4.925512,STD
3690530985000,1.47534,0.229557877030517,9.8731170227333,0.649224519511721,-0.015271631,-0.014966198,0.0021380284,307.88263,-95.363304,4.9797544,STD
3690535645000,1.48,0.22561024902521,9.86522161008403,0.621591127596639,-0.013133603,-0.02076942,0.0030543262,307.78027,-95.41854,5.030077,STD
3690541267000,1.485622,0.220847681504644,9.85569628606811,0.588253159925697,-0.018020526,-0.011911872,0.0067195175,307.6709,-95.47524,5.0834146,STD
3690545736000,1.490091,0.223528960826655,9.84800938955425,0.577660411533544,-0.015577064,-0.010079277,0.008246681,307.56592,-95.531296,5.13537,STD
3690550673000,1.495028,0.227786566497073,9.83949445384962,0.569145191301216,-0.019547688,-0.0125227375,0.0018325958,307.4604,-95.58368,5.1852345,STD
3690557531000,1.501886,0.221041829536676,9.8441822501541,0.57823390718307,-0.0076358155,-0.0125227375,0.0027488936,307.35495,-95.64224,5.236836,STD
3690560690000,1.505045,0.214825859330183,9.85039802239573,0.587557870606123,-0.017715093,-0.008246681,0.0076358155,307.24985,-95.69607,5.2868814,STD
3690565671000,1.510026,0.218457137357498,9.84935590938116,0.604118542958963,-0.018936822,-0.010995574,0.007330383,307.1493,-95.7532,5.3374224,STD
3690570644000,1.514999,0.231874024237957,9.84041160766269,0.622007702116631,-0.006414085,-0.01160644,0.0067195175,307.0478,-95.81054,5.3883896,STD
3690575769000,1.520124,0.251118574223948,9.83304127327107,0.618031155465421,-0.010995574,-0.013133603,0.007941248,306.9478,-95.85977,5.435091,STD
3690580741000,1.525096,0.276103289035576,9.82804422804072,0.588049494560814,-0.01985312,-0.010995574,0.014049901,306.84784,-95.90979,5.4822264,STD
3690585653000,1.530008,0.279666096186088,9.82325791488308,0.579700474526358,-0.009773844,-0.0033597588,0.01282817,306.74286,-95.959564,5.529354,STD
3690590839000,1.535194,0.264902321911415,9.81833655915577,0.58954300098692,-0.015577064,-0.0076358155,0.008857546,306.64154,-96.00639,5.5764685,STD
3690595656000,1.540011,0.25857377,9.82114455988123,0.595401249449027,-0.014966198,-0.010079277,0.004886922,306.53745,-96.058556,5.625756,STD
3690600644000,1.544999,0.25857377,9.8306005308479,0.598553283655559,-0.009468411,-0.016493361,-0.0009162979,306.43655,-96.107796,5.672382,STD
3690608428000,1.552783,0.258767195014837,9.84437673485211,0.603532264408921,-0.0018325958,-0.0070249503,0.0106901415,306.33566,-96.15835,5.7213,STD
3690610675000,1.55503,0.260827033916914,9.83819732353786,0.605592096858428,-0.014660766,-0.008246681,0.006414085,306.24026,-96.20043,5.7630396,STD
3690615664000,1.560019,0.265400481305638,9.82447721537283,0.610165529920551,-0.006414085,-0.009468411,0.0061086523,306.14816,-96.24871,5.809474,STD
3690620622000,1.564977,0.264650244620123,9.82147745174538,0.616415988069815,-0.0070249503,-0.008857546,0.012217305,306.05658,-96.294205,5.85572,STD
3690625705000,1.57006,0.255563264846929,9.83510771028561,0.62550294886597,-0.0033597588,-0.006414085,0.016798794,305.96555,-96.33943,5.900632,STD
3690630684000,1.575039,0.24779226110576,9.84375239048353,0.628455100801387,-0.006414085,-0.009773844,0.018936822,305.87845,-96.3828,5.9456906,STD
3690635665000,1.58002,0.243197578868234,9.83915808726642,0.614671044493354,-0.005497787,0.0015271631,0.016798794,305.7871,-96.425995,5.990211,STD
3690640688000,1.585043,0.242479746241501,9.83844054867028,0.607928191758327,-0.004886922,-0.0027488936,0.004276057,305.70575,-96.465195,6.0315213,STD
3690646536000,1.590891,0.261760288677167,9.85772098037697,0.636849020511232,-0.0009162979,-0.0021380284,0.007941248,305.62048,-96.507614,6.076232,STD
3690650730000,1.595085,0.275587681798778,9.87154829408727,0.657590121022463,0.0009162979,-0.008857546,0.014660766,305.54102,-96.54528,6.115362,STD
3690656377000,1.600732,0.286104175705285,9.87787647094855,0.648234518948198,0.0067195175,-0.00030543262,0.014049901,305.45752,-96.58187,6.152921,STD
3690660706000,1.605061,0.293359690316766,9.88150430022751,0.637351231878719,-0.0018325958,0.0061086523,0.019547688,305.37732,-96.61973,6.1933255,STD
3690665718000,1.610073,0.288952099577171,9.88062197317027,0.63206923,0.0009162979,0.0015271631,0.0076358155,305.29205,-96.655426,6.2316585,STD
3690670649000,1.615004,0.275521145745165,9.87614489817975,0.63206923,-0.007330383,0.0015271631,0.008857546,305.248242020507,-96.6753443055891,6.25385865706675,STD
3690675666000,1.620021,0.261235790520725,9.873688,0.627459362629661,-0.00030543262,0.004581489,0.014966198,305.20367,-96.69561,6.276446,STD
3690680804000,1.625159,0.245862233141012,9.873688,0.617210336862112,0.0012217305,0.004581489,0.015882496,305.160611063681,-96.7135567879636,6.2958602743177,STD
3690685669000,1.630024,0.246080882602154,9.86924744195589,0.621796584530689,0.0012217305,-0.005192355,0.013133603,305.11984,-96.73055,6.314243,STD
3690690701000,1.635056,0.258439531383142,9.86100817644042,0.638274797243973,0.0018325958,0.0018325958,0.016493361,305.03363,-96.76432,6.351794,STD
3690695651000,1.640006,0.264929947403489,9.854534,0.653370000236354,0.00061086525,0.0030543262,0.01740966,304.95737,-96.79661,6.3867736,STD
3690700992000,1.645347,0.247659359534046,9.854534,0.664883717467642,0.0033597588,0.0067195175,0.014660766,304.8789,-96.828476,6.42112,STD
3690705557000,1.649912,0.23942018,9.85269692829291,0.672213533342844,-0.00030543262,0.002443461,0.01863139,304.80362,-96.8625,6.460311,STD
3690710549000,1.654904,0.23942018,9.84815024412744,0.67676012255825,0.0033597588,-0.004886922,0.014049901,304.72852,-96.89373,6.4955983,STD
3690715960000,1.660315,0.241204936891998,9.84852659205635,0.678168541244375,-0.006414085,0.0027488936,0.014660766,304.6529,-96.9238,6.5320196,STD
3690720567000,1.664922,0.245521144241831,9.85715919604774,0.673852329387595,0.00580322,0.005192355,0.008246681,304.58124,-96.9525,6.564332,STD
3690725593000,1.669948,0.245262355942315,9.86162120703279,0.674111111457922,-0.004581489,0.0030543262,0.01160644,304.50702,-96.978645,6.5977387,STD
3690730559000,1.674914,0.231169579794548,9.85222583326748,0.688203877795338,-0.002443461,-0.002443461,0.01160644,304.43347,-97.00393,6.627809,STD
3690735551000,1.679906,0.222469878448535,9.84385542952886,0.695801912503751,0.0070249503,0.008246681,0.011301007,304.35168,-97.029236,6.6578355,STD
3690740596000,1.684951,0.232135784555367,9.83902288776633,0.681303076052816,-0.002443461,0.014660766,0.020158553,304.27344,-97.054955,6.6898417,STD
3690745550000,1.689905,0.240490669237338,9.8364514009315,0.671446990355133,-0.004276057,0.003970624,0.014660766,304.20084,-97.078094,6.7180204,STD
3690750647000,1.695002,0.245227026566078,9.84118736755288,0.676183352629536,-0.004886922,-0.0030543262,0.015577064,304.12607,-97.104095,6.750101,STD
3690755605000,1.69996,0.245637210901392,9.844957,0.683313057344495,-0.005497787,0.010995574,0.01985312,304.0472,-97.134,6.7848883,STD
3690760571000,1.704926,0.227119382173659,9.844957,0.701830876404166,0.00061086525,0.0106901415,0.015577064,303.9749,-97.16171,6.816614,STD
3690765593000,1.709948,0.211264283385275,9.84610609076744,0.716536899844176,-0.005192355,0.007941248,0.0061086523,303.9013,-97.18838,6.849003,STD
3690770564000,1.714919,0.215900655882353,9.85537902941176,0.702627782352941,-0.0061086523,-0.00030543262,0.021991149,303.8301,-97.22113,6.8867326,STD
3690775605000,1.71996,0.220571301312649,9.86350148528242,0.689834850994431,0.007330383,0.005192355,0.007941248,303.7526,-97.23879,6.909045,STD
3690780576000,1.724931,0.22477940902148,9.85508510289048,0.694042954309202,0.0021380284,0.006414085,0.011911872,303.67957,-97.26354,6.940376,STD
3690785697000,1.730052,0.229114496443914,9.84641475603288,0.698378037204985,-0.010079277,0.0067195175,0.009162978,303.60715,-97.284004,6.965862,STD
3690790585000,1.73494,0.22984336,9.85265415178126,0.706803891038819,-0.0030543262,-0.0009162979,0.0070249503,303.53726,-97.30638,6.992092,STD
3690795546000,1.739901,0.22984336,9.86213653816984,0.716286079403253,-0.007330383,0.0009162979,0.013744468,303.46515,-97.328064,7.019718,STD
3690800742000,1.745097,0.217519327185987,9.86000290613086,0.70593647576507,-0.0021380284,0.00061086525,0.007941248,303.40002,-97.348335,7.044848,STD
3690806659000,1.751014,0.20111294,9.85390096853517,0.688897048704389,-0.00580322,-0.003970624,0.0125227375,303.3362,-97.37177,7.0743146,STD
3690810651000,1.755006,0.20111294,9.84716213758153,0.682158006645514,-0.00061086525,0.0018325958,-0.0030543262,303.26697,-97.388596,7.0961647,STD
3690815725000,1.76008,0.20111294,9.83859679984135,0.673592400581703,-0.008246681,-0.00061086525,0.013439035,303.20435,-97.4124,7.1254725,STD
3690820612000,1.764967,0.212945567893101,9.84129712243629,0.6733346538844,-0.004276057,-0.004886922,0.0076358155,303.14066,-97.42677,7.1436367,STD
3690825670000,1.770025,0.233015799912989,9.85133191361094,0.678352206650093,-0.0018325958,-0.0012217305,0.01160644,303.0761,-97.44724,7.16892,STD
3690830664000,1.775019,0.242762760565882,9.86121930772408,0.683295884056175,0.005192355,-0.002443461,0.01038471,303.0186,-97.46531,7.1906285,STD
3690835613000,1.779968,0.247656970986163,9.87100794320529,0.688190099586948,-0.004886922,-0.0061086523,0.007330383,302.96115,-97.482414,7.2125134,STD
3690840655000,1.78501,0.252487791710331,9.86670621077607,0.686039278289669,0.00061086525,-0.010079277,0.006414085,302.90338,-97.504845,7.2383647,STD
3690845630000,1.789985,0.25719808137914,9.85728543470094,0.68132898862086,0.002443461,-0.002443461,0.010995574,302.84375,-97.526436,7.26449,STD
3690850651000,1.795006,0.25857377,9.85128891585945,0.67670828362773,0.003970624,-0.0076358155,0.0070249503,302.7862,-97.54741,7.2892528,STD
3690855825000,1.80018,0.25857377,9.84658318005698,0.672002646096866,-0.0030543262,-0.008857546,0.004581489,302.72577,-97.56903,7.3153167,STD
3690860663000,1.805018,0.267388558401569,9.84789532109446,0.664499980535157,-0.002443461,-0.019242255,0.004276057,302.66858,-97.59182,7.341361,STD
3690865627000,1.809982,0.281734987786943,9.85267755909868,0.654935704265165,-0.00061086525,-0.016493361,0.0033597588,302.60834,-97.61282,7.3661203,STD
3690870610000,1.814965,0.274241035822175,9.854534,0.640772356654169,-0.004581489,-0.01863139,0.0021380284,302.55338,-97.63297,7.3899903,STD
3690875646000,1.820001,0.252714172340653,9.854534,0.623550846088199,-0.0027488936,-0.0070249503,0.013744468,302.49423,-97.65647,7.4169254,STD
3690880622000,1.824977,0.245420959462727,9.85253369979852,0.616916154768301,0.0036651916,-0.020463986,0.009162978,302.43997,-97.67458,7.437771,STD
3690885609000,1.829964,0.261458412399821,9.84718777423327,0.627607777034923,-0.0027488936,-0.022602014,0.005192355,302.37976,-97.69476,7.461788,STD
3690890645000,1.835,0.26549186901071,9.85293333455468,0.616116885707441,-0.007941248,-0.017715093,0.005192355,302.3267,-97.71332,7.482258,STD
3690895625000,1.83998,0.261011165008455,9.86637568517475,0.589232731874295,-0.0036651916,-0.027488936,0.0012217305,302.27884,-97.7294,7.499865,STD
3690901796000,1.846151,0.255462096457062,9.873688,0.571496726457062,-0.008246681,-0.013439035,0.008552114,302.22562,-97.74849,7.5228324,STD
3690906328000,1.850683,0.251388698277804,9.873688,0.567423328277804,-0.0067195175,-0.025350908,-0.0030543262,302.18286,-97.761505,7.5384784,STD
3690910657000,1.855012,0.250605478951767,9.87207945745645,0.573074151477193,-0.01160644,-0.028099801,-0.0030543262,302.161919807198,-97.770549252892,7.54872235530206,STD
3690915664000,1.860019,0.255433898808781,9.86725093676367,0.597216270929413,-0.011301007,-0.018325957,0.005497787,302.1377,-97.78101,7.5605707,STD
3690920637000,1.864992,0.261919322666328,9.862438191353,0.607897318860631,-0.0070249503,-0.015271631,0.0067195175,302.0973,-97.795555,7.5767136,STD
3690925674000,1.870029,0.271733853114954,9.85753083133265,0.593175546246185,-0.011301007,-0.020463986,0.004886922,302.0575,-97.80666,7.5903587,STD
3690930704000,1.875059,0.274832652299482,9.854534,0.585632611583263,-0.014660766,-0.018325957,0.0009162979,302.009,-97.81915,7.6059732,STD
3690935701000,1.880056,0.267429860969139,9.854534,0.589334001451002,-0.0067195175,-0.007941248,0.0027488936,301.96008,-97.83287,7.6223903,STD
3690940665000,1.88502,0.26007595739423,9.854534,0.59301094747931,-0.00580322,-0.018020526,0.002443461,301.91733,-97.84364,7.635957,STD
3690945667000,1.890022,0.25857377,9.86141687547306,0.597203405867724,0.004581489,-0.01160644,-0.0012217305,301.86728,-97.8548,7.649012,STD
3690950827000,1.895182,0.25857377,9.87032250171202,0.601656125997477,0.0015271631,-0.013439035,0.0030543262,301.82306,-97.86696,7.663782,STD
3690955680000,1.900035,0.266200364576628,9.87114575137162,0.610965423958486,-0.003970624,-0.01160644,0.0070249503,301.7785,-97.87472,7.674187,STD
3690960676000,1.905031,0.279325568333029,9.86677059665326,0.624090609441295,0.0033597588,-0.010995574,0.017104227,301.73538,-97.88578,7.687314,STD
3690965662000,1.910017,0.282813774332799,9.85812380328789,0.620094769368885,0.004886922,-0.008552114,0.010079277,301.6904,-97.891335,7.695824,STD
3690971569000,1.915924,0.269204259496391,9.83997789719326,0.583802753489976,0.0012217305,-0.01282817,0.005497787,301.64774,-97.90022,7.7075543,STD
3690975681000,1.920036,0.259730359884523,9.82734611018444,0.55853903767923,0.0009162979,-0.015271631,0.008552114,301.60083,-97.91121,7.7218475,STD
3690980696000,1.925051,0.276498147319855,9.825804,0.559935888481078,0.0033597588,-0.004276057,0.01038471,301.5517,-97.92029,7.7342978,STD
3690986034000,1.930389,0.297223940354598,9.82631837337041,0.564860139822701,-0.0021380284,-0.009773844,0.010995574,301.50854,-97.92912,7.746823,STD
3690990756000,1.935111,0.305084473919694,9.83810900956023,0.560929873040153,0.0015271631,-0.013133603,0.0076358155,301.46906,-97.939,7.757822,STD
3690995645000,1.94,0.313223006024683,9.85031663775422,0.556860606987659,0.004276057,-0.0076358155,0.004581489,301.4217,-97.950584,7.771112,STD
3691000816000,1.945171,0.310051590018839,9.86051715492958,0.561437829981161,-0.007330383,-0.01282817,0.004886922,301.3789,-97.96118,7.7839665,STD
3691005712000,1.950067,0.301638920636943,9.86893,0.569850499363057,-0.004886922,-0.011911872,0.008552114,301.3333,-97.972565,7.796723,STD
3691010758000,1.955113,0.299008263546971,9.86943342405619,0.578862895978929,-0.0009162979,-0.003970624,0.012217305,301.28763,-97.98462,7.8106346,STD
3691015688000,1.960043,0.303614021424251,9.86022171593015,0.588074430970637,-0.0036651916,-0.004886922,0.009162978,301.2447,-97.9952,7.82326,STD
3691020648000,1.965003,0.303077665636916,9.854534,0.587001731273833,-0.0036651916,-0.003970624,0.015271631,301.222977372263,-98.0000702329767,7.82919836136386,STD
3691025689000,1.970044,0.294184472450953,9.854534,0.569215344901907,-0.0018325958,-0.008552114,0.011301007,301.2009,-98.00502,7.8352337,STD
3691030691000,1.975046,0.290764127750184,9.85539899909843,0.556319781034341,0.0033597588,0.009773844,0.012217305,301.15143,-98.01342,7.845887,STD
3691035650000,1.980005,0.306333802626014,9.85929149504139,0.560212195688878,-0.0027488936,0.0009162979,0.010079277,301.1102,-98.02038,7.8559656,STD
3691040729000,1.985084,0.322280239144332,9.86327818326367,0.564198800655684,-0.0018325958,-0.0021380284,0.004886922,301.0631,-98.024826,7.862119,STD
3691045675000,1.99003,0.310433099622641,9.864111,0.572620778113208,-0.009162978,-0.007941248,0.005497787,301.01993,-98.02933,7.8690767,STD
3691050664000,1.995019,0.290941532018358,9.864111,0.58236657209179,0.0012217305,-0.0061086523,0.0067195175,300.97592,-98.033485,7.8746524,STD
3691055690000,2.000045,0.301426287486496,9.87470240709399,0.580654707068779,-0.00061086525,-0.00030543262,0.008552114,300.93362,-98.040985,7.8849955,STD
3691060782000,2.005137,0.318986646334174,9.88787247911415,0.576264603604609,-0.0036651916,-0.004276057,0.005192355,300.894,-98.04764,7.8938937,STD
3691065735000,2.01009,0.327736347252104,9.88859131862422,0.578858223379436,0.004276057,-0.0070249503,0.009773844,300.85596,-98.05144,7.900167,STD
3691070685000,2.01504,0.331205440556165,9.88165334935968,0.585796424477131,0.0012217305,-0.0018325958,0.0021380284,300.81705,-98.05004,7.9019284,STD
3691076664000,2.021019,0.33518824,9.873688,0.592835595406236,-0.0036651916,0.0036651916,0.014049901,300.77786,-98.059456,7.9140406,STD
3691080757000,2.025112,0.33518824,9.873688,0.580024994993137,0.006414085,0.0033597588,0.005497787,300.73907,-98.06148,7.9179435,STD
3691085712000,2.030067,0.33518824,9.873688,0.564516437688738,0.006414085,-0.0012217305,0.004581489,300.719830714645,-98.0642590632224,7.9227005290984,STD
3691090706000,2.035061,0.33518824,9.873688,0.54888581504935,-0.00061086525,-0.0036651916,0.013744468,300.70044,-98.06706,7.927495,STD
3691095733000,2.040088,0.316843143736926,9.88102580250636,0.549547016187694,-0.0030543262,0.004276057,0.01282817,300.65784,-98.06842,7.9319925,STD
3691100617000,2.044972,0.29480737144257,9.88983982794686,0.553954166965043,-0.015577064,-0.002443461,0.014049901,300.622,-98.07172,7.9391403,STD
3691105724000,2.050079,0.296968935932799,9.88961969271342,0.561897952803282,-0.01160644,0.00030543262,0.0027488936,300.59225,-98.074,7.943911,STD
3691110749000,2.055104,0.311070358134401,9.88491961457316,0.571298894393436,-0.005192355,0.007941248,0.009162978,300.56342,-98.08094,7.953864,STD
3691115772000,2.060127,0.31125099774196,9.88565661132857,0.579392032248062,-0.02107485,-0.0030543262,0.01038471,300.53772,-98.07545,7.952148,STD
3691120690000,2.065045,0.304021171600276,9.88927122242689,0.586621873488372,-0.020158553,0.002443461,0.0125227375,300.50543,-98.07326,7.952707,STD
3691125855000,2.07021,0.297196727417318,9.89189389093439,0.594393454834636,-0.017104227,0.0061086523,0.003970624,300.4764,-98.0724,7.955373,STD
3691130710000,2.075065,0.302173219336402,9.87696462303329,0.604346438672803,-0.016493361,0.007941248,0.0033597588,300.44666,-98.074295,7.9608116,STD
3691135671000,2.080026,0.305276039527571,9.864111,0.611733860761574,-0.018325957,0.007941248,0.008246681,300.431547019868,-98.0734442726269,7.96166202869757,STD
3691140676000,2.085031,0.297702657626797,9.864111,0.604160486768842,-0.0125227375,0.0036651916,0.0070249503,300.4163,-98.072586,7.96252,STD
3691146250000,2.090605,0.289268285855585,9.864111,0.595726123804708,-0.02565634,0.0067195175,0.005497787,300.38358,-98.06858,7.962625,STD
3691150710000,2.095065,0.2873042,9.86111777335178,0.602741529293269,-0.017715093,0.00061086525,0.009468411,300.3471,-98.06871,7.9656553,STD
3691155695000,2.10005,0.2873042,9.85639885025205,0.616897998024118,-0.02076942,0.00061086525,0.0027488936,300.32740346277,-98.0671933466773,7.96593672899319,STD
3691160702000,2.105057,0.284840435357899,9.85699781609488,0.629883741934773,-0.013439035,0.0030543262,0.0061086523,300.30762,-98.06567,7.9662194,STD
3691165647000,2.110002,0.280828806725964,9.86100952850487,0.641918657152901,-0.015577064,0.004276057,-0.004886922,300.27194,-98.0597,7.963299,STD
3691170653000,2.115008,0.2777274,9.86530977166437,0.654819139889959,-0.004276057,0.007330383,0.009162978,300.2343,-98.06164,7.9679403,STD
3691175716000,2.120071,0.2777274,9.87044027118823,0.670210317035234,-0.019242255,-0.00061086525,0.013439035,300.19974,-98.05664,7.966657,STD
3691180646000,2.125001,0.273074209766918,9.87252467875502,0.675300100049292,-0.016798794,-0.0033597588,0.009773844,300.1616,-98.054054,7.9669266,STD
3691185668000,2.130023,0.259527356810084,9.86913789655658,0.661753218801493,-0.013439035,-0.0012217305,0.0076358155,300.1247,-98.05259,7.968802,STD
3691190668000,2.135023,0.246039848888106,9.86576595091895,0.648265682712485,-0.010995574,-0.0012217305,0.010995574,300.08612,-98.05213,7.971791,STD
3691195702000,2.140057,0.237683102131609,9.864111,0.641646,-0.010079277,0.0030543262,0.0015271631,300.046,-98.04759,7.9705095,STD
3691200654000,2.145009,0.23434898988189,9.864111,0.641646,-0.009162978,0.0027488936,0.010079277,300.00763,-98.04929,7.9753046,STD
3691205661000,2.150016,0.230977846902418,9.864111,0.641646,-0.015882496,0.00030543262,0.011911872,299.97498,-98.0451,7.9736977,STD
3691210865000,2.15522,0.236173927633136,9.85778030346576,0.632150166728656,-0.020158553,-0.0033597588,0.004276057,299.94305,-98.04082,7.9718113,STD
3691215835000,2.16019,0.245114797521368,9.84883925152625,0.618738887570208,-0.007941248,-0.0027488936,0.004276057,299.91095,-98.03965,7.9726343,STD
3691220651000,2.165006,0.24635475411667,9.8396727282541,0.61555785588333,-0.0125227375,-0.0009162979,0.0036651916,299.88245,-98.03543,7.9711003,STD
3691225670000,2.170025,0.24136555866203,9.82969463950592,0.62054705133797,-0.011301007,-0.009468411,0.010079277,299.85703,-98.03395,7.971558,STD
3691230668000,2.175023,0.236808007641941,9.82841622145484,0.625104596902861,-0.0027488936,-0.0018325958,0.009773844,299.8285,-98.03135,7.9705896,STD
3691235772000,2.180127,0.232423749925554,9.83280056157503,0.62948884546327,-0.011911872,-0.0015271631,0.01038471,299.80478,-98.03026,7.9715934,STD
3691240715000,2.18507,0.233668952273383,9.83346816491553,0.637807629395344,-0.011911872,-0.0076358155,0.0070249503,299.793075391454,-98.0291564511567,7.9711178253763,STD
3691245671000,2.190026,0.24344700039452,9.82857904130614,0.652474729654924,-0.004276057,-0.0076358155,0.0033597588,299.78134,-98.02805,7.970641,STD
3691250665000,2.19502,0.254762088026497,9.825804,0.653112869944797,-0.008246681,-0.0009162979,0.015271631,299.75446,-98.03069,7.9753013,STD
3691255722000,2.200077,0.268129443303892,9.825804,0.635289715616892,0.00030543262,0.0012217305,0.01282817,299.7304,-98.0269,7.972821,STD
3691260637000,2.204992,0.2777274,9.82810011104195,0.62249243,-0.00580322,-0.0027488936,0.004581489,299.70392,-98.02831,7.9763546,STD
3691265730000,2.210085,0.2777274,9.83720766052533,0.62249243,-0.010079277,-0.0021380284,0.004581489,299.67572,-98.03162,7.9814343,STD
3691270648000,2.215003,0.2777274,9.84600226652558,0.62249243,-0.004581489,0.003970624,0.010079277,299.648,-98.03883,7.9897246,STD
3691275753000,2.220108,0.277985814218775,9.85479241961545,0.622234016051058,-0.017104227,-0.009773844,0.008246681,299.62604,-98.04309,7.995634,STD
3691280742000,2.225097,0.281845779899822,9.85865246590726,0.618374054400549,0.0018325958,0.004276057,0.0070249503,299.59454,-98.05005,8.00323,STD
3691285850000,2.230205,0.285797815317499,9.86260458385846,0.614422023109549,-0.0061086523,0.00030543262,0.0070249503,299.56943,-98.054054,8.008876,STD
3691290759000,2.235114,0.284520989481947,9.86689426864207,0.621265259929356,-0.0070249503,-0.00061086525,0.0067195175,299.53964,-98.05828,8.01401,STD
3691295682000,2.240037,0.279895147017268,9.87152020771193,0.635142768002355,-0.007941248,-0.0033597588,0.0061086523,299.5118,-98.06206,8.018886,STD
3691300725000,2.24508,0.280050489351893,9.8667185863995,0.639322917925348,-0.01038471,-0.009773844,-0.0021380284,299.4878,-98.0621,8.020141,STD
3691305695000,2.25005,0.284270428708219,9.85405850394539,0.635102991788279,-0.004886922,-0.0021380284,0.01038471,299.46082,-98.068016,8.027102,STD
3691310830000,2.255185,0.291707783165538,9.84642489068786,0.6350049607958,-0.008857546,0.00030543262,0.003970624,299.4332,-98.06393,8.024544,STD
3691315662000,2.260017,0.305330135185948,9.85096576636248,0.644086555677559,-0.00030543262,0.0012217305,0.00030543262,299.40414,-98.06466,8.026307,STD
3691320623000,2.264978,0.31134886925599,9.85804838461538,0.650051450693569,-0.00061086525,0.004581489,0.0036651916,299.37207,-98.06729,8.030129,STD
3691325673000,2.270028,0.291019796010929,9.8732955,0.644969131967213,-0.013439035,0.004276057,0.002443461,299.3411,-98.06742,8.031521,STD
3691331340000,2.275695,0.282181073316291,9.88103811916232,0.637192338309901,-0.0070249503,0.002443461,0.007330383,299.3162,-98.074394,8.039638,STD
3691335671000,2.280026,0.290337039122997,9.87696005535346,0.629036393794121,-0.013744468,0.0018325958,0.0030543262,299.2912,-98.077576,8.044596,STD
3691340652000,2.285007,0.291222293320255,9.873688,0.621077751653752,-0.011301007,0.0030543262,-0.003970624,299.26837,-98.07563,8.043951,STD
3691345674000,2.290029,0.272352356145169,9.873688,0.616360278443355,-0.009162978,0.0067195175,-0.00061086525,299.24524,-98.07527,8.045027,STD
3691350670000,2.295025,0.264977906303713,9.87112629465634,0.614196464585891,-0.005497787,0.014966198,0.009162978,299.22284,-98.07648,8.047448,STD
3691355717000,2.300072,0.289298204215558,9.86139798248968,0.619060514010265,-0.018020526,0.007330383,-0.00030543262,299.2041,-98.0728,8.045223,STD
3691360773000,2.305128,0.307378666153846,9.85821736538461,0.623413276153846,-0.020158553,0.0027488936,0.004276057,299.18607,-98.072464,8.045976,STD
3691365856000,2.310211,0.310509543076923,9.87074080769231,0.626544153076923,-0.013439035,0.004581489,-0.0021380284,299.16846,-98.06629,8.040905,STD
3691370621000,2.314976,0.313444547707744,9.88248076492153,0.629479157707744,-0.01282817,0.011911872,0.004886922,299.15137,-98.06832,8.044442,STD
3691375713000,2.320068,0.314489019272198,9.89206826419214,0.630523630079149,-0.015882496,0.0143553335,-0.0030543262,299.13525,-98.06434,8.041808,STD
3691380770000,2.325125,0.305677178369723,9.88766271179039,0.621711793777293,-0.013439035,0.007941248,0.01038471,299.11978,-98.06858,8.047229,STD
3691386043000,2.330398,0.296502788957346,9.8830758807267,0.61291564,-0.025045475,0.008857546,0.004581489,299.10175,-98.062836,8.043146,STD
3691390685000,2.33504,0.288699462290679,9.87917413998596,0.61291564,-0.015882496,0.010995574,-0.0033597588,299.08536,-98.06079,8.042221,STD
3691395631000,2.339986,0.280385103459716,9.87501687809373,0.61291564,-0.014660766,0.016798794,0.00030543262,299.0681,-98.05627,8.0390415,STD
3691403070000,2.347425,0.303530426981878,9.86336658228314,0.607755038914543,-0.01282817,0.015577064,0.0033597588,299.05243,-98.049675,8.033537,STD
3691405711000,2.350066,0.315163372399963,9.85871331082697,0.605428451774446,-0.020463986,0.010079277,0.0018325958,299.03647,-98.04283,8.027874,STD
3691410659000,2.355014,0.318435798937367,9.86410146480512,0.610514473569905,-0.024740042,0.009468411,0.0027488936,299.0188,-98.03633,8.022379,STD
3691415783000,2.360138,0.304162512910607,9.88313240023269,0.624787744692651,-0.022602014,0.01282817,0.0076358155,299.00177,-98.03069,8.017709,STD
3691420812000,2.365167,0.29688102,9.88809597589249,0.627324059724046,-0.014660766,0.01038471,0.01282817,298.98474,-98.02842,8.016323,STD
3691425702000,2.370057,0.29688102,9.87848803887977,0.617715826742922,-0.026572637,0.018020526,0.008552114,298.96396,-98.02463,8.013661,STD
3691430670000,2.375025,0.294531251221456,9.87603781294335,0.603516574700224,-0.024740042,0.020158553,0.004276057,298.94727,-98.020546,8.010471,STD
3691435653000,2.380008,0.289894063964629,9.88067508735788,0.584967845041298,-0.02076942,0.018936822,-0.0036651916,298.92947,-98.014175,8.005078,STD
3691440725000,2.38508,0.289374008420357,9.8791253053536,0.5746084,-0.016187929,0.019242255,0.004886922,298.91132,-98.01027,8.002,STD
3691445671000,2.390026,0.293846386073081,9.87018038192805,0.5746084,-0.0290161,0.021685716,0.007330383,298.89304,-98.0024,7.9950647,STD
3691450674000,2.395029,0.295282294828705,9.8609134895601,0.573009678167444,-0.028710667,0.0125227375,-0.007330383,298.8816,-97.991066,7.984224,STD
3691455724000,2.400079,0.290380314188121,9.85110934400973,0.568107707764038,-0.014049901,0.024740042,0.010079277,298.86346,-97.98977,7.9834204,STD
3691460703000,2.405058,0.281919847307931,9.84675181983848,0.572210736922758,-0.022296581,0.021380283,0.01038471,298.85223,-97.9798,7.9741316,STD
3691465676000,2.410031,0.26712626391696,9.85168311213502,0.591935514777387,-0.027183503,0.023518313,0.007330383,298.83606,-97.974144,7.968963,STD
3691471256000,2.415611,0.266022807970862,9.854534,0.600855829935781,-0.025045475,0.027183503,0.0030543262,298.82587,-97.97103,7.9662724,STD
3691475671000,2.420026,0.278180849612767,9.854534,0.596803153620244,-0.020463986,0.02076942,0.004276057,298.81805,-97.96862,7.9642634,STD
3691480691000,2.425046,0.290568174177898,9.85290198053309,0.60844991868823,-0.028710667,0.022907447,0.0067195175,298.80502,-97.96588,7.9620786,STD
3691485789000,2.430144,0.300316118149146,9.84802791184986,0.652315651290806,-0.034513887,0.029321533,0.01038471,298.79272,-97.96394,7.9605827,STD
3691490745000,2.4351,0.304735615504228,9.844957,0.681675504495772,-0.033292156,0.02565634,0.0143553335,298.78006,-97.96435,7.9613767,STD
3691495711000,2.440066,0.299831677702619,9.844957,0.686579442297381,-0.027183503,0.030848695,0.005192355,298.7631,-97.96201,7.9594154,STD
3691500658000,2.445013,0.298602840044053,9.844957,0.680920981800661,-0.03268129,0.023518313,0.011911872,298.7401,-97.96626,7.9642515,STD
3691505713000,2.450068,0.303045821321586,9.844957,0.658706029019824,-0.043676864,0.018325957,0.008857546,298.71527,-97.96515,7.963646,STD
3691510778000,2.455133,0.301699583832423,9.84376754094918,0.646404246104578,-0.034208454,0.019547688,0.011911872,298.68652,-97.96726,7.96611,STD
3691515663000,2.460018,0.28205124598068,9.83885586938261,0.6660526249895,-0.03390302,0.026572637,0.0106901415,298.65784,-97.967224,7.9664474,STD
3691520623000,2.464978,0.269566317240024,9.83254950638883,0.675706148279929,-0.036957346,0.027488936,0.009773844,298.63318,-97.96731,7.966764,STD
3691525696000,2.470051,0.274341539021034,9.82299886337724,0.661380482936898,-0.03604105,0.025045475,0.01160644,298.60773,-97.967865,7.967498,STD
3691530675000,2.47503,0.278891747461951,9.81739137177795,0.6512229,-0.023823744,0.03848451,0.018325957,298.57553,-97.96813,7.9679103,STD
3691535861000,2.480216,0.283260999225829,9.82176071478842,0.6512229,-0.025350908,0.027183503,0.009468411,298.5515,-97.96449,7.9643908,STD
3691541215000,2.48557,0.286753181546755,9.82635502996061,0.6512229,-0.029626964,0.026572637,0.003970624,298.521,-97.96469,7.96465,STD
3691545719000,2.490074,0.282281493054116,9.8308268118391,0.6512229,-0.033292156,0.03145956,0.01038471,298.49246,-97.96578,7.9657717,STD
3691550759000,2.495114,0.276907538487197,9.835381,0.652452690343003,-0.029932396,0.04062254,0.013133603,298.46072,-82.03329,7.966712,STD
3691555719000,2.500074,0.267930688369083,9.835381,0.665917944429746,-0.033292156,0.042760566,0.012217305,298.4299,-82.031624,7.968362,STD
3691561079000,2.505434,0.258395045709655,9.83573843738336,0.680132024290345,-0.028405234,0.03634648,0.011301007,298.40295,-82.02854,7.9714136,STD
3691565673000,2.510028,0.254073680499951,9.84438089706316,0.684453389500049,-0.024740042,0.03176499,0.011911872,298.37512,-82.02536,7.974545,STD
3691570653000,2.515008,0.249389222784599,9.85374951900599,0.689137847215401,-0.034513887,0.02565634,0.010995574,298.35138,-82.024475,7.975313,STD
3691575679000,2.520034,0.264895936507879,9.86248364304367,0.665681639862224,-0.03176499,0.034513887,0.009468411,298.32483,-82.02367,7.976012,STD
3691580770000,2.525125,0.282457585128321,9.87126464385412,0.639339155470509,-0.019242255,0.03023783,0.0015271631,298.30405,-82.02498,7.974562,STD
3691585657000,2.530012,0.274359151973991,9.86397901882764,0.64825055101514,-0.017104227,0.026572637,0.0021380284,298.27905,-82.02533,7.9740252,STD
3691590699000,2.535054,0.255614484499224,9.84992023563665,0.671681401261646,-0.026572637,0.02443461,0.005192355,298.25513,-82.02718,7.971962,STD
3691595800000,2.540155,0.243502054760712,9.844957,0.6799533,-0.025045475,0.021380283,0.0030543262,298.23398,-82.0296,7.9694467,STD
3691600737000,2.545092,0.235333311449551,9.844957,0.6799533,-0.021380283,0.028710667,0.0018325958,298.21066,-82.03086,7.9680448,STD
3691605686000,2.550041,0.235977903181211,9.84741086646768,0.681180207611342,-0.018020526,0.03268129,0.007941248,298.18848,-82.032974,7.965703,STD
3691610753000,2.555108,0.255035984296599,9.8550342517477,0.684991820650381,-0.026267206,0.027794369,0.0061086523,298.16696,-82.03757,7.9608235,STD
3691615630000,2.559985,0.273379434385359,9.86237177888618,0.688660507603488,-0.02321288,0.029321533,0.010995574,298.14694,-82.04171,7.9564,STD
3691620777000,2.565132,0.268029907938938,9.85764587702977,0.695995087956698,-0.018020526,0.033292156,0.009773844,298.1278,-82.04796,7.949815,STD
3691625660000,2.570015,0.256164998459066,9.84973578044655,0.703905019350474,-0.023518313,0.039095376,0.0067195175,298.10788,-82.05317,7.944185,STD
3691630730000,2.575085,0.24899697,9.84041944505699,0.711708778745437,-0.031154128,0.03940081,0.010079277,298.08658,-82.05091,7.9460106,STD
3691635713000,2.580068,0.24899697,9.82975405058482,0.71881914072115,-0.025961773,0.03573562,0.0143553335,298.065,-82.04934,7.9471884,STD
3691640840000,2.585195,0.24899697,9.81878044483349,0.726134979743723,-0.023518313,0.03970624,0.008552114,298.04007,-82.05016,7.945831,STD
3691645687000,2.590042,0.255656091219791,9.81955662492864,0.737825966184586,-0.02565634,0.04062254,0.0076358155,298.0173,-82.0484,7.947039,STD
3691650682000,2.595037,0.264759077123692,9.824108205804,0.751480423653663,-0.032986723,0.03390302,0.009773844,297.9958,-82.0474,7.947437,STD
3691655693000,2.600048,0.273565105967872,9.83121833635466,0.761982234236741,-0.03023783,0.040011674,0.011301007,297.9724,-82.047775,7.9463406,STD
3691660663000,2.605018,0.282107993161626,9.83976095593646,0.770525166032487,-0.03481932,0.035124753,0.0061086523,297.95428,-82.04927,7.9439425,STD
3691665657000,2.610012,0.2873042,9.8487101100507,0.770091832895914,-0.034208454,0.03970624,0.01038471,297.9326,-82.04479,7.947388,STD
3691670645000,2.615,0.2873042,9.85820808718561,0.755845115130729,-0.028099801,0.036651913,0.008552114,297.91464,-82.043564,7.947564,STD
3691675674000,2.620029,0.277618945246933,9.85829993048128,0.752802070651148,-0.03268129,0.042760566,0.005497787,297.88647,-82.03908,7.9507804,STD
3691680746000,2.625101,0.252153101748978,9.84302064349376,0.768081623550383,-0.03359759,0.038179077,0.01038471,297.86252,-82.03305,7.9556613,STD
3691685647000,2.630002,0.237183003064006,9.83090656203082,0.769009859847886,-0.027488936,0.040927973,0.008246681,297.84024,-82.03117,7.956424,STD
3691690770000,2.635125,0.232336889980245,9.82121415369419,0.754471500355591,-0.020158553,0.03848451,0.008246681,297.82114,-82.02736,7.9591312,STD
3691695644000,2.639999,0.22984336,9.81766258780978,0.744119784340255,-0.02443461,0.041233405,0.0018325958,297.8032,-82.028984,7.956018,STD
3691700705000,2.64506,0.22984336,9.82090901761554,0.7376270603215,-0.017104227,0.046731193,0.004886922,297.78528,-82.02819,7.9556165,STD
3691705697000,2.650052,0.22984336,9.82411118667113,0.731222855954454,-0.031154128,0.04642576,0.003970624,297.77094,-82.033295,7.9489107,STD
3691710665000,2.65502,0.2365040333914,9.8302443082819,0.730057523691021,-0.027488936,0.046120327,0.003970624,297.75513,-82.0376,7.9434366,STD
3691715661000,2.660016,0.250792021482182,9.83976933197292,0.734820184730241,-0.021685716,0.046120327,0.006414085,297.7394,-82.041115,7.9385023,STD
3691720704000,2.665059,0.254607424153215,9.84297399170605,0.745346816543298,-0.027183503,0.042760566,0.003970624,297.7274,-82.04548,7.932677,STD
3691726569000,2.670924,0.244589069979488,9.8379652304468,0.765383587657184,-0.023518313,0.04642576,0.005192355,297.71344,-82.04835,7.9286327,STD
3691730626000,2.674981,0.240168752440485,9.8376266884003,0.780212839332828,-0.020463986,0.051923547,0.003970624,297.69772,-82.05123,7.924312,STD
3691735649000,2.680004,0.243815774136467,9.84856761258529,0.802094992357847,-0.02076942,0.046731193,0.0021380284,297.68417,-82.05389,7.9202275,STD
3691740706000,2.685061,0.247487482023503,9.85958259438969,0.824125262683851,-0.022296581,0.052534413,0.0015271631,297.65793,-82.05706,7.9154963,STD
3691745733000,2.690088,0.241005152849594,9.86144700717116,0.8331822,-0.02687807,0.05100725,0.002443461,297.63556,-82.06011,7.910823,STD
3691750739000,2.695094,0.227434244893376,9.85692327986412,0.8331822,-0.022907447,0.046731193,0.0015271631,297.61255,-82.0639,7.9055467,STD
3691755697000,2.700052,0.223352145921749,9.85607682776385,0.834724995544417,-0.022296581,0.05131268,0.004581489,297.582,-82.06496,7.902279,STD
3691760776000,2.705131,0.230124722277221,9.85946318135617,0.838111278418268,-0.023518313,0.055283304,0.01038471,297.55313,-82.06541,7.89965,STD
3691765690000,2.710045,0.2366772799088,9.86273952346143,0.841387552102479,-0.02443461,0.051618114,0.0036651916,297.53375,-82.06921,7.8934913,STD
3691770749000,2.715104,0.233994191771256,9.8695370930452,0.834620019073323,-0.024129177,0.061391957,0.008246681,297.50974,-82.06803,7.892234,STD
3691775729000,2.720084,0.224993052071341,9.87853840662452,0.821118311873172,-0.02687807,0.06352998,0.006414085,297.48895,-82.07039,7.8873105,STD
3691780691000,2.725046,0.22258278795033,9.86936753843776,0.830242218396537,-0.01985312,0.06352998,0.004581489,297.46674,-82.068016,7.887335,STD
3691785693000,2.730048,0.2275192269054,9.83974883254328,0.864797275618302,-0.019242255,0.06627888,0.004581489,297.4433,-82.06537,7.8873096,STD
3691790780000,2.735135,0.219715095956644,9.823271883093,0.883598279891609,-0.022907447,0.054367006,0.01282817,297.42645,-82.06157,7.8890533,STD
3691796352000,2.740707,0.199058182614923,9.81810755095326,0.888762536537308,-0.025961773,0.047647487,0.002443461,297.4076,-82.063126,7.8853984,STD
3691801045000,2.7454,0.178136649336134,9.82426657142857,0.89064306,-0.015271631,0.05681047,0.0076358155,297.37704,-82.05727,7.888816,STD
3691805587000,2.749942,0.155291138384454,9.83797367857143,0.89064306,-0.03145956,0.05100725,0.0030543262,297.35306,-82.056114,7.8865643,STD
3691810585000,2.75494,0.146225346375013,9.85525018970868,0.882923312814095,-0.029932396,0.04795292,0.0033597588,297.32248,-82.05917,7.880826,STD
3691815567000,2.759922,0.151001767179898,9.87435625197718,0.868594035436981,-0.025961773,0.04153884,0.007941248,297.29483,-82.06162,7.875235,STD
3691820550000,2.764905,0.148185492597505,9.87317795980994,0.856869185230647,-0.027794369,0.042455133,0.00580322,297.26584,-82.07082,7.8627453,STD
3691825598000,2.769953,0.138614375662245,9.85403533617106,0.847298073292417,-0.023518313,0.04520403,0.0067195175,297.23837,-82.07794,7.8527155,STD
3691830579000,2.774934,0.131642064145551,9.85712316656845,0.825726366804164,-0.01740966,0.040317107,-0.00061086525,297.21283,-82.091484,7.8364663,STD
3691835592000,2.779947,0.12692702304066,9.88069834747594,0.792721113533687,-0.025045475,0.027183503,-0.0009162979,297.18915,-82.10203,7.8228865,STD
3691840579000,2.784934,0.122193192427184,9.88823055409869,0.784942571033931,-0.019242255,0.029626964,0.002443461,297.1607,-82.1169,7.8060093,STD
3691845604000,2.789959,0.11737651038835,9.87859750185167,0.804209258953058,-0.024129177,0.03756821,0.0009162979,297.1348,-82.13205,7.788142,STD
3691850597000,2.794952,0.11492168,9.86547911604547,0.822237495384615,-0.015882496,0.03634648,0.002443461,297.12238,-82.14765,7.771366,STD
3691855556000,2.799911,0.11492168,9.84874068860693,0.838976027692308,-0.021380283,0.022907447,0.00030543262,297.11142,-82.16355,7.753547,STD
3691860562000,2.804917,0.115863366702946,9.83349758922875,0.849510738907863,-0.02076942,0.029321533,0.005497787,297.0941,-82.17718,7.7378306,STD
3691865535000,2.80989,0.120331885761869,9.82456037380372,0.836105177065115,-0.03726278,0.029321533,0.008552114,297.0827,-82.19066,7.721414,STD
3691870553000,2.814908,0.123501922965586,9.816227,0.823273171289148,-0.024740042,0.027488936,-0.00030543262,297.06082,-82.20543,7.7047524,STD
3691875549000,2.819904,0.110434078073379,9.816227,0.818917226933722,-0.0143553335,0.028099801,-0.002443461,297.0384,-82.216324,7.6912007,STD
3691880518000,2.824873,0.0974368560418791,9.816227,0.814584823510561,-0.01740966,0.01863139,0.003970624,297.0264,-82.22504,7.680118,STD
3691885538000,2.829893,0.0916541972096853,9.8121130490148,0.81402856,-0.017104227,0.007330383,-0.00061086525,297.015,-82.23778,7.665582,STD
3691890532000,2.834887,0.0869657785079894,9.80742453435938,0.81402856,-0.011301007,0.0018325958,0.0033597588,297.00476,-82.24617,7.655596,STD
3691895552000,2.839907,0.0821307484606832,9.80665,0.81402856,-0.004276057,0.004581489,0.0027488936,296.99683,-82.261925,7.638243,STD
3691900514000,2.844869,0.0773278263491005,9.80665,0.81402856,-0.006414085,-0.0009162979,0.0027488936,296.99292,-82.275894,7.6226377,STD
3691905576000,2.849931,0.0684319786394706,9.81892396039115,0.818119794689846,-0.0067195175,0.0012217305,-0.00061086525,296.985,-82.28939,7.608201,STD
3691910568000,2.854923,0.058987604766693,9.83309080669696,0.822841978174634,-0.008857546,0.0012217305,0.0027488936,296.982277726636,-82.2945148669202,7.60250220792476,STD
3691915570000,2.859925,0.0681503399467849,9.85319682084257,0.798663188496674,-0.011301007,0.00030543262,0.005497787,296.97955,-82.29965,7.596792,STD
3691920533000,2.864888,0.0807968210518847,9.87427427467849,0.769154726715743,-0.00030543262,-0.0061086523,0.008246681,296.98157,-82.31246,7.5832105,STD
3691925579000,2.869934,0.113569440299317,9.883265,0.765693775981998,-0.008552114,-0.011911872,-0.0033597588,296.9844,-82.32637,7.567406,STD
3691930549000,2.874904,0.160025417113111,9.883265,0.781179128535951,-0.01160644,-0.006414085,0.0033597588,296.98566,-82.334915,7.557789,STD
3691935542000,2.879897,0.189771210684539,9.87630938282718,0.760953992873677,-0.012217305,-0.0030543262,0.0036651916,296.98804,-82.34862,7.544155,STD
3691940569000,2.884924,0.2135829644495,9.86678448837669,0.7276175236789,-0.018020526,-0.0030543262,0.005192355,296.98975,-82.35948,7.532974,STD
3691945546000,2.889901,0.230317828104582,9.86076050632787,0.7182605,-0.017715093,-0.0036651916,0.0018325958,296.98285,-82.36777,7.5238395,STD
3691950685000,2.89504,0.244802830398313,9.85593207475719,0.7182605,-0.0125227375,-0.003970624,-0.00030543262,296.97595,-82.37512,7.515613,STD
3691955624000,2.899979,0.255498315247369,9.84803286859447,0.728012502596636,-0.01985312,-0.0027488936,0.0012217305,296.97278,-82.37999,7.5102205,STD
3691960703000,2.905058,0.265066652689092,9.8384648458739,0.742364986279138,-0.010995574,-0.0027488936,0.0021380284,296.969692585483,-82.3828565221956,7.50747732204559,STD
3691965626000,2.909981,0.273891089748267,9.82964039036848,0.755601664593214,-0.014660766,0.009162978,0.004886922,296.9667,-82.385635,7.5048184,STD
3691970623000,2.914978,0.282620617219993,9.82091068059102,0.768696001377235,-0.0143553335,0.01160644,0.0076358155,296.9602,-82.38768,7.502639,STD
3691975610000,2.919965,0.275866397004351,9.81165178516677,0.7802965121214,-0.011301007,0.004581489,0.0125227375,296.9528,-82.38527,7.504684,STD
3691981195000,2.92555,0.248164692871349,9.80057087673503,0.791377171790967,-0.022296581,0.015271631,0.013744468,296.93967,-82.38259,7.5061874,STD
3691985628000,2.929983,0.22902372433828,9.80487049644237,0.800073189688961,-0.0143553335,0.017104227,0.017715093,296.93152,-82.37669,7.511328,STD
3691990652000,2.935007,0.209461254958325,9.81954263956089,0.809854409058752,-0.0143553335,0.018936822,0.009773844,296.9204,-82.373116,7.5131288,STD
3691995626000,2.939981,0.182638256856559,9.82844329399162,0.82986400426916,-0.009773844,0.013133603,0.016187929,296.90924,-82.36528,7.5201154,STD
3692000613000,2.944968,0.150082339953257,9.83309423361574,0.857769078675626,-0.007941248,0.011911872,0.015882496,296.89645,-82.3616,7.5227118,STD
3692005832000,2.950187,0.118115235667336,9.83804078638828,0.868829391407348,-0.014966198,0.004886922,0.0061086523,296.88864,-82.36151,7.521175,STD
3692010647000,2.955002,0.0903423011672355,9.84266921843004,0.864200572696246,-0.018020526,-0.01282817,0.007941248,296.8843,-82.35864,7.5228295,STD
3692015772000,2.960127,0.0648932418250401,9.844957,0.8619126,-0.016798794,-0.01282817,0.009162978,296.874,-82.360985,7.5183616,STD
3692020654000,2.965009,0.0440469912464776,9.844957,0.8619126,-0.027183503,-0.020158553,0.007330383,296.87097,-82.36294,7.5137205,STD
3692025629000,2.969984,0.02873042,9.84353362368816,0.860489104776183,-0.02321288,-0.022602014,0.0018325958,296.8685,-82.36984,7.505356,STD
3692030671000,2.975026,0.02873042,9.83836311694153,0.855318166074106,-0.023518313,-0.032375857,0.0009162979,296.8702,-82.37516,7.497961,STD
3692035583000,2.979938,0.026981725765467,9.84062700637813,0.859330583511617,-0.023823744,-0.031154128,0.0036651916,296.87735,-82.38575,7.484864,STD
3692040689000,2.985044,0.0225262203954442,9.85399332801822,0.877152621740319,-0.032070424,-0.050396383,-0.0021380284,296.89313,-82.39839,7.4694743,STD
3692045594000,2.989949,0.0195743591098344,9.86537321696519,0.89064306,-0.031154128,-0.05222898,0.0027488936,296.8989,-82.40869,7.4573274,STD
3692051304000,2.995659,0.0218844115878675,9.87230327357215,0.89064306,-0.039095376,-0.04734206,0.006414085,296.90817,-82.41985,7.443493,STD
3692055878000,3.000233,0.0237348809459277,9.87785460087867,0.89064306,-0.028099801,-0.054061573,-0.00030543262,296.918,-82.431946,7.4294987,STD
3692060966000,3.005321,0.0257932954832714,9.88402975464684,0.89064306,-0.031154128,-0.060170226,-0.00030543262,296.92603,-82.43981,7.4185987,STD
3692065637000,3.009992,0.0276830074140757,9.88969880795877,0.89064306,-0.038789943,-0.06261369,-0.005497787,296.93573,-82.454666,7.4004736,STD
3692070683000,3.015038,0.0358716078543247,9.89046080455235,0.893023454294385,-0.036957346,-0.067500606,-0.0015271631,296.94772,-82.46706,7.385318,STD
3692075660000,3.020015,0.0503370909438543,9.88563938300455,0.897845278634294,-0.029626964,-0.07422013,0.0033597588,296.96082,-82.48027,7.369286,STD
3692080695000,3.02505,0.0592452701297952,9.883265,0.898435431733487,-0.0290161,-0.07819075,0.0018325958,296.9702,-82.49428,7.3524437,STD
3692085683000,3.030038,0.0626898279809634,9.883265,0.894990877479089,-0.034513887,-0.084910266,0.002443461,296.98215,-82.50618,7.3379297,STD
3692090695000,3.03505,0.0661509594865878,9.883265,0.89152974958754,-0.03573562,-0.089491755,0.010079277,296.9925,-82.51348,7.328256,STD
3692095681000,3.040036,0.0634830730378985,9.87971035251654,0.904861349290154,-0.037873644,-0.08827003,0.0106901415,297.003,-82.52209,7.3169236,STD
3692100724000,3.045079,0.0586408981000602,9.87486808151193,0.924230023760778,-0.024740042,-0.09254608,0.013439035,297.0161,-82.52873,7.3085585,STD
3692106427000,3.050782,0.05746084,9.82922445943396,0.949160932990566,-0.01740966,-0.09590584,0.009162978,297.0281,-82.537415,7.2977586,STD
3692110693000,3.055048,0.05746084,9.78682806603774,0.968432004433962,-0.028099801,-0.09468412,0.018325957,297.03967,-82.54122,7.2916727,STD
3692115657000,3.060012,0.0551275266536892,9.76367627974882,0.974500988602826,-0.02565634,-0.10842858,0.016493361,297.05777,-82.54932,7.281546,STD
3692121407000,3.065762,0.0508051839535322,9.75503142103611,0.970178649513344,-0.022296581,-0.1151481,0.015271631,297.0732,-82.55409,7.2741976,STD
3692125738000,3.070093,0.047884032,9.75043258476802,0.966428458637292,-0.0143553335,-0.11911872,0.01863139,297.0896,-82.55538,7.2697225,STD
3692130710000,3.075065,0.047884032,9.76432719929968,0.957165551546542,-0.024740042,-0.11759156,0.02076942,297.10608,-82.55647,7.264573,STD
3692135877000,3.080232,0.047884032,9.77876845906433,0.946972555792398,-0.03023783,-0.12614368,0.017104227,297.1298,-82.559265,7.258725,STD
3692140695000,3.08505,0.047884032,9.79225979824561,0.928983857798246,-0.017104227,-0.12003502,0.016187929,297.14847,-82.56127,7.254164,STD
3692146110000,3.090465,0.0476697302179342,9.80686430614561,0.90829654696611,-0.02107485,-0.12156218,0.01985312,297.17526,-82.560936,7.2512355,STD
3692150688000,3.095043,0.044115115876277,9.81041899286525,0.883414237295281,-0.02107485,-0.124005646,0.014966198,297.2003,-82.56447,7.245469,STD
3692155783000,3.100138,0.0401590739211124,9.81437511537214,0.855721933281985,-0.027794369,-0.124005646,0.013744468,297.22397,-82.567825,7.2404094,STD
3692160815000,3.10517,0.0556548335589012,9.816227,0.84771545509825,-0.026572637,-0.10934488,0.015577064,297.24377,-82.57228,7.2346754,STD
3692165665000,3.11002,0.0874402101401897,9.816227,0.856796984084466,-0.021380283,-0.119729586,-0.0012217305,297.2707,-82.582184,7.223446,STD
3692170650000,3.115005,0.116479436671483,9.81845395644545,0.857458780121788,-0.005192355,-0.113926366,-0.003970624,297.29858,-82.592064,7.2137914,STD
3692175668000,3.120023,0.141278906435133,9.82341395087212,0.847538998431211,-0.012217305,-0.112399206,-0.0021380284,297.33044,-82.60409,7.200899,STD
3692180723000,3.125078,0.17200235441124,9.825804,0.848391029794826,-0.010995574,-0.11728613,-0.0061086523,297.35938,-82.6132,7.19209,STD
3692185647000,3.130002,0.207057508101398,9.825804,0.858907569313113,-0.006414085,-0.11575896,-0.012217305,297.3857,-82.6222,7.1831045,STD
3692191070000,3.135425,0.245665164165923,9.825804,0.870489858876004,0.0027488936,-0.10934488,-0.016493361,297.4103,-82.62995,7.176166,STD
3692195876000,3.140231,0.279649349837678,9.82920988834235,0.857866131136252,-0.0061086523,-0.099571034,-0.014049901,297.43317,-82.636696,7.169331,STD
3692200707000,3.145062,0.313785275839482,9.83300284513855,0.842694620790293,0.0009162979,-0.09560041,-0.013744468,297.45563,-82.646835,7.1606665,STD
3692205761000,3.150116,0.340780771048736,9.835381,0.831318016495242,0.00061086525,-0.093767814,-0.0106901415,297.46808,-82.648026,7.159079,STD
3692210664000,3.155019,0.354321600545996,9.835381,0.82680439095261,0.0015271631,-0.0870483,-0.005497787,297.47778,-82.64919,7.157997,STD
3692215751000,3.160106,0.365552462688115,9.84191617663245,0.821971557311885,0.0012217305,-0.077579886,-0.004886922,297.4846,-82.64337,7.165078,STD
3692220645000,3.165,0.370512655216425,9.86175684315801,0.817011364783575,-0.0061086523,-0.07849618,-0.0076358155,297.49234,-82.63703,7.1722703,STD
3692225656000,3.170011,0.379477589335481,9.873688,0.81402856,-0.008246681,-0.073303826,0.0012217305,297.4985,-82.62576,7.1844907,STD
3692230680000,3.175035,0.394010576657269,9.873688,0.81402856,-0.009773844,-0.0711658,0.00030543262,297.50577,-82.61797,7.1927085,STD
3692235724000,3.180079,0.404311990614746,9.87160184581933,0.809856340948804,-0.013439035,-0.064446285,0.004581489,297.51202,-82.60869,7.2017956,STD
3692240782000,3.185137,0.409099444103578,9.86681429235027,0.800281438970152,-0.01282817,-0.064751714,0.006414085,297.5196,-82.60089,7.209567,STD
3692245710000,3.190065,0.407852485558062,9.864111,0.797508429753152,-0.01985312,-0.06078109,0.015577064,297.52237,-82.58402,7.22631,STD
3692250719000,3.195074,0.398303004882548,9.864111,0.80387474244791,-0.02321288,-0.05589417,0.0143553335,297.5249,-82.57037,7.239997,STD
3692255712000,3.200067,0.388784027639018,9.864111,0.810220719546118,-0.032986723,-0.049785517,0.020158553,297.52756,-82.549805,7.260453,STD
3692260733000,3.205088,0.379383971677444,9.86595518267402,0.812184415838722,-0.027183503,-0.04428773,0.02076942,297.52887,-82.53247,7.2783446,STD
3692265717000,3.210072,0.370306228961582,9.87049414882084,0.807645544480791,-0.018020526,-0.044898596,0.01985312,297.53006,-82.51422,7.2967415,STD
3692270663000,3.215018,0.358142875257754,9.87224402441324,0.803007816076069,-0.027183503,-0.03604105,0.022602014,297.5254,-82.49745,7.312232,STD
3692275679000,3.220034,0.338009910513412,9.86721068074183,0.79797458277347,-0.022296581,-0.035430185,0.01863139,297.5233,-82.48483,7.3250527,STD
3692280693000,3.225048,0.332984989196064,9.85526271386289,0.797824386906647,-0.01863139,-0.027794369,0.017104227,297.519,-82.47141,7.3381934,STD
3692285732000,3.230087,0.352286451221502,9.83210088848892,0.805544964461243,-0.01985312,-0.016187929,0.02076942,297.51337,-82.45813,7.351148,STD
3692290756000,3.235111,0.371530457019438,9.80900801079913,0.813242559546436,-0.022602014,-0.0106901415,0.016493361,297.50446,-82.45092,7.358864,STD
3692295700000,3.240055,0.364912369223301,9.81523327002427,0.792570806171117,-0.025350908,-0.014966198,0.01740966,297.49506,-82.44149,7.368707,STD
3692300724000,3.245079,0.355180604822006,9.82496523766181,0.768241364682443,-0.014660766,-0.010079277,0.016493361,297.4816,-82.43473,7.376349,STD
3692306627000,3.250982,0.364316173785225,9.82081673895659,0.786093158815689,-0.01740966,-0.00061086525,0.0067195175,297.4636,-82.42511,7.385283,STD
3692310641000,3.254996,0.371635533115004,9.81715698286367,0.800731900403656,-0.0143553335,0.005192355,0.010995574,297.4453,-82.41321,7.3975644,STD
3692315703000,3.260058,0.34772781426194,9.82266904260276,0.814114635559993,-0.013439035,0.0027488936,0.017715093,297.4314,-82.40573,7.406168,STD
3692320700000,3.265055,0.315872068157763,9.83063314128807,0.826060550743884,-0.0036651916,0.003970624,0.005497787,297.41504,-82.40332,7.4101996,STD
3692325684000,3.270039,0.300822615812378,9.83932247233912,0.839094593718567,-0.008857546,0.009162978,0.0125227375,297.39453,-82.39051,7.42298,STD
3692330727000,3.275082,0.310736564780868,9.84923611074618,0.853965517171303,-0.01160644,0.022602014,0.016493361,297.37164,-82.38294,7.431028,STD
3692335651000,3.280006,0.309714664786342,9.85874738853252,0.859805949728609,-0.004886922,0.022907447,0.010079277,297.35455,-82.38111,7.4329243,STD
3692340974000,3.285329,0.294622192106977,9.86880924010658,0.854775129004244,-0.0076358155,0.015577064,0.009773844,297.33594,-82.37585,7.4374647,STD
3692345637000,3.289992,0.28244854976378,9.87530658219011,0.860428552083773,-0.005192355,0.028405234,0.0106901415,297.3042,-82.37083,7.442192,STD
3692350689000,3.295044,0.270666251496063,9.87923409286468,0.880065719964283,-0.009468411,0.029626964,0.009773844,297.27826,-82.36594,7.4462914,STD
3692356090000,3.300445,0.258774079410284,9.88346529204997,0.900420168782802,-0.005497787,0.038789943,0.007330383,297.25107,-82.363686,7.448311,STD
3692360598000,3.304953,0.262954610991575,9.887645461315,0.904600687268326,-0.013439035,0.043066,0.011911872,297.22516,-82.358795,7.4519944,STD
3692365531000,3.309886,0.267529269884768,9.8922197237339,0.909175331831122,-0.0125227375,0.040927973,0.014660766,297.20078,-82.35639,7.452463,STD
3692370570000,3.314925,0.244399752918638,9.88888285960265,0.905838188930937,-0.010995574,0.048258353,0.008857546,297.17273,-82.35469,7.451616,STD
3692375562000,3.319917,0.21726214050615,9.88436030596027,0.901315257464522,-0.0106901415,0.04520403,0.018325957,297.1484,-82.34802,7.4559555,STD
3692380567000,3.324922,0.222573885586793,9.87930354287894,0.892297086396426,-0.02076942,0.050701816,0.009162978,297.11945,-82.34521,7.455556,STD
3692385525000,3.32988,0.238095894079765,9.87412943739784,0.881949059123897,-0.013439035,0.044898596,0.014049901,297.0947,-82.337135,7.4618406,STD
3692390566000,3.334921,0.248170801153542,9.86931259576573,0.8766908871389,-0.017715093,0.051618114,0.013133603,297.0661,-82.336136,7.4598756,STD
3692395530000,3.339885,0.257577055680649,9.86460936782746,0.871987757419865,-0.015577064,0.05009095,0.014049901,297.04178,-82.334175,7.4599247,STD
3692400562000,3.344917,0.247008714840093,9.84869101232803,0.875344417044845,-0.01863139,0.054367006,0.018936822,297.01825,-82.32757,7.4641323,STD
3692405624000,3.349979,0.234016635563695,9.83136833643023,0.879675108629623,-0.020158553,0.054367006,0.02107485,296.99664,-82.32184,7.467728,STD
3692410601000,3.354956,0.219178062844799,9.825804,0.888176415427052,-0.022602014,0.0580322,0.014049901,296.97757,-82.31332,7.4738555,STD
3692415566000,3.359921,0.20337585443669,9.825804,0.8987112466999,-0.01038471,0.06841691,0.015882496,296.95663,-82.30292,7.4827666,STD
3692420597000,3.364952,0.20111294,9.81780696897652,0.904218292009278,-0.018020526,0.06566802,0.016493361,296.94122,-82.29431,7.488003,STD
3692425614000,3.369969,0.20111294,9.80851967623466,0.908861841405238,-0.013439035,0.06719518,0.018325957,296.9217,-82.28669,7.4937763,STD
3692430715000,3.37507,0.224963615276989,9.8106251934862,0.917746876790787,-0.011301007,0.0720821,0.021685716,296.90506,-82.28014,7.496863,STD
3692435601000,3.379956,0.253449168785511,9.81537288240666,0.927242051378856,-0.006414085,0.070554934,0.012217305,296.89008,-82.27732,7.4966993,STD
3692440601000,3.384956,0.250918649799244,9.816227,0.90981241952284,-0.005192355,0.0720821,0.014660766,296.87817,-82.26749,7.5029244,STD
3692445985000,3.39034,0.240917395938318,9.816227,0.884809245708467,-0.007330383,0.07544186,0.02076942,296.8663,-82.25957,7.507314,STD
3692450603000,3.394958,0.229909072821537,9.816227,0.903258776795484,-0.0015271631,0.07086037,0.017104227,296.85736,-82.251495,7.511129,STD
3692455764000,3.400119,0.217032151481546,9.816227,0.933304917624837,-0.00061086525,0.07849618,0.020158553,296.84384,-82.23966,7.5182214,STD
3692460809000,3.405164,0.205646460408163,9.81874869482432,0.94810385,0.00030543262,0.069027774,0.02321288,296.8414,-82.23348,7.521165,STD
3692465657000,3.410012,0.195878235102041,9.82363290437618,0.94810385,-0.00061086525,0.07086037,0.017104227,296.83356,-82.22913,7.522009,STD
3692470657000,3.415012,0.183494215748721,9.82312330686737,0.950784501146202,0.0067195175,0.065973446,0.01985312,296.82254,-82.22454,7.522502,STD
3692475630000,3.419985,0.169437119238489,9.81843751180638,0.955470222815821,0.004886922,0.058337633,0.023823744,296.81192,-82.220634,7.5215926,STD
3692480627000,3.424982,0.160271216325247,9.816227,0.960215201028252,0.0067195175,0.052839845,0.01985312,296.801,-82.21936,7.5194077,STD
3692485617000,3.429972,0.155500498355795,9.816227,0.964985914016173,0.0036651916,0.05100725,0.0290161,296.7911,-82.21298,7.522066,STD
3692490646000,3.435001,0.155738270684444,9.82124582093827,0.97729493225679,0.007941248,0.04795292,0.027183503,296.78006,-82.21554,7.5161877,STD
3692495615000,3.43997,0.160438237982222,9.83064594202469,0.996094781817284,-0.002443461,0.049785517,0.026267206,296.76816,-82.21403,7.513164,STD
3692500717000,3.445072,0.170384925804913,9.835381,0.992932694721884,-0.0030543262,0.05009095,0.014660766,296.7591,-82.21528,7.5083485,STD
3692505599000,3.449954,0.18462181797097,9.835381,0.969204549370686,-0.0067195175,0.062002823,0.029626964,296.74597,-82.2085,7.5107064,STD
3692510569000,3.454924,0.198946109317257,9.83785078505508,0.937920743117991,0.0015271631,0.06627888,0.02107485,296.73932,-82.20928,7.5044255,STD
3692515565000,3.45992,0.213190148051007,9.84259839803513,0.899936616691476,-0.0030543262,0.064446285,0.019242255,296.73077,-82.20296,7.5041957,STD
3692520538000,3.464893,0.225022026161667,9.84733478401276,0.885821683610087,0.0033597588,0.06047566,0.028710667,296.72476,-82.19467,7.5091434,STD
3692525607000,3.469962,0.234699066973986,9.85217339788697,0.895498739579388,0.006414085,0.057726767,0.026267206,296.71912,-82.18976,7.5100126,STD
3692530557000,3.474912,0.237174862144818,9.8500435143398,0.913691748374822,0.007941248,0.052839845,0.030848695,296.7219,-82.18142,7.5166883,STD
3692535550000,3.479905,0.232648874235684,9.84099184098438,0.94084763802177,0.009773844,0.065973446,0.02565634,296.7203,-82.17701,7.519422,STD
3692540571000,3.484926,0.231754358271861,9.83155893162039,0.963413682842934,0.004886922,0.064446285,0.027183503,296.7218,-82.167114,7.527188,STD
3692545547000,3.489902,0.236691599912971,9.82168426274347,0.978225376833817,0.003970624,0.06414085,0.02443461,296.7192,-82.16057,7.531809,STD
3692550586000,3.494941,0.23942018,9.80780953595085,0.982202346001728,0.007941248,0.07269296,0.024129177,296.7123,-82.155266,7.532508,STD
3692555971000,3.500326,0.23942018,9.78800698291255,0.972301017788231,0.0009162979,0.07544186,0.01740966,296.70728,-82.15169,7.5305457,STD
3692560560000,3.504915,0.244726999623774,9.78676469321593,0.965488561356814,0.0027488936,0.07574729,0.022602014,296.69174,-82.14467,7.5331783,STD
3692565579000,3.509934,0.259155454494697,9.81081210126076,0.960679079747849,0.009162978,0.07452556,0.024129177,296.6761,-82.1404,7.532784,STD
3692570558000,3.514913,0.266403692535989,9.82405706152633,0.952439984904358,0.0018325958,0.077579886,0.023823744,296.65765,-82.13558,7.5326743,STD
3692575597000,3.519952,0.261645494313745,9.81929877884047,0.938165410111418,0.003970624,0.06841691,0.020463986,296.64325,-82.13256,7.5322127,STD
3692580594000,3.524949,0.255536503136934,9.81774566593926,0.935024794826332,0.009468411,0.06994407,0.021685716,296.6229,-82.12819,7.53307,STD
3692585571000,3.529926,0.246868798333333,9.82207961111111,0.952360236111111,0.004886922,0.063224554,0.016798794,296.6078,-82.12582,7.5313716,STD
3692590615000,3.53497,0.241719692902014,9.825804,0.962658474195972,0.005192355,0.06566802,0.020463986,296.58887,-82.123505,7.5317674,STD
3692595586000,3.539941,0.256623054878431,9.825804,0.932851750243139,0.013133603,0.06811147,0.018325957,296.5722,-82.12439,7.5291643,STD
3692600679000,3.545034,0.261206556153772,9.82348927239276,0.912111338059456,0.0076358155,0.059864793,0.025961773,296.55295,-82.12159,7.5286036,STD
3692605625000,3.54998,0.233686331102934,9.81431568044931,0.921284733638036,0.007330383,0.05589417,0.025350908,296.5321,-82.12268,7.5250444,STD
3692610612000,3.554967,0.21068975,9.80665,0.928140007558946,0.0106901415,0.053145275,0.025350908,296.51563,-82.12194,7.5249867,STD
3692615595000,3.55995,0.21068975,9.80665,0.923412328303943,0.007941248,0.055283304,0.024740042,296.49908,-82.12103,7.5244937,STD
3692620621000,3.564976,0.209957321666832,9.80665,0.91864102319642,0.009468411,0.049785517,0.021380283,296.48807,-82.12305,7.521383,STD
3692625611000,3.569966,0.205204633263053,9.80665,0.913888344718051,0.008552114,0.054061573,0.020463986,296.47372,-82.12412,7.518627,STD
3692630610000,3.574965,0.201667557137326,9.8072046281407,0.911460509095477,0.0027488936,0.043982297,0.0290161,296.46783,-82.12381,7.5171623,STD
3692635590000,3.579945,0.205596423913831,9.81113357286432,0.923247093015075,0.012217305,0.036651913,0.023518313,296.46014,-82.12879,7.5113573,STD
3692640590000,3.584945,0.209541069271769,9.81507829648241,0.935081012613065,0.004581489,0.03634648,0.025045475,296.45377,-82.13293,7.50396,STD
3692645601000,3.589956,0.196982432169099,9.81280010166079,0.921392919708103,0.014049901,0.03634648,0.02107485,296.44962,-82.14221,7.4936476,STD
3692650623000,3.594978,0.177618676853548,9.80795906552592,0.897188249574232,0.009468411,0.029932396,0.029321533,296.44727,-82.14576,7.487489,STD
3692655627000,3.599982,0.182572316821012,9.80665,0.887246442143969,0.010995574,0.03176499,0.025961773,296.4442,-82.151474,7.479144,STD
3692660673000,3.605028,0.196674816754864,9.80665,0.882545582653697,0.0027488936,0.03481932,0.02107485,296.44257,-82.15411,7.4728055,STD
3692665623000,3.609978,0.20111294,9.80950164059871,0.889620961006111,0.008552114,0.03726278,0.020158553,296.44675,-82.166916,7.4576683,STD
3692670593000,3.614948,0.20111294,9.81371718306616,0.902267350714729,0.0036651916,0.02687807,0.019242255,296.45374,-82.17913,7.4415836,STD
3692675612000,3.619967,0.203238826702586,9.82260456465517,0.90979666,0.005192355,0.025961773,0.017104227,296.4503,-82.19309,7.425637,STD
3692680631000,3.624986,0.208418353576509,9.83814291271552,0.90979666,-0.0061086523,0.02443461,0.022907447,296.44995,-82.20328,7.41216,STD
3692685627000,3.629982,0.20794101474122,9.84220849722736,0.907047927611419,0.0070249503,0.0290161,0.015577064,296.44583,-82.220406,7.392575,STD
3692690654000,3.635009,0.202997225064695,9.83726512569316,0.902104143097145,-0.0018325958,0.022296581,0.015271631,296.44525,-82.2308,7.377166,STD
3692695633000,3.639988,0.198220348635243,9.83248835124741,0.906005033668277,0.0009162979,0.022296581,0.018325957,296.43604,-82.24325,7.362942,STD
3692701037000,3.645392,0.193116997758604,9.82738489912238,0.916211719434967,-0.00061086525,0.02076942,0.023823744,296.4293,-82.25363,7.3497663,STD
3692705871000,3.650226,0.207673372659083,9.82311440526129,0.913994375666548,0.0076358155,0.02107485,0.017104227,296.4216,-82.26845,7.333703,STD
3692710733000,3.655088,0.232502256775684,9.818976174369,0.90571809104337,-0.0012217305,0.013133603,0.014966198,296.41675,-82.27859,7.3209033,STD
3692715728000,3.660083,0.252841780747593,9.81879025801805,0.901501462244295,-0.0033597588,0.01985312,0.01740966,296.40723,-82.28875,7.308892,STD
3692720690000,3.665045,0.263650818101448,9.82599642588521,0.905104470933354,-0.003970624,0.020463986,0.025961773,296.40176,-82.29693,7.2984643,STD
3692725638000,3.669993,0.274429358372887,9.83318226196073,0.908697313938889,0.005497787,0.016187929,0.016493361,296.39996,-82.305534,7.2879896,STD
3692730713000,3.675068,0.284016569278008,9.84795925975104,0.890929152165975,0.0021380284,0.022296581,0.017104227,296.39478,-82.30784,7.282748,STD
3692735877000,3.680232,0.293136836099585,9.8661996791148,0.863568351701245,-0.0027488936,0.02565634,0.016798794,296.39172,-82.313576,7.2747526,STD
3692740729000,3.685084,0.280311139685153,9.87132082692482,0.842867295550529,-0.0018325958,0.02443461,0.01863139,296.39136,-82.31551,7.2699504,STD
3692745674000,3.690029,0.250319171106487,9.86703617434181,0.825729025234778,-0.007941248,0.016798794,0.019547688,296.39185,-82.31668,7.26488,STD
3692750677000,3.695032,0.22984336,9.86564842269364,0.823252909943759,-0.010079277,-0.004581489,0.01740966,296.40042,-82.32181,7.2578325,STD
3692755966000,3.700321,0.22984336,9.87064622762703,0.853239134192403,-0.010995574,0.011301007,0.015882496,296.40045,-82.326096,7.250864,STD
3692760667000,3.705022,0.22984336,9.87509534893406,0.865860121824492,0.0018325958,0.009773844,0.01740966,296.41852,-82.338,7.238574,STD
3692765670000,3.710025,0.22984336,9.87984633862171,0.846856559940506,-0.007941248,-0.004581489,0.019547688,296.43552,-82.347786,7.226202,STD
3692770817000,3.715172,0.233370815894444,9.883265,0.841412934922222,-0.0076358155,0.005497787,0.015882496,296.44025,-82.35913,7.2124057,STD
3692775714000,3.720069,0.244536912542857,9.883265,0.867467174685714,-0.008552114,0.01160644,0.021380283,296.44998,-82.36629,7.2022543,STD
3692780695000,3.72505,0.255894545257936,9.883265,0.89396833218254,-0.004886922,-0.00030543262,0.02443461,296.46344,-82.37476,7.193504,STD
3692785660000,3.730015,0.218366617995972,9.87595446022155,0.874633482215509,-0.003970624,-0.0076358155,0.0290161,296.47357,-82.38093,7.186715,STD
3692790684000,3.735039,0.165068271909366,9.86626365498489,0.840716341848943,-0.028710667,-0.040011674,0.03481932,296.4942,-82.38382,7.1816516,STD
3692795670000,3.740025,0.178222712196532,9.86054038439306,0.815329483612717,-0.028710667,-0.021991149,0.028099801,296.49777,-82.3863,7.1764455,STD
3692800669000,3.745024,0.210507987953757,9.85592810857418,0.792268571669557,-0.022907447,-0.017715093,0.02443461,296.51422,-82.384834,7.1742187,STD
3692805907000,3.750262,0.252952227370879,9.84145980686813,0.798372427978938,-0.016798794,0.003970624,0.014049901,296.52805,-82.39633,7.16105,STD
3692810683000,3.755038,0.294837603041209,9.82470575631868,0.815126561627289,-0.010079277,0.0009162979,0.015882496,296.54742,-82.40605,7.1507244,STD
3692815665000,3.76002,0.342622204099183,9.80897594716127,0.813937157466299,-0.0030543262,0.0027488936,0.0076358155,296.56363,-82.41579,7.1420784,STD
3692820642000,3.764997,0.394211446228476,9.79490636042507,0.795177452199154,0.0067195175,0.0106901415,-0.0018325958,296.57874,-82.42628,7.133541,STD
3692825733000,3.770088,0.426051571104088,9.79216892474817,0.775954010716966,0.00580322,0.007330383,0.0030543262,296.5852,-82.425865,7.1354647,STD
3692830766000,3.775121,0.435571625301205,9.80168868072289,0.75691386753012,0.01038471,0.01282817,0.0015271631,296.587,-82.43121,7.1325464,STD
3692835651000,3.780006,0.4405331,9.81272549051136,0.7469909,0.009773844,0.01160644,-0.0021380284,296.59177,-82.42499,7.1428223,STD
3692840676000,3.785031,0.4405331,9.82622210404786,0.7469909,0.0061086523,0.021991149,0.003970624,296.59146,-82.416954,7.1547837,STD
3692845680000,3.790035,0.429760038384918,9.83691987932251,0.750068915767719,0.011301007,0.029626964,0.004581489,296.59668,-82.41279,7.164171,STD
3692850763000,3.795118,0.395406542657526,9.84182710868031,0.759884194404678,0.01985312,0.0290161,0.005192355,296.60117,-82.407265,7.174771,STD
3692855809000,3.800164,0.358120753206372,9.84034465506808,0.763069560567767,0.017104227,0.032375857,0.01282817,296.60165,-82.39861,7.1882153,STD
3692860875000,3.80523,0.314945440226039,9.82739224962178,0.754434503381686,0.017715093,0.026572637,0.010995574,296.6051,-82.39374,7.198729,STD
3692865722000,3.810077,0.278564869265804,9.81748318509747,0.748247106959373,0.016187929,0.024129177,0.007941248,296.6073,-82.39397,7.2021694,STD
3692870706000,3.815061,0.287260591809073,9.83052657369284,0.761290722554199,0.023518313,0.037873644,0.016493361,296.6064,-82.39253,7.2080007,STD
3692875687000,3.820042,0.29595108016943,9.84356211113136,0.774326486855529,0.016493361,0.05100725,0.01985312,296.61,-82.4008,7.2027717,STD
3692880697000,3.825052,0.293105445577668,9.83363045808383,0.7757214,0.015271631,0.036651913,0.0125227375,296.61755,-82.41077,7.197037,STD
3692885627000,3.829982,0.288947844080662,9.82115785329341,0.7757214,0.018325957,0.03634648,0.0125227375,296.61722,-82.41749,7.193976,STD
3692890744000,3.835099,0.2873042,9.81951018753382,0.779004508685207,0.01740966,0.050701816,0.016493361,296.61496,-82.42335,7.1899333,STD
3692895691000,3.840046,0.2873042,9.8246370589763,0.784131257001407,0.01160644,0.052839845,0.01985312,296.6163,-82.42912,7.185858,STD
3692900731000,3.845086,0.262706340986219,9.83634578494422,0.813409998913471,0.018325957,0.053145275,0.01038471,296.6105,-82.44021,7.17747,STD
3692905824000,3.850179,0.230698958268492,9.8500630334677,0.849989851917128,0.024740042,0.055283304,0.016493361,296.60342,-82.44548,7.174484,STD
3692910716000,3.855071,0.214066182660256,9.83903308974359,0.855712235897436,0.029321533,0.057726767,0.019547688,296.59137,-82.45501,7.167781,STD
3692915774000,3.860129,0.204362761247997,9.81477454887821,0.846008819551282,0.02443461,0.04795292,0.011911872,296.58252,-82.46532,7.1599417,STD
3692920650000,3.865005,0.189360762332433,9.81605168715773,0.859212053152333,0.02076942,0.05681047,0.013439035,296.56354,-82.47354,7.152889,STD
3692925687000,3.870042,0.170757456577709,9.83093424473583,0.885256688202083,0.022296581,0.052534413,0.009162978,296.55154,-82.4852,7.142429,STD
3692930746000,3.875101,0.153826207990435,9.8446583761084,0.910692606206038,0.03176499,0.043066,0.0076358155,296.5381,-82.49631,7.1341033,STD
3692935658000,3.880013,0.163199779009664,9.83997198455714,0.92475295050015,0.023518313,0.049785517,-0.00030543262,296.52155,-82.50862,7.1227474,STD
3692940817000,3.885172,0.17449312775696,9.835381,0.937119979508839,0.025350908,0.05009095,0.0067195175,296.50806,-82.51996,7.112236,STD
3692945691000,3.890046,0.204138955444056,9.835381,0.917356113301577,0.029626964,0.055283304,-0.004581489,296.4917,-82.53756,7.0944057,STD
3692950679000,3.895034,0.23127988075,9.834662725,0.90237463925,0.028710667,0.049480084,0.00580322,296.47668,-82.54347,7.087552,STD
3692955982000,3.900337,0.241277084867126,9.82966402116142,0.917370432376968,0.021685716,0.045814894,0.008552114,296.46002,-82.554054,7.075481,STD
3692960676000,3.905031,0.246977499890164,9.82741956664085,0.926122991508836,0.015882496,0.054061573,0.007330383,296.44022,-82.560814,7.068575,STD
3692965729000,3.910084,0.229941802953601,9.84104804449764,0.902273012951489,0.016493361,0.05467244,0.004276057,296.4239,-82.56714,7.0621414,STD
3692970619000,3.914974,0.213455644627896,9.85423689403647,0.879192388541153,0.006414085,0.052839845,0.004581489,296.40466,-82.568535,7.05798,STD
3692975666000,3.920021,0.199731007812598,9.86687491920875,0.86882226238001,0.01160644,0.05131268,-0.0018325958,296.38556,-82.5739,7.0511,STD
3692980697000,3.925052,0.19471477344404,9.87690758698595,0.893903439460698,0.02107485,0.04734206,0.009162978,296.36768,-82.573845,7.049429,STD
3692985660000,3.930015,0.183406608778097,9.87920015662363,0.913861417073968,0.014660766,0.044593163,0.0067195175,296.35565,-82.58484,7.0377083,STD
3692990779000,3.935134,0.159961527575323,9.86747737733142,0.925583947474892,0.0070249503,0.024740042,0.0021380284,296.34976,-82.59396,7.028894,STD
3692995640000,3.939995,0.137698089457198,9.85634543161167,0.936715656847601,-0.007941248,0.010995574,0.013439035,296.34033,-82.59777,7.0225987,STD
3693000728000,3.945083,0.121914679950749,9.854534,0.942580587194642,-0.0009162979,0.021991149,0.014660766,296.32977,-82.60666,7.012262,STD
3693005837000,3.950192,0.107456079105595,9.854534,0.947400117454689,0.00030543262,0.012217305,0.015271631,296.32904,-82.610725,7.005471,STD
3693010659000,3.955014,0.0896128629239295,9.85846708332494,0.995299925869018,0.0009162979,0.00061086525,0.0125227375,296.32214,-82.62102,6.992037,STD
3693015634000,3.959989,0.0704110020423174,9.86326764503778,1.05290553858942,-0.0061086523,-0.01160644,0.021991149,296.31815,-82.62702,6.982646,STD
3693020656000,3.965011,0.049212739174549,9.864111,1.06659057948488,-0.018325957,-0.02107485,0.021380283,296.31693,-82.63699,6.9687247,STD
3693025690000,3.970045,0.0275804824013282,9.864111,1.07091702758683,-0.022296581,-0.03359759,0.03176499,296.31985,-82.6414,6.96102,STD
3693030656000,3.975011,0.0369143447344168,9.86707118154701,0.974918356233285,-0.02565634,-0.0693332,0.028710667,296.32413,-82.64742,6.94747,STD
3693035668000,3.980023,0.0665372340658301,9.87200842943839,0.81199242366797,-0.03940081,-0.04734206,0.020463986,296.31525,-82.6506,6.9350257,STD
3693040744000,3.985099,0.128052370613505,9.84429482382398,0.754118277177542,-0.06047566,-0.02321288,0.009162978,296.3176,-82.65613,6.919526,STD
3693045704000,3.990059,0.203736756968589,9.80104648391502,0.750514261396055,-0.029321533,-0.0061086523,0.005192355,296.3155,-82.66545,6.903845,STD
3693050889000,3.995244,0.282569848798595,9.76011112365187,0.745107726887384,-0.0106901415,-0.014660766,0.0061086523,296.34094,-82.68038,6.88851,STD
3693055882000,4.000237,0.354529214427723,9.7800998212524,0.717123550246635,0.0021380284,-0.014966198,-0.00030543262,296.3591,-82.70053,6.8699117,STD
3693060691000,4.005046,0.423836762857621,9.79935190351977,0.690170635072318,-0.013133603,-0.013133603,-0.0067195175,296.36905,-82.70645,6.8647456,STD
3693065660000,4.010015,0.452563200320007,9.81646303004641,0.684859840640013,-0.004581489,-0.0030543262,0.004886922,296.3765,-82.71262,6.8628693,STD
3693070675000,4.01503,0.456473928436609,9.83210586084195,0.692681296873219,0.004886922,0.027794369,-0.0067195175,296.37772,-82.72525,6.852364,STD
3693075703000,4.020058,0.454772493228784,9.83758566836206,0.704021132495055,0.002443461,0.04520403,-0.0067195175,296.379716551931,-82.7220464872793,6.85939973864113,STD
3693080698000,4.025053,0.427738778832062,9.79703522614675,0.731054823368183,0.027488936,0.04428773,-0.0036651916,296.3817,-82.718864,6.8663893,STD
3693085716000,4.030071,0.401103107760895,9.75966421272657,0.7565677,0.021991149,0.05222898,-0.0036651916,296.37955,-82.71485,6.8755026,STD
3693090765000,4.03512,0.382455485934439,9.77458222607019,0.7565677,0.022907447,0.058643065,0.0030543262,296.37463,-82.70921,6.8876896,STD
3693096548000,4.040903,0.361096960083301,9.79166895040493,0.7565677,0.012217305,0.058337633,0.013744468,296.36642,-82.702644,6.8969946,STD
3693100717000,4.045072,0.34004212213309,9.80320158158614,0.764738986399271,0.0061086523,0.06047566,0.014049901,296.35583,-82.69775,6.9048176,STD
3693105868000,4.050223,0.308564365828624,9.81669231823154,0.78272629248587,0.0009162979,0.058643065,0.016187929,296.3465,-82.68879,6.9158874,STD
3693110665000,4.05502,0.274148568139094,9.83178382869054,0.791287064043964,0.00580322,0.067500606,0.0076358155,296.33606,-82.68808,6.918316,STD
3693115658000,4.060013,0.224310882341292,9.85443730718211,0.77769494383267,-0.018020526,0.070249505,0.013744468,296.3278,-82.679886,6.9253554,STD
3693120726000,4.065081,0.178291333017642,9.87613331685237,0.765533167595172,-0.02687807,0.05009095,0.022602014,296.3221,-82.677376,6.928135,STD
3693125664000,4.070019,0.156336703806871,9.89076964972145,0.761874065273909,-0.034513887,0.034513887,0.031154128,296.3144,-82.6713,6.9323654,STD
3693130677000,4.075032,0.134048620324977,9.90562828412256,0.75815938727948,-0.038179077,0.018020526,0.049480084,296.3173,-82.67254,6.9295745,STD
3693135683000,4.080038,0.143183027767728,9.91433061447222,0.749561002909805,-0.06505715,0.0125227375,0.053145275,296.32153,-82.672554,6.925127,STD
3693140756000,4.085111,0.176348409186791,9.91847637102142,0.737123992994283,-0.061086524,0.020463986,0.053145275,296.32632,-82.67131,6.924767,STD
3693145686000,4.090041,0.212231521991141,9.91839528124319,0.7278373,-0.056505036,0.040927973,0.04734206,296.33466,-82.670204,6.9224305,STD
3693150702000,4.095057,0.261067605412824,9.90444219780698,0.7278373,-0.058948494,0.043676864,0.047036625,296.3455,-82.667534,6.9216537,STD
3693155866000,4.100221,0.311344625905163,9.89007742052138,0.7278373,-0.04917465,0.05467244,0.05009095,296.34344,-82.66398,6.9245377,STD
3693160699000,4.105054,0.367947845157323,9.86220507092344,0.744217109908783,-0.047647487,0.07360926,0.043676864,296.33838,-82.662254,6.924303,STD
3693166386000,4.110741,0.446095443533873,9.81196689279492,0.783290926582966,-0.032070424,0.079107046,0.040011674,296.33392,-82.6614,6.9255624,STD
3693170680000,4.115035,0.452599951078917,9.78517045787266,0.811538536435379,-0.01740966,0.08399397,0.036651913,296.3195,-82.651794,6.93545,STD
