timestamp,rel_time,acc_x,acc_y,acc_z,gyro_x,gyro_y,gyro_z,azimuth,pitch,roll,label
400983881000,0,1.27347839327668,6.42471864683829,0.729721064458885,0.20219639,0.17654006,0.086437434,236.89731,-101.479095,10.789885,STD
400988873000,0.004992,1.23763179076731,6.80469256855786,0.724941520784804,0.1160644,0.17440203,0.103847094,236.6994,-101.47039,10.776205,STD
400993866000,0.009985,1.20177800744814,7.18474260684829,0.720161019670083,0.0290161,0.17134771,0.10445796,236.49576,-101.432655,10.7382765,STD
400998977000,0.015096,1.16007844411735,7.78716239003769,0.745706143145564,-0.003970624,0.15118915,0.09315695,236.2904,-101.39912,10.706386,STD
401003877000,0.019996,1.11705742242029,8.49461891952735,0.788727144877254,-0.014049901,0.15363261,0.09407325,236.08356,-101.362495,10.67789,STD
401008857000,0.024976,1.15015355752822,8.9759464113298,0.719015439104806,-0.016493361,0.15851954,0.09437868,235.84428,-101.27625,10.597076,STD
401013900000,0.030019,1.2273574083325,9.32818930497552,0.58390870775502,-0.011911872,0.17104226,0.084910266,235.60666,-101.18831,10.514657,STD
401018870000,0.034989,1.26065368573563,9.55587269389381,0.655095004540293,-0.018325957,0.15760323,0.077579886,235.3356,-101.06094,10.396874,STD
401023924000,0.040043,1.27029630894511,9.71979718776771,0.843126288018727,-0.025961773,0.15607607,0.07941248,235.06357,-100.936554,10.281898,STD
401028889000,0.045008,1.24977895781804,9.82280064159118,0.88586029907247,-0.040317107,0.14752395,0.07849618,234.81348,-100.8339,10.177753,STD
401033926000,0.050045,1.21178105187082,9.89404671524222,0.847862363367468,-0.033292156,0.14508049,0.07574729,234.56732,-100.73506,10.0763235,STD
401038914000,0.055033,1.20278143536122,9.91021098859316,0.745133842585551,-0.04337143,0.1328632,0.08032878,234.28278,-100.61781,9.97421,STD
401043916000,0.060035,1.21212201322999,9.891529930389,0.600354788086185,-0.040317107,0.12705997,0.06414085,234.00201,-100.500206,9.869353,STD
401048901000,0.06502,1.20568120930997,9.85947487513691,0.578594390361446,-0.04917465,0.11789699,0.05467244,233.72311,-100.38574,9.764492,STD
401053924000,0.070043,1.18652188783232,9.81636600169272,0.655231726286966,-0.060170226,0.118202426,0.04153884,233.4479,-100.26979,9.657967,STD
401058903000,0.075022,1.17014003676617,9.79186833900497,0.738975955552239,-0.06078109,0.10842858,0.03970624,233.2091,-100.17535,9.56037,STD
401064017000,0.080136,1.15552035746269,9.78212222537313,0.83156698641791,-0.049480084,0.103847094,0.035430185,232.96921,-100.08159,9.464844,STD
401068916000,0.085035,1.14168691405779,9.77289997120342,0.884039223008075,-0.060170226,0.11362094,0.03573562,232.7002,-99.98913,9.377411,STD
401073899000,0.090018,1.12775914061679,9.76361459499951,0.907252202981808,-0.061086524,0.105068825,0.04550946,232.4367,-99.90593,9.299261,STD
401078923000,0.095042,1.11819756937044,9.76563263528715,0.914795791130847,-0.0571159,0.1151481,0.04428773,232.14563,-99.81592,9.226077,STD
401083922000,0.100041,1.11347343051115,9.77980534783896,0.905347518345175,-0.06291912,0.11301007,0.053145275,231.86278,-99.73501,9.164239,STD
401088875000,0.104994,1.10453613171577,9.78006124263432,0.886410672062392,-0.064751714,0.119729586,0.05222898,231.57185,-99.65209,9.102477,STD
401093906000,0.110025,1.09022143576133,9.76336066437237,0.855395482547165,-0.061391957,0.1142318,0.06383542,231.28207,-99.58304,9.057573,STD
401098827000,0.114946,1.07621972262441,9.74702523490963,0.825058422796732,-0.059864793,0.11911872,0.06383542,230.97623,-99.51876,9.017171,STD
401103913000,0.120032,1.0617485352612,9.73014208224808,0.793704168399109,-0.061086524,0.12461651,0.059864793,230.67085,-99.463036,8.987197,STD
401108852000,0.124971,1.05918042338316,9.7156826471807,0.768079225514282,-0.054367006,0.124311075,0.056199603,230.36623,-99.41391,8.964334,STD
401114676000,0.130795,1.07568931289034,9.70192523925805,0.746067344107345,-0.061391957,0.12644911,0.049480084,230.06387,-99.365746,8.944955,STD
401118803000,0.134922,1.08738783400918,9.69217647165902,0.730469295589759,-0.059864793,0.112704635,0.040317107,229.7685,-99.32674,8.930286,STD
401123924000,0.140043,1.10190397809679,9.68007968491934,0.711114411543584,-0.054061573,0.10445796,0.036957346,229.47688,-99.28966,8.918191,STD
401128863000,0.144982,1.11558263284409,9.66790203221638,0.688203145311548,-0.052534413,0.094989546,0.031154128,229.18723,-99.25409,8.906876,STD
401134031000,0.15015,1.1292887813902,9.6541960744946,0.656222098643035,-0.05222898,0.08277224,0.032070424,228.90703,-99.22174,8.898215,STD
401138849000,0.154968,1.14565603525892,9.64470436053354,0.627772069265398,-0.04153884,0.0693332,0.035430185,228.64577,-99.19922,8.896298,STD
401143906000,0.160025,1.17890531428011,9.6494538536681,0.604022624637113,-0.04734206,0.05589417,0.03176499,228.39404,-99.174995,8.893271,STD
401148890000,0.165009,1.2087717926441,9.65132693651098,0.582091144440395,-0.055283304,0.0580322,0.022296581,228.15092,-99.15823,8.895011,STD
401153914000,0.170033,1.2226148471756,9.63748407470989,0.568248070635849,-0.04886922,0.053145275,0.027183503,227.9203,-99.14491,8.898674,STD
401158933000,0.175052,1.23678248045802,9.62400379541985,0.552018846343512,-0.053145275,0.04550946,0.018936822,227.70299,-99.13083,8.900847,STD
401164053000,0.180172,1.25549744839695,9.61464611603054,0.50523139229771,-0.052839845,0.029321533,0.01863139,227.49521,-99.12114,8.906108,STD
401169289000,0.185408,1.27350620680991,9.60679156350719,0.458850356584647,-0.07269296,0.03359759,0.013744468,227.2928,-99.11022,8.910523,STD
401173887000,0.190006,1.26969108582568,9.62968236908681,0.443589860696586,-0.071776666,0.026572637,0.027183503,227.10358,-99.105545,8.919138,STD
401178919000,0.195038,1.26551585990296,9.65473381181771,0.426888943926529,-0.0729984,0.016493361,0.019242255,226.92769,-99.09886,8.924724,STD
401184728000,0.200847,1.26792791736207,9.67815586729293,0.419484777469839,-0.058948494,0.017715093,0.01740966,226.7553,-99.09814,8.934954,STD
401188941000,0.20506,1.27177578801679,9.69354755080826,0.417560828079729,-0.061086524,0.015271631,0.017715093,226.5911,-99.09452,8.942534,STD
401193878000,0.209997,1.27628491154451,9.71158428033952,0.415306249836441,-0.06352998,0.013439035,0.018325957,226.428,-99.09782,8.956654,STD
401198876000,0.214995,1.28084974836679,9.72984386595775,0.413023814742263,-0.06078109,0.01985312,0.011911872,226.26682,-99.099205,8.968286,STD
401203780000,0.219899,1.28566575903079,9.74673402923197,0.430792373019896,-0.064751714,0.020463986,0.01282817,226.10733,-99.1061,8.9857025,STD
401208797000,0.224916,1.29100618461709,9.76275474836056,0.473514924535956,-0.059253927,0.029321533,0.0067195175,225.94708,-99.10943,8.998526,STD
401213877000,0.229996,1.28023020984841,9.75254455355197,0.520014072589914,-0.07544186,0.024740042,0.0076358155,225.78668,-99.11504,9.013177,STD
401218775000,0.234894,1.26164018157139,9.72930707886654,0.56648906563658,-0.06414085,0.026267206,0.004581489,225.62553,-99.11883,9.024288,STD
401223797000,0.239916,1.23097134875971,9.71751024971553,0.63726352105335,-0.054061573,0.02687807,0.008246681,225.4647,-99.12161,9.035488,STD
401228835000,0.244954,1.19332542239019,9.71280457852986,0.721966840643714,-0.06811147,0.021685716,-0.0015271631,225.30841,-99.11915,9.041407,STD
401233777000,0.249896,1.15639684594753,9.70818857475861,0.805056123179557,-0.064751714,0.018936822,0.0030543262,225.15424,-99.11451,9.0449505,STD
401238777000,0.254896,1.11903487059072,9.70351839692448,0.889120553102507,-0.06536258,0.01282817,-0.00061086525,225.00543,-99.104515,9.043142,STD
401243820000,0.259939,1.08135158224585,9.69880805556097,0.973907937122793,-0.060170226,0.011911872,-0.0021380284,224.84819,-99.10383,9.049821,STD
401248800000,0.264919,1.04413905479047,9.69415655843818,1.05763610932605,-0.063224554,-0.009468411,-0.0070249503,224.70172,-99.10092,9.053856,STD
401253840000,0.269959,1.03190976334085,9.70371473051682,1.11092138441345,-0.06688975,-0.018325957,-0.011911872,224.55487,-99.09775,9.057015,STD
401258792000,0.274911,1.0464989179758,9.72802990360952,1.13037352288761,-0.07452556,-0.041233405,-0.011911872,224.42111,-99.0945,9.059616,STD
401263758000,0.279877,1.0584611906043,9.75214397651074,1.11959043758281,-0.07819075,-0.05131268,-0.013744468,224.24443,-99.059,9.03267,STD
401268772000,0.284891,1.06810143858663,9.77624459646657,1.08102944565348,-0.06566802,-0.040927973,-0.018325957,224.07164,-99.02454,9.0053215,STD
401273775000,0.289894,1.07008452922469,9.79756843051852,1.03532899518025,-0.076052725,-0.038179077,-0.02687807,223.89792,-98.98807,8.974739,STD
401278805000,0.294924,1.06532686957037,9.81659896977778,0.982994689303704,-0.07513642,-0.03573562,-0.024129177,223.72481,-98.955124,8.946272,STD
401283756000,0.299875,1.0761364371985,9.82103645225386,0.915964405819494,-0.07574729,-0.025045475,-0.027488936,223.55704,-98.92176,8.91636,STD
401288794000,0.304913,1.10236852528667,9.81149756998814,0.832498682991301,-0.06963864,-0.01282817,-0.03634648,223.39113,-98.889114,8.886249,STD
401293758000,0.309877,1.12821530680111,9.80209879833926,0.750258935448794,-0.07360926,0.013439035,-0.032070424,223.22635,-98.861694,8.860507,STD
401298783000,0.314902,1.1543797058966,9.79258453010083,0.667008586657276,-0.07696902,0.03970624,-0.03573562,223.06102,-98.830345,8.830088,STD
401303760000,0.319879,1.16727531393258,9.78530660499376,0.610445498759051,-0.07452556,0.055588737,-0.030848695,222.89285,-81.20006,8.799938,STD
401308766000,0.324885,1.16488120849438,9.78051834411985,0.584110591426217,-0.06719518,0.070554934,-0.033292156,222.72046,-81.23281,8.766861,STD
401313743000,0.329862,1.16250097222472,9.77575782187266,0.557928243484644,-0.06383542,0.06658431,-0.03145956,222.57683,-81.247505,8.751662,STD
401318779000,0.334898,1.16009251937079,9.77094086586767,0.531435516091885,-0.057421334,0.058337633,-0.024740042,222.43277,-81.26154,8.736941,STD
401323755000,0.339874,1.16093166984096,9.76620489667095,0.479731489688827,-0.04550946,0.045814894,-0.026572637,222.2995,-81.28241,8.715271,STD
401328817000,0.344936,1.16572056786526,9.76141592363924,0.39592615930159,-0.04886922,0.027794369,-0.019242255,222.17259,-81.29863,8.698037,STD
401333727000,0.349846,1.17036566650203,9.75677075224736,0.314637306634397,-0.04153884,0.022602014,-0.018020526,222.05325,-81.31566,8.680234,STD
401338780000,0.354899,1.17514605008891,9.75199029378643,0.230980978217426,-0.04153884,0.020463986,-0.01740966,221.94019,-81.330505,8.664449,STD
401343736000,0.359855,1.18520493190883,9.7455602977208,0.180144920128205,-0.04886922,0.015577064,-0.017715093,221.82587,-81.34293,8.651069,STD
401348785000,0.364904,1.20357274319088,9.73637667977208,0.175552962512821,-0.046731193,0.010995574,-0.014966198,221.71407,-81.354355,8.638715,STD
401353828000,0.369947,1.21900460652896,9.72728590782921,0.173070047350148,-0.050701816,0.008246681,-0.016798794,221.62425,-81.359634,8.633253,STD
401358860000,0.374979,1.22789255518259,9.71839800557912,0.175292036833733,-0.044593163,0.0067195175,-0.01863139,221.53714,-81.364845,8.628004,STD
401363921000,0.38004,1.23683172611582,9.70945888131686,0.17752683190059,-0.048563786,-0.0012217305,-0.016798794,221.46738,-81.36948,8.622996,STD
401368877000,0.384996,1.24558543707119,9.70070521606418,0.179715261924567,-0.04337143,-0.0033597588,-0.019242255,221.39767,-81.37641,8.615852,STD
401374227000,0.390346,1.25443763259535,9.6907364529898,0.182331532473051,-0.049480084,-0.01038471,-0.022907447,221.33293,-81.38338,8.608503,STD
401378903000,0.395022,1.25227293414705,9.67341872978199,0.188825632338667,-0.045814894,-0.013133603,-0.03023783,221.26878,-81.39263,8.599037,STD
401384082000,0.400201,1.24987537784599,9.65423812916324,0.196018306248852,-0.05131268,-0.007330383,-0.032070424,221.21077,-81.39351,8.597346,STD
401388863000,0.404982,1.2476620708996,9.63653153492531,0.202658231710253,-0.054061573,-0.023823744,-0.033292156,221.16098,-81.396866,8.5933,STD
401393840000,0.409959,1.2453580280901,9.61809904809784,0.209570364950452,-0.056199603,-0.026267206,-0.035430185,221.10211,-81.40114,8.588389,STD
401398893000,0.415012,1.25841413275369,9.61063749559762,0.224118996776359,-0.05497787,-0.032986723,-0.04734206,221.05023,-81.40896,8.579985,STD
401404096000,0.420215,1.27404515605602,9.60751616389099,0.244038215760787,-0.06261369,-0.03970624,-0.049785517,220.99994,-81.41484,8.57335,STD
401408851000,0.42497,1.27835412733724,9.63337035153293,0.304364479613929,-0.063224554,-0.042455133,-0.04520403,220.94987,-81.42276,8.564687,STD
401413900000,0.430019,1.28292952081756,9.66082309462528,0.368420695427706,-0.061086524,-0.05375614,-0.047647487,220.90746,-81.42699,8.55917,STD
401418881000,0.435,1.27517223473071,9.67923753053859,0.434394051382565,-0.061086524,-0.0580322,-0.04795292,220.86447,-81.42951,8.555262,STD
401423882000,0.440001,1.2663080247085,9.69696595058301,0.500876010671849,-0.05497787,-0.052839845,-0.043982297,220.82265,-81.43186,8.551648,STD
401428898000,0.445017,1.25625844670717,9.72888535109038,0.544727767666269,-0.0580322,-0.07391469,-0.04337143,220.78783,-81.4367,8.544549,STD
401433817000,0.449936,1.24603640500163,9.76466271053488,0.580504967004448,-0.058337633,-0.06994407,-0.04184427,220.7448,-81.440384,8.538604,STD
401439652000,0.455771,1.23561814452602,9.79644336422869,0.607602123794622,-0.059864793,-0.07422013,-0.036957346,220.71005,-81.44592,8.529359,STD
401443839000,0.459958,1.22825867648894,9.81852184518675,0.626000790044967,-0.060170226,-0.08155051,-0.042455133,220.67546,-81.453766,8.517616,STD
401448894000,0.465013,1.20829133828514,9.83632783050848,0.621545256634098,-0.070249505,-0.07513642,-0.049480084,220.6376,-81.46669,8.499872,STD
401453834000,0.469953,1.18470739411765,9.850478,0.607394895058824,-0.059864793,-0.07238753,-0.04734206,220.60324,-81.47858,8.483502,STD
401458851000,0.47497,1.174631333,9.84790227375,0.5668631718375,-0.0720821,-0.0711658,-0.047036625,220.56403,-81.49412,8.461966,STD
401463919000,0.480038,1.16996448469231,9.83856886951923,0.515527796595192,-0.0729984,-0.059864793,-0.050396383,220.52148,-81.51015,8.440256,STD
401468878000,0.484997,1.16535300530015,9.83236347379209,0.467819296026354,-0.07788532,-0.055588737,-0.047647487,220.48067,-81.52358,8.420078,STD
401473909000,0.490028,1.16065008837482,9.82766050775988,0.420790583467057,-0.07727446,-0.047647487,-0.052839845,220.43594,-81.53987,8.3968525,STD
401478880000,0.494999,1.16456696617692,9.81714394319903,0.38057579677522,-0.080634214,-0.048563786,-0.057726767,220.39781,-81.553925,8.37626,STD
401483908000,0.500027,1.17429175181763,9.80255675204483,0.344107917896092,-0.08124508,-0.047036625,-0.04428773,220.35696,-81.56403,8.35957,STD
401488877000,0.504996,1.18390242402302,9.78814073119257,0.308067963610017,-0.071776666,-0.04062254,-0.04550946,220.32755,-81.57913,8.337881,STD
401493874000,0.509993,1.19356725175704,9.77364347697667,0.271824926466222,-0.06688975,-0.039095376,-0.045814894,220.29918,-81.589775,8.320426,STD
401498886000,0.515005,1.22498076911593,9.7575007702737,0.227596136211344,-0.065973446,-0.046120327,-0.03970624,220.27162,-81.59901,8.30458,STD
401503876000,0.519995,1.26866068964607,9.74051404301021,0.179062888925507,-0.0711658,-0.04337143,-0.029932396,220.24098,-81.60715,8.289677,STD
401509665000,0.525784,1.31933464955568,9.7208073968923,0.122758486412939,-0.056199603,-0.04337143,-0.023823744,220.22267,-81.61115,8.281673,STD
401513910000,0.530029,1.35649321922511,9.70635676418016,0.0814711848641649,-0.067500606,-0.04184427,-0.028710667,220.20334,-81.614456,8.272982,STD
401518878000,0.534997,1.35337099358702,9.70452754858026,0.0573701984129805,-0.0711658,-0.032375857,-0.024129177,220.18279,-81.618034,8.265537,STD
401523890000,0.540009,1.33019206679544,9.7091634307514,0.0434628312045586,-0.058643065,-0.03848451,-0.020158553,220.16653,-81.623634,8.256471,STD
401528970000,0.545089,1.33095172863205,9.69529478561326,0.00713277641664982,-0.053450707,-0.035430185,-0.022296581,220.16347,-81.61541,8.263656,STD
401533924000,0.550043,1.34533144186704,9.67132859688826,-0.0407996345671853,-0.051923547,-0.02687807,-0.021991149,220.16064,-81.60645,8.272112,STD
401538875000,0.554994,1.36784685063255,9.66591757449018,-0.0399437466880665,-0.04550946,-0.029626964,-0.025350908,220.1578,-81.60094,8.277638,STD
401543882000,0.560001,1.39500940018882,9.67044476850453,-0.0127811309516616,-0.044898596,-0.03390302,-0.025961773,220.15309,-81.59496,8.28344,STD
401548881000,0.565,1.42231370538395,9.67499558056804,0.00726159510949603,-0.04734206,-0.034513887,-0.018936822,220.15657,-81.59057,8.289744,STD
401553879000,0.569998,1.44977756482739,9.67957297810079,0.0209935104924931,-0.04886922,-0.040317107,-0.020463986,220.16293,-81.589226,8.293094,STD
401558843000,0.574962,1.46321728881638,9.6780836926728,0.0348327577988727,-0.04642576,-0.03756821,-0.018325957,220.17389,-81.58205,8.300925,STD
401563942000,0.580061,1.4583886422031,9.66842619776525,0.0493187077227331,-0.0571159,-0.03481932,-0.02107485,220.18648,-81.57641,8.306592,STD
401568874000,0.584993,1.45966606031874,9.66898521131733,0.0624501695662699,-0.05100725,-0.024740042,-0.020463986,220.20544,-81.57266,8.310965,STD
401573898000,0.590017,1.46937230264273,9.68354462547912,0.0745829826064152,-0.069027774,-0.020158553,-0.017715093,220.22495,-81.56763,8.31506,STD
401579066000,0.595185,1.47935674936454,9.69852134769014,0.0870635514343353,-0.06658431,-0.020158553,-0.014660766,220.24086,-81.56447,8.31819,STD
401583904000,0.600023,1.48870364434134,9.71254173895501,0.0987471799152713,-0.06536258,-0.01282817,-0.01740966,220.25313,-81.56147,8.320224,STD
401588878000,0.604997,1.50678515299145,9.731128442258,0.128817668564898,-0.054367006,-0.009162978,-0.016798794,220.26624,-81.55748,8.323954,STD
401593864000,0.609983,1.53525862222222,9.75485629198966,0.181018972661499,-0.06261369,0.0027488936,-0.02107485,220.27472,-81.55499,8.325251,STD
401598880000,0.614999,1.547195837547,9.76409607102937,0.231923966923077,-0.06047566,0.009773844,-0.01985312,220.28746,-81.56234,8.318711,STD
401603887000,0.620006,1.53745063117569,9.75435071202114,0.28064978,-0.06658431,0.018936822,-0.018020526,220.29593,-81.56957,8.311386,STD
401608850000,0.624969,1.51942281370022,9.74275599641508,0.330045841651003,-0.06078109,0.0290161,-0.013439035,220.2969,-81.56691,8.312864,STD
401613950000,0.630069,1.49102923943416,9.72855940693731,0.382100757453735,-0.06352998,0.035430185,-0.0030543262,220.29616,-81.56142,8.316487,STD
401618818000,0.634937,1.46012554480055,9.73148601538763,0.419154007599726,-0.056505036,0.03848451,0.00030543262,220.28801,-81.55928,8.316292,STD
401623893000,0.640012,1.42201728374988,9.76006727335098,0.438208138125061,-0.038179077,0.035430185,0.0027488936,220.27977,-81.55499,8.318742,STD
401628857000,0.644976,1.38977936356406,9.78466744801178,0.456857416762887,-0.036651913,0.04520403,0.004581489,220.25928,-81.55392,8.315923,STD
401633866000,0.649985,1.36622998162003,9.80350689455081,0.475696971498282,-0.03359759,0.06078109,0.011911872,220.23807,-81.55149,8.315453,STD
401638818000,0.654937,1.34887483812657,9.81913698451713,0.486962188126573,-0.040011674,0.06383542,0.015271631,220.21193,-81.555244,8.307572,STD
401643864000,0.659983,1.34419857213083,9.82848971182504,0.48228592213083,-0.03268129,0.07269296,0.01863139,220.17989,-81.55776,8.301667,STD
401648936000,0.665055,1.33692905803598,9.83028230423671,0.469917809433795,-0.029626964,0.082161374,0.024740042,220.14326,-81.56018,8.29418,STD
401653832000,0.669951,1.3231018646417,9.8118456613585,0.4376543244913,-0.03604105,0.10781772,0.020463986,220.09984,-81.5645,8.284451,STD
401658833000,0.674952,1.30457166272812,9.79813744025157,0.407545005687184,-0.048258353,0.10629055,0.014966198,220.06186,-81.56816,8.275456,STD
401663779000,0.679898,1.27038582251779,9.80302122641509,0.38801025879369,-0.048258353,0.11453723,0.016493361,220.01413,-81.57145,8.266872,STD
401668767000,0.684886,1.24745748645168,9.80788631904434,0.364841402255432,-0.051923547,0.11759156,0.013133603,219.96898,-81.57572,8.257101,STD
401673817000,0.689936,1.25696743434274,9.81264139229181,0.331556564776325,-0.04550946,0.11881329,0.0143553335,219.92247,-81.57899,8.248888,STD
401678815000,0.694934,1.2620184382383,9.81410689396335,0.312818009712585,-0.048258353,0.122478485,0.016187929,219.86662,-81.59011,8.234166,STD
401683845000,0.699964,1.253057168775,9.80514543735466,0.33970183681704,-0.044593163,0.119729586,0.0125227375,219.81299,-81.60314,8.21828,STD
401688784000,0.704903,1.2433605664311,9.79585476678445,0.361888241342756,-0.03940081,0.12644911,0.016493361,219.76024,-81.611916,8.207545,STD
401693882000,0.710001,1.22306435923924,9.78063282332155,0.336517961159842,-0.04184427,0.11575896,0.014660766,219.71404,-81.623116,8.194244,STD
401698820000,0.714939,1.20245784296435,9.76763967703029,0.315331311718038,-0.03390302,0.118507855,0.014660766,219.65907,-81.63499,8.1800995,STD
401703829000,0.719948,1.17674341000625,9.7633538561601,0.311045580350219,-0.032986723,0.10720685,0.016493361,219.61191,-81.64625,8.166207,STD
401708837000,0.724956,1.15103411069418,9.75906889091396,0.306760704588582,-0.044593163,0.105374254,0.009162978,219.56073,-81.66653,8.144671,STD
401713873000,0.729992,1.14227369414679,9.7633948339011,0.297200340695778,-0.042760566,0.1133155,0.004581489,219.51057,-81.686104,8.124679,STD
401720075000,0.736194,1.13307652573552,9.76952640755652,0.284937443078352,-0.04886922,0.09285152,0.005497787,219.46973,-81.70469,8.104691,STD
401723842000,0.739961,1.12749030622484,9.77325063167131,0.277489146508723,-0.046731193,0.10476339,0.004886922,219.40869,-81.72444,8.083883,STD
401728922000,0.745041,1.12031656231092,9.77800492061797,0.269848978043516,-0.044898596,0.10934488,0.0018325958,219.34766,-81.74509,8.063948,STD
401733812000,0.749931,1.11799021413278,9.77916811899853,0.293112475614366,-0.04550946,0.10293079,-0.005192355,219.28723,-81.76674,8.042808,STD
401738918000,0.755037,1.11556110701672,9.78038269792106,0.317403563261966,-0.0421497,0.110872045,-0.004276057,219.22627,-81.78335,8.025166,STD
401743803000,0.759922,1.1132371375177,9.78154470693723,0.340643274025484,-0.05009095,0.102319926,-0.0036651916,219.17268,-81.801186,8.005676,STD
401748985000,0.765104,1.11077187447902,9.7827773641986,0.365295921144532,-0.052534413,0.10445796,-0.009162978,219.11194,-81.81821,7.9872,STD
401753759000,0.769878,1.10850071165644,9.78391296932515,0.388007564785276,-0.05497787,0.098043874,-0.006414085,219.05676,-81.832306,7.971338,STD
401758771000,0.77489,1.10611632370781,9.78510518819702,0.411851460455031,-0.041233405,0.09682214,-0.0009162979,219.0002,-81.84802,7.9546056,STD
401763783000,0.779902,1.10373193575917,9.78629740706888,0.435695356124786,-0.04795292,0.09407325,-0.004886922,218.94669,-81.86419,7.9359975,STD
401769051000,0.78517,1.10090678576512,9.78728398843416,0.46064526280694,-0.050396383,0.1020145,0.0009162979,218.89098,-81.87723,7.9216247,STD
401773791000,0.78991,1.09193208588375,9.78279654478055,0.480838353939798,-0.058948494,0.096516706,0.011911872,218.84392,-81.88972,7.9065647,STD
401778799000,0.794918,1.08244995571372,9.77805538068406,0.502173164149367,-0.055588737,0.10170906,0.0067195175,218.78285,-81.91144,7.8803444,STD
401783780000,0.799899,1.07301894725188,9.77333977797548,0.523392950422104,-0.06261369,0.09468412,0.011301007,218.72737,-81.92595,7.8604074,STD
401788755000,0.804874,1.06359929916963,9.76862985557533,0.544587175819988,-0.060170226,0.092240654,0.010995574,218.66982,-81.94388,7.8376975,STD
401793789000,0.809908,1.0630256,9.75518099791808,0.550265318756657,-0.061391957,0.09254608,0.0070249503,218.61453,-81.96525,7.811882,STD
401798748000,0.814867,1.0630256,9.74138468248281,0.554864074561828,-0.061391957,0.105374254,0.009162978,218.55687,-81.98486,7.787971,STD
401803867000,0.819986,1.0630256,9.72714323486976,0.559611207243149,-0.05681047,0.10598512,0.01038471,218.49762,-82.00823,7.758941,STD
401808828000,0.824947,1.0630256,9.71334135528227,0.564211817759272,-0.050701816,0.10476339,0.007330383,218.43587,-82.031845,7.7296004,STD
401813950000,0.830069,1.06497070104476,9.71282714166587,0.57475711334803,-0.04550946,0.10170906,0.013133603,218.3708,-82.049065,7.7070656,STD
401818881000,0.835,1.06723386604045,9.71509035392505,0.586072947779162,-0.037873644,0.111177474,0.017104227,218.30328,-82.067924,7.683291,STD
401823914000,0.840033,1.06954384564363,9.71740038176939,0.597622855443305,-0.039095376,0.10293079,0.01282817,218.24818,-82.08957,7.6556444,STD
401828918000,0.845037,1.07184051521135,9.7196970993003,0.609106212874533,-0.04153884,0.10445796,0.01985312,218.18802,-82.10704,7.632513,STD
401834392000,0.850511,1.07505858419743,9.72537134274763,0.620284200286464,-0.022907447,0.108123146,0.022907447,218.13403,-82.1274,7.6068974,STD
401838907000,0.855026,1.07796620654966,9.73118655709098,0.629007076451483,-0.028405234,0.10140363,0.02687807,218.08307,-82.14327,7.5839744,STD
401843866000,0.859985,1.08115976119965,9.73757363304418,0.638587750405487,-0.02565634,0.093767814,0.03481932,218.0381,-82.158646,7.5608835,STD
401848888000,0.865007,1.08439388732432,9.7440418515231,0.648290138910631,-0.029932396,0.09407325,0.033292156,217.99324,-82.17422,7.5365844,STD
401853873000,0.869992,1.08760418575751,9.75046241486786,0.657921044266694,-0.026267206,0.086437434,0.042455133,217.95049,-82.18158,7.5213337,STD
401858884000,0.875003,1.09083122797391,9.7569164656042,0.667602181024813,-0.028099801,0.09682214,0.047036625,217.90295,-82.189705,7.504326,STD
401863901000,0.88002,1.0786489788649,9.76531964742977,0.657269454914007,-0.022602014,0.08399397,0.05222898,217.86462,-82.195915,7.4905763,STD
401868920000,0.885039,1.06027865239824,9.77450500248423,0.638899094878655,-0.028405234,0.089491755,0.053145275,217.81847,-82.20095,7.4766603,STD
401873901000,0.89002,1.03982448765985,9.77519508631714,0.623894662512788,-0.03023783,0.092240654,0.055283304,217.77533,-82.20398,7.4648056,STD
401878884000,0.895003,1.01802996169163,9.7708360991962,0.610817978792473,-0.023823744,0.09560041,0.057421334,217.73088,-82.20696,7.4531884,STD
401883879000,0.899998,1.00134398169303,9.77678439254161,0.609669915256832,-0.024740042,0.09743301,0.065973446,217.69255,-82.209885,7.439836,STD
401888875000,0.904994,0.991513348284364,9.79644555670845,0.624415860237313,-0.01985312,0.09040806,0.060170226,217.6563,-82.21713,7.4231625,STD
401893854000,0.909973,0.979350195220683,9.80547315898439,0.634422871480146,-0.02076942,0.08674286,0.057726767,217.62251,-82.2206,7.4078274,STD
401898892000,0.915011,0.9644412101921,9.80298827841582,0.639392546994386,-0.011911872,0.10476339,0.053450707,217.58485,-82.22739,7.3902655,STD
401903856000,0.919975,0.949751213828089,9.80053989668847,0.644289226083844,-0.007330383,0.090713486,0.06872234,217.55516,-82.23049,7.375922,STD
401908855000,0.924974,0.934957641744348,9.79807425199567,0.649220430509348,0.005192355,0.076052725,0.06994407,217.52098,-82.239975,7.356344,STD
401913902000,0.930021,0.934560588507282,9.79987822417476,0.644209977232039,0.002443461,0.07513642,0.07696902,217.48529,-82.24213,7.3438134,STD
401918877000,0.934996,0.943811975339806,9.80450400815534,0.632645744295146,-0.0012217305,0.06688975,0.07513642,217.45631,-82.24739,7.3294797,STD
401923899000,0.940018,0.953150762208738,9.80917349300971,0.620972261318447,-0.002443461,0.07727446,0.07941248,217.41884,-82.25257,7.314272,STD
401928890000,0.945009,0.962431902245146,9.8138141538835,0.609370836878641,0.0018325958,0.08399397,0.080634214,217.38512,-82.25921,7.297977,STD
401933875000,0.949994,0.978091804648301,9.80755960153365,0.5946713872309,0.0009162979,0.077579886,0.07574729,217.35414,-82.269966,7.2779555,STD
401938872000,0.954991,1.00074411440879,9.78943784833854,0.576549520499858,0.0067195175,0.09682214,0.0852157,217.31393,-82.27744,7.2621865,STD
401943867000,0.959986,1.01782801516476,9.77702447936051,0.570404614433249,0.0076358155,0.10262536,0.080634214,217.27757,-82.28452,7.248778,STD
401948891000,0.96501,1.02524805485015,9.77455108975479,0.585244649899244,0.011911872,0.10476339,0.08552113,217.23694,-82.28752,7.240502,STD
401953876000,0.969995,1.03261049470519,9.77209690042667,0.59996948604534,0.016187929,0.10354166,0.08093964,217.20038,-82.2914,7.2326365,STD
401958854000,0.974973,1.03996259612913,9.76964615730222,0.614673645390428,0.015577064,0.09193522,0.076358154,217.16661,-82.294075,7.226101,STD
401963887000,0.980006,1.04090968320297,9.76538073475649,0.617555249429584,0.018325957,0.09896017,0.07544186,217.13092,-82.29779,7.2182083,STD
401968886000,0.985005,1.03470321980468,9.75917437936995,0.607211173288968,0.016798794,0.10048734,0.07819075,217.10052,-82.30132,7.210259,STD
401974121000,0.99024,1.02820375273324,9.75267502540945,0.596378759086902,0.014049901,0.10170906,0.07941248,217.07008,-82.303406,7.201882,STD
401978886000,0.995005,1.02228780992611,9.7467591855581,0.586518882549587,0.01038471,0.10170906,0.07513642,217.03992,-82.306076,7.192689,STD
401983817000,0.999936,1.01616577131498,9.74063725348948,0.576315513985999,0.0061086523,0.10842858,0.08002335,217.00766,-82.30572,7.1863155,STD
401988878000,1.004997,1.01080738410256,9.74828096025641,0.557271936410256,0.004276057,0.115453534,0.070249505,216.9759,-82.31038,7.1745167,STD
401994206000,1.010325,1.00671065987878,9.75819302903509,0.536492192980741,0.005497787,0.11789699,0.07360926,216.94362,-82.310234,7.167781,STD
401998891000,1.01501,1.03302841493792,9.74503435761071,0.540878477857073,0.0015271631,0.124005646,0.070554934,216.90382,-82.31457,7.1578407,STD
402003849000,1.019968,1.06087973395249,9.7311089162186,0.545520356281161,-0.00030543262,0.11575896,0.070554934,216.869,-82.318665,7.149633,STD
402008850000,1.024969,1.06733324818385,9.72572826185607,0.537262703632291,0.009468411,0.11942416,0.07574729,216.8294,-82.32311,7.1416826,STD
402013878000,1.029997,1.0720223270036,9.72103908511053,0.527884545992794,0.0012217305,0.1301143,0.07696902,216.79066,-82.32664,7.13254,STD
402018876000,1.034995,1.06090603471951,9.72435786984836,0.522825587146711,0.0030543262,0.13561209,0.08093964,216.75732,-82.323875,7.130757,STD
402023812000,1.039931,1.04771287680714,9.72875568099358,0.51842784029026,0.0070249503,0.12339478,0.08155051,216.7265,-82.32136,7.1281962,STD
402028878000,1.044997,1.05143960091453,9.73760336385411,0.513363739542733,0.011301007,0.12370021,0.06963864,216.69196,-82.314156,7.128409,STD
402033816000,1.049935,1.06173687655961,9.74790031692978,0.508215101720196,-0.003970624,0.118507855,0.08124508,216.6626,-82.29945,7.135307,STD
402038877000,1.054996,1.04174643853771,9.74493353210642,0.499059097634527,0.008246681,0.109650314,0.074830994,216.63048,-82.29661,7.1337132,STD
402044032000,1.060151,1.01705724714943,9.73999611662332,0.489183446859372,0.01160644,0.105374254,0.07696902,216.5987,-82.28643,7.137405,STD
402048895000,1.065014,1.01240281686156,9.73824362983372,0.49800254813379,0.0070249503,0.106901415,0.05222898,216.56642,-82.28695,7.132642,STD
402053809000,1.069928,1.00938738129305,9.73673588056259,0.508556580495307,0.005192355,0.11575896,0.061086524,216.5332,-82.27909,7.137643,STD
402058854000,1.074973,1.00629155865505,9.73518793691731,0.519391967809887,0.003970624,0.11911872,0.042455133,216.50093,-82.287834,7.1245055,STD
402063876000,1.079995,1.00320984977734,9.73364705029956,0.530177956926601,-0.0076358155,0.121256754,0.04550946,216.46643,-82.2874,7.1197762,STD
402068881000,1.085,1.00013857280941,9.73211137974562,0.540927434331849,0.0009162979,0.10903945,0.04428773,216.4332,-82.29262,7.1111226,STD
402073927000,1.090046,0.997042136529651,9.73056312927306,0.551764969394163,-0.00061086525,0.10751228,0.043982297,216.39665,-82.29467,7.1032195,STD
402078884000,1.095003,0.992818627438059,9.73954385077906,0.560208715461558,-0.0015271631,0.10262536,0.04184427,216.36505,-82.29872,7.0945435,STD
402083831000,1.09995,0.987978123775224,9.75406541231162,0.567469481064623,-0.0106901415,0.10293079,0.038789943,216.33281,-82.302185,7.085335,STD
402088869000,1.104988,0.983048579111111,9.76885409777778,0.574863808355556,-0.011911872,0.098043874,0.038789943,216.29596,-82.30066,7.0791473,STD
402093858000,1.109977,0.978166979601533,9.78349894727969,0.582186217814559,-0.014660766,0.08735373,0.028099801,216.26135,-82.301926,7.0688825,STD
402098881000,1.115,0.969766330077613,9.79456474851325,0.570049285394618,-0.012217305,0.087659165,0.03359759,216.22162,-82.300705,7.0635424,STD
402103900000,1.120019,0.960076589285354,9.80425418576756,0.550669783574236,-0.015577064,0.087659165,0.03359759,216.18571,-82.302986,7.0536313,STD
402108850000,1.124969,0.95885609216413,9.81252696082065,0.538825640878557,-0.014966198,0.08277224,0.029321533,216.14919,-82.307236,7.041606,STD
402113923000,1.130042,0.960463739629385,9.82056519814692,0.52917974769358,-0.019242255,0.086132,0.028099801,216.11066,-82.30994,7.0302296,STD
402118876000,1.134995,0.962033358769027,9.82841329384513,0.519762024660821,-0.01038471,0.09315695,0.029626964,216.07358,-82.316444,7.0175343,STD
402123932000,1.140051,0.963635618888154,9.83642459444077,0.510148455580741,-0.025045475,0.0888809,0.031154128,216.03918,-82.32015,7.004604,STD
402128890000,1.145009,0.965206822541363,9.84428061270682,0.500721225458306,-0.019547688,0.0842994,0.028405234,216.00333,-82.328064,6.990755,STD
402133888000,1.150007,0.966790702303111,9.85220001151555,0.491217938618465,-0.007941248,0.08368854,0.030543262,215.96783,-82.33347,6.978703,STD
402138885000,1.155004,0.976651258545185,9.85140268175914,0.48215463449434,-0.017715093,0.079107046,0.027183503,215.93024,-82.332924,6.9700856,STD
402143867000,1.159986,0.989931538077566,9.84697582946743,0.47330110093895,-0.00030543262,0.07269296,0.025045475,215.8938,-82.33644,6.9622374,STD
402148883000,1.165002,1.00436581897981,9.82261599936238,0.472056168408077,-0.00030543262,0.06688975,0.033292156,215.86156,-82.33562,6.9576297,STD
402153878000,1.169997,1.01961644044633,9.78194788777896,0.477139724821467,-0.00580322,0.062002823,0.031154128,215.83151,-82.33968,6.949371,STD
402159605000,1.175724,1.02088606827151,9.76067837647987,0.498001528650355,0.0030543262,0.06352998,0.0290161,215.80617,-82.34481,6.9432287,STD
402163894000,1.180013,1.01683369108129,9.75257345284136,0.518263435758682,0.005192355,0.05009095,0.02321288,215.78693,-82.35014,6.9356256,STD
402168878000,1.184997,1.02124200917207,9.73241277097257,0.520623898790524,-0.002443461,0.047036625,0.03176499,215.7603,-82.34669,6.9376054,STD
402173932000,1.190051,1.03089812359601,9.70585872728179,0.510967796970075,0.004581489,0.043982297,0.032986723,215.73808,-82.348885,6.935818,STD
402178927000,1.195046,1.04044151329676,9.67961467341646,0.501424419725686,-0.0067195175,0.040317107,0.02687807,215.71481,-82.3478,6.9327497,STD
402183921000,1.20004,1.04998299240898,9.65337587361596,0.491882953067332,-0.005192355,0.042760566,0.023823744,215.69093,-82.34827,6.930612,STD
402188872000,1.204991,1.06401426574589,9.64000293222073,0.491298639655029,-0.006414085,0.04153884,0.027183503,215.6642,-82.34684,6.93056,STD
402193864000,1.209983,1.08082740090799,9.63388893720826,0.495884038557772,-0.003970624,0.03176499,0.024740042,215.63976,-82.34857,6.9278307,STD
402198880000,1.214999,1.09772136845067,9.627745547989,0.500491482647548,-0.0009162979,0.028405234,0.021991149,215.6154,-82.34918,6.929565,STD
402203875000,1.219994,1.11454460766034,9.62162787870068,0.50507963719867,-0.009773844,0.02321288,0.024129177,215.59471,-82.34812,6.931937,STD
402208833000,1.224952,1.13124323028327,9.61555552548117,0.509633805419784,-0.008246681,0.018936822,0.022602014,215.57515,-82.35042,6.9322996,STD
402213888000,1.230007,1.1482685504444,9.60936437067587,0.514277072938487,-0.0021380284,0.013133603,0.011911872,215.55795,-82.35413,6.930551,STD
402218874000,1.234993,1.1607052819586,9.59215548578784,0.520970875971254,-0.004581489,0.0018325958,0.01282817,215.54677,-82.34794,6.9345703,STD
402223891000,1.24001,1.16585891354714,9.55608076423898,0.531278063809932,-0.004581489,0.0009162979,0.015271631,215.543989461764,-82.3476325366373,6.93406004449773,STD
402229781000,1.2459,1.15885626636547,9.53532853359608,0.523615582750168,-0.004581489,-0.008246681,0.009162978,215.540725086597,-82.3472715720757,6.93346100026645,STD
402233886000,1.250005,1.14751927679516,9.53154947130635,0.508499629539556,-0.0125227375,-0.011911872,0.005192355,215.53845,-82.34702,6.9330435,STD
402238873000,1.254992,1.14571941368369,9.54108182736738,0.502046876233019,-0.014049901,-0.020463986,-0.0018325958,215.53603,-82.339516,6.9394803,STD
402243849000,1.259968,1.15989521616262,9.56943343232524,0.511497373391175,-0.015577064,-0.023518313,-0.0030543262,215.53406,-82.331215,6.946455,STD
402248860000,1.264979,1.16241010688812,9.59631795394335,0.503240002404728,-0.020158553,-0.03573562,-0.0027488936,215.53758,-82.32605,6.950617,STD
402253885000,1.270004,1.14769941170776,9.62083569390667,0.468915161335847,-0.023823744,-0.03268129,0.002443461,215.53752,-82.32002,6.9555097,STD
402258860000,1.274979,1.13556811909682,9.64037573631841,0.441966157564103,-0.02687807,-0.041233405,-0.007941248,215.5452,-82.313034,6.9595003,STD
402263933000,1.280052,1.12627169613471,9.65432017661692,0.423373287371795,-0.024129177,-0.044898596,-0.002443461,215.55022,-82.30119,6.9691505,STD
402268807000,1.284926,1.12293369358536,9.6703398637198,0.408539620182567,-0.022907447,-0.036957346,-0.007941248,215.55591,-82.29745,6.971189,STD
402273906000,1.290025,1.1302014571216,9.69214310373567,0.398849263741628,-0.03359759,-0.039095376,-0.014660766,215.5654,-82.29169,6.9745536,STD
402278873000,1.294992,1.13728107694597,9.71338191392568,0.389409765714144,-0.021380283,-0.041233405,-0.010995574,215.57303,-82.28955,6.978125,STD
402283881000,1.3,1.14441913534752,9.73479603944039,0.379892349543087,-0.030543262,-0.03176499,-0.0027488936,215.57787,-82.2842,6.980911,STD
402288841000,1.30496,1.1463093780021,9.75645755499476,0.361865765936577,-0.030848695,-0.029932396,-0.0036651916,215.58429,-82.28599,6.980794,STD
402293863000,1.309982,1.13714935712789,9.77935760718027,0.325225663310161,-0.030543262,-0.03573562,-0.0076358155,215.59007,-82.28552,6.98202,STD
402298924000,1.315043,1.12949949226688,9.79763671950548,0.302518100862906,-0.02076942,-0.02107485,-0.004886922,215.59203,-82.284195,6.9865527,STD
402303879000,1.319998,1.12712434616347,9.80001191521097,0.326269576777616,-0.018020526,-0.030848695,-0.004886922,215.60274,-82.28388,6.989563,STD
402308860000,1.324979,1.12473673713399,9.80239957410281,0.350145682031133,-0.015577064,-0.025045475,-0.0018325958,215.61205,-82.28598,6.9911046,STD
402313888000,1.330007,1.12232659896892,9.80480976260073,0.374247078781721,-0.016798794,-0.022602014,-0.00061086525,215.62502,-82.288414,6.992335,STD
402318894000,1.335013,1.11936945760544,9.80553303427943,0.398233794305417,-0.009773844,-0.038789943,0.008552114,215.6414,-82.28927,6.996879,STD
402323905000,1.340024,1.11457340075954,9.80073687727364,0.42221408855087,-0.017715093,-0.035124753,0.005192355,215.65146,-82.29114,6.9977636,STD
402328889000,1.345008,1.11145654831283,9.79269743634208,0.441080050026185,-0.015271631,-0.046120327,0.00580322,215.65921,-82.293724,7.000987,STD
402333884000,1.350003,1.11381987601403,9.77379091344301,0.443443385130675,-0.008552114,-0.046731193,0.009468411,215.66292,-82.29594,7.003812,STD
402338871000,1.35499,1.1161794186058,9.7549146712613,0.445802935113878,-0.0125227375,-0.053450707,0.009468411,215.66913,-82.29792,7.0044985,STD
402343868000,1.359987,1.11854369258436,9.7360005781829,0.448167216498691,-0.0033597588,-0.052534413,0.010995574,215.6732,-82.300865,7.0065036,STD
402348874000,1.364993,1.12008753286131,9.72205446022491,0.45010993,-0.0106901415,-0.04886922,0.01160644,215.68573,-82.308846,7.0012045,STD
402353859000,1.369978,1.11787825209866,9.7308915371373,0.45010993,-0.020158553,-0.050701816,0.0067195175,215.69945,-82.31834,6.99509,STD
402358917000,1.375036,1.11563661877921,9.73985802360128,0.45010993,-0.012217305,-0.05589417,0.009468411,215.71838,-82.32754,6.989505,STD
402363933000,1.380052,1.11341359925957,9.74875005525475,0.45010993,-0.01038471,-0.053450707,0.007941248,215.73549,-82.33695,6.981561,STD
402368994000,1.385113,1.11117063638299,9.75772185991948,0.45010993,-0.010995574,-0.05497787,0.014966198,215.75475,-82.343704,6.9773355,STD
402373878000,1.389997,1.11540641381874,9.74527574636493,0.427625837428665,-0.0106901415,-0.058337633,0.004581489,215.77382,-82.35538,6.968014,STD
402379115000,1.395234,1.1206681363959,9.72967251961751,0.40222588,-0.009773844,-0.05467244,0.011301007,215.79066,-82.36045,6.9657764,STD
402383880000,1.399999,1.12291741932177,9.72517385981861,0.40222588,-0.008246681,-0.050396383,0.014660766,215.80064,-82.37919,6.9553266,STD
402389131000,1.40525,1.12539611494479,9.72021636504338,0.40222588,-0.008246681,-0.042760566,0.010995574,215.81102,-82.39689,6.946888,STD
402393859000,1.409978,1.12762793229495,9.71575263712539,0.40222588,-0.0061086523,-0.040927973,0.0125227375,215.82156,-82.41211,6.9412494,STD
402399225000,1.415344,1.13025609652622,9.71146070166391,0.402032983473776,-0.0027488936,-0.04153884,0.014049901,215.83743,-82.433426,6.9289017,STD
402403870000,1.419989,1.1345846200253,9.72444654334923,0.397704459974701,-0.0015271631,-0.04795292,0.013744468,215.8542,-82.45398,6.917068,STD
402408884000,1.425003,1.13925700254938,9.73846398365282,0.393032077450618,-0.004886922,-0.04337143,0.018325957,215.8682,-82.47117,6.908289,STD
402413991000,1.43011,1.13535566611413,9.74603941135562,0.388364741640469,0.00061086525,-0.03756821,0.01160644,215.88359,-82.49177,6.8967586,STD
402418813000,1.434932,1.13095637778413,9.75263825197676,0.383965448716776,-0.0067195175,-0.03023783,0.013744468,215.89679,-82.506294,6.889406,STD
402423934000,1.440053,1.12628430073354,9.7596462699819,0.379293366787654,0.003970624,-0.021991149,0.02076942,215.90636,-82.52661,6.880907,STD
402428870000,1.444989,1.12178100600171,9.76640111803373,0.37479006735353,0.006414085,-0.03145956,0.02687807,215.91875,-82.54404,6.8733616,STD
402433996000,1.450115,1.13122806341906,9.76476237075139,0.359173234630358,0.0021380284,-0.028099801,0.0143553335,215.92516,-82.56419,6.862554,STD
402438841000,1.45496,1.14526727552194,9.76008253565305,0.340454275386788,-0.0030543262,-0.0290161,0.032375857,215.9349,-82.57411,6.862755,STD
402443921000,1.46004,1.14217974047643,9.76580320648413,0.338706769761787,0.008857546,-0.038789943,0.029932396,215.94464,-82.59623,6.852394,STD
402448869000,1.464988,1.13281214012059,9.77517100247109,0.343390569939706,0.0125227375,-0.03023783,0.03023783,215.94902,-82.61072,6.8479967,STD
402453912000,1.470031,1.11300113967057,9.77109503333995,0.3481774591923,0.0106901415,-0.03634648,0.03145956,215.96701,-82.62582,6.8443456,STD
402458889000,1.475008,1.08935372272276,9.76163586902163,0.352906952458821,0.0125227375,-0.043676864,0.031154128,215.98277,-82.641266,6.840552,STD
402463946000,1.480065,1.07886968035853,9.76207558875682,0.360960899282931,0.004581489,-0.05589417,0.03390302,216.00009,-82.65491,6.836685,STD
402468919000,1.485038,1.07422963491816,9.76671573109899,0.370240990163679,0.004886922,-0.057726767,0.030543262,216.01645,-82.670586,6.8312774,STD
402473906000,1.490025,1.05409001189152,9.74983057967415,0.314872957795549,0.0070249503,-0.052534413,0.029932396,216.029,-82.6844,6.826257,STD
402478951000,1.49507,1.02529106091794,9.72103157858136,0.223676373268428,0.0070249503,-0.05009095,0.025045475,216.03668604584,-82.6907305421803,6.82332979227658,STD
402484290000,1.500409,1.02191806707899,9.71935268673621,0.205089241160954,-0.0061086523,-0.0571159,0.027488936,216.04482,-82.69743,6.820232,STD
402488927000,1.505046,1.03074225734724,9.73038289577745,0.222737591751615,-0.004886922,-0.052534413,0.02321288,216.05505,-82.712776,6.812505,STD
402493903000,1.510022,1.04021156309985,9.74221949706905,0.241676171121709,0.00580322,-0.04428773,0.024129177,216.07039,-82.73069,6.805358,STD
402498917000,1.515036,1.04975318268256,9.75414649041232,0.260759377906607,0.0030543262,-0.047647487,0.027794369,216.08759,-82.74706,6.7982407,STD
402503908000,1.520027,1.06793419696398,9.75297202272051,0.265253511531898,0.0070249503,-0.030543262,0.028405234,216.10167,-82.76661,6.787847,STD
402508910000,1.525029,1.09169803940867,9.74346678351027,0.260500728154579,0.0067195175,-0.03940081,0.03023783,216.12387,-82.78342,6.779662,STD
402513925000,1.530044,1.09283263114105,9.75377994809826,0.261407168495444,0.0067195175,-0.024740042,0.041233405,216.1282,-82.79349,6.7774706,STD
402518921000,1.53504,1.07861540863708,9.77747531893819,0.266146257508914,0.014966198,-0.01863139,0.035430185,216.13762,-82.80783,6.7714534,STD
402523907000,1.540026,1.07507136503948,9.79243477539483,0.280495430353554,0.017104227,-0.021380283,0.03756821,216.14792,-82.812935,6.774754,STD
402528897000,1.545016,1.07935961270639,9.80101100206389,0.301936677643575,0.017104227,-0.022907447,0.03481932,216.15622,-82.821106,6.7749786,STD
402533916000,1.550035,1.08035294606101,9.79934502238315,0.326992151261795,0.022907447,-0.026572637,0.04184427,216.16617,-82.82961,6.774665,STD
402538918000,1.555037,1.07509694939653,9.77832114549045,0.358528153201668,0.019242255,-0.03359759,0.03726278,216.17761,-82.840645,6.7704954,STD
402543894000,1.560013,1.06891163224883,9.76957328160948,0.368574433762528,0.031154128,-0.030543262,0.041233405,216.18533,-82.848366,6.7705545,STD
402548924000,1.565043,1.06177690442854,9.77195157388299,0.359061458368798,0.021991149,-0.04184427,0.042455133,216.1992,-82.855385,6.768952,STD
402554666000,1.570785,1.05363225092076,9.7746665150827,0.348201914688719,0.01863139,-0.041233405,0.04917465,216.21056,-82.8589,6.7688413,STD
402558912000,1.575031,1.04760957610467,9.77667411528018,0.340171677408047,0.0106901415,-0.046731193,0.05009095,216.2268,-82.86217,6.7678013,STD
402563891000,1.58001,1.04760400651704,9.77418791554447,0.329590226327515,0.005192355,-0.048258353,0.03940081,216.23601,-82.86586,6.7674503,STD
402568916000,1.585035,1.05560457509559,9.76618717988362,0.317589365105569,0.0030543262,-0.049785517,0.028405234,216.2467,-82.868866,6.767349,STD
402573974000,1.590093,1.06244434287826,9.75934726723743,0.304714053287978,-0.0018325958,-0.04917465,0.028710667,216.2642,-82.87698,6.76121,STD
402579009000,1.595128,1.05507247988585,9.76671925852316,0.282598523325689,-0.015271631,-0.06261369,0.027183503,216.28603,-82.88716,6.7520075,STD
402583882000,1.600001,1.04793780493808,9.77385405763645,0.261194555598532,-0.009162978,-0.06169739,0.02076942,216.30548,-82.89819,6.7438025,STD
402588915000,1.605034,1.04056887019314,9.78122312062376,0.239087810355195,-0.008857546,-0.062308256,0.016187929,216.32887,-82.90705,6.7362294,STD
402593898000,1.610017,1.0303252258636,9.78683534049292,0.218943257930318,-0.013439035,-0.07086037,0.025961773,216.35419,-82.9106,6.733281,STD
402598882000,1.615001,1.00197873203009,9.78211082619024,0.209494421719291,-0.015882496,-0.06383542,0.030543262,216.3749,-82.91669,6.72774,STD
402603877000,1.619996,0.97634575723427,9.77840855296836,0.201601483275862,-0.009468411,-0.06047566,0.02321288,216.39967,-82.91973,6.725763,STD
402608904000,1.625023,0.972067177995023,9.78268722156061,0.205880066982759,-0.005192355,-0.06261369,0.01740966,216.42361,-82.9207,6.725592,STD
402614019000,1.630138,0.967713700213296,9.78704079025951,0.210233549310345,-0.010079277,-0.06872234,0.02565634,216.44545,-82.9232,6.723678,STD
402618984000,1.635103,0.992159054129159,9.79164691232877,0.231441053774951,-0.005192355,-0.07391469,0.03390302,216.46739,-82.92829,6.7203875,STD
402624027000,1.640146,1.0205127541683,9.79637213424657,0.255069147009785,-0.012217305,-0.07452556,0.03359759,216.48944,-82.93182,6.717228,STD
402628891000,1.64501,1.03326520255854,9.77997937337381,0.245753478633998,-0.0021380284,-0.07391469,0.035430185,216.51132,-82.935036,6.7162695,STD
402634201000,1.65032,1.04424896957178,9.75895448872217,0.230126087277245,0.0036651916,-0.08124508,0.041233405,216.53531,-82.93616,6.7165976,STD
402638876000,1.654995,1.05297338911677,9.76331678959419,0.236669404213475,0.004581489,-0.086132,0.050396383,216.55878,-82.93244,6.721818,STD
402643849000,1.659968,1.06225393208944,9.76795715798704,0.24362981386564,0.0030543262,-0.09040806,0.050701816,216.58623,-82.928406,6.7284746,STD
402648889000,1.665008,1.07165950952404,9.77266004491645,0.250683999396892,0.009773844,-0.0888809,0.052839845,216.61302,-82.922264,6.738171,STD
402653870000,1.669989,1.0809549819847,9.77730787820919,0.257655606168948,0.016187929,-0.073303826,0.051618114,216.63672,-82.91688,6.746789,STD
402658892000,1.675011,1.11163041368485,9.7863343688871,0.241744496250755,0.0070249503,-0.076358154,0.053145275,216.66568,-82.910736,6.7558174,STD
402663867000,1.679986,1.14518968718052,9.79592243238076,0.222567758526867,0.004276057,-0.0711658,0.059864793,216.68752,-82.90465,6.765638,STD
402668880000,1.684999,1.15346716671357,9.77157115477387,0.216016183286432,0.014049901,-0.06352998,0.06047566,216.70613,-82.90015,6.7755275,STD
402673809000,1.689928,1.1582112920603,9.74310679899498,0.211272057939699,0.010995574,-0.06414085,0.05681047,216.72546,-82.893745,6.785942,STD
402678880000,1.694999,1.17367014003478,9.73748773878261,0.200063659168696,0.015882496,-0.053145275,0.05681047,216.7439,-82.88362,6.802609,STD
402683820000,1.699939,1.19012560527702,9.7351369124472,0.18830976559354,0.016493361,-0.055588737,0.056199603,216.76631,-82.87415,6.817907,STD
402688877000,1.704996,1.20697080522236,9.73273040864596,0.176277490328447,0.018936822,-0.03970624,0.063224554,216.78122,-82.8622,6.8361235,STD
402694151000,1.71027,1.22453884645466,9.73022063980124,0.163728900305093,0.02076942,-0.03145956,0.04917465,216.79918,-82.85631,6.8479285,STD
402698852000,1.714971,1.22989312893107,9.73815940338283,0.187176706310355,0.03023783,-0.027488936,0.05009095,216.81357,-82.84538,6.865512,STD
402703817000,1.719936,1.23456898811093,9.74751082879339,0.215231876036975,0.032070424,-0.028405234,0.056505036,216.82706,-82.83641,6.880334,STD
402708854000,1.724973,1.24276981554649,9.75286993464355,0.227628277077037,0.045814894,-0.03145956,0.04917465,216.84546,-82.82827,6.89702,STD
402713902000,1.730021,1.25173313925095,9.75735169008992,0.236591614820617,0.04153884,-0.03359759,0.053450707,216.86371,-82.81403,6.918419,STD
402718844000,1.734963,1.27238168535711,9.77172607854329,0.232940184709567,0.04886922,-0.03023783,0.056505036,216.88098,-82.79855,6.939763,STD
402723838000,1.739957,1.2989546942772,9.79105203621578,0.223277271457723,0.045814894,-0.032375857,0.048563786,216.90047,-82.78415,6.95876,STD
402728845000,1.744964,1.32559687602788,9.81042830174765,0.213589204446914,0.053145275,-0.024740042,0.059253927,216.916,-82.76425,6.984306,STD
402733855000,1.749974,1.35225502073947,9.82981617678553,0.203895332722497,0.03848451,-0.026572637,0.057421334,216.93503,-82.748436,7.003654,STD
402738842000,1.754961,1.36332693669619,9.83709103441683,0.199402760937406,0.050396383,-0.023823744,0.061391957,216.94833,-82.73291,7.026122,STD
402743853000,1.759972,1.36815627092684,9.8395055124283,0.196988078693771,0.049480084,-0.01740966,0.067500606,216.9611,-82.71559,7.0481706,STD
402748859000,1.764978,1.37298078642447,9.84191758126195,0.19457580583174,0.0421497,-0.015271631,0.07422013,216.98068,-82.69131,7.0787544,STD
402753788000,1.769907,1.37773109343363,9.84429254875717,0.192200637446412,0.045814894,-0.01740966,0.064446285,216.99977,-82.67108,7.105617,STD
402758776000,1.774895,1.38948205332194,9.8519051139813,0.167218224405468,0.056505036,-0.0143553335,0.08002335,217.01653,-82.64245,7.140824,STD
402763799000,1.779918,1.40398731005126,9.86157548708413,0.133372605175395,0.0571159,-0.010079277,0.0852157,217.03374,-82.619385,7.169612,STD
402768800000,1.784919,1.41460616687917,9.84025627267459,0.131314089269777,0.043676864,-0.008552114,0.08399397,217.05571,-82.601395,7.194578,STD
402773798000,1.789917,1.42385282894813,9.80789310026079,0.140560659614604,0.03726278,0.0015271631,0.087659165,217.07388,-82.58133,7.221757,STD
402778824000,1.794943,1.4134399402753,9.78356874603341,0.153780350404539,0.04062254,-0.002443461,0.08277224,217.09993,-82.562065,7.248789,STD
402783797000,1.799916,1.3934228967847,9.7635518593044,0.168793104282862,0.03726278,0.0015271631,0.08399397,217.12071,-82.53956,7.2778172,STD
402788793000,1.804912,1.3706672244566,9.76056301508206,0.193946265663167,0.046120327,-0.0036651916,0.076358154,217.14603,-82.52568,7.299984,STD
402793826000,1.809945,1.34691049204002,9.76293873793681,0.2224543644083,0.0421497,-0.01038471,0.07788532,217.17052,-82.507996,7.3246365,STD
402798842000,1.814961,1.32323400290798,9.76530643629553,0.250866171144955,0.040927973,-0.023823744,0.07849618,217.19423,-82.49793,7.342241,STD
402803829000,1.819948,1.29969439937897,9.76766044580807,0.27911371504362,0.036957346,-0.029626964,0.080634214,217.21759,-82.486496,7.3604555,STD
402808809000,1.824928,1.28951134940476,9.75155509761905,0.304092116404762,0.038179077,-0.03604105,0.0729984,217.24493,-82.47774,7.375932,STD
402813899000,1.830018,1.28467534444444,9.72737557777778,0.328271656444444,0.028710667,-0.040927973,0.07086037,217.27328,-82.46594,7.39339,STD
402818831000,1.83495,1.283292,9.71880764566695,0.330234277009772,0.03359759,-0.04337143,0.063224554,217.29247,-82.46293,7.400205,STD
402823834000,1.839953,1.283292,9.71643085460588,0.323104047769235,0.034513887,-0.04642576,0.061086524,217.31302,-82.458145,7.4079957,STD
402828860000,1.844979,1.283292,9.71404313686195,0.315941039141823,0.020158553,-0.047036625,0.05589417,217.33115,-82.45614,7.4116697,STD
402833838000,1.849957,1.283292,9.71167822263009,0.308846439669626,0.018936822,-0.054367006,0.05497787,217.35185,-82.4541,7.4161124,STD
402838826000,1.854945,1.2708972056272,9.69848723798359,0.294062986799531,0.014966198,-0.047036625,0.045814894,217.36809,-82.45564,7.4161067,STD
402844308000,1.860427,1.25038142581086,9.67797151172333,0.273547142715905,0.00030543262,-0.051618114,0.044898596,217.38954,-82.454285,7.418493,STD
402848834000,1.864953,1.24307517505092,9.6773493123727,0.277699230727749,0.004276057,-0.057421334,0.036957346,217.4024,-82.45598,7.419877,STD
402853868000,1.869987,1.23995793919046,9.68514240202386,0.293285419795028,-0.0018325958,-0.055283304,0.023518313,217.4142,-82.45805,7.419469,STD
402858847000,1.874966,1.23687476133006,9.69285034667486,0.308701318755294,-0.0018325958,-0.048258353,0.019547688,217.42615,-82.46202,7.417909,STD
402863906000,1.880025,1.23374204456047,9.70068213859882,0.324364912416669,0.0012217305,-0.05955936,0.023518313,217.44261,-82.46702,7.4151645,STD
402868860000,1.884979,1.23067434760919,9.70835138097701,0.339703406782839,0.0036651916,-0.070554934,0.019242255,217.45306,-82.467705,7.4156823,STD
402873868000,1.889987,1.22757321189422,9.71610422026446,0.355209095072258,0.00061086525,-0.083383106,0.02443461,217.4671,-82.4644,7.420164,STD
402878956000,1.895075,1.22163660997305,9.71416705256065,0.35133458115903,0.0018325958,-0.08246681,0.014966198,217.48032,-82.46665,7.419293,STD
402883892000,1.900011,1.2125355154794,9.70051560088564,0.324031278671544,0.005192355,-0.080634214,0.022602014,217.49661,-82.46246,7.4249535,STD
402888806000,1.904925,1.20261940862649,9.69497560936814,0.304022848565992,0.008552114,-0.08368854,0.024129177,217.50116,-82.45836,7.4293413,STD
402893890000,1.910009,1.19074125471578,9.70447806303977,0.296895966141986,0.012217305,-0.07788532,0.028099801,217.50253,-82.451706,7.436417,STD
402898828000,1.914947,1.17920421222737,9.71370762956819,0.289973750286411,0.013744468,-0.05497787,0.02321288,217.50166,-82.44799,7.4410567,STD
402903877000,1.919996,1.16740783160283,9.72314466508905,0.282895931765797,0.027794369,-0.056199603,0.03023783,217.50603,-82.440704,7.450203,STD
402908842000,1.924961,1.14398220379185,9.74114452137959,0.26538456080476,0.014660766,-0.06414085,0.03023783,217.50551,-82.433624,7.4573603,STD
402914569000,1.930688,1.07760906914078,9.7909242568576,0.210073574833602,0.014049901,-0.053450707,0.03848451,217.50002,-82.42374,7.468511,STD
402918942000,1.935061,1.03417292851064,9.82315489787234,0.16810352412766,0.008246681,-0.05467244,0.027488936,217.49408,-82.41827,7.4746494,STD
402923866000,1.939985,1.00150656188026,9.84648798208807,0.121437321586343,0.007941248,-0.047036625,0.03359759,217.48259,-82.40627,7.487491,STD
402928914000,1.945033,0.963973435394084,9.86761845636597,0.0756687370769796,0.0067195175,-0.037873644,0.03145956,217.46495,-82.408165,7.4874926,STD
402933885000,1.950004,0.915868576134485,9.88073776832629,0.0363102258276686,0.005497787,-0.03726278,0.029321533,217.44783,-82.408455,7.489018,STD
402938857000,1.954976,0.867210421635273,9.89206302904346,-0.00427897755235189,-0.01038471,-0.040317107,0.024129177,217.42647,-82.40742,7.4911094,STD
402943861000,1.95998,0.811738899000316,9.88197762317163,-0.0597504896558981,-0.013133603,-0.036651913,0.02443461,217.40332,-82.406204,7.493819,STD
402948877000,1.964996,0.76378984841169,9.87133329923761,-0.108484417090216,-0.005497787,-0.035124753,0.02076942,217.38066,-82.41442,7.4872913,STD
402953879000,1.969998,0.750746695316754,9.85828987375204,-0.125875296963151,-0.018936822,-0.04734206,0.01985312,217.36118,-82.4207,7.481622,STD
402959205000,1.975324,0.736971422395833,9.84429299283854,-0.144537455901693,-0.021991149,-0.06047566,0.02107485,217.33444,-82.433,7.4722414,STD
402963893000,1.980012,0.727228358506944,9.82967860047743,-0.164023598939887,-0.025045475,-0.08460484,0.025350908,217.3147,-82.44394,7.4636164,STD
402968857000,1.984976,0.721927375526057,9.8174493152409,-0.185015056201573,-0.014660766,-0.10476339,0.013744468,217.3021,-82.46078,7.4491477,STD
402973876000,1.989995,0.750284922930187,9.82690201199607,-0.208646319384464,-0.0125227375,-0.13316862,0.008857546,217.29886,-82.47389,7.4380493,STD
402978916000,1.995035,0.778889133415309,9.83326913362025,-0.231955184482017,-0.018020526,-0.15485434,0.007330383,217.30048,-82.49,7.424371,STD
402984076000,2.000195,0.809271111896711,9.81301405830515,-0.252209857952659,-0.018936822,-0.17470746,0.0027488936,217.3097,-82.50827,7.4088473,STD
402988859000,2.004978,0.836491815929542,9.79508725808922,-0.273445988251962,-0.027488936,-0.18203785,0.0027488936,217.318498569239,-82.5160274052121,7.40259396131835,STD
402993861000,2.00998,0.859420761746123,9.7813300821367,-0.310132320712234,-0.02107485,-0.18753563,-0.009162978,217.3277,-82.52414,7.3960543,STD
402998957000,2.015076,0.884011968637485,9.76670646376679,-0.345419655176825,-0.01985312,-0.20555615,-0.0106901415,217.3526,-82.538055,7.3853593,STD
403003876000,2.019995,0.922755914968473,9.74518207411131,-0.354029420029242,-0.029932396,-0.19120082,-0.014049901,217.37627,-82.55585,7.37149,STD
403008831000,2.02495,0.961783411221786,9.72350015690396,-0.362702195968199,-0.01863139,-0.2049453,-0.026572637,217.41864,-82.57258,7.360406,STD
403013905000,2.030024,1.02043747720596,9.70716420236711,-0.390508643975483,-0.015882496,-0.19914207,-0.0290161,217.45074,-82.58602,7.351464,STD
403019192000,2.035311,1.08444240383198,9.69135179181218,-0.421190899450912,-0.019547688,-0.19058995,-0.03848451,217.48558,-82.60442,7.337494,STD
403023871000,2.03999,1.1366075798409,9.6826574218083,-0.416843796154443,-0.021991149,-0.18936823,-0.043982297,217.52911,-82.618835,7.32792,STD
403028885000,2.045004,1.19250759961195,9.67334056538611,-0.412185455498642,-0.023518313,-0.19242255,-0.038789943,217.5812,-82.6279,7.3244514,STD
403033886000,2.050005,1.2369769921363,9.6947284102228,-0.407371997955439,-0.027794369,-0.18600847,-0.041233405,217.62962,-82.63956,7.317749,STD
403038837000,2.054956,1.27999868142958,9.71862937644924,-0.402591804710152,-0.021380283,-0.17898351,-0.040011674,217.67809,-82.64803,7.3141294,STD
403043861000,2.05998,1.33208325785223,9.73376549616113,-0.406661440474624,-0.027183503,-0.16920967,-0.042455133,217.73692,-82.65013,7.3155384,STD
403048819000,2.064938,1.3841622796889,9.74796864104098,-0.411395888016751,-0.03268129,-0.16920967,-0.0421497,217.79585,-82.65066,7.318474,STD
403053871000,2.06999,1.44385556168744,9.76617968149569,-0.437288187750719,-0.023518313,-0.16493362,-0.038179077,217.85614,-82.647514,7.325155,STD
403058855000,2.074974,1.50334741457335,9.78448524928092,-0.464745985119847,-0.026267206,-0.15027285,-0.03970624,217.91275,-82.64493,7.330582,STD
403063911000,2.08003,1.5778361338118,9.7942366539075,-0.471959385785486,-0.015577064,-0.13744467,-0.028099801,217.97337,-82.63011,7.348739,STD
403068844000,2.084963,1.65318285711058,9.80208526408825,-0.475098834775053,-0.021991149,-0.12217305,-0.035124753,218.02853,-82.620346,7.361085,STD
403073869000,2.089988,1.72993478992557,9.81008025013291,-0.478296834201887,-0.020463986,-0.10567969,-0.028405234,218.09293,-82.59603,7.3882604,STD
403078870000,2.094989,1.80632014634503,9.81803705116959,-0.481479559601608,-0.02687807,-0.08827003,-0.02076942,218.15207,-82.573105,7.4134755,STD
403083888000,2.100007,1.88296516104466,9.82602089992026,-0.484673104103868,-0.02565634,-0.067500606,-0.021380283,218.20499,-82.55079,7.437958,STD
403088844000,2.104963,1.95866318672249,9.83390610406699,-0.487827190702751,-0.027183503,-0.0290161,-0.021991149,218.2473,-82.5263,7.464188,STD
403093859000,2.109978,2.08947674049661,9.8389156896614,-0.467207221801354,-0.033292156,-0.00061086525,-0.012217305,218.29068,-82.50269,7.4892783,STD
403098875000,2.114994,2.23261254654628,9.84325277462754,-0.44118251538149,-0.03634648,0.03359759,-0.0106901415,218.321,-82.481865,7.5113826,STD
403103873000,2.119992,2.30518605363068,9.83159668880582,-0.407204565039943,-0.031154128,0.077579886,0.0015271631,218.36314,-82.42253,7.572201,STD
403108872000,2.124991,2.33215349294347,9.80953253430971,-0.367979284873003,-0.03390302,0.1142318,0.0030543262,218.39737,-82.36688,7.628985,STD
403113903000,2.130022,2.35929355839308,9.78732714097706,-0.328502912694592,-0.03145956,0.15821409,0.0076358155,218.43459,-82.29483,7.7022576,STD
403118874000,2.134993,2.38610994983613,9.76538657046293,-0.289497338037689,-0.022602014,0.20250183,0.01740966,218.46107,-82.22253,7.7755265,STD
403123876000,2.139995,2.37861724907063,9.75564902472119,-0.24967518554461,-0.032070424,0.23548855,0.01863139,218.48326,-82.15268,7.8459063,STD
403128884000,2.145003,2.35633071821561,9.75119162546468,-0.209559397425651,-0.022602014,0.26053402,0.021685716,218.49515,-82.081604,7.9175134,STD
403133875000,2.149994,2.3131283938468,9.74365761521441,-0.166644104265093,-0.022907447,0.29810223,0.035430185,218.4928,-82.00799,7.991437,STD
403138873000,2.154992,2.25261009689179,9.73357156590454,-0.121255434209251,-0.02321288,0.31581733,0.04153884,218.48935,-81.93773,8.061951,STD
403143878000,2.159997,2.17942786464528,9.74226371769208,-0.0839462453999607,-0.03176499,0.32406402,0.05100725,218.47224,-81.86953,8.130254,STD
403148887000,2.165006,2.09940684097733,9.76109207241684,-0.050996426552252,-0.025045475,0.3295618,0.06291912,218.45148,-81.80105,8.198836,STD
403153872000,2.169991,2.01612521444079,9.78583137924509,-0.0324777835852007,-0.026267206,0.32803464,0.06780604,218.42186,-81.739365,8.2605095,STD
403158850000,2.174969,1.93066359856588,9.81431866716462,-0.0229820475515387,-0.015577064,0.32436943,0.084910266,218.39204,-81.67297,8.326913,STD
403163887000,2.180006,1.83654612493067,9.82302898708999,-0.0163786570132925,-0.012217305,0.3191771,0.09865474,218.35292,-81.62152,8.3783245,STD
403169533000,2.185652,1.72537475435593,9.81785812144975,-0.0112078955786554,-0.020463986,0.30390546,0.10598512,218.3186,-81.56892,8.430889,STD
403173872000,2.189991,1.6399385912451,9.81388426632877,-0.00723412054059482,-0.007330383,0.28588495,0.11453723,218.27806,-81.527306,8.472472,STD
403178888000,2.195007,1.54117210261547,9.80929038357081,-0.00264033036061968,0.0030543262,0.2773328,0.1337795,218.23999,-81.48211,8.517611,STD
403183876000,2.199995,1.4442772577258,9.80464367678527,0.00802554992137348,0.0061086523,0.2611449,0.14049901,218.20816,-81.43935,8.560361,STD
403188874000,2.204993,1.34900008153272,9.79987996969395,0.0270809886420503,0.015271631,0.24984388,0.14569137,218.17819,-81.3932,8.606523,STD
403193849000,2.209968,1.25416135573028,9.79513818442399,0.0460487372685743,0.028099801,0.23151793,0.15118915,218.13579,-81.37619,8.623518,STD
403198882000,2.215001,1.158216972421,9.79034111803931,0.0652376174368748,0.040927973,0.20616703,0.15607607,218.09946,-81.35874,8.640967,STD
403203827000,2.219946,1.07298117277577,9.77993641344606,0.0841748877948873,0.04184427,0.18845193,0.16584991,218.05708,-81.33582,8.663957,STD
403208904000,2.225023,0.999579229166667,9.76036216666667,0.103748739083333,0.043982297,0.17470746,0.160963,218.02171,-81.31662,8.68324,STD
403213837000,2.229956,0.919050752824579,9.73373711793855,0.120716170059465,0.057726767,0.16035213,0.16279559,217.97128,-81.32205,8.677835,STD
403218916000,2.235035,0.822637238473736,9.69517195381566,0.135178192178394,0.06261369,0.14294247,0.15577064,217.92645,-81.331604,8.668306,STD
403223805000,2.239924,0.746312319903558,9.66626472622152,0.140046248902229,0.06536258,0.12003502,0.15241088,217.87988,-81.350235,8.649685,STD
403228875000,2.244994,0.693751340766619,9.64954068646361,0.130489706787384,0.06566802,0.09407325,0.14813483,217.83981,-81.37095,8.628987,STD
403233808000,2.249927,0.642610648442651,9.63326855862816,0.12119139865079,0.057726767,0.06780604,0.14202617,217.79364,-81.40609,8.593849,STD
403239577000,2.255696,0.582803096442454,9.61423877847759,0.110317297770998,0.05681047,0.050701816,0.13225232,217.75273,-81.4429,8.5570545,STD
403243844000,2.259963,0.544695752527094,9.59170398137931,0.0961228384835468,0.05589417,0.01740966,0.13591751,217.7219,-81.47433,8.5256405,STD
403248915000,2.265034,0.511203346305419,9.54864244827586,0.0674150591527094,0.0571159,0.008857546,0.121256754,217.68906,-81.51307,8.486902,STD
403253855000,2.269974,0.491598601640953,9.52316375127085,0.0377033899381076,0.053450707,-0.005497787,0.099265605,217.6595,-81.56245,8.437514,STD
403258912000,2.275031,0.502396320398198,9.53612104534915,0.00315070073878534,0.05589417,-0.022907447,0.096516706,217.6333,-81.60944,8.390512,STD
403264343000,2.280462,0.513992604869348,9.55003662061893,-0.0339573979445287,0.044898596,-0.032986723,0.08552113,217.60913,-81.66674,8.333202,STD
403268913000,2.285032,0.523750480036565,9.56174609934897,-0.0651825886981183,0.042760566,-0.05589417,0.077579886,217.59348,-81.722595,8.277353,STD
403273882000,2.290001,0.534360300978775,9.57447791549987,-0.0991340050776777,0.050396383,-0.06994407,0.06811147,217.57788,-81.780594,8.219355,STD
403279040000,2.295159,0.56092313517144,9.61373979134732,-0.146381435762404,0.046120327,-0.08460484,0.052534413,217.56871,-81.84109,8.15885,STD
403283872000,2.299991,0.588923415413473,9.65574008501412,-0.193048566250504,0.053450707,-0.0888809,0.04917465,217.56015,-81.89923,8.100714,STD
403288913000,2.305032,0.62619654295786,9.70624412436253,-0.193905273930393,0.05009095,-0.1151481,0.051618114,217.57062,-81.9529,8.047069,STD
403293855000,2.309974,0.66430669835913,9.75705780638812,-0.185436351981748,0.049480084,-0.14019357,0.042455133,217.5814,-82.00924,7.9907565,STD
403298886000,2.315005,0.706630893813795,9.79274088545211,-0.190851867461594,0.04520403,-0.15668693,0.03970624,217.59576,-97.94962,7.9496126,STD
403303885000,2.320004,0.751055041540365,9.81742096752243,-0.205659927012063,0.05100725,-0.17501289,0.03634648,217.61731,-97.90709,7.9070277,STD
403309051000,2.32517,0.79688089366581,9.8428797544473,-0.203859441088946,0.04153884,-0.18845193,0.02443461,217.64398,-97.86747,7.8673363,STD
403313941000,2.33006,0.840220272277635,9.86695715907455,-0.194228469181491,0.03604105,-0.19547687,0.022296581,217.67345,-97.83095,7.830686,STD
403318875000,2.334994,0.892633998684211,9.87988752368421,-0.188436271052632,0.015882496,-0.20433442,0.01038471,217.71342,-97.79544,7.795059,STD
403323869000,2.339988,0.949053736343013,9.88856720444646,-0.184096294718693,0.0033597588,-0.21502456,0.0033597588,217.75519,-97.76193,7.7614026,STD
403328906000,2.345025,1.01788230640656,9.88736810773664,-0.201115064418089,-0.011301007,-0.2171626,-0.0076358155,217.79666,-97.73253,7.731904,STD
403333889000,2.350008,1.09722374004655,9.87678958867213,-0.238141063101308,-0.020158553,-0.21624629,-0.013133603,217.83951,-97.70381,7.7031093,STD
403338871000,2.35499,1.15597089181096,9.85755870085143,-0.258674559594375,-0.021991149,-0.22052236,-0.011911872,217.89171,-97.68291,7.682167,STD
403343854000,2.359973,1.20618935892088,9.8347321465608,-0.272370506469913,-0.03145956,-0.21013765,-0.016187929,217.93849,-97.65986,7.659142,STD
403348885000,2.365004,1.25690643225498,9.81732879498469,-0.283377424582695,-0.04795292,-0.19639318,-0.023518313,217.9947,-97.64915,7.648393,STD
403353874000,2.369993,1.30720942862749,9.80360952249234,-0.292523424791348,-0.046731193,-0.19883664,-0.034208454,218.05171,-97.63702,7.6361756,STD
403358858000,2.374977,1.35632990214259,9.79371919172516,-0.29771947644625,-0.047036625,-0.18906279,-0.03481932,218.10349,-97.63746,7.6365533,STD
403363947000,2.380066,1.4054312409242,9.78717238301373,-0.299356187169292,-0.04917465,-0.17959438,-0.04184427,218.15526,-97.633484,7.6325145,STD
403368875000,2.384994,1.45297916733721,9.780832694798,-0.300941117498069,-0.058948494,-0.1695151,-0.03268129,218.20941,-97.6427,7.6416426,STD
403373870000,2.389989,1.50117354486013,9.77440681358095,-0.302547596189677,-0.0580322,-0.17073683,-0.03756821,218.26338,-97.646164,7.644971,STD
403378901000,2.39502,1.54971526924808,9.76793461970648,-0.304165653106089,-0.052534413,-0.15851954,-0.034513887,218.31128,-97.65251,7.6511936,STD
403383884000,2.400003,1.59779386448265,9.76152417604191,-0.305768272389428,-0.06169739,-0.14905111,-0.03604105,218.35963,-97.65632,7.654929,STD
403388876000,2.404995,1.6346001427108,9.76413938376675,-0.314517732939322,-0.08277224,-0.14110987,-0.03359759,218.40431,-97.66228,7.660852,STD
403393855000,2.409974,1.66278156716903,9.77353337174941,-0.328608430455083,-0.07147124,-0.13164146,-0.03359759,218.44524,-97.66737,7.665788,STD
403398910000,2.415029,1.6811800866847,9.78315872257289,-0.337807683342351,-0.07086037,-0.11484267,-0.03940081,218.49274,-97.69374,7.692017,STD
403403919000,2.420038,1.69079238829777,9.79277072307384,-0.342613834148883,-0.07391469,-0.10293079,-0.03390302,218.53847,-97.722946,7.7210245,STD
403408904000,2.425023,1.70030280206186,9.79186516108247,-0.342161038969072,-0.07788532,-0.08735373,-0.02565634,218.58739,-97.75379,7.7517266,STD
403413917000,2.430036,1.70982074385408,9.78234751744647,-0.337402068072958,-0.07971791,-0.07819075,-0.028099801,218.63426,-97.78263,7.7804184,STD
403418912000,2.435031,1.71046756113856,9.77287890783752,-0.336448519620478,-0.08674286,-0.058643065,-0.025350908,218.67494,-97.81377,7.8113956,STD
403423889000,2.440008,1.70340138201226,9.76345738485867,-0.338803912662582,-0.07788532,-0.03726278,-0.028099801,218.71205,-97.84217,7.839547,STD
403428861000,2.44498,1.69634230171971,9.75404532694208,-0.341156939426764,-0.09040806,-0.017715093,-0.024129177,218.74666,-97.87131,7.8686194,STD
403433893000,2.450012,1.68919803542202,9.74451968827831,-0.343538361525993,-0.09193522,-0.013133603,-0.025961773,218.77911,-97.89758,7.8946943,STD
403438875000,2.454994,1.69242115230723,9.75111825384538,-0.342463989230924,-0.07696902,-0.01038471,-0.02565634,218.80629,-97.92503,7.9219112,STD
403443865000,2.459984,1.70683401005328,9.77513968342214,-0.337659703315573,-0.07513642,0.0067195175,-0.020158553,218.82782,-97.95273,7.94951,STD
403448849000,2.464968,1.7119586457612,9.78978656296369,-0.330608726740528,-0.080634214,0.014049901,-0.007330383,218.84674,-97.981285,7.9777784,STD
403453878000,2.469997,1.7071944032842,9.7945504074587,-0.321080231836977,-0.06872234,0.020158553,0.0027488936,218.86108,-98.01016,8.006211,STD
403458892000,2.475011,1.6957520964643,9.79930292245221,-0.309344987691394,-0.07513642,0.008246681,0.0067195175,218.8792,-98.04139,8.037198,STD
403463940000,2.480059,1.67660039342379,9.80409094820244,-0.294981200412004,-0.054367006,0.010995574,0.011301007,218.89143,-98.0752,8.070413,STD
403468848000,2.484967,1.66426368258065,9.79824717419355,-0.285203482580645,-0.056505036,0.015271631,0.01160644,218.90533,-98.10662,8.101544,STD
403473878000,2.489997,1.65948241171216,9.77912219057072,-0.280422211712159,-0.0421497,0.017715093,0.02321288,218.9191,-98.142136,8.13639,STD
403478834000,2.494953,1.65481031927382,9.76043400097343,-0.267841091342354,-0.038179077,0.019547688,0.02687807,218.92867,-98.17106,8.164863,STD
403483886000,2.500005,1.65010064354132,9.74159559310815,-0.244292938896136,-0.040317107,0.038179077,0.025350908,218.93283,-98.201096,8.194381,STD
403488810000,2.504929,1.63859129646699,9.73175991670779,-0.221223951066811,-0.03634648,0.03940081,0.03359759,218.9418,-98.23332,8.225973,STD
403493868000,2.509987,1.61468946364354,9.73654038310471,-0.197322103268529,-0.03634648,0.03848451,0.037873644,218.94623,-98.26309,8.25521,STD
403498822000,2.514941,1.59446599354262,9.73799273067753,-0.172237910317902,-0.03390302,0.032986723,0.04062254,218.9495,-98.29277,8.284398,STD
403503873000,2.519992,1.58004941790185,9.7331871051063,-0.143404738964832,-0.024740042,0.03604105,0.047647487,218.9508,-98.324135,8.315204,STD
403508827000,2.524946,1.56034523803315,9.72857153417769,-0.121569617992177,-0.024740042,0.04642576,0.04886922,218.94727,-98.34914,8.339926,STD
403513985000,2.530104,1.528143668225,9.72397122071149,-0.112369178396349,-0.014049901,0.043676864,0.05009095,218.9469,-98.37565,8.3658695,STD
403518896000,2.535015,1.4995431615789,9.7164435615789,-0.102132526747393,-0.009162978,0.040927973,0.037873644,218.93987,-98.39463,8.384583,STD
403523872000,2.539991,1.47900788759804,9.69590828759803,-0.0857042946970611,-0.013439035,0.03756821,0.053145275,218.93417,-98.42115,8.41082,STD
403528915000,2.545034,1.45819611374644,9.67509651374644,-0.0690548625769198,0.0015271631,0.040317107,0.054367006,218.92369,-98.43476,8.423937,STD
403533891000,2.55001,1.44640056073211,9.67721211647255,-0.0624006255241265,-0.007330383,0.03634648,0.06291912,218.91646,-98.45388,8.442946,STD
403538897000,2.555016,1.43619653433262,9.68247645719724,-0.0568119048367357,0.0027488936,0.037873644,0.056199603,218.90709,-98.46891,8.457402,STD
403543851000,2.55997,1.43168135760171,9.68699151605996,-0.0477814980985011,0.005192355,0.03940081,0.0580322,218.89069,-98.488266,8.476589,STD
403549194000,2.565313,1.42681163832976,9.69186110820842,-0.0380420020947894,-0.00061086525,0.032986723,0.056199603,218.87544,-98.499664,8.487625,STD
403553882000,2.570001,1.42253889942898,9.69613373556983,-0.0294964738774209,-0.004886922,0.03268129,0.06414085,218.85838,-98.51397,8.501543,STD
403558868000,2.574987,1.41799455724482,9.70067795912444,-0.0204077358885558,0.0021380284,0.03726278,0.06658431,218.8421,-98.525826,8.512936,STD
403564452000,2.580571,1.4034760791033,9.7151966626506,-0.00989269220027652,0.002443461,0.03604105,0.06261369,218.82793,-98.537476,8.52428,STD
403568868000,2.584987,1.39094656221608,9.72772639759036,-0.00153970391032984,-0.003970624,0.031154128,0.06291912,218.81386,-98.55055,8.537075,STD
403573879000,2.589998,1.38077397273928,9.73593318834059,-0.00786303280280726,-0.008552114,0.03023783,0.0571159,218.7958,-98.55895,8.545379,STD
403578935000,2.595054,1.37130161967037,9.74303735423289,-0.0173353925481,-0.011301007,0.025961773,0.06536258,218.78052,-98.57098,8.557372,STD
403583886000,2.600005,1.36202598279454,9.74999398503448,-0.026611035961657,0.00061086525,0.027794369,0.0571159,218.758,-98.57556,8.561783,STD
403588813000,2.604932,1.35279530961999,9.75691689352961,-0.0358417156422458,-0.0076358155,0.02107485,0.065973446,218.73962,-98.58661,8.573005,STD
403593868000,2.609987,1.34554651717873,9.758766,-0.0371114054206185,0.007941248,0.017715093,0.062002823,218.72157,-98.5941,8.580453,STD
403598993000,2.615112,1.33899013192626,9.758766,-0.0354723079094309,0.004886922,0.021991149,0.061086524,218.70358,-98.6041,8.5908375,STD
403603873000,2.619992,1.33274717387123,9.758766,-0.0339115672548758,0.009162978,0.023823744,0.056199603,218.68997,-98.608574,8.595335,STD
403608883000,2.625002,1.32633790750735,9.758766,-0.0323092494927197,0.0125227375,0.023518313,0.06078109,218.67603,-98.615135,8.601994,STD
403613937000,2.630056,1.3198723521774,9.758766,-0.0306928594787604,0.014049901,0.018325957,0.060170226,218.66315,-98.618614,8.605515,STD
403618901000,2.63502,1.31352193336896,9.758766,-0.0291052536162169,0.005497787,0.013744468,0.055588737,218.65044,-98.62189,8.608941,STD
403623875000,2.639994,1.31678609875388,9.76352947388389,-0.0215851668951758,0.008552114,0.025350908,0.05497787,218.63475,-98.626076,8.613112,STD
403628903000,2.645022,1.32308564418643,9.76982898642682,-0.0121358421684383,0.002443461,0.029626964,0.047647487,218.62268,-98.62657,8.61383,STD
403634457000,2.650576,1.33004421127719,9.77678751718724,-0.00169798426623058,-0.017715093,0.021380283,0.030543262,218.60806,-98.62127,8.608957,STD
403638866000,2.654985,1.33556821601308,9.78231149308258,0.00658802860572363,-0.0125227375,0.02321288,0.035124753,218.58954,-98.620255,8.608123,STD
403643855000,2.659974,1.34181889862306,9.78856214305805,0.0159640590475879,-0.01160644,0.020158553,0.03359759,218.5749,-98.61232,8.60067,STD
403648896000,2.665015,1.34813473166312,9.79487794312347,0.0254378152026165,-0.01985312,0.01282817,0.030543262,218.56117,-98.605225,8.594099,STD
403653880000,2.669999,1.35344935428341,9.79395370630921,0.0224913071985487,-0.023518313,0.01282817,0.03756821,218.54634,-98.60071,8.590023,STD
403658871000,2.67499,1.35826671054223,9.78913675246926,0.0128565881416045,-0.032070424,0.018325957,0.033292156,218.53214,-98.592,8.581908,STD
403663948000,2.680067,1.36315105195066,9.78425248029285,0.00308789835573162,-0.035430185,0.002443461,0.03481932,218.52312,-98.588196,8.578751,STD
403668889000,2.685008,1.3678967112426,9.77950672189349,-0.00640342716568047,-0.03268129,0.0012217305,0.023518313,218.50836,-98.5795,8.570734,STD
403673877000,2.689996,1.37544166273778,9.76600353674002,-0.0155350737817978,-0.027183503,0.0061086523,0.02443461,218.49794,-98.575966,8.567771,STD
403678921000,2.69504,1.38445049884372,9.74798595859754,-0.024543916002238,-0.025961773,0.0061086523,0.02565634,218.494251360544,-98.5718080808323,8.56393703521409,STD
403683873000,2.699992,1.38481935679421,9.7370678513782,-0.0325480658633515,-0.03573562,0.0015271631,0.020158553,218.49063,-98.567726,8.560173,STD
403688871000,2.70499,1.37750318319662,9.73219030045346,-0.0398642445539308,-0.035124753,0.0070249503,0.0143553335,218.47554,-98.559875,8.552382,STD
403693867000,2.709986,1.37018993723952,9.7273147013298,-0.0471774956019769,-0.03726278,0.005192355,0.0143553335,218.46608,-98.55466,8.547267,STD
403698882000,2.715001,1.36284887869771,9.72242056009579,-0.0545185592540888,-0.03756821,0.005497787,0.016187929,218.45451,-98.54845,8.541142,STD
403704135000,2.720254,1.35686888849765,9.72349677494131,-0.048347699149061,-0.037873644,-0.007330383,0.007330383,218.45244,-98.535805,8.528638,STD
403708882000,2.725001,1.35242238325509,9.72794337304382,-0.0350081741353678,-0.04795292,-0.011301007,0.01038471,218.44774,-98.52722,8.520325,STD
403713944000,2.730063,1.35303703614554,9.73274329268293,-0.0368521340903639,-0.044593163,-0.0070249503,0.0027488936,218.44164,-98.517555,8.510912,STD
403718892000,2.735011,1.35777374210316,9.73748009756098,-0.0510622618552579,-0.043982297,-0.00061086525,0.002443461,218.43608,-98.51088,8.504603,STD
403723865000,2.739984,1.36243602519003,9.73708352198595,-0.0625196940777446,-0.050396383,0.0030543262,-0.00061086525,218.42819,-98.500015,8.494209,STD
403728981000,2.7451,1.36715024714712,9.73236920157798,-0.0719481448834793,-0.054367006,-0.006414085,-0.0030543262,218.42227,-98.48949,8.484087,STD
403733880000,2.749999,1.36722087024653,9.73229857700369,-0.0879271112723825,-0.05009095,-0.0106901415,-0.00061086525,218.41255,-98.48565,8.480673,STD
403738847000,2.754966,1.36247309446053,9.73704645194131,-0.111666008049706,-0.054367006,-0.007941248,0.0036651916,218.40358,-98.481575,8.477112,STD
403743856000,2.759975,1.36410631072743,9.74171269091424,-0.128698224846684,-0.05375614,-0.0021380284,-0.0009162979,218.3999,-98.47507,8.471007,STD
403748915000,2.765034,1.37324845210869,9.74628340362298,-0.137840418731956,-0.048563786,-0.004276057,0.0027488936,218.39772,-98.47222,8.46852,STD
403753886000,2.770005,1.37987632436442,9.749189,-0.145284550007285,-0.052534413,-0.0012217305,0.0030543262,218.394,-98.46724,8.463869,STD
403758906000,2.775025,1.38221105160625,9.749189,-0.149954008147779,-0.061391957,-0.0015271631,0.005192355,218.39183,-98.463905,8.460834,STD
403783870000,2.799989,1.39382143624068,9.749189,-0.173174795601826,-0.037873644,-0.004886922,0.013744468,218.39966,-98.4418,8.438752,STD
403788916000,2.805035,1.39616825569531,9.749189,-0.177868438186873,-0.03481932,-0.0030543262,0.009162978,218.40503,-98.43409,8.430903,STD
403793878000,2.809997,1.39924843741379,9.74893033793103,-0.181700646051724,-0.031154128,-0.007330383,0.013744468,218.41327,-98.42844,8.425168,STD
403798909000,2.815028,1.40847851530172,9.74662301724138,-0.179393130193966,-0.034208454,-0.0061086523,0.019547688,218.41925,-98.422066,8.418754,STD
403803931000,2.82005,1.41769208142241,9.74431982413793,-0.177089742271552,-0.03359759,-0.0067195175,0.019242255,218.42941,-98.416504,8.412976,STD
403808900000,2.825019,1.42680841158046,9.74204093793103,-0.174810663301724,-0.027794369,-0.0030543262,0.020463986,218.43784,-98.41324,8.409492,STD
403814306000,2.830425,1.43622001636891,9.73981364876999,-0.172482847632588,-0.021380283,0.009468411,0.01863139,218.44373,-98.40923,8.405251,STD
403818900000,2.835019,1.42387431278646,9.74804383135347,-0.17659807213357,-0.03359759,0.009162978,0.011911872,218.45216,-98.40422,8.400113,STD
403823858000,2.839977,1.41055041240296,9.75692612243943,-0.181039361440464,-0.034208454,0.0067195175,0.020463986,218.46632,-98.40395,8.399781,STD
403828901000,2.84502,1.42019313226916,9.7629002827045,-0.165422531582285,-0.031154128,0.006414085,0.021685716,218.47972,-98.39981,8.395653,STD
403833822000,2.849941,1.43539068042567,9.76796622025153,-0.145159188700419,-0.032070424,0.0106901415,0.022602014,218.4923,-98.39815,8.394042,STD
403838876000,2.854995,1.42337680325949,9.76396152483654,-0.152414876477018,-0.02565634,0.021991149,0.024129177,218.50166,-98.39514,8.390993,STD
403843834000,2.859953,1.40947558153606,9.75932770362057,-0.161682335046355,-0.03176499,0.0106901415,0.016493361,218.51614,-98.38982,8.385721,STD
403848888000,2.865007,1.40360302280538,9.74829725235664,-0.171180722487235,-0.037873644,0.007941248,0.016187929,218.5228,-98.38946,8.385431,STD
403853909000,2.870028,1.3988814142282,9.73649316928515,-0.180623993874705,-0.03359759,0.008552114,0.014660766,218.5316,-98.38673,8.382714,STD
403858861000,2.87498,1.39422469132954,9.72485130125687,-0.189937493159859,-0.025350908,0.011911872,0.017715093,218.54051,-98.382645,8.378616,STD
403863865000,2.879984,1.38951906907895,9.71308718421053,-0.199348791710526,-0.025961773,0.01985312,0.014966198,218.54773,-98.37665,8.372644,STD
403868880000,2.884999,1.3878666989169,9.71011169087358,-0.204964407611861,-0.03573562,0.016493361,0.013439035,218.55711,-98.37205,8.368067,STD
403873879000,2.889998,1.38692219680398,9.70916717889836,-0.209686871823706,-0.03756821,0.01985312,0.01863139,218.56215,-98.36883,8.364828,STD
403878883000,2.895002,1.38597675,9.70822172222222,-0.214414059444444,-0.03481932,0.012217305,0.016493361,218.57237,-98.3631,8.359023,STD
403883894000,2.900013,1.38502998062855,9.7072749429648,-0.219147859837634,-0.03176499,0.017715093,0.01740966,218.57773,-98.359856,8.355748,STD
403889391000,2.90551,1.38399138728693,9.70623633877841,-0.224340775575284,-0.039095376,0.010079277,0.01740966,218.58887,-98.35528,8.35114,STD
403893861000,2.90998,1.38314683348722,9.70539177616004,-0.228563503126184,-0.034513887,0.016187929,0.016798794,218.5943,-98.35108,8.346809,STD
403898879000,2.914998,1.3821987415483,9.70444367432134,-0.233303916291825,-0.029932396,0.018020526,0.012217305,218.60303,-98.34587,8.341508,STD
403903878000,2.919997,1.38125423943537,9.70349916234612,-0.23802638050367,-0.02565634,0.01863139,0.015271631,218.61023,-98.34288,8.338388,STD
403908901000,2.92502,1.3803052028054,9.7025501158065,-0.242771517078204,-0.031154128,0.010079277,0.013133603,218.61765,-98.33764,8.333005,STD
403913971000,2.93009,1.37934728607955,9.70159218907828,-0.247561053696338,-0.03970624,0.013439035,0.013133603,218.62138,-98.33403,8.329267,STD
403918913000,2.935032,1.38502457531168,9.7102518998089,-0.243032491574302,-0.030848695,0.002443461,0.013133603,218.63033,-98.32942,8.324277,STD
403923939000,2.940058,1.39378478948949,9.7233924954955,-0.234272272822823,-0.025961773,0.01282817,0.014049901,218.63203,-98.325134,8.319763,STD
403928888000,2.945007,1.39583260197212,9.72884542612287,-0.225081160214765,-0.030848695,0.009468411,0.015882496,218.64256,-98.321655,8.315927,STD
403933922000,2.950041,1.39085484139391,9.72635649385648,-0.215125631261745,-0.030543262,0.0015271631,0.02076942,218.65137,-98.3196,8.313414,STD
403938914000,2.955033,1.38591861159525,9.72388832741353,-0.205253163932886,-0.031154128,0.004276057,0.017104227,218.65265,-98.32049,8.313932,STD
403943915000,2.960034,1.38097348234383,9.72141571115127,-0.195362897684564,-0.027794369,0.0018325958,0.015271631,218.65775,-98.32329,8.3163,STD
403948918000,2.965037,1.37759994118875,9.72483946118676,-0.194456481165888,-0.032070424,0.0027488936,0.018325957,218.65411,-98.33022,8.322781,STD
403953910000,2.970029,1.37522408956366,9.73196699125335,-0.19920823899513,-0.024740042,0.0027488936,0.019547688,218.65157,-98.33613,8.328036,STD
403958919000,2.975038,1.3728401470977,9.73911879375808,-0.203976178691979,-0.02443461,0.0018325958,0.02107485,218.64656,-98.3406,8.332119,STD
403963946000,2.980065,1.37044763785906,9.7462962964914,-0.208761252131001,-0.028405234,0.0009162979,0.024740042,218.64171,-98.345894,8.336998,STD
403968907000,2.985026,1.39167348871565,9.749189,-0.212076630544728,-0.027183503,-0.00030543262,0.016493361,218.63728,-98.35201,8.342927,STD
403973905000,2.990024,1.42946090384369,9.749189,-0.21443834399023,-0.025961773,-0.00030543262,0.013133603,218.63293,-98.36018,8.350962,STD
403978872000,2.994991,1.46701394324764,9.749189,-0.216785408952978,-0.024740042,0.0061086523,0.014049901,218.62741,-98.366356,8.356943,STD
403983887000,3.000006,1.50492988699857,9.749189,-0.219155155437411,-0.027794369,-0.0027488936,0.018936822,218.62642,-98.37247,8.362875,STD
403988872000,3.004991,1.48276651382178,9.74169928811881,-0.227756371372277,-0.022907447,0.002443461,0.022907447,218.61267,-98.38349,8.373585,STD
403993851000,3.00997,1.40722926677228,9.72753625148515,-0.241919615053465,-0.02076942,0.003970624,0.025350908,218.6028,-98.39497,8.384806,STD
403998872000,3.014991,1.3710831648564,9.71965910086721,-0.244997555353316,-0.025961773,0.0015271631,0.013439035,218.60052,-98.41435,8.403814,STD
404003877000,3.019996,1.37424416884624,9.7180785658654,-0.237095040427672,-0.02443461,-0.006414085,0.0143553335,218.59972,-98.43749,8.426462,STD
404008920000,3.025039,1.37742917246678,9.71648603079764,-0.229132526387707,-0.019242255,-0.013133603,0.01985312,218.59482,-98.44827,8.436919,STD
404013901000,3.03002,1.38057501879513,9.71491307478485,-0.221267905639529,-0.025961773,-0.00030543262,0.016493361,218.58672,-98.456276,8.44478,STD
404018846000,3.034965,1.38369812863125,9.71335148725558,-0.213460126157549,-0.01863139,-0.0033597588,0.01985312,218.58533,-98.4677,8.455727,STD
404023869000,3.039988,1.38687050086721,9.711765268012,-0.205529190598806,-0.021685716,-0.01160644,0.01985312,218.5819,-98.47657,8.46441,STD
404029109000,3.045228,1.39294446575532,9.71734336730185,-0.192497959013164,-0.031154128,-0.003970624,0.023823744,218.5769,-98.486786,8.47456,STD
404033881000,3.05,1.40135839395195,9.72996458906379,-0.17567000597625,-0.030543262,-0.008552114,0.020158553,218.57791,-98.49461,8.482166,STD
404038882000,3.055001,1.40524260053092,9.74216083295645,-0.170449462305575,-0.028099801,-0.010995574,0.018020526,218.57954,-98.50266,8.490506,STD
404043859000,3.059978,1.39587017210697,9.75153301671419,-0.198566909057123,-0.02565634,-0.0015271631,0.021380283,218.57909,-98.51101,8.499122,STD
404048896000,3.065015,1.38807390219753,9.76101835593137,-0.222518918866821,-0.029932396,-0.0015271631,0.021685716,218.584091312244,-98.5110049735555,8.49935371908991,STD
404053880000,3.069999,1.38572734747554,9.77040442780591,-0.231905044646281,-0.036957346,-0.009468411,0.015882496,218.58904,-98.511,8.499583,STD
404058870000,3.074989,1.38337796784819,9.77980179912492,-0.241302469935106,-0.030543262,-0.008246681,0.018936822,218.59357,-98.514626,8.503409,STD
404063882000,3.080001,1.3810182302345,9.78924060174033,-0.250741326758271,-0.037873644,-0.008246681,0.0106901415,218.60286,-98.5116,8.500676,STD
404068867000,3.084986,1.3790601,9.79629527892343,-0.257212750198107,-0.03604105,-0.015882496,0.011911872,218.61748,-98.51046,8.499679,STD
404073873000,3.089992,1.3790601,9.79158187491704,-0.248964245200197,-0.03604105,-0.007941248,0.014049901,218.62735,-98.50728,8.496781,STD
404078882000,3.095001,1.3790601,9.78686564625783,-0.240710797031093,-0.03390302,-0.011301007,0.013744468,218.63965,-98.50393,8.49326,STD
404083883000,3.100002,1.3790601,9.78215695000615,-0.232470530651837,-0.03573562,-0.01038471,0.008552114,218.64827,-98.49986,8.489098,STD
404088874000,3.104993,1.3790601,9.77745766926386,-0.224246741509893,-0.040927973,-0.013439035,0.014049901,218.66791,-98.49513,8.484578,STD
404093913000,3.110032,1.3790601,9.77271319407644,-0.215943861628856,-0.046731193,-0.020463986,0.009773844,218.6881,-98.48642,8.476095,STD
404098817000,3.114936,1.3790601,9.76809582826595,-0.207863424451518,-0.039095376,-0.0067195175,0.013133603,218.7003,-98.48389,8.473688,STD
404103912000,3.120031,1.3790601,9.76329862622588,-0.199468272041539,-0.04184427,-0.0125227375,0.0070249503,218.7199,-98.477455,8.467526,STD
404109307000,3.125426,1.37956741025711,9.75825868444566,-0.191028825040117,-0.038789943,-0.0018325958,0.01282817,218.73053,-98.475746,8.465964,STD
404113952000,3.130071,1.38362327281182,9.75420277954048,-0.186973004835886,-0.04734206,-0.005192355,0.008552114,218.74661,-98.46945,8.4599495,STD
404118867000,3.134986,1.38791489056346,9.74991111697666,-0.182681431896426,-0.03756821,-0.0036651916,0.004886922,218.75522,-98.46449,8.455201,STD
404123917000,3.140036,1.40388841207693,9.75300192269256,-0.193397867160366,-0.046731193,-0.00061086525,0.010995574,218.76414,-98.46095,8.452203,STD
404128907000,3.145026,1.42190985329499,9.75750736532479,-0.206913922199491,-0.043066,0.008246681,0.0106901415,218.77074,-98.45504,8.446535,STD
404133923000,3.150042,1.41994449537887,9.76926581656745,-0.217689485185148,-0.05222898,0.008246681,0.0076358155,218.773795328762,-98.4536160346914,8.44524255546591,STD
404138823000,3.154942,1.41047485356674,9.78347042760569,-0.227159033061245,-0.038789943,0.0033597588,0.0061086523,218.77678,-98.452225,8.44398,STD
404143889000,3.160008,1.40954605256992,9.77696386788972,-0.224576808609602,-0.04550946,-0.004276057,0.0106901415,218.78099,-98.4519,8.443994,STD
404148864000,3.164983,1.41192132426841,9.76271248571713,-0.217451137364774,-0.0421497,0.0009162979,0.009468411,218.78563,-98.451515,8.443618,STD
404153905000,3.170024,1.41432810710903,9.74827203998205,-0.210230934601924,-0.045814894,0.0009162979,0.004581489,218.79712,-98.447426,8.439665,STD
404158886000,3.175005,1.4167062434568,9.73400347021287,-0.203096669582731,-0.040317107,0.0076358155,0.0070249503,218.80498,-98.44538,8.437618,STD
404163927000,3.180046,1.40692835191811,9.7369951898231,-0.211552059014113,-0.048258353,-0.0012217305,0.007330383,218.81717,-98.44129,8.433698,STD
404168874000,3.184993,1.39280295105347,9.74641179596502,-0.225677420546611,-0.044898596,0.010079277,0.008552114,218.82146,-98.43851,8.430926,STD
404173911000,3.19003,1.38397688978648,9.74608235717848,-0.2313967333152,-0.047036625,0.004886922,0.0070249503,218.83246,-98.43575,8.428354,STD
404179059000,3.195178,1.37727195759554,9.74161254240899,-0.233631715379664,-0.040927973,0.0106901415,0.011911872,218.8369,-98.4354,8.4280815,STD
404183909000,3.200028,1.37095515084999,9.73740146983091,-0.235737322025477,-0.047036625,0.008246681,0.01160644,218.8466,-98.42647,8.419072,STD
404188911000,3.20503,1.36444037407861,9.73305842136996,-0.237908918817716,-0.046731193,0.017104227,0.008857546,218.85123,-98.418655,8.411071,STD
404193884000,3.210003,1.35845085875161,9.730036,-0.237964437231542,-0.04428773,0.018325957,0.014966198,218.8586,-98.41351,8.40577,STD
404198927000,3.215046,1.35353041430415,9.730036,-0.2330439876462,-0.050396383,0.013439035,0.01038471,218.86504,-98.40469,8.396898,STD
404203867000,3.219986,1.34871046673912,9.730036,-0.228224035048224,-0.050701816,0.011911872,0.0125227375,218.86853,-98.39476,8.386536,STD
404208924000,3.225043,1.34377636252123,9.730036,-0.223289925678191,-0.044898596,0.014966198,0.0143553335,218.87196,-98.38385,8.375186,STD
404214534000,3.230653,1.33830269737146,9.730036,-0.217816254812878,-0.04550946,0.013744468,0.0125227375,218.86835,-98.37765,8.368453,STD
404218923000,3.235042,1.33402035934253,9.730036,-0.213533912312368,-0.043066,0.015271631,0.010079277,218.8631,-98.37206,8.362227,STD
404223806000,3.239925,1.32389931104247,9.73367433050193,-0.216147422416988,-0.046120327,0.009162978,0.015577064,218.8605,-98.36829,8.357893,STD
404228913000,3.245032,1.30501563629344,9.74311587210425,-0.230310193267375,-0.043676864,0.009468411,0.014049901,218.85562,-98.36211,8.351042,STD
404233810000,3.249929,1.292869,9.74842947864594,-0.234862667197402,-0.050701816,-0.0027488936,0.01160644,218.8535,-98.35447,8.343017,STD
404238917000,3.255036,1.292869,9.74602322830152,-0.220423946426392,-0.04642576,0.0033597588,0.01038471,218.84605,-98.347145,8.335142,STD
404243825000,3.259944,1.292869,9.74371074020862,-0.206547846652726,-0.040927973,0.00061086525,0.014049901,218.84404,-98.338264,8.325691,STD
404249026000,3.265145,1.292869,9.74126020015745,-0.191843365209604,-0.04153884,0.01038471,0.009162978,218.83662,-98.326836,8.313771,STD
404253836000,3.269955,1.29491956628862,9.74084332264372,-0.181139103056316,-0.043066,0.01038471,0.0125227375,218.83276,-98.31968,8.306071,STD
404258912000,3.275031,1.30284093195151,9.74559607587016,-0.177970555136879,-0.05222898,0.007941248,0.008246681,218.82683,-98.309044,8.295057,STD
404263885000,3.280004,1.31060156068309,9.75025238828054,-0.17486630202353,-0.045814894,0.0061086523,0.0143553335,218.81438,-98.30196,8.287317,STD
404268919000,3.285038,1.31845738313127,9.75496581612567,-0.171723971403663,-0.040011674,0.004581489,0.012217305,218.80264,-98.29136,8.276218,STD
404273863000,3.289982,1.32617275583366,9.75959497529657,-0.168637820711446,-0.04062254,0.0027488936,0.0143553335,218.7967,-98.279854,8.264244,STD
404278928000,3.295047,1.3340769554165,9.76433742901838,-0.16547613922761,-0.0421497,0.0036651916,0.016798794,218.79042,-98.268265,8.252119,STD
404284458000,3.300577,1.34017833233003,9.76805566016439,-0.163955055939994,-0.041233405,0.007330383,0.0021380284,218.78935,-98.250336,8.233865,STD
404288911000,3.30503,1.33813440650387,9.76703367590884,-0.168042909726569,-0.05009095,0.008246681,0.008246681,218.7888,-98.239235,8.222652,STD
404293831000,3.30995,1.33587612780081,9.76590451297659,-0.172559469490762,-0.04734206,-0.0030543262,0.009468411,218.79178,-98.226036,8.209133,STD
404298921000,3.31504,1.33353981914256,9.76473633425196,-0.177232089246807,-0.040927973,-0.006414085,0.0061086523,218.79211,-98.21354,8.196438,STD
404303809000,3.319928,1.33129622843107,9.76361451546886,-0.181719273012533,-0.04428773,-0.002443461,0.016493361,218.79352,-98.20555,8.188383,STD
404308913000,3.325032,1.32895349377651,9.76244312367898,-0.186404744767907,-0.046731193,-0.0036651916,0.014966198,218.79723,-98.19372,8.176325,STD
404313858000,3.329977,1.32668374008004,9.7613082231302,-0.190944254530902,-0.048563786,-0.0012217305,0.014660766,218.79866,-98.185425,8.167892,STD
404318919000,3.335038,1.32436074241415,9.76014670004074,-0.195590252288337,-0.042760566,-0.004581489,0.014966198,218.80728,-98.17318,8.155432,STD
404323810000,3.339929,1.32211577470344,9.75902419274366,-0.200080190053919,-0.046120327,0.0027488936,0.011911872,218.8119,-98.16011,8.142391,STD
404328911000,3.34503,1.31778747119832,9.77782564400841,-0.208736801583742,-0.043066,-0.0015271631,0.016493361,218.82068,-98.14996,8.132005,STD
404333817000,3.349936,1.31308391921113,9.80134340394434,-0.218143910469516,-0.04795292,-0.0070249503,0.018020526,218.82753,-98.13827,8.120299,STD
404338912000,3.355031,1.30829506941245,9.79546756392739,-0.201628885385516,-0.043676864,-0.0076358155,0.020158553,218.8356,-98.12716,8.108758,STD
404343836000,3.359955,1.30369267206715,9.78166056412259,-0.178616884241655,-0.03604105,-0.0033597588,0.016493361,218.84361,-98.11523,8.0964155,STD
404348918000,3.365037,1.28218202006022,9.77454263869025,-0.18251439939029,-0.042760566,-0.006414085,0.013439035,218.84972,-98.107056,8.087967,STD
404354291000,3.37041,1.25313258312947,9.76970097318404,-0.197039102689123,-0.036651913,-0.004886922,0.018020526,218.85316,-98.10071,8.080974,STD
404358929000,3.375048,1.25971810726219,9.77128969683569,-0.19816630162441,-0.030848695,-0.009468411,0.01740966,218.8567,-98.09073,8.070684,STD
404363942000,3.380061,1.28330723789308,9.77600761163522,-0.193448480424528,-0.040011674,-0.011301007,0.01985312,218.85893,-98.083015,8.062868,STD
404368911000,3.38503,1.30144345227111,9.78363612244691,-0.200110588240016,-0.049480084,-0.002443461,0.026572637,218.85762,-98.06865,8.04766,STD
404373926000,3.390045,1.31608454118484,9.79339654262778,-0.214751687345798,-0.042455133,-0.01282817,0.025045475,218.86267,-98.05775,8.036287,STD
404378933000,3.395052,1.31866644033003,9.78827424349278,-0.214400627597485,-0.03940081,-0.008857546,0.011911872,218.8623,-98.04416,8.021977,STD
404383920000,3.400039,1.31397539803556,9.77420131254297,-0.205018538110205,-0.04550946,-0.014966198,0.02076942,218.86784,-98.03673,8.013849,STD
404388913000,3.405032,1.30927871181613,9.76011145005402,-0.195625160767115,-0.042455133,-0.010079277,0.017715093,218.87138,-98.0254,8.001423,STD
404393906000,3.410025,1.3045820255967,9.74602158756507,-0.186231783424025,-0.050396383,-0.0106901415,0.017715093,218.8782,-98.01744,7.9927254,STD
404398898000,3.415017,1.29984434797844,9.74091360377359,-0.18195933,-0.04184427,-0.0027488936,0.018936822,218.88101,-98.00972,7.9838815,STD
404403911000,3.42003,1.29505159568733,9.74330975471698,-0.18195933,-0.043676864,-0.0027488936,0.012217305,218.884917728316,-98.0052718944006,7.9790678892105,STD
404408917000,3.425036,1.29026553584906,9.74570255974843,-0.18195933,-0.044593163,-0.011911872,0.016493361,218.88882,-98.00083,7.974261,STD
404413935000,3.430054,1.2854680032345,9.74810110062893,-0.18195933,-0.034513887,-0.008857546,0.018325957,218.88853,-97.99264,7.96513,STD
404418912000,3.435031,1.28075107006876,9.75173000952849,-0.184500286463654,-0.042760566,-0.0036651916,0.020158553,218.89925,-97.98326,7.9563375,STD
404423984000,3.440103,1.27597965333006,9.75650157573674,-0.18927175302554,-0.036651913,-0.0033597588,0.02565634,218.91031,-97.97637,7.9494524,STD
404428887000,3.445006,1.27610206417374,9.76353967788317,-0.193922921588617,-0.03970624,0.010079277,0.021380283,218.91774,-97.96885,7.943176,STD
404433910000,3.450029,1.28090523582626,9.77314632211682,-0.198726148411383,-0.048258353,0.010079277,0.023823744,218.924786834963,-97.9670827780882,7.94190280833167,STD
404438909000,3.455028,1.27892298418846,9.77355087013579,-0.188005815009569,-0.04337143,-0.00030543262,0.02443461,218.9318,-97.965324,7.9406357,STD
404443912000,3.460031,1.27019018910052,9.76481784707919,-0.161807274727057,-0.035124753,0.00061086525,0.022602014,218.93799,-97.96108,7.9373937,STD
404448875000,3.464994,1.26561511097655,9.75802767523834,-0.14734364902757,-0.032986723,0.0030543262,0.022296581,218.93753,-97.960014,7.9365077,STD
404453910000,3.470029,1.2705848544705,9.75554273862407,-0.159768080413811,-0.035430185,0.00030543262,0.020158553,218.93831,-97.958,7.934569,STD
404458879000,3.474998,1.27548945336254,9.75309037516104,-0.172029649342953,-0.043066,-0.00061086525,0.021991149,218.93402,-97.956604,7.9338593,STD
404463929000,3.480048,1.28047400244782,9.75059803555785,-0.184491094923989,-0.044898596,-0.0036651916,0.018936822,218.93115,-97.95329,7.931105,STD
404468843000,3.484962,1.28524689669872,9.74527941072668,-0.189581274126103,-0.03604105,0.005497787,0.02076942,218.92482,-97.95198,7.9302845,STD
404473913000,3.490032,1.29006055685536,9.73565259304055,-0.184767714494894,-0.03573562,-0.0009162979,0.01740966,218.92384,-97.94813,7.9270473,STD
404478887000,3.495006,1.29659187481681,9.7281745237177,-0.178236453239491,-0.03390302,-0.009468411,0.01282817,218.9205,-97.949745,7.9287705,STD
404483921000,3.50004,1.30588798187428,9.72352637311994,-0.168940341328577,-0.040011674,-0.0033597588,0.02443461,218.91489,-97.95475,7.934062,STD
404488808000,3.504927,1.31053069356958,9.7219509375871,-0.162059766005873,-0.03176499,0.005497787,0.02443461,218.91109,-97.95609,7.935354,STD
404493901000,3.51002,1.30567556293052,9.72680616961975,-0.159632198151503,-0.03726278,0.003970624,0.018020526,218.9086,-97.95831,7.9379168,STD
404498824000,3.514943,1.30098249241489,9.73149933814453,-0.15728566044346,-0.03359759,0.0030543262,0.01985312,218.90364,-97.96412,7.9438043,STD
404504036000,3.520155,1.29601391968943,9.73646801463269,-0.154801371486661,-0.032986723,0.0021380284,0.018936822,218.89915,-97.96697,7.9468875,STD
404508882000,3.525001,1.29010956864407,9.74237233050847,-0.150469491610169,-0.024129177,-0.00061086525,0.02076942,218.89558,-97.97119,7.9510865,STD
404513949000,3.530068,1.28107140530825,9.75141016353138,-0.141431370743155,-0.02076942,0.0012217305,0.019242255,218.89102,-97.97394,7.9539094,STD
404518864000,3.534983,1.27674207797423,9.75952270832085,-0.13483199251823,-0.0290161,0.004276057,0.02107485,218.88551,-97.976135,7.9563093,STD
404523912000,3.540031,1.29605835510938,9.76435186584757,-0.139661049195885,-0.032375857,0.003970624,0.02107485,218.88052,-97.97743,7.957635,STD
404528879000,3.544998,1.3134748758226,9.76689069384835,-0.141473684749642,-0.03145956,0.009162978,0.023518313,218.87126,-97.97773,7.95817,STD
404533884000,3.550003,1.32261781983786,9.75774755889366,-0.127759259179781,-0.034208454,0.003970624,0.02443461,218.86519,-97.97737,7.958152,STD
404539553000,3.555672,1.3311762,9.74874574174429,-0.115364975749365,-0.03390302,0.005192355,0.021991149,218.85805,-97.979614,7.9605956,STD
404543861000,3.55998,1.3311762,9.74680513547841,-0.117305746164268,-0.02687807,0.01282817,0.01985312,218.85066,-97.98212,7.963219,STD
404548847000,3.564966,1.3311762,9.74455911346317,-0.119551958162574,-0.03970624,0.017715093,0.021685716,218.83272,-97.99033,7.971558,STD
404553878000,3.569997,1.3311762,9.74229282049111,-0.121818442832345,-0.03940081,-0.00061086525,0.021685716,218.81961,-97.99743,7.978349,STD
404558856000,3.574975,1.3311762,9.74005040220153,-0.124061050800169,-0.027488936,0.004276057,0.028710667,218.79874,-98.00664,7.987367,STD
404563896000,3.580015,1.33305771220125,9.73396834551688,-0.13014303053305,-0.028710667,0.01282817,0.02687807,218.78235,-98.01272,7.993471,STD
404568815000,3.584934,1.33533226578147,9.72714454227222,-0.136966696023852,-0.025045475,0.00580322,0.022907447,218.76936,-98.02014,8.000565,STD
404573873000,3.589992,1.3376710931872,9.72012791352421,-0.143983183125392,-0.023518313,0.013133603,0.026267206,218.75412,-98.02647,8.006707,STD
404578848000,3.594967,1.33997154125827,9.71322642518468,-0.150884532142823,-0.031154128,0.021685716,0.025350908,218.74072,-98.03011,8.010263,STD
404583881000,3.6,1.33444768391925,9.72034000704087,-0.151652579333826,-0.033292156,0.01863139,0.029321533,218.72884,-98.03599,8.015921,STD
404588854000,3.604973,1.32506798398818,9.73440960590842,-0.149307651902511,-0.03359759,0.004581489,0.01985312,218.71786,-98.037384,8.017202,STD
404593865000,3.609984,1.31561661130478,9.74858671427868,-0.146944806264402,-0.03145956,0.008857546,0.02565634,218.70172,-98.04125,8.020021,STD
404598889000,3.615008,1.30614071899557,9.76280060221566,-0.144575830713442,-0.036651913,0.009773844,0.028099801,218.69077,-98.04128,8.019114,STD
404603876000,3.619995,1.30095218421839,9.76983664697399,-0.1436521,-0.028099801,0.0143553335,0.029321533,218.67775,-98.042885,8.019486,STD
404609588000,3.625707,1.2981346368787,9.77265425315478,-0.1436521,-0.03145956,0.007330383,0.025350908,218.66803,-98.04323,8.018949,STD
404613943000,3.630062,1.29598645433943,9.77480248055627,-0.1436521,-0.02687807,0.014049901,0.023823744,218.64888,-98.04331,8.0180645,STD
404618959000,3.635078,1.29351222159155,9.77727676497554,-0.1436521,-0.032375857,0.00580322,0.030543262,218.63635,-98.04424,8.018283,STD
404623877000,3.639996,1.2963430833325,9.77270876617315,-0.148863228626349,-0.023823744,0.013439035,0.027488936,218.62643,-98.03366,8.006449,STD
404628931000,3.64505,1.30120141680301,9.76542111377666,-0.156150733905144,-0.028099801,0.014966198,0.026572637,218.62076,-98.02542,7.9973736,STD
404633883000,3.650002,1.30596169922208,9.75828054102886,-0.163291162504391,-0.02565634,0.01160644,0.022296581,218.60841,-98.01765,7.988141,STD
404638874000,3.654993,1.31075947174906,9.75108373194479,-0.170487826304642,-0.035430185,0.0067195175,0.020158553,218.59625,-98.00997,7.9794374,STD
404643896000,3.660015,1.31372952051529,9.74406830974812,-0.165554834374159,-0.030848695,-0.0015271631,0.022602014,218.5898,-98.000984,7.9691534,STD
404648887000,3.665006,1.31602705025957,9.7371758164776,-0.156364710598923,-0.022907447,-0.0021380284,0.026267206,218.58258,-97.991875,7.9589295,STD
404653874000,3.669993,1.31832273866564,9.73028884714478,-0.14718195218035,-0.018020526,0.0076358155,0.026267206,218.57994,-97.984116,7.9500504,STD
404658868000,3.674987,1.32062164941357,9.72339221092098,-0.137986304387618,-0.027183503,0.004581489,0.022602014,218.58116,-97.97645,7.9413967,STD
404663887000,3.680006,1.32296240260558,9.72591098195762,-0.131349291942382,-0.03726278,-0.0067195175,0.023823744,218.58199,-97.97048,7.9343824,STD
404668881000,3.685,1.32531364095177,9.73531588623961,-0.126646810339708,-0.03023783,-0.0015271631,0.02076942,218.57889,-97.96271,7.9254103,STD
404673870000,3.689989,1.32766252523475,9.74471137431788,-0.121949036868394,-0.03023783,-0.0027488936,0.027488936,218.5798,-97.95797,7.9201174,STD
404679407000,3.695526,1.33026941484686,9.75513887832457,-0.11673525219999,-0.029626964,0.00030543262,0.02321288,218.57793,-97.94967,7.9110956,STD
404683875000,3.699994,1.32891183151335,9.76782342665798,-0.128507900377639,-0.02565634,-0.003970624,0.021380283,218.58006,-97.94223,7.902687,STD
404688874000,3.704993,1.32445881103153,9.78563541558925,-0.155226041867733,-0.028710667,-0.009773844,0.029626964,218.58173,-97.93654,7.896249,STD
404693850000,3.709969,1.3249447919098,9.79372771288695,-0.169037126343586,-0.026572637,-0.00580322,0.021991149,218.58098,-97.9262,7.885041,STD
404698888000,3.715007,1.33448844108397,9.78418436267432,-0.159493472186727,-0.031154128,-0.0027488936,0.02321288,218.58218,-97.92067,7.87895,STD
404703875000,3.719994,1.33557690648794,9.77274379839142,-0.160130371619303,-0.021685716,-0.016493361,0.025045475,218.58887,-97.914154,7.870989,STD
404708865000,3.724984,1.32020267635389,9.75736924718499,-0.18062935583378,-0.02687807,-0.006414085,0.024129177,218.5877,-97.90688,7.862975,STD
404713862000,3.729981,1.31860577158791,9.75357787271304,-0.187147346650034,-0.035124753,-0.009162978,0.025350908,218.59393,-97.90486,7.8604717,STD
404718847000,3.734966,1.33261820129146,9.76291968760395,-0.177805721970453,-0.030543262,-0.0018325958,0.025961773,218.5943,-97.90274,7.8577347,STD
404723836000,3.739955,1.3427292998424,9.76768421962832,-0.176993890426189,-0.02107485,-0.01160644,0.025350908,218.5996,-97.8993,7.853161,STD
404728859000,3.744978,1.34746770275808,9.76610471900446,-0.1880501737917,-0.03268129,-0.013744468,0.027488936,218.60056,-97.89642,7.8497586,STD
404733820000,3.749939,1.35214761851852,9.76454471450617,-0.198969987006173,-0.03390302,-0.014660766,0.025350908,218.60411,-97.89376,7.8460865,STD
404738864000,3.754983,1.35690583159968,9.76295861035592,-0.210072494132519,-0.03573562,-0.01160644,0.018325957,218.60707,-97.890396,7.8420844,STD
404743813000,3.759932,1.36157442726556,9.76140237930129,-0.220965893769372,-0.035124753,-0.00580322,0.020463986,218.60889,-97.8903,7.8415933,STD
404749000000,3.765119,1.36646753814027,9.7597713082808,-0.232383162695692,-0.03390302,-0.0012217305,0.018936822,218.60991,-97.887,7.837968,STD
404753763000,3.769882,1.36799187649925,9.75802022267529,-0.234945605604177,-0.03359759,-0.01038471,0.0143553335,218.61319,-97.88352,7.8341374,STD
404758777000,3.774896,1.36321633446047,9.75563240179015,-0.220618967021382,-0.037873644,-0.0143553335,0.016493361,218.61368,-97.881485,7.8319206,STD
404763744000,3.779863,1.35848555717553,9.75326696374938,-0.206426622817006,-0.035430185,-0.006414085,0.019242255,218.6177,-97.88251,7.832026,STD
404768797000,3.784916,1.35367286991547,9.75086056986574,-0.191988548473396,-0.038179077,-0.0070249503,0.02443461,218.6253,-97.88459,7.833461,STD
404773756000,3.789875,1.34595272612764,9.74627104216171,-0.183418354624119,-0.028405234,-0.013744468,0.01740966,218.63164,-97.88545,7.8332925,STD
404778827000,3.794946,1.33063447795185,9.73605919661445,-0.188524437349385,-0.03481932,-0.013439035,0.022602014,218.63615,-97.89058,7.838079,STD
404783754000,3.799873,1.32856565391696,9.73351901784708,-0.195019260595529,-0.035124753,-0.006414085,0.01863139,218.6379,-97.888435,7.83554,STD
404788793000,3.804912,1.34669734476799,9.7425845792786,-0.204085115487507,-0.036957346,-0.008857546,0.025350908,218.64232,-97.89058,7.83754,STD
404793776000,3.809895,1.36052386295105,9.7507321654344,-0.211615650227457,-0.03726278,-0.005497787,0.01985312,218.64252,-97.88407,7.8303766,STD
404798817000,3.814936,1.3628955264695,9.75666135518656,-0.215173167793471,-0.038179077,-0.010995574,0.024740042,218.64603,-97.88246,7.828194,STD
404803829000,3.819948,1.36525354621847,9.76255643533689,-0.218710219577019,-0.045814894,-0.009773844,0.02076942,218.64903,-97.87977,7.8249984,STD
404808848000,3.824967,1.3676148592911,9.76845974883938,-0.222252211377023,-0.040927973,0.00580322,0.022296581,218.64957,-97.880554,7.82494,STD
404813877000,3.829996,1.36998087711184,9.77437482427354,-0.225801260343396,-0.027794369,-0.0021380284,0.019547688,218.66124,-97.87501,7.818436,STD
404818840000,3.834959,1.3723158435951,9.78021227095871,-0.229303732011741,-0.0290161,0.007330383,0.015882496,218.66338,-97.86959,7.8125215,STD
404823870000,3.839989,1.37468233189064,9.78612852258603,-0.232853486694751,-0.04642576,-0.0009162979,0.021685716,218.68002,-97.86205,7.8049006,STD
404828948000,3.845067,1.37707140297708,9.79210123148535,-0.236437115776326,-0.043066,-0.0125227375,0.02076942,218.69464,-97.85263,7.7947464,STD
404833834000,3.849953,1.38009146644659,9.79562910592888,-0.23838881678422,-0.034513887,0.006414085,0.014660766,218.70253,-97.84333,7.785229,STD
404838850000,3.854969,1.38794174580337,9.78463885909923,-0.230538562018891,-0.04337143,-0.0015271631,0.013744468,218.72127,-97.83514,7.7771306,STD
404843820000,3.859939,1.39572003296509,9.77374940001961,-0.222760299223101,-0.030543262,0.002443461,0.016187929,218.73654,-97.82522,7.765976,STD
404848855000,3.864974,1.40360004822853,9.76271752346712,-0.214880308644267,-0.043066,-0.00061086525,0.019242255,218.7558,-97.814545,7.755191,STD
404853965000,3.870084,1.41159744207086,9.75152131906131,-0.206882939854229,-0.042455133,-0.0012217305,0.02107485,218.77289,-97.8056,7.745276,STD
404858861000,3.87498,1.4192599157014,9.74079399679697,-0.199220490226827,-0.041233405,0.0018325958,0.013744468,218.78944,-97.79494,7.734052,STD
404864564000,3.880683,1.42463103308965,9.72849380058889,-0.192307214407554,-0.033292156,0.005497787,0.01740966,218.80296,-97.786316,7.7235546,STD
404868881000,3.885,1.4120378764037,9.72009824591329,-0.196504908464819,-0.03390302,0.0067195175,0.016187929,218.81598,-97.77449,7.710125,STD
404874005000,3.890124,1.39676963522961,9.7119650740233,-0.200751922488005,-0.03970624,0.0012217305,0.01740966,218.83066,-97.76887,7.7034297,STD
404878890000,3.895009,1.37844689132478,9.72570745481249,-0.19617121977088,-0.04153884,-0.00030543262,0.017715093,218.8436,-97.76309,7.6965094,STD
404884204000,3.900323,1.36002117940598,9.73938383640234,-0.191765289051243,-0.040011674,0.004581489,0.019547688,218.85527,-97.75667,7.689028,STD
404888878000,3.904997,1.36146469461769,9.73649674568674,-0.194652322489277,-0.03970624,0.0009162979,0.018936822,218.8696,-97.74989,7.681264,STD
404893858000,3.909977,1.36300271467638,9.73342064132994,-0.197728365818633,-0.036957346,0.008246681,0.020158553,218.88268,-97.73615,7.666593,STD
404898887000,3.915006,1.36455586786417,9.73031427008288,-0.200834675437776,-0.04184427,0.0143553335,0.02107485,218.89684,-97.72247,7.6522436,STD
404903810000,3.919929,1.36607628407882,9.72727337414944,-0.203875511042278,-0.03940081,0.014966198,0.023823744,218.91019,-97.71057,7.6393375,STD
404908917000,3.925036,1.3676535267374,9.72411882295463,-0.207029999653326,-0.04062254,0.0070249503,0.021991149,218.9248,-97.69782,7.626083,STD
404913892000,3.930011,1.36919000259925,9.72104580705602,-0.210102954585765,-0.039095376,0.0070249503,0.018325957,218.93668,-97.68599,7.6136103,STD
404918944000,3.935063,1.36118512505281,9.72460822412336,-0.214838887473595,-0.041233405,0.015882496,0.019242255,218.95206,-97.6712,7.5982046,STD
404923804000,3.939923,1.35135342923532,9.72952417469371,-0.219754735382341,-0.05009095,0.02107485,0.021685716,218.96811,-97.65626,7.5828366,STD
404928886000,3.945005,1.34169676640236,9.73866898852499,-0.218108291600591,-0.05131268,0.012217305,0.021685716,218.98676,-97.64309,7.568823,STD
404934318000,3.950437,1.33144881218419,9.7489168892391,-0.215546303046048,-0.037873644,0.009162978,0.020463986,219.0019,-97.63103,7.555752,STD
404938904000,3.955023,1.32279691269146,9.7575687435607,-0.213383328172864,-0.03726278,0.0076358155,0.017715093,219.02014,-97.61996,7.5452967,STD
404943823000,3.959942,1.3135167788919,9.76684882890913,-0.211063294722975,-0.03726278,0.006414085,0.018325957,219.03883,-97.61046,7.5358896,STD
404948911000,3.96503,1.31606802112094,9.76429749439528,-0.190462631722714,-0.03268129,0.00580322,0.0143553335,219.05025,-97.60278,7.5273333,STD
404953827000,3.969946,1.3206972786234,9.75966814021632,-0.167316329708948,-0.03726278,0.0027488936,0.0143553335,219.06253,-97.59635,7.520394,STD
404958914000,3.975033,1.32354367216049,9.76071031276428,-0.164749992160488,-0.043676864,-0.0012217305,0.015577064,219.07257,-97.586136,7.5097375,STD
404963900000,3.980019,1.32589149027436,9.76305817990953,-0.167097810274363,-0.03970624,-0.0027488936,0.018020526,219.0826,-97.576904,7.49985,STD
404968882000,3.985001,1.32823742485987,9.76540416348707,-0.169443744859868,-0.03726278,0.01038471,0.017715093,219.08934,-97.56586,7.489031,STD
404973852000,3.989971,1.33057770886026,9.76774449636149,-0.171784028860262,-0.038789943,0.003970624,0.016493361,219.10194,-97.55563,7.4789276,STD
404979006000,3.995125,1.34223270576809,9.76097184222002,-0.187124539235877,-0.04642576,-0.009468411,0.014660766,219.1126,-97.54537,7.468963,STD
404983891000,4.00001,1.35614231964321,9.75169857264618,-0.205670705593657,-0.046120327,0.005192355,0.016798794,219.11679,-97.53652,7.4602737,STD
404988909000,4.005028,1.357572935731,9.74685540883468,-0.208356083294215,-0.04428773,0.009773844,0.018325957,219.1163,-97.53955,7.463935,STD
404993914000,4.010033,1.35441276536674,9.74369533746497,-0.20519590963013,-0.036957346,0.008857546,0.017104227,219.11322,-97.54251,7.4673195,STD
404998903000,4.015022,1.3512626974452,9.74054536822153,-0.202045838419318,-0.03940081,0.003970624,0.0125227375,219.11317,-97.547775,7.4729033,STD
405004422000,4.020541,1.34777798610846,9.73706076604582,-0.198561123443877,-0.03756821,0.007330383,0.016798794,219.11113,-97.555466,7.4805055,STD
405008866000,4.024985,1.34497203264216,9.734254900478,-0.195755167047635,-0.04153884,0.0036651916,0.023518313,219.11255,-97.56207,7.4872894,STD
405014045000,4.030164,1.34170199821329,9.73098496848525,-0.19248512920422,-0.04184427,0.0018325958,0.014049901,219.11247,-97.565346,7.4905033,STD
405019010000,4.035129,1.35035798978321,9.73483843638646,-0.196338636592632,-0.050396383,0.0027488936,0.013133603,219.1128,-97.57223,7.4978533,STD
405023894000,4.040013,1.36390818334219,9.7416134506301,-0.203113749879291,-0.043676864,-0.0070249503,0.015882496,219.11671,-97.577934,7.503335,STD
405028899000,4.045018,1.37779407989474,9.74855631432572,-0.210056715071701,-0.03573562,-0.00580322,0.02107485,219.11423,-97.58444,7.510516,STD
405033921000,4.05004,1.39172714133069,9.75552276017575,-0.217023262763266,-0.043676864,-0.0061086523,0.0125227375,219.11496,-97.58729,7.5142846,STD
405038912000,4.055031,1.38807313561165,9.7638364013171,-0.21519625192277,-0.036651913,-0.01038471,0.01863139,219.11958,-97.59635,7.5239844,STD
405043916000,4.060035,1.36894634171822,9.77340002294951,-0.20563282501796,-0.033292156,0.0015271631,0.0143553335,219.11948,-97.599464,7.528177,STD
405048905000,4.065024,1.35742172674775,9.7729501497083,-0.20359781584693,-0.03940081,0.0027488936,0.018936822,219.12198,-97.61338,7.542239,STD
405053912000,4.070031,1.35268020221497,9.76346690260061,-0.208339345330762,-0.038179077,0.004886922,0.015882496,219.12082,-97.62398,7.5526037,STD
405058913000,4.075032,1.34672938819959,9.75996616233023,-0.211889887266803,-0.03940081,0.008246681,0.021991149,219.1164,-97.63427,7.563286,STD
405063958000,4.080077,1.3395185594846,9.7623698220984,-0.214293496838466,-0.03604105,0.014966198,0.021685716,219.11044,-97.64184,7.5710044,STD
405068889000,4.085008,1.33247067120044,9.76471916725536,-0.216642792933187,-0.03940081,0.00061086525,0.01740966,219.10988,-97.649124,7.5785747,STD
405074161000,4.09028,1.32493539092582,9.767230979802,-0.219154553024725,-0.03634648,-0.002443461,0.018020526,219.10431,-97.65777,7.5872283,STD
405078922000,4.095041,1.3215994,9.76615641683913,-0.22026655,-0.041233405,0.0027488936,0.013744468,219.09195,-97.668785,7.5982823,STD
405083919000,4.100038,1.3215994,9.76165441599247,-0.22026655,-0.047036625,0.0033597588,0.015882496,219.08209,-97.68142,7.6108613,STD
405088891000,4.10501,1.3215994,9.75717493866416,-0.22026655,-0.03970624,0.00030543262,0.015577064,219.07547,-97.688,7.6174216,STD
405093912000,4.110031,1.3215994,9.75265131523989,-0.22026655,-0.042455133,-0.0018325958,0.01863139,219.06859,-97.695244,7.6252646,STD
405098817000,4.114936,1.3215994,9.74866269911504,-0.221845585659059,-0.043066,-0.00030543262,0.016798794,219.06166,-97.70111,7.6313505,STD
405103915000,4.120034,1.3215994,9.74613625663717,-0.229425551562904,-0.045814894,0.002443461,0.015882496,219.05516,-97.70764,7.638283,STD
405108830000,4.124949,1.3215994,9.74370050442478,-0.236733423751488,-0.042455133,0.0036651916,0.014966198,219.05846,-97.70762,7.638832,STD
405113948000,4.130067,1.3215994,9.74116415044248,-0.244343126673394,-0.047036625,0.010079277,0.017104227,219.05942,-97.70782,7.6400146,STD
405118855000,4.134974,1.32322054537747,9.74204468421053,-0.247375823776137,-0.046120327,-0.0030543262,0.022907447,219.06564,-97.709145,7.6418824,STD
405123879000,4.139998,1.3278039074351,9.74891963157895,-0.242792459325554,-0.03268129,-0.0030543262,0.01160644,219.06612,-97.70651,7.6395173,STD
405128867000,4.144986,1.33235442693022,9.75574531578947,-0.238241937454632,-0.032986723,0.0070249503,0.0143553335,219.06888,-97.70982,7.6433425,STD
405133913000,4.150032,1.33695785944272,9.76265036842105,-0.2336385025387,-0.039095376,0.0030543262,0.01038471,219.07552,-97.70836,7.6419773,STD
405138840000,4.154959,1.34223857095763,9.76537187359692,-0.226872215757913,-0.03848451,0.014966198,0.011301007,219.07423,-97.70839,7.641712,STD
