timestamp,rel_time,acc_x,acc_y,acc_z,gyro_x,gyro_y,gyro_z,azimuth,pitch,roll,label
6427177891000,0,0.0745673271557726,9.66881008354983,-2.14487532844227,-0.05222898,-0.079107046,0.01863139,100.97978,-52.99191,10.528758,STD
6427182869000,0.004978,0.0547509101357165,9.67871849173854,-2.09533421864283,-0.043066,-0.08979719,0.013744468,101.30691,-53.8648,10.401821,STD
6427187857000,0.009966,0.0385326749991022,9.68838603880299,-2.02205889314713,-0.042455133,-0.09162979,0.013744468,101.71835,-54.7829,10.258854,STD
6427192891000,0.015,0.0241058496412968,9.69800361506234,-1.93549799523192,-0.040011674,-0.08582657,0.0070249503,102.13246,-55.692493,10.108595,STD
6427197801000,0.01991,0.0355356938208046,9.69857488334379,-1.97131293068721,-0.03848451,-0.07574729,0.015577064,102.7106,-56.69604,9.922129,STD
6427202813000,0.024922,0.0613392714643849,9.69427464931458,-2.07452725922408,-0.052534413,-0.07086037,0.018325957,103.288086,-57.680054,9.726436,STD
6427207928000,0.030037,0.0876126265115483,9.68732964242943,-2.09383492994012,-0.057726767,-0.076052725,0.010995574,104.19173,-58.85922,9.451608,STD
6427212841000,0.03495,0.112768130026091,9.67726723845167,-1.99824398338323,-0.0580322,-0.06811147,0.010079277,105.0785,-60.00686,9.1677475,STD
6427217833000,0.039942,0.128856496958976,9.66603808398619,-1.95584760234184,-0.051923547,-0.05955936,0.018020526,106.495155,-61.49374,8.758117,STD
6427222842000,0.044951,0.13693841360374,9.65391538412939,-1.95988855855446,-0.052839845,-0.065973446,0.007330383,107.87889,-62.92668,8.33033,STD
6427227834000,0.049943,0.14405921730663,9.64303074923266,-1.96568810128913,-0.056199603,-0.07696902,0.015882496,109.28421,-64.33297,7.88213,STD
6427232835000,0.054944,0.146509269834254,9.63813054696133,-1.98038840110497,-0.060170226,-0.076358154,0.019242255,110.6514,-65.68669,7.4192185,STD
6427237793000,0.059902,0.148938256123389,9.63327247800287,-1.99496230362185,-0.06352998,-0.08246681,0.028099801,111.95288,-66.96662,6.95073,STD
6427242864000,0.064973,0.151422602527624,9.62830368661756,-2.0098683664825,-0.061391957,-0.094989546,0.027488936,113.222145,-68.19864,6.4761276,STD
6427247841000,0.06995,0.143432830285459,9.62101752393696,-2.03172680719596,-0.062308256,-0.09682214,0.03145956,114.467384,-69.38759,5.9992394,STD
6427252853000,0.074962,0.105372402743384,9.6067450727525,-2.07454485623947,-0.061391957,-0.09773844,0.03604105,115.68357,-70.53082,5.5214777,STD
6427257854000,0.079963,0.0675883055060411,9.59821752375176,-2.10915413553302,-0.060170226,-0.08460484,0.03145956,116.851135,-71.62203,5.0487275,STD
6427262853000,0.084962,0.0304204996400602,9.60750942015624,-2.11844608045029,-0.065973446,-0.07147124,0.026572637,117.98984,-72.66757,4.577609,STD
6427267973000,0.090082,-0.00764694705604348,9.61702622543549,-2.12796293541657,-0.053450707,-0.073303826,0.027794369,119.082016,-73.67139,4.1103163,STD
6427272814000,0.094923,-0.0436400153091368,9.62602443917706,-2.13696119613761,-0.054061573,-0.07360926,0.032070424,120.14486,-74.629036,3.643735,STD
6427277822000,0.099931,-0.0763617946375984,9.635278631751,-2.14924734547171,-0.06261369,-0.07513642,0.03390302,121.18419,-75.547226,3.1802678,STD
6427282837000,0.104946,-0.074150474039965,9.64412386426631,-2.18462843716562,-0.07513642,-0.08460484,0.034513887,122.20224,-76.42337,2.7221801,STD
6427287812000,0.109921,-0.0719567910941572,9.65289854657212,-2.21972732673235,-0.06719518,-0.08155051,0.026572637,123.16928,-77.25609,2.2606518,STD
6427292811000,0.11492,-0.069752525557254,9.66171555900364,-2.25499553757539,-0.055283304,-0.0852157,0.031154128,124.11959,-78.045876,1.8094112,STD
6427297792000,0.119901,-0.0675561969636724,9.67050082384088,-2.29013675746121,-0.06536258,-0.08857546,0.03359759,125.049965,-78.79172,1.3612549,STD
6427302843000,0.124952,-0.0576274339791054,9.65940062886703,-2.30407964501978,-0.06078109,-0.096516706,0.03848451,125.96884,-79.50695,0.9223253,STD
6427307896000,0.130005,-0.0453565122878588,9.64222124890963,-2.31144221812557,-0.052534413,-0.10903945,0.038789943,126.871796,-80.17808,0.49006695,STD
6427312840000,0.134949,-0.0333502908666193,9.62541245126281,-2.31864597063597,-0.051618114,-0.11301007,0.040011674,127.73148,-80.80485,0.08273411,STD
6427317803000,0.139912,-0.0212979290313419,9.60853905669946,-2.32587740747033,-0.061391957,-0.12370021,0.040011674,128.58102,-81.38815,-0.3171631,STD
6427322823000,0.144932,-0.0268819371230859,9.60167316385448,-2.34262071645372,-0.06352998,-0.129198,0.039095376,129.41524,-81.9294,-0.7099685,STD
6427327774000,0.149883,-0.0361308923520921,9.59704907568517,-2.36111871093339,-0.057726767,-0.13530666,0.036957346,130.2383,-82.42364,-1.095284,STD
6427332832000,0.154941,-0.0676779867763663,9.60697487395372,-2.3544573727031,-0.060170226,-0.13133603,0.038789943,131.02725,-82.85831,-1.465599,STD
6427337794000,0.159903,-0.105113822895126,9.62101310733629,-2.34041894387001,-0.05681047,-0.13194689,0.03023783,131.80727,-83.24655,-1.8315862,STD
6427342908000,0.165017,-0.13663100578108,9.63192758801387,-2.31141335754334,-0.05131268,-0.13072516,0.035430185,132.56497,-83.58579,-2.1830075,STD
6427347856000,0.169965,-0.164795070795443,9.64131579920753,-2.27855515752353,-0.04642576,-0.122478485,0.029932396,133.3102,-83.871635,-2.532429,STD
6427352821000,0.17493,-0.151024563115789,9.65910067438597,-2.21173156919298,-0.055283304,-0.12614368,0.024129177,134.0561,-84.09454,-2.8888924,STD
6427357928000,0.180037,-0.120992876494737,9.68055186631579,-2.13021708465789,-0.057421334,-0.12034045,0.028405234,134.7858,-84.264565,-3.2358532,STD
6427362861000,0.18497,-0.0910754465476008,9.6869724268226,-2.05682687034649,-0.054061573,-0.12308934,0.031154128,135.51317,-84.36871,-3.585922,STD
6427367829000,0.189938,-0.0598736219914745,9.67657161012133,-1.98922286501257,-0.058948494,-0.1160644,0.028099801,136.22559,-84.41671,-3.9274917,STD
6427372874000,0.194983,-0.0276033009700945,9.6841639207023,-1.91399219961412,-0.06169739,-0.11362094,0.02687807,136.96732,-84.40163,-4.275471,STD
6427377873000,0.199982,0.00472558117866101,9.70263745851823,-1.83547920575921,-0.061086524,-0.11301007,0.02687807,137.69669,-84.340996,-4.613471,STD
6427383055000,0.205164,0.0248995031900986,9.71662800528616,-1.76309141561452,-0.06291912,-0.11881329,0.0290161,138.43997,-84.22859,-4.9522934,STD
6427387863000,0.209972,0.0342611552490597,9.72598984649792,-1.70224066965538,-0.069027774,-0.12583824,0.032375857,139.17249,-84.08495,-5.279413,STD
6427392874000,0.214983,0.0410653547950216,9.72727781647683,-1.67456213703849,-0.07360926,-0.12522738,0.03604105,139.93118,-83.902504,-5.609418,STD
6427397837000,0.219946,0.0457324493216811,9.72261062765122,-1.67222859135899,-0.07666359,-0.13225232,0.03756821,140.68237,-83.70218,-5.9264517,STD
6427402865000,0.224974,0.050460668398861,9.71788231304006,-1.66986448342498,-0.07880162,-0.13561209,0.042760566,141.46358,-83.47327,-6.24865,STD
6427407891000,0.23,0.0551870067206402,9.71315587922231,-1.66750131586803,-0.07452556,-0.13897185,0.049480084,142.23384,-83.23826,-6.556399,STD
6427412867000,0.234976,0.0377087967292884,9.70594414734932,-1.67870941834308,-0.08307768,-0.14782938,0.051923547,142.99426,-82.99931,-6.8506355,STD
6427417871000,0.23998,-0.0009304622725257,9.69628464200766,-1.70285893819794,-0.083383106,-0.15057829,0.057421334,143.74196,-82.7637,-7.129312,STD
6427422830000,0.244939,-0.0483160297307167,9.67957800253857,-1.71910879898457,-0.07880162,-0.15118915,0.058948494,144.47513,-82.52729,-7.3974004,STD
6427427883000,0.249992,-0.105013869933607,9.65595392013279,-1.72855843194689,-0.081855945,-0.1441642,0.061391957,145.19635,-82.296814,-7.6515384,STD
6427432866000,0.254975,-0.163404384338452,9.64835702293759,-1.75596284497933,-0.076052725,-0.14263703,0.053145275,145.88623,-82.06873,-7.8972807,STD
6427437856000,0.259965,-0.224562817622563,9.65776571264028,-1.80300781633196,-0.07880162,-0.14202617,0.049785517,146.56563,-81.84877,-8.129894,STD
6427442815000,0.264924,-0.25857377,9.66691974040219,-1.83799407221207,-0.0720821,-0.13927728,0.042455133,147.21825,-81.6285,-8.3593855,STD
6427447874000,0.269983,-0.25857377,9.67600402826607,-1.85843385033516,-0.08399397,-0.1459968,0.03359759,147.86566,-81.413826,-8.5799885,STD
6427452873000,0.274982,-0.25857377,9.684980576009,-1.87863121163924,-0.08399397,-0.14996742,0.030848695,148.47758,-81.2079,-8.78984,STD
6427457844000,0.279953,-0.25857377,9.69390684502883,-1.89871544509445,-0.07880162,-0.14630222,0.017715093,149.08255,-81.00383,-8.995796,STD
6427462792000,0.284901,-0.249961198543499,9.70388882404692,-1.92311271026393,-0.09162979,-0.16187929,0.018020526,149.6784,-99.18322,-9.183193,STD
6427467834000,0.289943,-0.197516047234713,9.71962268980124,-1.97031332179863,-0.086132,-0.16676621,0.0061086523,150.26424,-99.37022,-9.369365,STD
6427472810000,0.294919,-0.144290370876634,9.73312179248992,-2.00618143373636,-0.09254608,-0.17256944,0.01160644,150.83911,-99.53825,-9.535667,STD
6427477862000,0.299971,-0.0872192642437826,9.7426333383466,-2.02044919946918,-0.100792766,-0.18509217,0.0067195175,151.41183,-99.70542,-9.700392,STD
6427482816000,0.304925,-0.0414293346461539,9.75047996556776,-2.02899206139194,-0.10598512,-0.18020524,0.0143553335,151.9702,-99.84879,-9.840742,STD
6427487859000,0.309968,-0.0193158572307692,9.75490275045787,-2.02456936886447,-0.10995574,-0.1740966,0.011301007,152.52701,-99.98955,-9.978201,STD
6427492853000,0.314962,0.00629419094339623,9.75819378930817,-2.02127839874214,-0.11148291,-0.16798794,0.018325957,153.09485,-100.11186,-10.096755,STD
6427498615000,0.320724,0.0678682626171637,9.75259603377967,-2.02687603737066,-0.1142318,-0.16371189,0.015271631,153.65628,-100.23091,-10.211936,STD
6427502874000,0.324983,0.106754915704356,9.74848404140969,-2.03098801748409,-0.13072516,-0.1554652,0.015577064,154.21594,-100.33736,-10.314724,STD
6427507934000,0.330043,0.116242655949094,9.74374057004405,-2.03573188512971,-0.124311075,-0.14630222,0.014966198,154.7689,-100.43845,-10.411774,STD
6427512819000,0.334928,0.123694935293759,9.74041652911481,-2.04307402553747,-0.13194689,-0.12522738,0.026572637,155.33084,-100.52772,-10.497619,STD
6427517869000,0.339978,0.115275949263643,9.74883524701889,-2.07675003998607,-0.13316862,-0.11575896,0.026572637,155.88777,-100.613655,-10.580017,STD
6427522814000,0.344923,0.107032011457916,9.75707892227348,-2.10972586007485,-0.1414153,-0.116675265,0.02687807,156.43208,-100.687195,-10.650665,STD
6427527872000,0.349981,0.0699084546127426,9.73514165227111,-2.12828653275074,-0.1337795,-0.11301007,0.021685716,156.9672,-100.756096,-10.716448,STD
6427532811000,0.35492,0.0266507914917183,9.70630313189716,-2.14270574274972,-0.13255776,-0.09773844,0.015882496,157.49414,-100.81832,-10.77604,STD
6427537869000,0.359978,-0.027048155130884,9.68205427592805,-2.14905494481439,-0.13530666,-0.09773844,0.023518313,158.01346,-100.87431,-10.829526,STD
6427542821000,0.36493,-0.081496313326062,9.65936755874474,-2.15359228825105,-0.13194689,-0.10262536,0.01863139,158.52504,-100.92958,-10.8822565,STD
6427547881000,0.36999,-0.116371161850934,9.6396856841403,-2.12731075314525,-0.11942416,-0.09987647,0.018020526,159.02167,-100.98075,-10.93019,STD
6427552888000,0.374997,-0.143792669277735,9.62140478926801,-2.09074867706824,-0.11148291,-0.09865474,0.022907447,159.51581,-101.02615,-10.972575,STD
6427557946000,0.380055,-0.170090196036321,9.60162505004751,-2.02758317358251,-0.110872045,-0.10476339,0.013133603,159.99341,-101.078545,-11.021881,STD
6427562988000,0.385097,-0.195581831477141,9.58123186094393,-1.95110831517263,-0.10262536,-0.115453534,0.018325957,160.4681,-101.120605,-11.060551,STD
6427568634000,0.390743,-0.183863512218815,9.59405632871699,-1.87845434395093,-0.099571034,-0.121256754,0.018020526,160.9401,-101.169174,-11.106651,STD
6427572810000,0.394919,-0.168038905361559,9.60988084469285,-1.82702435720645,-0.10170906,-0.124311075,0.015577064,161.41028,-101.21186,-11.146979,STD
6427577840000,0.399949,-0.155912383267087,9.62545403299142,-1.81863316416806,-0.111177474,-0.13561209,0.016493361,161.88937,-101.25997,-11.194881,STD
6427582834000,0.404943,-0.146478203041227,9.63960534150311,-1.83042588021501,-0.1001819,-0.13133603,0.0061086523,162.36021,-101.30702,-11.241239,STD
6427587856000,0.409965,-0.136991127932242,9.65383599255351,-1.84228471481408,-0.08155051,-0.14844026,0.015271631,162.8498,-101.34308,-11.278139,STD
6427592858000,0.414967,-0.127541834882631,9.66800997036197,-1.85409632187592,-0.09468412,-0.14660765,0.014660766,163.3276,-101.3787,-11.315187,STD
6427597834000,0.419943,-0.12602956020382,9.67410610057963,-1.85636943139491,-0.10140363,-0.16554448,0.023518313,163.81174,-101.40443,-11.341863,STD
6427602869000,0.424978,-0.128320478027366,9.67639706385405,-1.85407851596351,-0.10140363,-0.15577064,0.018325957,164.28203,-101.42896,-11.367422,STD
6427607940000,0.430049,-0.130627775799601,9.67870440740213,-1.85177122060053,-0.10567969,-0.1518,0.017104227,164.75519,-101.43935,-11.378946,STD
6427612923000,0.435032,-0.132895033697263,9.68097171028126,-1.84950396507032,-0.101098195,-0.15027285,0.015271631,165.22144,-101.44694,-11.387416,STD
6427617869000,0.439978,-0.124388318054833,9.67730841242877,-1.84348021357919,-0.089491755,-0.1518,0.023518313,165.68535,-101.45075,-11.392822,STD
6427622845000,0.444954,-0.10389409094635,9.66706109450597,-1.83323310965488,-0.108123146,-0.15118915,0.01985312,166.14317,-101.45297,-11.397342,STD
6427627878000,0.449987,-0.101659707039807,9.66594388057901,-1.81738682376357,-0.10445796,-0.15699236,0.010995574,166.59872,-101.45169,-11.397511,STD
6427632849000,0.454958,-0.11123073891918,9.6707294924608,-1.79824477599518,-0.10598512,-0.1600467,0.01282817,167.04843,-101.44332,-11.391174,STD
6427638534000,0.460643,-0.0936082533011764,9.67967943352857,-1.83171362461485,-0.106901415,-0.15577064,0.008552114,167.49757,-101.43293,-11.382838,STD
6427642875000,0.464984,-0.0690536924467195,9.68786423871635,-1.87877652152385,-0.10720685,-0.1518,0.008857546,167.94272,-101.4165,-11.368436,STD
6427647829000,0.469938,-0.0410317402529901,9.69720483417827,-1.93248525022395,-0.10476339,-0.1469131,0.0030543262,168.39888,-101.40867,-11.363128,STD
6427652796000,0.474905,-0.0129362544745779,9.70656994069006,-1.98633491826057,-0.10995574,-0.13805555,0.0015271631,168.84712,-101.39486,-11.351877,STD
6427657903000,0.480012,0.00913884622449966,9.71218757575171,-2.02287936364691,-0.10323623,-0.15149458,-0.009162978,169.29486,-101.38138,-11.340588,STD
6427662844000,0.484953,0.0251512714710432,9.71447511113797,-2.04346679995166,-0.09285152,-0.15302174,-0.0106901415,169.73114,-101.36157,-11.322795,STD
6427667827000,0.489936,0.0412998071932708,9.71678209126946,-2.06422923571498,-0.11178834,-0.14172074,-0.011911872,170.15639,-101.32552,-11.288013,STD
6427672852000,0.494961,0.0575844533911824,9.71910851614619,-2.08516667093687,-0.11178834,-0.13622294,-0.009162978,170.57933,-101.286095,-11.249193,STD
6427677832000,0.499941,0.06703765,9.72243859531086,-2.09534122535945,-0.12034045,-0.14782938,-0.010079277,170.99957,-101.24421,-11.208549,STD
6427682832000,0.504941,0.06703765,9.7272364511297,-2.09054341963829,-0.1151481,-0.14477506,-0.016798794,171.40959,-101.20046,-11.165608,STD
6427687828000,0.509937,0.06703765,9.73203046866389,-2.08574945216172,-0.122478485,-0.14355333,-0.016798794,171.8158,-101.14272,-11.108611,STD
6427692836000,0.514945,0.06703765,9.73683600105205,-2.08094396995141,-0.12034045,-0.13164146,-0.027183503,172.2138,-101.0876,-11.053831,STD
6427697785000,0.519894,0.0792414781667512,9.73517515457467,-2.06929149450364,-0.118507855,-0.12644911,-0.02443461,172.61139,-101.027466,-10.994646,STD
6427702833000,0.524942,0.109219543658605,9.7242738194374,-2.04748927954225,-0.1142318,-0.111177474,-0.027794369,172.99846,-100.96959,-10.9374895,STD
6427707889000,0.529998,0.139245117970573,9.71335520801624,-2.02565251273465,-0.13530666,-0.08735373,-0.043982297,173.3779,-100.91121,-10.880332,STD
6427712853000,0.534962,0.168724340851232,9.70263527385986,-2.00421309215852,-0.11362094,-0.09407325,-0.038789943,173.7578,-100.84638,-10.8157215,STD
6427717863000,0.539972,0.14943787138277,9.69671645648855,-2.01990830739368,-0.10842858,-0.09254608,-0.032986723,174.1243,-100.78293,-10.753128,STD
6427722942000,0.545051,0.128388960980515,9.68939469753307,-2.03882234186629,-0.13683382,-0.07391469,-0.028099801,174.49796,-100.70929,-10.681039,STD
6427727990000,0.550099,0.193204464312656,9.65050506435467,-2.02153822087951,-0.14966199,-0.05955936,-0.0290161,174.86816,-100.6341,-10.606908,STD
6427732882000,0.554991,0.256016952882553,9.61281725026815,-2.00478823675366,-0.14263703,-0.043982297,-0.021380283,175.22899,-100.55962,-10.533623,STD
6427737835000,0.559944,0.282807911480668,9.60187278883055,-1.99788827404296,-0.1423316,-0.03268129,-0.01160644,175.5829,-100.48257,-10.458007,STD
6427742894000,0.565003,0.301308744509785,9.5972477278759,-1.99326306820048,-0.129198,-0.029932396,-0.0076358155,175.93091,-100.40374,-10.380109,STD
6427747911000,0.57002,0.319655982957518,9.59266106434368,-1.98867626098329,-0.12675454,-0.0290161,-0.008857546,176.2867,-100.31207,-10.290052,STD
6427752783000,0.574892,0.337472954398091,9.58820696334129,-1.98422202044869,-0.11026118,-0.009468411,0.0070249503,176.63246,-100.213554,-10.192436,STD
6427757818000,0.579927,0.331842992743206,9.59607539545203,-1.94363284473655,-0.103847094,-0.0009162979,0.017104227,176.97731,-100.11564,-10.095512,STD
6427762754000,0.584863,0.310868568126456,9.61180598668885,-1.88070954898503,-0.092240654,0.01282817,0.014966198,177.31134,-100.01605,-9.996372,STD
6427767744000,0.589853,0.289611732015826,9.63008840553907,-1.87309265810089,-0.09010262,0.0143553335,0.024740042,177.6609,-99.90708,-9.887778,STD
6427772848000,0.594957,0.267855043485658,9.64942781998022,-1.88034488172107,-0.08399397,0.0106901415,0.027794369,178.00401,-99.800026,-9.780737,STD
6427777788000,0.599897,0.24679743350544,9.66814582690406,-1.88736407934718,-0.07238753,0.013744468,0.030848695,178.34555,-99.694855,-9.675981,STD
6427782741000,0.60485,0.225684408762117,9.68691309174085,-1.89440174854599,-0.07452556,0.009162978,0.027488936,178.68617,-99.58965,-9.571292,STD
6427787748000,0.609857,0.193508432284753,9.68503933523418,-1.8895181749369,-0.06566802,0.03145956,0.024129177,179.01111,-99.48224,-9.463674,STD
6427792757000,0.614866,0.157632786771992,9.67607024240441,-1.88054926941198,-0.07360926,0.038179077,0.022602014,179.33817,-99.37442,-9.355988,STD
6427797750000,0.619859,0.134286765321042,9.67881868249544,-1.87081054789367,-0.080634214,0.05467244,0.018936822,179.63504,-99.27032,-9.251934,STD
6427802735000,0.624844,0.118934514951227,9.68905372269268,-1.86057572143853,-0.061086524,0.063224554,0.017104227,179.92932,-99.16627,-9.147551,STD
6427807787000,0.629896,0.120197719411217,9.69524624697526,-1.83327898152339,-0.047647487,0.06811147,0.016187929,180.21075,-99.06987,-9.051027,STD
6427812787000,0.634896,0.127234315051678,9.69993716051923,-1.80044153356845,-0.059864793,0.08124508,0.014966198,180.4846,-98.97379,-8.95484,STD
6427817745000,0.639854,0.134211803288758,9.70458867038942,-1.76787992017634,-0.054367006,0.083383106,0.015577064,180.75813,-98.88151,-8.861548,STD
6427822762000,0.644871,0.141272323354396,9.70929553303943,-1.73493082489836,-0.056199603,0.10140363,0.017715093,181.02037,-98.788605,-8.767861,STD
6427827757000,0.649866,0.146774592745843,9.71868822371342,-1.72226395525731,-0.05955936,0.13255776,0.015577064,181.27116,-98.69515,-8.673445,STD
6427832753000,0.654862,0.151496134440223,9.73049206562392,-1.71990318687522,-0.0580322,0.13836098,0.015882496,181.52142,-98.6005,-8.577721,STD
6427837740000,0.659849,0.15620917055509,9.74227464360784,-1.71754667127843,-0.04886922,0.14172074,0.010995574,181.77005,-98.507576,-8.48411,STD
6427842770000,0.664879,0.160962844438743,9.75415881590763,-1.71516983681847,-0.04642576,0.14355333,0.008857546,182.0144,-98.41374,-8.389618,STD
6427847726000,0.669835,0.160037387385326,9.76153438753726,-1.71701672972401,-0.04184427,0.15699236,0.007330383,182.25146,-98.32146,-8.296327,STD
6427852827000,0.674936,0.155339694548514,9.76623217357438,-1.72171441765554,-0.05009095,0.1695151,0.005192355,182.48534,-98.22984,-8.203874,STD
6427857822000,0.679931,0.150718132363725,9.76332134510184,-1.73637907507274,-0.053145275,0.1777618,-0.00061086525,182.72859,-98.14236,-8.115387,STD
6427862774000,0.684883,0.146118291129971,9.75412148011639,-1.75937825722599,-0.055588737,0.1853976,0.0015271631,182.96527,-98.05307,-8.025162,STD
6427868127000,0.690236,0.141129082727273,9.74162005751391,-1.77675524508349,-0.049785517,0.19150625,0.008857546,183.19572,-97.96474,-7.935594,STD
6427872785000,0.694894,0.136773184114833,9.72855255043453,-1.7854670605019,-0.042455133,0.20250183,0.00580322,183.4196,-97.87888,-7.8484144,STD
6427877754000,0.699863,0.132126455861244,9.71461256703447,-1.79476053641734,-0.03481932,0.2180789,0.013744468,183.6341,-97.788536,-7.756072,STD
6427882773000,0.704882,0.127432970430622,9.70053231412948,-1.80414752688214,-0.03970624,0.2144137,0.009773844,183.84837,-97.702675,-7.6682916,STD
6427887804000,0.709913,0.119384555216925,9.69002432101552,-1.8134257867701,-0.043982297,0.20861048,0.013133603,184.05968,-97.61511,-7.577943,STD
6427893212000,0.715321,0.104774856692431,9.68515432421251,-1.82316557697226,-0.04184427,0.22113322,0.016493361,184.26422,-97.529175,-7.488977,STD
6427897760000,0.719869,0.0802105591542975,9.68693889634586,-1.82079297516212,-0.040317107,0.22266038,0.01985312,184.46675,-97.44436,-7.400832,STD
6427902836000,0.724945,0.0151612225836336,9.70695395882656,-1.78576638069995,-0.041233405,0.21930063,0.014660766,184.66487,-97.36158,-7.3145514,STD
6427907913000,0.730022,-0.0461226549966542,9.72272751926202,-1.76062003276933,-0.043066,0.21777347,0.01282817,184.85895,-97.283195,-7.2308054,STD
6427912788000,0.734897,-0.097446593016442,9.72942184819807,-1.75615708467642,-0.047647487,0.22479841,0.008552114,185.04922,-97.20746,-7.1495643,STD
6427917748000,0.739857,-0.149665409955549,9.73623289876685,-1.75161632107829,-0.044898596,0.21502456,0.0012217305,185.23528,-97.1454,-7.082391,STD
6427922834000,0.744943,-0.203210753292706,9.7432169719912,-1.74696020743715,-0.03634648,0.21319197,0.002443461,185.4148,-97.08252,-7.014056,STD
6427927816000,0.749925,-0.251494911112872,9.74976545957083,-1.74086515704143,-0.05131268,0.2134974,-0.00030543262,185.59416,-97.02228,-6.949073,STD
6427932883000,0.754992,-0.271490278599322,9.75437986817332,-1.72394599610764,-0.037873644,0.22418754,-0.008552114,185.76883,-96.96506,-6.885365,STD
6427937843000,0.759952,-0.291063403275223,9.75889683416273,-1.70738411763289,-0.04337143,0.22937989,-0.015271631,185.92545,-96.92661,-6.84213,STD
6427943045000,0.765154,-0.311591507017972,9.76363418437985,-1.69001417976481,-0.051618114,0.21746802,0.0018325958,186.0821,-96.88414,-6.794256,STD
6427947860000,0.769969,-0.330592433492662,9.76801910196837,-1.67393646910837,-0.03359759,0.20647246,-0.01038471,186.24234,-96.85384,-6.7586184,STD
6427952768000,0.774877,-0.349960356055026,9.77248871266918,-1.65754822323053,-0.03145956,0.2049453,-0.003970624,186.40129,-96.8121,-6.7124267,STD
6427957746000,0.779855,-0.369604512231766,9.77702207087388,-1.64092624116454,-0.023823744,0.19272798,-0.0076358155,186.56418,-96.77753,-6.672351,STD
6427963132000,0.785241,-0.368623460924962,9.76330369753729,-1.60352990647474,-0.019547688,0.19883664,-0.008552114,186.72012,-96.74012,-6.6292276,STD
6427967747000,0.789856,-0.363455312152417,9.74860981549291,-1.57094381070425,-0.016493361,0.19211712,-0.009162978,186.88112,-96.70378,-6.5868673,STD
6427972836000,0.794945,-0.357012751506659,9.74055661889025,-1.57577572866585,-0.021380283,0.18784106,-0.009162978,187.03168,-96.6786,-6.5575047,STD
6427977758000,0.799867,-0.350781609141082,9.73276769499983,-1.5804490830001,-0.01282817,0.17501289,-0.011301007,187.18275,-96.65453,-6.5282187,STD
6427982739000,0.804848,-0.344475774089692,9.7248854053009,-1.58517845681946,-0.014049901,0.16615535,-0.01160644,187.33173,-96.62877,-6.4979415,STD
6427987870000,0.809979,-0.337980042379457,9.71676574490234,-1.59005025305859,-0.006414085,0.16554448,-0.01160644,187.409318104948,-96.6149693793104,-6.48113725704148,STD
6427992744000,0.814853,-0.331809666944711,9.70905277963581,-1.59467803221851,-0.00061086525,0.15454891,-0.002443461,187.48302,-96.60186,-6.4651747,STD
6427998012000,0.820121,-0.324738731025427,9.7000832193915,-1.60107211831365,0.005497787,0.1469131,-0.0009162979,187.63412,-96.5775,-6.4348397,STD
6428002796000,0.824905,-0.313515505933075,9.68437085801773,-1.62351857318603,0.0076358155,0.13988814,-0.0009162979,187.711467868852,-96.5643341967213,-6.41878207655738,STD
6428007772000,0.829881,-0.301841850402234,9.66802790020087,-1.64686588912351,0.006414085,0.1282817,0.0009162979,187.79192,-96.55064,-6.40208,STD
6428012776000,0.834885,-0.290102507099113,9.65159298040272,-1.67034458063299,0.0106901415,0.1255328,0.0009162979,187.94667,-96.52107,-6.365273,STD
6428017729000,0.839838,-0.278482809381216,9.63532556278477,-1.69358398092205,0.015271631,0.12156218,0.00061086525,188.10506,-96.49097,-6.3278327,STD
6428022782000,0.844891,-0.299501659250288,9.62991306084198,-1.65154627240484,0.007941248,0.12705997,0.003970624,188.25433,-96.45581,-6.286494,STD
6428027750000,0.849859,-0.322366702572088,9.62533996049596,-1.60581617621107,0.009773844,0.10995574,0.0143553335,188.40955,-96.41963,-6.2432704,STD
6428032845000,0.854954,-0.351019679302981,9.64586452538276,-1.60356140507655,0.012217305,0.106595986,0.021685716,188.5528,-96.37915,-6.1927977,STD
6428037732000,0.859841,-0.379304432258259,9.66943514464142,-1.60827552892828,0.02443461,0.096516706,0.023518313,188.70143,-96.338455,-6.141235,STD
6428042775000,0.864884,-0.349597267910863,9.68512794070832,-1.63819414647831,0.0290161,0.09315695,0.01740966,188.8463,-96.302086,-6.0962086,STD
6428047730000,0.869839,-0.311831196462396,9.69929001293275,-1.67123949103661,0.020463986,0.06780604,0.029932396,188.9989,-96.2601,-6.045581,STD
6428052839000,0.874948,-0.283039572415325,9.70911123875625,-1.66032900777346,0.03359759,0.0693332,0.028405234,189.14221,-96.230644,-6.0061364,STD
6428057847000,0.879956,-0.256409557904868,9.71798808791412,-1.64257563387007,0.039095376,0.06658431,0.026572637,189.29234,-96.196655,-5.9633183,STD
6428062846000,0.884955,-0.245767681070059,9.71722964025816,-1.63440460769806,0.030848695,0.051923547,0.027183503,189.44827,-96.155685,-5.911729,STD
6428067805000,0.889914,-0.241325505257693,9.7127873670377,-1.62996242724722,0.044898596,0.027794369,0.030848695,189.606,-96.11688,-5.8599524,STD
6428072819000,0.894928,-0.249853476616981,9.71349037726415,-1.65674867795283,0.035430185,0.026572637,0.032375857,189.76517,-96.0707,-5.8038263,STD
6428077877000,0.899986,-0.268132525556604,9.71806023254717,-1.70701608400943,0.031154128,0.015577064,0.03145956,189.93208,-96.02606,-5.7477164,STD
6428082837000,0.904946,-0.275414478373847,9.7250849398575,-1.74265368650461,0.032986723,0.008857546,0.03023783,190.097,-95.98032,-5.6906853,STD
6428087813000,0.909922,-0.270421377284158,9.73507135058676,-1.76262609086337,0.032070424,0.0033597588,0.036651913,190.26274,-95.93248,-5.6319017,STD
6428092841000,0.91495,-0.255884098626828,9.73786060737211,-1.76820448793594,0.032070424,0.00030543262,0.032375857,190.41103,-95.8869,-5.5732846,STD
6428097836000,0.919945,-0.233724541896632,9.73469489266098,-1.76187319073523,0.0290161,0.00030543262,0.03023783,190.55847,-95.83921,-5.5125465,STD
6428102891000,0.925,-0.211298804304811,9.7314911513467,-1.75546584191648,0.03023783,0.016798794,0.032375857,190.70073,-95.79195,-5.4503355,STD
6428107847000,0.929956,-0.18931226513467,9.7283501539276,-1.74918397826749,0.02107485,0.018325957,0.032375857,190.84567,-95.74515,-5.3897996,STD
6428112833000,0.934942,-0.167192635533717,9.72519014320694,-1.74286408880948,0.017104227,0.018020526,0.037873644,190.97762,-95.694176,-5.324191,STD
6428117829000,0.939938,-0.145028642455827,9.72202379471908,-1.73653152408179,0.019242255,0.018325957,0.035124753,191.10759,-95.64593,-5.261446,STD
6428122810000,0.944919,-0.127143130656037,9.7320126075305,-1.74495563165882,0.028405234,0.021380283,0.03634648,191.2357,-95.59635,-5.1965203,STD
6428127872000,0.949981,-0.113173926349054,9.75529459850159,-1.76823767125156,0.015271631,0.01985312,0.035430185,191.36374,-95.546745,-5.133574,STD
6428132852000,0.954961,-0.107399242602603,9.77039740550551,-1.7833404626026,0.009468411,0.02321288,0.03145956,191.50087,-95.486664,-5.059915,STD
6428137860000,0.959969,-0.112200104904905,9.77519836806807,-1.7881413249049,0.003970624,0.036651913,0.028099801,191.63414,-95.42631,-4.986957,STD
6428142890000,0.964999,-0.115963940615438,9.77792,-1.79920097621697,0.005497787,0.028710667,0.03848451,191.77586,-95.36511,-4.909938,STD
6428147826000,0.969935,-0.118312000130638,9.77792,-1.81798543272402,0.0015271631,0.03573562,0.022296581,191.90768,-95.31156,-4.841869,STD
6428152870000,0.974979,-0.120711435340254,9.77792,-1.83718089435724,-0.00030543262,0.03634648,0.02443461,192.04181,-95.25299,-4.767184,STD
6428157897000,0.980006,-0.123102783635009,9.77792,-1.85631166073912,-0.008552114,0.018936822,0.028710667,192.17755,-95.19785,-4.697292,STD
6428162810000,0.984919,-0.122620702722679,9.77228652640444,-1.87311065594967,-0.005192355,0.016493361,0.026572637,192.30782,-95.14506,-4.6288676,STD
6428167878000,0.989987,-0.117811897305063,9.75785982393738,-1.88753705713861,-0.01038471,0.023823744,0.025961773,192.43883,-95.08969,-4.559485,STD
6428172843000,0.994952,-0.109236770349238,9.74350412388833,-1.89194402065579,-0.0076358155,0.020158553,0.02687807,192.5632,-95.03898,-4.4886336,STD
6428177903000,1.000012,-0.0942468574608306,9.72851429943546,-1.88070159361998,-0.010079277,0.018325957,0.018020526,192.68365,-94.990746,-4.421401,STD
6428182810000,1.004919,-0.0797101968791277,9.71397772461527,-1.86979910558348,-0.018020526,0.02076942,0.025961773,192.80324,-94.93899,-4.348735,STD
6428187873000,1.009982,-0.0634377948841601,9.71652925359554,-1.87500683387144,-0.018936822,0.019242255,0.02565634,192.92313,-94.893295,-4.2817125,STD
6428192909000,1.015018,-0.0469226989888465,9.72360729468741,-1.88444404954505,-0.008857546,0.018325957,0.030543262,193.04117,-94.845985,-4.2116365,STD
6428197829000,1.019938,-0.0307880143572058,9.73052229909011,-1.89366388693866,-0.021380283,0.023518313,0.035124753,193.15643,-94.79606,-4.1395564,STD
6428202775000,1.024884,-0.0145680651319832,9.737473846199,-1.90293244705019,-0.028099801,0.028099801,0.033292156,193.27098,-94.75006,-4.068735,STD
6428207819000,1.029928,-0.00457514901166527,9.74128007883941,-1.90245014636943,-0.031154128,0.022296581,0.03359759,193.38602,-94.70248,-3.9969006,STD
6428212776000,1.034885,0.00246437928139983,9.74362639053927,-1.89775710643567,-0.027183503,0.029932396,0.036651913,193.4948,-94.656105,-3.9254196,STD
6428218164000,1.040273,0.0101159787252237,9.74617670876378,-1.89265601723593,-0.02321288,0.03390302,0.03604105,193.60997,-94.607254,-3.8488815,STD
6428222842000,1.044951,0.0167592939067767,9.74839096055558,-1.8882271205625,-0.03604105,0.03604105,0.034208454,193.72246,-94.55754,-3.7727332,STD
6428227798000,1.049907,0.010502741378453,9.74342193646409,-1.86356192320442,-0.03145956,0.04337143,0.042455133,193.8286,-94.51289,-3.6946437,STD
6428232781000,1.05489,-0.00267991864392265,9.73463377817679,-1.82840818883978,-0.035430185,0.04550946,0.050396383,193.93463,-94.46696,-3.618191,STD
6428237779000,1.059888,-0.0174317033038812,9.7334023349015,-1.80777224548662,-0.038179077,0.044898596,0.043982297,194.04507,-94.42595,-3.5444965,STD
6428242758000,1.064867,-0.0337886789195335,9.74041236479467,-1.80309882715868,-0.043676864,0.045814894,0.049480084,194.15369,-94.38095,-3.4661064,STD
6428247736000,1.069845,-0.0501423693422523,9.7474209867686,-1.79842634745663,-0.03359759,0.03176499,0.046731193,194.26358,-94.342606,-3.3969135,STD
6428252837000,1.074946,-0.0669001384957855,9.75460278280898,-1.79363841676958,-0.040927973,0.032375857,0.043066,194.36795,-94.3007,-3.3271296,STD
6428257762000,1.079871,-0.0812972100548599,9.76251218246869,-1.78805323870006,-0.043676864,0.022296581,0.052534413,194.47281,-94.26584,-3.255475,STD
6428262755000,1.084864,-0.0931777999846949,9.7720165976446,-1.7809248652902,-0.043982297,0.014966198,0.050701816,194.57545,-94.23487,-3.1889465,STD
6428267710000,1.089819,-0.104967970844365,9.78144867799642,-1.77385074347048,-0.046731193,0.005192355,0.048563786,194.6762,-94.206,-3.1273239,STD
6428272756000,1.094865,-0.116974671582588,9.79105398121646,-1.76664670336911,-0.05100725,-0.0009162979,0.052839845,194.77696,-94.177055,-3.0652003,STD
6428277704000,1.099813,-0.129526172747404,9.79623512345679,-1.76883598107976,-0.0571159,-0.005497787,0.04337143,194.88332,-94.15447,-3.0107248,STD
6428282747000,1.104856,-0.143722479631589,9.79386927160494,-1.78776440178816,-0.06383542,-0.004276057,0.048563786,194.98874,-94.128075,-2.9514437,STD
6428288064000,1.110173,-0.15869011074466,9.79137487654321,-1.80772125542818,-0.06688975,-0.005192355,0.052534413,195.09819,-94.114075,-2.9052062,STD
6428292745000,1.114854,-0.1718673688301,9.78917885185185,-1.82529094357731,-0.0580322,-0.0027488936,0.04886922,195.2047,-94.10227,-2.8598707,STD
6428297725000,1.119834,-0.186973269941828,9.78122957834491,-1.84250735299306,-0.061391957,-0.007941248,0.05009095,195.30139,-94.08745,-2.8092673,STD
6428302794000,1.124903,-0.205192382174892,9.7584556999437,-1.85617168003378,-0.077579886,-0.003970624,0.04642576,195.39342,-94.07415,-2.7614107,STD
6428307775000,1.129884,-0.222463483593082,9.73741602205597,-1.86820961068791,-0.07269296,-0.0033597588,0.04184427,195.48274,-94.07181,-2.7183514,STD
6428312746000,1.134855,-0.236340175958026,9.72353904955305,-1.87283517158958,-0.065973446,-0.0009162979,0.04153884,195.56932,-94.06694,-2.6754143,STD
6428317729000,1.139838,-0.24685873733267,9.71002671193436,-1.87833704102934,-0.07422013,0.0021380284,0.035124753,195.64996,-94.06925,-2.6396198,STD
6428322741000,1.14485,-0.222990536600696,9.70047948746892,-1.89265797741919,-0.07147124,0.017715093,0.03604105,195.7254,-94.0743,-2.6018193,STD
6428327810000,1.149919,-0.198850889850821,9.69082368523123,-1.90714178160119,-0.065973446,0.01985312,0.032986723,195.80055,-94.08239,-2.5700018,STD
6428332733000,1.154842,-0.17540652588364,9.68144599448036,-1.92120841564893,-0.06505715,0.021380283,0.026267206,195.87048,-94.09066,-2.53895,STD
6428337752000,1.159861,-0.150478023958342,9.67291886768498,-1.9334834184884,-0.080634214,0.017104227,0.027488936,195.95132,-94.09455,-2.510117,STD
6428342740000,1.164849,-0.112573549992065,9.67765702241619,-1.91926925114065,-0.0720821,0.022602014,0.029626964,196.02776,-94.10507,-2.4827538,STD
6428347848000,1.169957,-0.0730360212035414,9.68280260330653,-1.90448334922757,-0.06841691,0.02321288,0.024129177,196.11224,-94.11025,-2.447702,STD
6428352719000,1.174828,-0.0266781856941006,9.69123103071641,-1.88762592233264,-0.06383542,0.018936822,0.029626964,196.19576,-94.11563,-2.409116,STD
6428357857000,1.179966,0.0222207177851658,9.70012145568705,-1.86984446895835,-0.0571159,0.016798794,0.030543262,196.28679,-94.11203,-2.3661802,STD
6428362735000,1.184844,0.086140718742166,9.69247292941176,-1.84981260546454,-0.06536258,0.009468411,0.029932396,196.37952,-94.10596,-2.3226483,STD
6428368013000,1.190122,0.153568462089721,9.6824915588263,-1.83052830694066,-0.05589417,0.0125227375,0.035124753,196.46892,-94.10519,-2.2774327,STD
6428372745000,1.194854,0.157830426250353,9.68675360754256,-1.847576145782,-0.060170226,0.008246681,0.03390302,196.56668,-94.09105,-2.2239108,STD
6428377690000,1.199799,0.162284232838333,9.69120750249224,-1.86539135353146,-0.053450707,0.009468411,0.03604105,196.66438,-94.072334,-2.154998,STD
6428382740000,1.204849,0.150839841302282,9.6997059970191,-1.86348867654401,-0.055283304,0.002443461,0.034513887,196.76451,-94.05291,-2.088633,STD
6428387713000,1.209822,0.137530444128551,9.70857864434094,-1.85905221390778,-0.058948494,0.014660766,0.03359759,196.85777,-94.03577,-2.0220392,STD
6428392738000,1.214847,0.1133169033512,9.70742237819272,-1.86136023018576,-0.052839845,0.010995574,0.03573562,196.95741,-94.023705,-1.9548581,STD
6428397687000,1.219796,0.0858039668180147,9.70283703584559,-1.86594571617647,-0.067500606,0.023823744,0.03634648,197.04782,-94.00743,-1.888814,STD
6428402789000,1.224898,0.057440458595685,9.69810993609714,-1.87067296400929,-0.059253927,0.028099801,0.03573562,197.13785,-93.99636,-1.8249412,STD
6428407854000,1.229963,0.0292826441805341,9.69341711755031,-1.87536592956656,-0.057726767,0.03023783,0.03359759,197.22394,-93.981575,-1.762122,STD
6428412812000,1.234921,0.0286747585469724,9.70125000602346,-1.87388038713939,-0.05955936,0.03481932,0.03604105,197.30737,-93.96904,-1.6990184,STD
6428417848000,1.239957,0.0439644536804396,9.71653947870654,-1.86878382528796,-0.05497787,0.04184427,0.035430185,197.3886,-93.96064,-1.6382595,STD
6428422787000,1.244896,0.0443679103574879,9.73100721256039,-1.84286446135266,-0.05131268,0.047036625,0.04184427,197.45967,-93.94697,-1.58289,STD
6428427825000,1.249934,0.0395120384180757,9.74557461795491,-1.80887337552335,-0.0571159,0.04184427,0.035430185,197.53084,-93.93478,-1.532263,STD
6428432824000,1.254933,0.052213859518931,9.74571263474387,-1.79000969665924,-0.05497787,0.050396383,0.043676864,197.59839,-93.922806,-1.4735246,STD
6428437826000,1.259935,0.0707684009592331,9.74107439014234,-1.7760937519512,-0.050701816,0.05467244,0.03573562,197.66759,-93.91363,-1.4222904,STD
6428442840000,1.264949,0.0832206048005618,9.71979448896469,-1.79813382389647,-0.0421497,0.06414085,0.034513887,197.72522,-93.90083,-1.3665097,STD
6428447826000,1.269935,0.0928012528202247,9.69105245987159,-1.83645644598716,-0.036651913,0.07086037,0.029626964,197.78174,-93.89083,-1.3149908,STD
6428452950000,1.275059,0.0894137016795478,9.66944334834584,-1.86420959750718,-0.035430185,0.06811147,0.03268129,197.83716,-93.86949,-1.2549255,STD
6428457963000,1.280072,0.0805158194693726,9.65164768612733,-1.88645429141877,-0.032070424,0.06963864,0.033292156,197.88895,-93.85249,-1.1979026,STD
6428462976000,1.285085,0.0625866097175565,9.64945595795608,-1.91023556361744,-0.025350908,0.07727446,0.033292156,197.9466,-93.84144,-1.1400952,STD
6428467878000,1.289987,0.0381587259972942,9.65922679841815,-1.93466348100739,-0.021380283,0.09132435,0.021685716,198.00139,-93.83287,-1.0863459,STD
6428472864000,1.294973,0.0230129787436565,9.66013922161119,-1.93551564393632,-0.025045475,0.095294975,0.025350908,198.05008,-93.824,-1.0269251,STD
6428477880000,1.299989,0.0137438496739026,9.65550456343464,-1.92161195976845,-0.02076942,0.09010262,0.01863139,198.09682,-93.82129,-0.9747689,STD
6428482866000,1.304975,0.00827973003526086,9.653421,-1.91406432398334,-0.023823744,0.0842994,0.021991149,198.14014,-93.81821,-0.92319715,STD
6428487856000,1.309965,0.00590975052077961,9.653421,-1.91169434620115,-0.008552114,0.09743301,0.017104227,198.17912,-93.82333,-0.8765754,STD
6428492867000,1.314976,0.00352979714461416,9.653421,-1.90931439456457,-0.005497787,0.0983493,0.01740966,198.2216,-93.822784,-0.83089507,STD
6428497844000,1.319953,0.00116599192546122,9.653421,-1.9069505910732,-0.0009162979,0.08735373,0.012217305,198.26344,-93.82826,-0.7890185,STD
6428502862000,1.324971,0.00242088526484367,9.65826280503501,-1.90275848923217,-0.0015271631,0.07666359,0.009162978,198.30487,-93.83358,-0.7472617,STD
6428507985000,1.330094,0.00725982214029983,9.66794074775619,-1.89670980976921,-0.01282817,0.07819075,0.004276057,198.34566,-93.8381,-0.7082454,STD
6428512944000,1.335053,0.0119438525844511,9.67730887540684,-1.89085476361328,-0.004886922,0.0720821,0.013439035,198.39093,-93.84716,-0.668122,STD
6428517875000,1.339984,0.0166014355891114,9.68662410780156,-1.88503277680245,-0.0021380284,0.071776666,0.019242255,198.43372,-93.85255,-0.6308438,STD
6428522842000,1.344951,0.0212930224445458,9.69600734838248,-1.87916828511934,-0.006414085,0.073303826,0.025045475,198.471,-93.85728,-0.5885745,STD
6428527881000,1.34999,0.0260526170015287,9.70552660533583,-1.87321878369169,-0.003970624,0.06505715,0.020463986,198.51094,-93.86544,-0.5486167,STD
6428532849000,1.354958,0.0307451484083736,9.71491173503304,-1.86735311131768,0.0015271631,0.07360926,0.02076942,198.54575,-93.87338,-0.50608426,STD
6428537856000,1.359965,0.0354745173202239,9.72437054026531,-1.86144139199872,-0.01160644,0.062002823,0.021685716,198.58844,-93.87741,-0.46599212,STD
6428543604000,1.365713,0.0408791923131106,9.73260801768269,-1.8553285360297,-0.01160644,0.056505036,0.024129177,198.6359,-93.88641,-0.42946407,STD
6428547871000,1.36998,0.0448713989304416,9.73660030558812,-1.85133633149668,-0.020463986,0.056505036,0.01863139,198.68462,-93.88986,-0.39562982,STD
6428552794000,1.374903,0.0489586032882227,9.73746381456103,-1.84778641486081,-0.011301007,0.054061573,0.017104227,198.73741,-93.89422,-0.3575738,STD
6428557905000,1.380014,0.0521835791273925,9.73101373424477,-1.8461739284566,-0.008857546,0.048563786,0.02076942,198.79066,-93.89489,-0.32025978,STD
6428562762000,1.384871,0.0552482842048427,9.72488420184484,-1.84464157735793,-0.021685716,0.06291912,0.021380283,198.84511,-93.88678,-0.2840918,STD
6428567875000,1.389984,0.0584745220185142,9.71843159752924,-1.84302845996706,-0.025045475,0.048563786,0.022602014,198.90886,-93.88283,-0.2478956,STD
6428572780000,1.394889,0.0615695144840059,9.71224148914512,-1.8414809651886,-0.025961773,0.056505036,0.014966198,198.95726,-93.882965,-0.21403897,STD
6428577881000,1.39999,0.0647881804506671,9.70580402882556,-1.83987163371767,-0.019242255,0.06505715,0.019547688,199.00934,-93.88486,-0.1771523,STD
6428582793000,1.404902,0.0631591292763079,9.69871940258569,-1.83098986476248,-0.036957346,0.06169739,0.025961773,199.06195,-93.88031,-0.14250775,STD
6428587861000,1.40997,0.0485664469988976,9.6889912602726,-1.80180452357186,-0.025961773,0.065973446,0.02687807,199.10951,-93.88655,-0.10836017,STD
6428592872000,1.414981,0.0314680002065496,9.68078412704675,-1.78538963316236,-0.0290161,0.07147124,0.022602014,199.15842,-93.88404,-0.072778255,STD
6428597838000,1.419947,0.00801247516768594,9.67609292740186,-1.79946293819294,-0.03390302,0.06811147,0.019242255,199.20824,-93.884834,-0.037377354,STD
6428602886000,1.424995,-0.0107972599029774,9.67298182584702,-1.81042331735113,-0.03756821,0.0693332,0.01985312,199.25487,-93.8844,-0.008061332,STD
6428607892000,1.430001,-0.0154117517702772,9.67452002085472,-1.81196148023614,-0.033292156,0.06719518,0.022907447,199.30292,-93.88547,0.020449586,STD
6428613704000,1.435813,-0.0207692081691478,9.67630587570585,-1.81374729779261,-0.035430185,0.062308256,0.023518313,199.34477,-93.885826,0.045435276,STD
6428617872000,1.439981,-0.0246112381537474,9.67758657822125,-1.81502797356263,-0.042455133,0.06169739,0.021991149,199.38571,-93.88646,0.0703151,STD
6428622837000,1.444946,-0.0291879365399127,9.67911217514759,-1.81655353862936,-0.03481932,0.06383542,0.02076942,199.42345,-93.897095,0.0945324,STD
6428627876000,1.449985,-0.0338328475505647,9.68066051007444,-1.81810184122177,-0.030848695,0.048563786,0.023823744,199.46608,-93.905,0.118806936,STD
6428633188000,1.455297,-0.0379098923133436,9.68334398659299,-1.81681195507745,-0.036651913,0.03970624,0.02321288,199.50586,-93.912445,0.14148921,STD
6428637862000,1.459971,-0.0338549964062868,9.69550849605942,-1.78842766213425,-0.025350908,0.043066,0.018936822,199.54613,-93.92608,0.16360629,STD
6428642893000,1.465002,-0.0294903876539542,9.7086021304466,-1.75787537762478,-0.025961773,0.029321533,0.01985312,199.59538,-93.938805,0.18078172,STD
6428647863000,1.469972,-0.0366415264899112,9.71879326674738,-1.73277784616626,-0.025961773,0.027794369,0.025961773,199.63974,-93.95488,0.1984165,STD
6428652832000,1.474941,-0.046243453248184,9.72839538801453,-1.70877304430993,-0.02565634,0.023518313,0.027488936,199.68823,-93.970764,0.21459478,STD
6428657954000,1.480063,-0.0277790434241918,9.73405707900167,-1.69662960994399,-0.023823744,0.006414085,0.03390302,199.74019,-93.981964,0.23355125,STD
6428662771000,1.48488,-0.00511446819141201,9.7385900856834,-1.6875637859094,-0.029626964,-0.0143553335,0.030848695,199.7937,-93.99105,0.249949,STD
6428667869000,1.489978,0.00377370791600354,9.74338658694371,-1.67985744226348,-0.020158553,-0.015882496,0.03634648,199.84758,-94.00316,0.26600778,STD
6428672795000,1.494904,0.00840828412997347,9.74802101458886,-1.67290558302387,-0.028405234,-0.015882496,0.03573562,199.90602,-94.00856,0.2791176,STD
6428677870000,1.499979,0.0131830454547598,9.75279562285097,-1.66574344627174,-0.026572637,-0.03145956,0.035430185,199.97166,-94.018906,0.29777026,STD
6428682949000,1.505058,0.0179615701382258,9.75757399435112,-1.65857566448571,-0.035124753,-0.026572637,0.036651913,200.03072,-94.02421,0.3170214,STD
6428687856000,1.509965,0.0338143544731364,9.77709191315319,-1.66411796526128,-0.046120327,-0.03604105,0.028710667,200.09164,-94.03277,0.33431146,STD
6428692803000,1.514912,0.0537392674183577,9.80199803743034,-1.67408041497214,-0.03756821,-0.035430185,0.043066,200.14807,-94.04525,0.3584891,STD
6428697837000,1.519946,0.0690284366105016,9.79893851586991,-1.66822947429467,-0.038789943,-0.03726278,0.042760566,200.2054,-94.05308,0.37697363,STD
6428702815000,1.524924,0.0830390195611285,9.78959842633229,-1.65888909216301,-0.04734206,-0.03940081,0.036651913,200.26213,-94.061646,0.39770544,STD
6428707894000,1.530003,0.10063215921634,9.78027640525614,-1.66039782197677,-0.05222898,-0.039095376,0.034208454,200.32085,-94.072975,0.42294624,STD
6428712808000,1.534917,0.118556528690726,9.77131404037326,-1.66487891083603,-0.048563786,-0.03390302,0.03481932,200.37799,-94.084465,0.44714284,STD
6428717863000,1.539972,0.118160816843732,9.75883662758354,-1.6758709047711,-0.04886922,-0.034208454,0.03604105,200.43741,-94.09288,0.47298476,STD
6428722875000,1.544984,0.108889241286459,9.74492946513425,-1.68977826084605,-0.04795292,-0.02443461,0.032986723,200.4917,-94.10286,0.49781093,STD
6428727871000,1.54998,0.117448515371358,9.73658702954452,-1.69812070726303,-0.054061573,-0.017715093,0.032375857,200.53506,-94.11584,0.532496,STD
6428732868000,1.554977,0.137085484835864,9.73167768721789,-1.70302994706606,-0.05009095,-0.015882496,0.026267206,200.57648,-94.1318,0.5642425,STD
6428737859000,1.559968,0.137404312104539,9.72378824798585,-1.71560522310867,-0.046731193,-0.009773844,0.026572637,200.61844,-94.14135,0.5963418,STD
6428742885000,1.564994,0.127946064525447,9.71433005472588,-1.7321571477304,-0.055588737,-0.0076358155,0.02443461,200.66042,-94.14854,0.62545544,STD
6428747863000,1.569972,0.118578146409904,9.70496219041069,-1.74855099587345,-0.060170226,-0.0143553335,0.02443461,200.70682,-94.163315,0.65644497,STD
6428753153000,1.575262,0.108623086781293,9.69500718795441,-1.76597234112792,-0.0571159,-0.006414085,0.025045475,200.74796,-94.17789,0.68684226,STD
6428757940000,1.580049,0.102432525588735,9.69464110626186,-1.77753392950165,-0.058948494,-0.011911872,0.01985312,200.79431,-94.189735,0.71469283,STD
6428762881000,1.58499,0.0977067642928193,9.69936646489564,-1.78698548564866,-0.050396383,-0.00580322,0.015271631,200.83469,-94.20559,0.7428055,STD
6428767864000,1.589973,0.0929111629379352,9.69559137925119,-1.79371979986881,-0.05497787,-0.00580322,0.01985312,200.87708,-94.22194,0.76858836,STD
6428772829000,1.594938,0.0881126129470179,9.68599458391361,-1.79851834785548,-0.05131268,-0.004886922,0.018020526,200.91685,-94.242355,0.7910454,STD
6428777814000,1.599923,0.0847753610516502,9.68498370741453,-1.79052839878644,-0.05131268,-0.0143553335,0.023823744,200.95403,-94.2615,0.8185756,STD
6428782858000,1.604967,0.0823923799720783,9.68974951729071,-1.7738475167974,-0.052534413,0.0015271631,0.024129177,200.98325,-94.28083,0.8441326,STD
6428787800000,1.609909,0.0800575876455034,9.69441895274037,-1.75750395637117,-0.052534413,-0.005497787,0.023823744,201.01851,-94.298546,0.87177485,STD
6428792840000,1.614949,0.0776764963209511,9.69918098322727,-1.7408363026787,-0.05131268,-0.00061086525,0.02107485,201.04562,-94.31611,0.8988461,STD
6428797833000,1.619942,0.0727479536131784,9.70001627518753,-1.74371267326077,-0.048563786,-0.017104227,0.01985312,201.08069,-94.33415,0.92515594,STD
6428802896000,1.625005,0.065616408455263,9.69763929386674,-1.76273013727509,-0.04795292,-0.03023783,0.019547688,201.11316,-94.351776,0.9506241,STD
6428807874000,1.629983,0.0586045909960288,9.69530221841447,-1.78142832725401,-0.05955936,-0.022602014,0.027488936,201.13583,-94.35966,0.9802225,STD
6428812880000,1.634989,0.0515533338242879,9.69295199749963,-1.80023168985635,-0.062002823,-0.027488936,0.029932396,201.16553,-94.3701,1.0070932,STD
6428817864000,1.639973,0.0458469058291309,9.69376595493562,-1.79983085319206,-0.063224554,-0.028710667,0.023518313,201.18863,-94.373474,1.0368451,STD
6428822848000,1.644957,0.0415791307826359,9.69803337124463,-1.77849194453684,-0.052534413,-0.027183503,0.029626964,201.21254,-94.38098,1.0701163,STD
6428827836000,1.649945,0.0394219420593956,9.70186236879114,-1.76770597733393,-0.053450707,-0.026572637,0.020158553,201.22894,-94.38994,1.097803,STD
6428832866000,1.654975,0.0442265836607321,9.70426473813086,-1.79172919412029,-0.057726767,-0.03023783,0.02443461,201.2466,-94.40247,1.1303469,STD
6428837822000,1.659931,0.0489605406738979,9.7066317644624,-1.81539898783662,-0.059864793,-0.038179077,0.02443461,201.2619,-94.40857,1.1583892,STD
6428842861000,1.66497,0.0537737790494714,9.70903843227608,-1.83946518850987,-0.05955936,-0.040927973,0.01985312,201.27682,-94.414444,1.1856611,STD
6428847852000,1.669961,0.0600545588333333,9.71036324583333,-1.86153170875,-0.051618114,-0.03145956,0.01985312,201.29059,-94.42251,1.2136599,STD
6428852898000,1.675007,0.0716265351666667,9.70804880416667,-1.87773248625,-0.05497787,-0.02565634,0.016187929,201.30595,-94.4272,1.238553,STD
6428857850000,1.679959,0.0829829415881226,9.70577747734674,-1.89363146567529,-0.056199603,-0.03756821,0.015271631,201.33458,-94.43999,1.2635028,STD
6428862968000,1.685077,0.0947200353007663,9.70343001154215,-1.91006340765805,-0.04734206,-0.03023783,0.01740966,201.35588,-94.45467,1.2883068,STD
6428868679000,1.690788,0.107331753708622,9.70329191416474,-1.92295132732871,-0.0571159,-0.034208454,0.014049901,201.38351,-94.4635,1.3103333,STD
6428872867000,1.694976,0.115050702773287,9.71101102040031,-1.91523238229407,-0.045814894,-0.030848695,0.0143553335,201.40692,-94.48102,1.3338538,STD
6428878198000,1.700307,0.125968810375398,9.72009141246958,-1.904681858519,-0.040011674,-0.021380283,0.013133603,201.44339,-94.49642,1.3578721,STD
6428882869000,1.704978,0.159470598050927,9.7117157961056,-1.8795554904325,-0.04520403,-0.026267206,0.011301007,201.48268,-94.5119,1.3811938,STD
6428887820000,1.709929,0.194980628190414,9.70283810896836,-1.85292293885976,-0.050396383,-0.030543262,0.010995574,201.52216,-94.530266,1.4035872,STD
6428892909000,1.715018,0.209287154770688,9.70539219060579,-1.84423659474851,-0.055588737,-0.025961773,0.017104227,201.56023,-94.54759,1.4270748,STD
6428897798000,1.719907,0.218725920952525,9.71011166979135,-1.83951721412156,-0.051923547,-0.036651913,0.01740966,201.60336,-94.565384,1.4481115,STD
6428902894000,1.725003,0.216320515449142,9.71482811695907,-1.83480086544914,-0.048563786,-0.01863139,0.020158553,201.64038,-94.58117,1.4787394,STD
6428907821000,1.72993,0.211796990034513,9.71935173684211,-1.83027734003451,-0.05222898,-0.022602014,0.02321288,201.68636,-94.5963,1.5083703,STD
6428912852000,1.734961,0.199512588028885,9.72418479587063,-1.8403472541904,-0.052534413,-0.024740042,0.025350908,201.72733,-94.613464,1.5401232,STD
6428917776000,1.739885,0.185124000958096,9.72898108838487,-1.85473583124491,-0.054367006,-0.018936822,0.02443461,201.76682,-94.629395,1.5713965,STD
6428922852000,1.744961,0.17441316673113,9.72248968307844,-1.86167357966453,-0.052839845,-0.018325957,0.020158553,201.8082,-94.64167,1.601676,STD
6428927782000,1.749891,0.165096215838185,9.71317254247657,-1.86633205267884,-0.059253927,-0.017104227,0.015271631,201.84735,-94.65149,1.6310809,STD
6428932843000,1.754952,0.126875190569256,9.69291674841602,-1.8710703503168,-0.055283304,-0.011911872,0.01740966,201.88376,-94.66599,1.6583573,STD
6428937811000,1.75992,0.0804987628706502,9.66972855151574,-1.87570798969685,-0.051923547,-0.013439035,0.0143553335,201.92116,-94.67783,1.6822056,STD
6428942849000,1.764958,0.0652899611514844,9.66824117056585,-1.86831566488201,-0.048563786,-0.008552114,0.02107485,201.95427,-94.692245,1.7076018,STD
6428947830000,1.769939,0.0628691496513575,9.67550374914996,-1.8562116200203,-0.054061573,-0.005497787,0.018936822,201.98778,-94.70406,1.7291547,STD
6428952860000,1.774969,0.0604245237036285,9.68283777249429,-1.84398850304491,-0.054061573,-0.008857546,0.02107485,202.02322,-94.71161,1.7431656,STD
6428957847000,1.779956,0.0580007961486932,9.69010909941639,-1.83186987792438,-0.043676864,-0.008857546,0.017715093,202.05632,-94.719894,1.754997,STD
6428962851000,1.78496,0.0832593346075524,9.70278533550811,-1.84759758240411,-0.047647487,0.0015271631,0.025045475,202.08733,-94.72599,1.7704992,STD
6428967880000,1.789989,0.116585979709371,9.71706797390273,-1.87140231115065,-0.042760566,0.013133603,0.026572637,202.11742,-94.73636,1.783301,STD
6428973523000,1.795632,0.118168491224484,9.72467908349428,-1.88549411276185,-0.052839845,0.009773844,0.02107485,202.14668,-94.737656,1.7944397,STD
6428977903000,1.800012,0.111936665053038,9.72883371727827,-1.89380322849502,-0.04550946,0.013133603,0.024129177,202.17068,-94.74615,1.808638,STD
6428982864000,1.804973,0.10487819709949,9.73353945659387,-1.9032145351508,-0.045814894,0.021685716,0.023823744,202.19907,-94.75543,1.8268224,STD
6428987855000,1.809964,0.0977770454050414,9.73827365230525,-1.91268275355816,-0.050396383,0.027794369,0.02107485,202.22693,-94.76568,1.8448794,STD
6428992856000,1.814965,0.0722468884876332,9.72953229230619,-1.9220817314498,-0.046731193,0.020158553,0.020463986,202.2561,-94.77831,1.8629991,STD
6428997839000,1.819948,0.0395898760668687,9.71553614673966,-1.93141230030306,-0.034513887,0.020463986,0.01863139,202.28098,-94.79163,1.8799616,STD
6429002945000,1.825054,0.0132725359429053,9.70160740527892,-1.94688129846499,-0.042760566,0.022602014,0.014660766,202.3062,-94.8017,1.893339,STD
6429007915000,1.830024,-0.00900223464676151,9.68824273848746,-1.96470110228379,-0.039095376,0.027183503,0.018325957,202.33055,-94.81867,1.9082191,STD
6429012870000,1.834979,-0.0204724226485103,9.68610836838333,-1.95435887671752,-0.042455133,0.02076942,0.008246681,202.36443,-94.828705,1.905084,STD
6429017857000,1.839966,-0.0229173664143545,9.69344309296611,-1.92012965991092,-0.03634648,0.02076942,0.01282817,202.39517,-94.84421,1.9076074,STD
6429022834000,1.844943,-0.0253574075458175,9.70076310985973,-1.88596907999386,-0.042455133,0.017104227,0.008246681,202.42569,-94.85443,1.9008001,STD
6429027879000,1.849988,-0.027830786591072,9.70818313903962,-1.85134176922801,-0.038179077,0.018020526,0.006414085,202.45465,-94.86972,1.896497,STD
6429032864000,1.854973,-0.00778323340640809,9.6989122499752,-1.82378463435175,-0.040317107,0.021991149,0.0061086523,202.48332,-94.881355,1.8916409,STD
6429037860000,1.859969,0.0254396695210793,9.67992784644381,-1.80005400604107,-0.046120327,0.014966198,0.005192355,202.51439,-94.89281,1.8862044,STD
6429042798000,1.864907,0.0524798813562981,9.68958223270254,-1.77952475473093,-0.05100725,0.015271631,0.0061086523,202.52739,-94.899124,1.8822807,STD
6429047869000,1.869978,0.0764124588590578,9.71830140587424,-1.76037865594323,-0.05589417,0.021380283,0.0033597588,202.5404,-94.90344,1.8772058,STD
6429052911000,1.87502,0.0945823847320287,9.72164470587078,-1.74975856036975,-0.052839845,0.01160644,0.008246681,202.56113,-94.90936,1.8802623,STD
6429057886000,1.879995,0.108638224981807,9.70758858186646,-1.74507328354804,-0.046120327,0.016493361,0.007330383,202.5755,-94.91414,1.8813798,STD
6429062871000,1.88498,0.112289632936492,9.69604107077444,-1.73508265880948,-0.053145275,0.022296581,0.012217305,202.5943,-94.91617,1.8892444,STD
6429067866000,1.889975,0.107527925192116,9.68651795361338,-1.72079753557635,-0.0571159,0.022907447,0.01160644,202.61281,-94.92019,1.8951925,STD
6429072855000,1.894964,0.0879506649022303,9.68463693780042,-1.72170305771967,-0.05589417,0.021685716,0.015577064,202.62874,-94.92825,1.9069421,STD
6429077876000,1.899985,0.0555918823880023,9.68925971390117,-1.73557109640454,-0.055588737,0.032375857,0.02443461,202.64107,-94.93558,1.9199761,STD
6429082867000,1.904976,0.0317188329410071,9.6961211220578,-1.74737105964843,-0.05955936,0.03573562,0.024740042,202.65431,-94.939316,1.9301479,STD
6429087838000,1.909947,0.017534810911014,9.70557683394577,-1.75682706775251,-0.06352998,0.026572637,0.02107485,202.66812,-94.943756,1.9413573,STD
6429092930000,1.915039,0.00885757052450677,9.71519743071906,-1.75637851240176,-0.06627888,0.023518313,0.021685716,202.66527,-94.95463,1.949706,STD
6429097836000,1.919945,0.0073254063261699,9.72439044118702,-1.74412120777434,-0.058337633,0.02443461,0.020158553,202.66388,-94.96645,1.9560423,STD
6429102943000,1.925052,0.00573046899210827,9.73396009150497,-1.73136171842818,-0.051618114,0.029626964,0.027488936,202.66794,-94.97743,1.9587213,STD
6429107904000,1.930013,0.00418112806509049,9.7432561626284,-1.71896700007174,-0.059253927,0.022296581,0.026572637,202.67506,-94.98546,1.9583386,STD
6429112817000,1.934926,0.00264677773764879,9.75246228990706,-1.70669220642426,-0.06261369,0.026572637,0.019547688,202.67741,-94.99629,1.9586223,STD
6429117871000,1.93998,0.00106839252395239,9.76193262722974,-1.69406513394424,-0.050701816,0.027488936,0.019242255,202.68292,-95.00963,1.9602752,STD
6429122823000,1.944932,-0.0042080046895628,9.76694030345355,-1.68621933362671,-0.04886922,0.03970624,0.015577064,202.67555,-95.02103,1.9624578,STD
6429127873000,1.949982,-0.0180880985382187,9.76231351210179,-1.6885326809911,-0.049480084,0.028099801,0.008857546,202.6748,-95.034195,1.9630097,STD
6429132827000,1.954936,-0.0317043331770783,9.75777467559552,-1.69080205185114,-0.06261369,0.03390302,0.020158553,202.663,-95.03951,1.9663565,STD
6429137846000,1.959955,-0.0454992224892375,9.75317628632928,-1.69310119846934,-0.06627888,0.035124753,0.018325957,202.65549,-95.04479,1.9636163,STD
6429142842000,1.964951,-0.0580772165448731,9.74888083769738,-1.69478661195283,-0.067500606,0.032986723,0.01863139,202.65005,-95.047165,1.9640895,STD
6429147869000,1.969978,-0.0628885905993404,9.74647535338797,-1.69238092668399,-0.062002823,0.040927973,0.017715093,202.64145,-95.050026,1.9638423,STD
6429152867000,1.974976,-0.0676722085671597,9.74408374595243,-1.68998911944833,-0.05375614,0.035430185,0.013133603,202.63405,-95.051186,1.9569896,STD
6429157883000,1.979992,-0.0724730544508295,9.74168352528483,-1.68758869826104,-0.04917465,0.039095376,0.015577064,202.62207,-95.05349,1.952281,STD
6429162825000,1.984934,-0.0777743073034659,9.74077281636471,-1.68319828854864,-0.05681047,0.03268129,0.010995574,202.61438,-95.05344,1.9439528,STD
6429167866000,1.989975,-0.0872813325112249,9.7502795387948,-1.66418419842458,-0.05497787,0.033292156,0.0067195175,202.60384,-95.05732,1.9366916,STD
6429172836000,1.994945,-0.0945814827539543,9.75916153514939,-1.64602411933216,-0.054061573,0.03268129,0.0106901415,202.59422,-95.057884,1.9285374,STD
6429177885000,1.999994,-0.0818345706022847,9.76341059253076,-1.63327721339192,-0.05681047,0.02687807,0.0033597588,202.58566,-95.0563,1.9159722,STD
6429182768000,2.004877,-0.0695067488481547,9.76751995026362,-1.62094939764499,-0.05497787,0.017104227,0.007941248,202.58673,-95.04703,1.9035335,STD
6429187808000,2.009917,-0.0596902143293984,9.76466920889602,-1.6111328712343,-0.052839845,0.016187929,0.003970624,202.58641,-95.03585,1.8869803,STD
6429192859000,2.014968,-0.0505538535287563,9.76010093738785,-1.60199651901974,-0.048563786,0.016798794,0.01038471,202.58858,-95.02777,1.8748492,STD
6429197823000,2.019932,-0.0494341691898464,9.75411565706065,-1.61172780334586,-0.03848451,0.019547688,0.011301007,202.59106,-95.02029,1.8627199,STD
6429202896000,2.025005,-0.0516887121841385,9.74735212789457,-1.62976415577521,-0.040011674,0.014660766,0.013439035,202.59555,-95.01204,1.8528564,STD
6429207832000,2.029941,-0.0538823696294028,9.74077125267994,-1.64731342358346,-0.034208454,0.024740042,0.01160644,202.59009,-95.00958,1.8466315,STD
6429212800000,2.034909,-0.0560902485167757,9.73414771376862,-1.66497646298204,-0.036651913,0.027488936,0.01282817,202.58821,-95.005295,1.8416789,STD
6429217814000,2.039923,-0.0547946039755734,9.72559227638602,-1.67149746710583,-0.044898596,0.028099801,0.004276057,202.5838,-94.99994,1.8336518,STD
6429222876000,2.044985,-0.0478016056565851,9.71393728730105,-1.65984245368082,-0.032986723,0.033292156,0.007330383,202.57762,-95.00082,1.8294935,STD
6429228002000,2.050111,-0.0407201932932635,9.70213494157811,-1.64804008331009,-0.03940081,0.044898596,0.02107485,202.5711,-95.000374,1.8261825,STD
6429232861000,2.05497,-0.0340076332711449,9.69094734932923,-1.63685246769726,-0.034513887,0.04184427,0.013133603,202.56691,-95.00414,1.8174176,STD
6429237847000,2.059956,-0.0298187783783626,9.68432864697856,-1.62588038483431,-0.025350908,0.040317107,0.013439035,202.5596,-95.00961,1.8151717,STD
6429242924000,2.065033,-0.0345577110429825,9.69380620847953,-1.61640252643275,-0.02687807,0.036651913,0.016493361,202.55376,-95.01295,1.8113365,STD
6429247889000,2.069998,-0.0348581576490645,9.70302956947478,-1.60459216635008,-0.025350908,0.032375857,0.009773844,202.5522,-95.01534,1.8059713,STD
6429252887000,2.074996,-0.016674140121664,9.71212176170576,-1.58186216046158,-0.024129177,0.019242255,0.01740966,202.55466,-95.01907,1.8052853,STD
6429257856000,2.079965,0.000661888541092211,9.7214518182632,-1.56068855597135,-0.013133603,0.008857546,0.014660766,202.55594,-95.02215,1.7985986,STD
6429262873000,2.084982,0.00926472483813787,9.73435588361683,-1.55638714096688,-0.011911872,0.014966198,0.025045475,202.55667,-95.02515,1.7979896,STD
6429267768000,2.089877,0.0176583632025067,9.74694615666965,-1.55219032485228,-0.020158553,-0.006414085,0.024740042,202.56891,-95.02517,1.7957475,STD
6429272851000,2.09496,0.011207614438008,9.74720266750406,-1.563361690631,-0.010995574,-0.01985312,0.023823744,202.57732,-95.03122,1.7965692,STD
6429277775000,2.099884,0.0019162105331757,9.7448800122654,-1.57729878630117,-0.013744468,-0.025350908,0.028405234,202.58951,-95.03255,1.7985715,STD
6429282863000,2.104972,-0.00768465524013595,9.74247999807891,-1.59170007443476,-0.022296581,-0.028405234,0.026267206,202.60417,-95.02945,1.8026781,STD
6429287786000,2.109895,-0.0169741721823556,9.74015781454116,-1.60563433966307,-0.024740042,-0.025961773,0.030848695,202.61888,-95.02871,1.8099064,STD
6429292942000,2.115051,-0.067902728964942,9.7414183706531,-1.61612558591085,-0.02107485,-0.031154128,0.032070424,202.63783,-95.02648,1.814654,STD
6429298467000,2.120576,-0.135220614538875,9.74391141560645,-1.62609859882198,-0.020463986,-0.029626964,0.02321288,202.65378,-95.02264,1.8179377,STD
6429302874000,2.124983,-0.188916527973141,9.745899985581,-1.63405354323815,-0.01985312,-0.014966198,0.02321288,202.66655,-95.02372,1.8213137,STD
6429307920000,2.130029,-0.250398166091886,9.74817689143342,-1.64316192751861,-0.02321288,-0.018020526,0.019547688,202.6834,-95.02286,1.820795,STD
6429312877000,2.134986,-0.288834856739316,9.74085852777778,-1.64165697452991,-0.022602014,-0.021380283,0.018936822,202.69603,-95.02372,1.8214992,STD
6429317875000,2.139984,-0.309289929982906,9.72551744444445,-1.63142944324786,-0.02687807,-0.027488936,0.01282817,202.70988,-95.02166,1.8194976,STD
6429322855000,2.144964,-0.301559066140446,9.70887862221013,-1.6454277876066,-0.01985312,-0.018020526,0.015271631,202.69092,-95.02207,1.801637,STD
6429327872000,2.149981,-0.279763191676647,9.69144202095808,-1.67158287155689,-0.028710667,-0.021991149,0.014660766,202.67738,-95.01632,1.7810731,STD
6429332916000,2.155025,-0.258952983185823,9.68445144982279,-1.6924162054076,-0.016493361,-0.026267206,0.0061086523,202.66177,-95.01406,1.7543151,STD
6429337852000,2.159961,-0.239805182007089,9.68923849508861,-1.7067770412962,-0.01740966,-0.040011674,0.013744468,202.6504,-95.007744,1.7321539,STD
6429342879000,2.164988,-0.220584712607627,9.68478487487714,-1.71887772007077,-0.024129177,-0.037873644,0.013744468,202.64024,-95.00805,1.711197,STD
6429347872000,2.169981,-0.20178502719481,9.67068482740318,-1.72827755541577,-0.021685716,-0.043066,0.004886922,202.63602,-95.010506,1.6898143,STD
6429352872000,2.174981,-0.180737216987427,9.66515782635383,-1.72260309375309,-0.014049901,-0.04734206,0.014660766,202.6345,-95.01795,1.6779655,STD
6429357979000,2.180088,-0.156527362397782,9.6699998953569,-1.69839325433125,-0.02443461,-0.052534413,0.008857546,202.63406,-95.01882,1.6593965,STD
6429362834000,2.184943,-0.127337684016924,9.68277150333499,-1.687557300667,-0.023823744,-0.056505036,0.008552114,202.63786,-95.02922,1.6492198,STD
6429368388000,2.190497,-0.0849766431707317,9.70924713658537,-1.69285242731707,-0.015271631,-0.064446285,0.010079277,202.64404,-95.038536,1.6379923,STD
6429372811000,2.19492,-0.0536080724076224,9.71854045028052,-1.69125778069259,-0.016493361,-0.061086524,0.011911872,202.64642,-95.043785,1.6329768,STD
6429377881000,2.19999,-0.0207312214209712,9.71384366270072,-1.68186440170246,-0.0076358155,-0.070249505,0.0125227375,202.65454,-95.05402,1.6277097,STD
6429382761000,2.20487,0.00147019667800784,9.71235222630667,-1.69064315603393,-0.015577064,-0.07849618,0.0070249503,202.66603,-95.06218,1.6284869,STD
6429387857000,2.209966,0.0059218438979294,9.71680396323999,-1.73515959569461,-0.005497787,-0.0888809,0.020158553,202.6811,-95.07921,1.6344784,STD
6429392830000,2.214939,0.00798604895305263,9.71966360494737,-1.77489072207368,-0.002443461,-0.08399397,0.012217305,202.69693,-95.090935,1.6391991,STD
6429397837000,2.219946,-0.00210891370989474,9.71461602189474,-1.79508068534737,-0.010079277,-0.082161374,0.017104227,202.71701,-95.10471,1.650868,STD
6429402863000,2.224972,-0.00834355754997078,9.710882,-1.81124974854861,0.0033597588,-0.082161374,0.014049901,202.74126,-95.125885,1.6606377,STD
6429407901000,2.23001,-0.00364377636294565,9.710882,-1.81594952630041,-0.0021380284,-0.08246681,0.01282817,202.76501,-95.14031,1.672201,STD
6429412856000,2.234965,0.000978576908533021,9.710882,-1.82057187619326,-0.00030543262,-0.07544186,0.007941248,202.7863,-95.16152,1.6804402,STD
6429417869000,2.239978,0.00565503643424898,9.710882,-1.8252483323008,-0.008246681,-0.07086037,0.0106901415,202.80829,-95.1789,1.6903644,STD
6429422841000,2.24495,0.0124205506520226,9.71194842540235,-1.82561541918225,-0.013439035,-0.06841691,0.00580322,202.82835,-95.196045,1.6967704,STD
6429427874000,2.249983,0.0310566988299261,9.71893712208206,-1.80232022575033,-0.015271631,-0.06811147,0.00580322,202.836545247198,-95.2044543209568,1.7008971376301,STD
6429432833000,2.254942,0.0494188404580252,9.72582306423083,-1.77936754062636,-0.013439035,-0.057421334,0.0036651916,202.84462,-95.21274,1.7049632,STD
6429437855000,2.259964,0.0680142579325794,9.73279648658837,-1.75612326059156,-0.023823744,-0.061086524,0.007941248,202.86511,-95.22696,1.7158076,STD
6429442984000,2.265093,0.0881462831881227,9.73971588728267,-1.7336077917562,-0.018325957,-0.06719518,0.008246681,202.88287,-95.244675,1.7249575,STD
6429447868000,2.269977,0.131547797964446,9.741999984958,-1.7381763687439,-0.026267206,-0.07452556,0.012217305,202.9021,-95.25655,1.7360753,STD
6429453058000,2.275167,0.177668572266068,9.74442718949014,-1.74303118335612,-0.025961773,-0.087659165,0.016493361,202.9262,-95.26797,1.7532465,STD
6429457910000,2.280019,0.22078572003321,9.74669632174253,-1.74756982699746,-0.023518313,-0.096516706,0.014049901,202.95093,-95.27764,1.769212,STD
6429463294000,2.285403,0.268003180513113,9.74913986431015,-1.75240818061574,-0.027794369,-0.09560041,0.02321288,202.98671,-95.28745,1.7832983,STD
6429467867000,2.289976,0.255518933966173,9.74497879931585,-1.73992394275941,-0.025350908,-0.096516706,0.022907447,203.02475,-95.298676,1.7937068,STD
6429472850000,2.294959,0.241915391315089,9.74044466704675,-1.72632040957811,-0.021380283,-0.09773844,0.029626964,203.07968,-95.31797,1.8232151,STD
6429477874000,2.299983,0.210237100240964,9.73596504170528,-1.7493604128823,-0.035124753,-0.09987647,0.02687807,203.13425,-95.33236,1.8495333,STD
6429482765000,2.304874,0.175508525277108,9.73162388257646,-1.77974793750695,-0.028405234,-0.10354166,0.03023783,203.18933,-95.35469,1.8790435,STD
6429487856000,2.309965,0.151672114723267,9.72208343144553,-1.80835855081984,-0.028710667,-0.101098195,0.032986723,203.24503,-95.370094,1.9003866,STD
6429492937000,2.315046,0.134540119444321,9.70984630218288,-1.83528023519767,-0.024740042,-0.096516706,0.029626964,203.30035,-95.38828,1.9207551,STD
6429497827000,2.319936,0.118052133434866,9.69806917915703,-1.86118990585454,-0.032986723,-0.10323623,0.029626964,203.3546,-95.40532,1.9362941,STD
6429502858000,2.324967,0.101088726969923,9.68595247037521,-1.88784666517453,-0.027488936,-0.092240654,0.033292156,203.40186,-95.42704,1.9524679,STD
6429507905000,2.330014,0.0893172025349515,9.6724755107767,-1.93168745321359,-0.026267206,-0.08674286,0.028099801,203.45241,-95.44472,1.9652445,STD
6429512874000,2.334983,0.0800769803902913,9.65861489533981,-1.98250869671845,-0.02565634,-0.07422013,0.02107485,203.49725,-95.4638,1.9789513,STD
6429517864000,2.339973,0.0645898673410938,9.65041510657301,-2.01658332272955,-0.011301007,-0.067500606,0.02443461,203.54056,-95.49221,1.989325,STD
6429522892000,2.345001,0.0452613437730055,9.64558338273959,-2.04074396016056,-0.023823744,-0.058948494,0.02076942,203.57892,-95.51187,1.9961619,STD
6429527861000,2.34997,0.0458793405104839,9.65293140344293,-2.04792217834159,-0.01160644,-0.057421334,0.022602014,203.62572,-95.548416,2.0013516,STD
6429532869000,2.354978,0.0578797026815293,9.66733162763349,-2.04552210756143,-0.0009162979,-0.05100725,0.022602014,203.66805,-95.58024,2.0055454,STD
6429537851000,2.35996,0.0698177626528049,9.68165709027673,-2.04313449721263,-0.014049901,-0.047647487,0.0106901415,203.7089,-95.6092,2.0041647,STD
6429542960000,2.365069,0.0820601449075715,9.69634773432418,-2.04068602244908,-0.008552114,-0.04886922,0.019242255,203.74934,-95.64747,2.008913,STD
6429547867000,2.369976,0.11032902365238,9.71337412441849,-2.02175649143819,-0.009162978,-0.0421497,0.018325957,203.79434,-95.676834,2.003368,STD
6429552868000,2.374977,0.148253295102445,9.73233664129467,-1.99331331012571,-0.004581489,-0.03726278,0.022296581,203.84003,-95.70997,2.0020046,STD
6429557887000,2.379996,0.159836315019004,9.73070460832167,-1.98833780376075,-0.0036651916,-0.029321533,0.020463986,203.8801,-95.74195,2.006045,STD
6429562867000,2.384976,0.15506610959792,9.71639370814163,-1.99787820464093,-0.004581489,-0.022907447,0.018325957,203.9189,-95.77445,2.0113888,STD
6429567859000,2.389968,0.13728375489773,9.71233158875375,-1.98560744156778,-0.005192355,-0.011301007,0.01985312,203.95256,-95.806335,2.026084,STD
6429572880000,2.394989,0.111239309950268,9.71469931326013,-1.95956299118125,0.00030543262,-0.0125227375,0.020158553,203.98764,-95.83867,2.0395784,STD
6429577872000,2.399981,0.0853452909943375,9.71705336240091,-1.93366896681767,0.0030543262,-0.01282817,0.010079277,204.01448,-95.87462,2.0501506,STD
6429582867000,2.404976,0.0594357107289379,9.71940882623467,-1.90775938114137,-0.00061086525,0.005192355,0.020158553,204.03682,-95.91154,2.0669072,STD
6429587883000,2.409992,0.0346888373306985,9.71518081543326,-1.87509540263808,0.00030543262,0.00061086525,0.02107485,204.07172,-95.94007,2.077606,STD
6429592941000,2.41505,0.0107586492212232,9.70560854668511,-1.83680712725027,-0.0027488936,0.014660766,0.008857546,204.09586,-95.965744,2.0882971,STD
6429597836000,2.419945,0.0122514689449434,9.70375534332292,-1.80979213139399,-0.010079277,0.02321288,0.009773844,204.11343,-95.979515,2.091852,STD
6429602889000,2.424998,0.0358709548582585,9.70847933600156,-1.7908965552909,-0.00580322,0.03176499,0.007941248,204.1264,-95.99388,2.0916362,STD
6429607876000,2.429985,0.0489493951396879,9.7130127689971,-1.78341682449947,-0.008246681,0.022296581,0.0012217305,204.13678,-95.99666,2.085002,STD
6429612877000,2.434986,0.0511537315325632,9.71742153016984,-1.78782549360243,-0.005192355,0.02565634,0.0067195175,204.14124,-96.0031,2.0820556,STD
6429617846000,2.439955,0.0533439629935104,9.72180208091315,-1.7922059528651,-0.011911872,0.017715093,0.01160644,204.15349,-96.00747,2.0787935,STD
6429623326000,2.445435,0.0557594325861831,9.72663311695126,-1.79703688801491,-0.0076358155,0.023823744,0.009468411,204.16057,-96.01543,2.0756888,STD
6429627837000,2.449946,0.0541038816791519,9.72877713710247,-1.8016985585159,-0.0143553335,0.020463986,0.009773844,204.17264,-96.019394,2.0742633,STD
6429632872000,2.454981,0.0281403100271244,9.71904077045263,-1.81143489127713,-0.010995574,0.016493361,0.006414085,204.1828,-96.02664,2.0714114,STD
6429637802000,2.459911,0.00271818326555612,9.70950744620562,-1.82096818234225,-0.008246681,0.01282817,0.004581489,204.18823,-96.03306,2.0744298,STD
6429642904000,2.465013,-0.0235908817927646,9.6996415191654,-1.83083407504291,-0.005192355,0.0143553335,0.01282817,204.19344,-96.041115,2.0793037,STD
6429647812000,2.469921,-0.0488995629582366,9.69015073713613,-1.84032482403836,0.0015271631,0.015271631,0.01160644,204.1995,-96.04976,2.0807717,STD
6429652863000,2.474972,-0.0749456404983342,9.68038343069157,-1.85009209648662,0.00580322,0.014660766,0.01282817,204.20581,-96.059555,2.0851543,STD
6429657989000,2.480098,-0.096741765131483,9.66868022231567,-1.85984789900944,-0.002443461,0.014049901,0.01740966,204.21254,-96.0679,2.08966,STD
6429662881000,2.48499,-0.101119840439585,9.6511680417718,-1.86860403499673,0.004581489,0.0018325958,0.01863139,204.22266,-96.08115,2.0931065,STD
6429667974000,2.490083,-0.103221773578069,9.63497567938022,-1.8784695067938,0.013744468,0.01160644,0.013439035,204.21895,-96.08958,2.0842142,STD
6429672873000,2.494982,-0.0752618317473182,9.6442953602503,-1.8971095011025,0.0015271631,0.009162978,0.0106901415,204.22226,-96.094406,2.0758502,STD
6429678047000,2.500156,-0.0464324465316112,9.65378390370891,-1.91463560395015,0.006414085,0.0125227375,0.010079277,204.21909,-96.10589,2.0686893,STD
6429682868000,2.504977,-0.0278698641891647,9.65842464318022,-1.90535427037893,0.006414085,0.011301007,0.008246681,204.21779,-96.112236,2.0603793,STD
6429688012000,2.510121,-0.00994871264733201,9.66336991314229,-1.89657960925889,0.013744468,0.0106901415,0.008857546,204.2201,-96.126625,2.0583956,STD
6429693333000,2.515442,-0.014984106920751,9.66840540889328,-1.90161505243083,0.0067195175,0.01863139,0.0061086523,204.22015,-96.136444,2.0551827,STD
6429698119000,2.520228,-0.0184951760300344,9.67224577438031,-1.90545537781798,0.024129177,0.011911872,0.011301007,204.22661,-96.15582,2.057028,STD
6429702875000,2.524984,-0.0102543050164646,9.66812525583499,-1.90133490229781,0.022907447,0.018325957,0.017715093,204.22702,-96.167915,2.059005,STD
6429707876000,2.529985,-0.00158891478541704,9.66379247340329,-1.89700216510765,0.016493361,0.024129177,0.013439035,204.21649,-96.18848,2.0628228,STD
6429712874000,2.534983,0.00387266640576694,9.67267965893777,-1.89427136821245,0.013439035,0.022296581,0.013744468,204.20697,-96.21003,2.069414,STD
6429717767000,2.539876,0.00851588050118906,9.68428768569164,-1.89194976286167,0.021380283,0.01985312,0.0036651916,204.19586,-96.23088,2.0716786,STD
6429722866000,2.544975,0.0133545783700951,9.696384421522,-1.8895304156956,0.018936822,0.015271631,0.003970624,204.19608,-96.244606,2.0752816,STD
6429727779000,2.549888,0.0180167714726516,9.70803989575902,-1.8871993208482,0.020463986,0.013439035,0.016187929,204.19635,-96.26138,2.0793343,STD
6429732867000,2.554976,0.0282363573216306,9.710882,-1.88481435270138,0.012217305,0.014660766,0.0125227375,204.19666,-96.27307,2.0788474,STD
6429737783000,2.559892,0.0397147033805344,9.710882,-1.88251868521553,0.021991149,0.020158553,0.018325957,204.19698,-96.291794,2.0844603,STD
6429742933000,2.565042,0.0517394149760094,9.710882,-1.88011374470451,0.016187929,0.0070249503,0.011911872,204.21155,-96.305016,2.079214,STD
6429747880000,2.569989,0.0632901427940316,9.710882,-1.87780360087771,0.01740966,0.0076358155,0.019242255,204.22112,-96.32426,2.0801957,STD
6429752884000,2.574993,0.0905448277893122,9.72263551985918,-1.86823891408196,0.009468411,0.015882496,0.02321288,204.23178,-96.338234,2.0784006,STD
6429757929000,2.580038,0.125435593293013,9.74008080014443,-1.85515488555696,0.007330383,0.011301007,0.021380283,204.2458,-96.353966,2.0767808,STD
6429763180000,2.585289,0.138080179438639,9.75197501700756,-1.84553774117385,0.004581489,0.0036651916,0.019547688,204.2611,-96.369,2.080515,STD
6429767875000,2.589984,0.128083936780791,9.75697324010671,-1.84053962245442,0.0009162979,0.007941248,0.018936822,204.27414,-96.382935,2.0842674,STD
6429772857000,2.594966,0.127628129256837,9.7618957013476,-1.8324876280222,-0.005192355,0.00030543262,0.01985312,204.29915,-96.397415,2.0911927,STD
6429777888000,2.599997,0.132402299997027,9.76666996680539,-1.82293929651209,0.0015271631,-0.007941248,0.021380283,204.32286,-96.4142,2.0981755,STD
6429782865000,2.604974,0.132552750171152,9.77138816007123,-1.8363413465275,-0.006414085,-0.0012217305,0.021685716,204.34213,-96.42252,2.1043262,STD
6429787855000,2.609964,0.130188866024931,9.77611602216066,-1.86234406966759,-0.013744468,-0.0027488936,0.022296581,204.36588,-96.43292,2.1104805,STD
6429792961000,2.61507,0.127770029862485,9.780953790463,-1.88895126492877,-0.016798794,-0.003970624,0.024740042,204.38739,-96.44168,2.1178918,STD
6429797837000,2.619946,0.125460150283934,9.78557364127424,-1.91435993788089,-0.023518313,0.0033597588,0.022907447,204.40651,-96.447205,2.1243947,STD
6429802889000,2.624998,0.113687465620097,9.77398323010833,-1.92223544602167,-0.02321288,0.004276057,0.02565634,204.43286,-96.45406,2.1296735,STD
6429807878000,2.629987,0.0958396163046321,9.75167343593575,-1.91777348718715,-0.028405234,0.014660766,0.027183503,204.45398,-96.4575,2.1346107,STD
6429812872000,2.634981,0.0725800864947922,9.73734442528617,-1.92443550935341,-0.03268129,0.014660766,0.024129177,204.47989,-96.46707,2.1394372,STD
6429817867000,2.639976,0.0429815616108075,9.73241123821801,-1.94416784553986,-0.041233405,0.017715093,0.021991149,204.50175,-96.474304,2.1453445,STD
6429822830000,2.644939,0.034567876939999,9.72770097011867,-1.95133361888195,-0.03970624,0.015271631,0.015882496,204.51959,-96.47955,2.1480367,STD
6429827881000,2.64999,0.0460944582550636,9.72309024457894,-1.9467229896297,-0.03481932,0.016798794,0.015271631,204.53532,-96.48391,2.1518447,STD
6429832764000,2.654873,0.0572376569407616,9.71863287518467,-1.94226571332031,-0.03726278,0.0036651916,0.011911872,204.55302,-96.48592,2.148263,STD
6429837864000,2.659973,0.0688760581893914,9.71397742076919,-1.93761035612639,-0.023823744,-0.0012217305,0.013439035,204.56786,-96.494064,2.1463056,STD
6429842834000,2.664943,0.0812407381784622,9.70317153334693,-1.94376755998368,-0.027488936,0.006414085,0.0076358155,204.5756,-96.49787,2.1446106,STD
6429847874000,2.669983,0.0960073450558842,9.67856054415664,-1.97330074701203,-0.033292156,0.0012217305,0.015271631,204.58873,-96.50607,2.1466813,STD
6429852818000,2.674927,0.106988247281961,9.66135459839828,-1.98704569815412,-0.025961773,0.003970624,0.019242255,204.59953,-96.51696,2.1505554,STD
6429857891000,2.68,0.111733154636195,9.65660959195234,-1.97281097609142,-0.03023783,-0.0033597588,0.018020526,204.61462,-96.523384,2.1545677,STD
6429862772000,2.684881,0.10643203265683,9.65483596978822,-1.96890516095554,-0.0290161,-0.00061086525,0.01985312,204.62999,-96.53915,2.164442,STD
6429867857000,2.689966,0.0771046843280137,9.65972395985145,-1.98845671289772,-0.029626964,0.0036651916,0.026267206,204.64694,-96.55344,2.1749616,STD
6429872818000,2.694927,0.0530326703994449,9.66890219119833,-2.003028655506,-0.022602014,0.004581489,0.022907447,204.6716,-96.56049,2.1824248,STD
6429877861000,2.69997,0.0386717319456834,9.68804999583705,-2.00781563165824,-0.015271631,0.008246681,0.019547688,204.69418,-96.56824,2.1917794,STD
6429882820000,2.704929,0.0248392624614817,9.70519623609189,-2.00594119356029,-0.025045475,0.0067195175,0.016493361,204.71498,-96.5735,2.1952825,STD
6429887860000,2.709969,0.0114799749995387,9.71855579324661,-1.98812882267737,-0.016187929,0.010079277,0.020463986,204.73323,-96.5861,2.2000961,STD
6429892878000,2.714987,0,9.73063614189282,-1.97102171792018,-0.025045475,0.010079277,0.022602014,204.75073,-96.59002,2.200779,STD
6429897841000,2.71995,0,9.73497166476625,-1.95801474184721,-0.023518313,0.013439035,0.022296581,204.76616,-96.59925,2.2021494,STD
6429905475000,2.727584,0,9.74164049039909,-1.93800763821209,-0.019242255,0.01740966,0.017715093,204.77026,-96.600235,2.2060137,STD
6429907834000,2.729943,0,9.74370123963512,-1.93182519683466,-0.014966198,0.013744468,0.022907447,204.77588,-96.60269,2.2122655,STD
6429912903000,2.735012,0,9.74812936082098,-1.91854041712201,-0.016187929,0.016493361,0.0125227375,204.77791,-96.60299,2.212945,STD
6429917810000,2.739919,0.010472683193211,9.74569839964476,-1.89790690371028,-0.014660766,0.02076942,0.016493361,204.78113,-96.60713,2.218956,STD
6429922818000,2.744927,0.0246706251075587,9.74096615097691,-1.87424363424117,-0.017104227,0.024740042,0.015577064,204.78319,-96.60849,2.220598,STD
6429927820000,2.749929,0.0456557666712871,9.74299778415842,-1.86070716613861,-0.028099801,0.023823744,0.01160644,204.77997,-96.60332,2.2242393,STD
6429932826000,2.754935,0.0693891799588119,9.74774406693069,-1.85121380756436,-0.029321533,0.0290161,0.026572637,204.77454,-96.602066,2.23307,STD
6429937813000,2.759922,0.0864701712103021,9.73604812421991,-1.87460562308073,-0.03023783,0.023823744,0.02107485,204.772,-96.59358,2.236577,STD
6429942813000,2.764922,0.100700198946805,9.71707487013373,-1.91255237890045,-0.019242255,0.024129177,0.02076942,204.76718,-96.5903,2.2457392,STD
6429948373000,2.770482,0.0939248118631856,9.7070752345679,-1.9135181024489,-0.025350908,0.024740042,0.021380283,204.76863,-96.58976,2.2515485,STD
6429952740000,2.774849,0.0812284173740133,9.70284301851852,-1.90082167525804,-0.027488936,0.028405234,0.023823744,204.76921,-96.59345,2.2576745,STD
6429962759000,2.784868,0.0120970190526316,9.71743468421053,-1.94459582631579,-0.025350908,0.03604105,0.02321288,204.77774,-96.61131,2.2765596,STD
6429967801000,2.78991,-0.0163551401117142,9.71064605911379,-1.95693962583638,-0.0125227375,0.041233405,0.018936822,204.77267,-96.62678,2.2826364,STD
6429972749000,2.794858,-0.0397371780408566,9.69661704105398,-1.96161603029705,-0.015577064,0.033292156,0.021991149,204.76888,-96.63732,2.2906444,STD
6429977775000,2.799884,-0.0586301028624691,9.69326402364193,-1.96478055188116,-0.020463986,0.031154128,0.018325957,204.7587,-96.6493,2.289698,STD
6429982784000,2.804893,-0.0749314562695276,9.69559259221321,-1.96710931498616,-0.011301007,0.042760566,0.021991149,204.74738,-96.66494,2.2917418,STD
6429987736000,2.809845,-0.0910473081504927,9.69789466279916,-1.96941157789213,-0.014049901,0.044898596,0.010995574,204.73413,-96.67411,2.2849128,STD
6429992767000,2.814876,-0.107420258637798,9.70023345866304,-1.97175056914413,-0.011911872,0.033292156,0.008857546,204.72215,-96.687874,2.2814803,STD
6429997758000,2.819867,-0.0990561561266447,9.7039493073602,-1.97017794786184,-0.0021380284,0.038179077,0.01985312,204.71252,-96.70209,2.274965,STD
6430002819000,2.824928,-0.0691621068626645,9.70893174948602,-1.96519560978618,-0.0076358155,0.050396383,0.0009162979,204.70314,-96.709366,2.259402,STD
6430007833000,2.829942,-0.0545892177890262,9.7080103202175,-1.96037378018784,-0.007941248,0.043066,0.009162978,204.69856,-96.72365,2.2454205,STD
6430012809000,2.834918,-0.049877977392783,9.70329898536826,-1.95566254372714,-0.0012217305,0.05375614,0.009468411,204.68457,-96.73551,2.225198,STD
6430018268000,2.840377,-0.0318378761603231,9.71200265336887,-1.95634295749146,-0.01038471,0.044593163,0.005497787,204.68925,-96.74789,2.204136,STD
6430022797000,2.844906,-0.0101638410282335,9.72645230207379,-1.95995529422837,-0.0070249503,0.052534413,0.01282817,204.68631,-96.76615,2.187785,STD
6430027782000,2.849891,0.0114257358562128,9.73683955067909,-1.9595475447974,-0.015882496,0.052534413,0.0070249503,204.68793,-96.776665,2.167302,STD
6430032818000,2.854927,0.0222527192514311,9.7205987474464,-1.93789359270401,-0.011301007,0.047647487,0.013744468,204.68924,-96.79321,2.1530094,STD
6430037750000,2.859859,0.0358563965771617,9.71266352995347,-1.92315670725087,-0.014660766,0.056199603,0.01740966,204.68576,-96.81204,2.141944,STD
6430042768000,2.864877,0.0544901383511051,9.71732205903451,-1.9184982754556,-0.022296581,0.04734206,0.015271631,204.68866,-96.830505,2.1307101,STD
6430047752000,2.869861,0.0594621075869887,9.71894386101528,-1.91687650734352,-0.01985312,0.055588737,0.02321288,204.6849,-96.85019,2.1256566,STD
6430052830000,2.874939,0.0354941297843273,9.71415016895022,-1.92167009930015,-0.013744468,0.051923547,0.018936822,204.68658,-96.86714,2.116061,STD
6430057856000,2.879965,0.0112594362923674,9.71159966700206,-1.92709115604427,-0.008246681,0.059253927,0.013744468,204.6902,-96.88528,2.1093664,STD
6430062838000,2.884947,-0.0138868510090556,9.71388573925543,-1.93394922958172,-0.004276057,0.058948494,0.020463986,204.69717,-96.9049,2.1047041,STD
6430067816000,2.889925,-0.0390129485976714,9.71616997604331,-1.94080179683772,-0.016187929,0.05100725,0.02076942,204.70117,-96.91889,2.0930152,STD
6430072861000,2.89497,-0.0644772238758085,9.71848495687797,-1.94774659430789,-0.016798794,0.04642576,0.01740966,204.70433,-96.936874,2.0825636,STD
6430077846000,2.899955,-0.0867952822672454,9.72106303462924,-1.95306457798504,-0.017104227,0.04917465,0.02076942,204.70782,-96.95194,2.0743706,STD
6430082868000,2.904977,-0.0912365704460246,9.72550441370394,-1.94862329166128,-0.017104227,0.052839845,0.01985312,204.71198,-96.96596,2.064188,STD
6430088398000,2.910507,-0.0950419116365674,9.73039908357456,-1.94263949603138,-0.022602014,0.05222898,0.021380283,204.71368,-96.98314,2.0417194,STD
6430092853000,2.914962,-0.0870739097176207,9.73438316565506,-1.92670350051359,-0.025350908,0.055283304,0.016187929,204.71294,-97.00001,2.0179558,STD
6430097795000,2.919904,-0.0782348826730787,9.73880276916612,-1.90902545565412,-0.01863139,0.047036625,0.014660766,204.71468,-97.01696,1.9948565,STD
6430102898000,2.925007,-0.0613228968648469,9.73579003357428,-1.92107614635724,-0.022296581,0.04642576,0.01038471,204.713,-97.029366,1.9704812,STD
6430107878000,2.929987,-0.0431785188488682,9.73125384753662,-1.93922051158455,-0.022907447,0.04337143,0.0061086523,204.71416,-97.044,1.9459713,STD
6430112872000,2.934981,-0.0330504527997698,9.73354040391254,-1.94934857054085,-0.022907447,0.038789943,0.0076358155,204.7058,-97.0565,1.9294506,STD
6430117768000,2.939877,-0.0260126714258768,9.73823210792015,-1.95638634701556,-0.02107485,0.042455133,0.0076358155,204.6958,-97.06858,1.9118539,STD
6430122859000,2.944968,-0.0186945862595187,9.74311067513884,-1.96370442708761,-0.022296581,0.034513887,0.0106901415,204.69418,-97.083786,1.8993486,STD
6430127780000,2.949889,-0.0116208685019763,9.74782633596838,-1.97077813992095,-0.024129177,0.03848451,0.014966198,204.6882,-97.099,1.8880126,STD
6430132854000,2.954963,-0.009576807,9.7461148227047,-1.96974792640091,-0.024740042,0.035430185,0.008857546,204.69012,-97.105385,1.8759167,STD
6430137812000,2.959921,-0.009576807,9.74194128189689,-1.96557425484991,-0.015271631,0.03023783,0.017104227,204.69211,-97.11537,1.8693776,STD
6430142827000,2.964936,-0.009576807,9.73771975968004,-1.96135260038676,-0.02076942,0.040317107,0.015577064,204.68832,-97.1278,1.8617709,STD
6430147848000,2.969957,-0.009576807,9.73349318678856,-1.95712589509076,-0.024129177,0.04734206,0.02076942,204.68738,-97.144135,1.8582667,STD
6430152822000,2.974931,-0.01040711612355,9.7271299027,-1.9557443714,-0.02107485,0.05100725,0.017715093,204.68425,-97.15963,1.8523079,STD
6430157932000,2.980041,-0.01530086424505,9.7100016937,-1.9679787334,-0.029321533,0.040317107,0.016798794,204.68353,-97.171265,1.8482059,STD
6430162810000,2.984919,-0.01997243045575,9.6936511255,-1.979657641,-0.02076942,0.044593163,0.021685716,204.67352,-97.18748,1.8475507,STD
6430167832000,2.989941,-0.02478190268005,9.6768178837,-1.9916813134,-0.025961773,0.038789943,0.01985312,204.66928,-97.19677,1.8439862,STD
6430172809000,2.994918,-0.0295081485258653,9.66455348839863,-2.0007748720426,-0.017104227,0.040927973,0.023823744,204.66206,-97.21277,1.843826,STD
6430177846000,2.999955,-0.0340952897258463,9.67372795568657,-1.99618773419551,-0.013133603,0.043676864,0.017104227,204.65602,-97.22477,1.83989,STD
6430182881000,3.00499,-0.038664896034888,9.6825096575879,-1.99054512483148,-0.014966198,0.028099801,0.016493361,204.64528,-97.243996,1.8425305,STD
6430187815000,3.009924,-0.0429691375425396,9.68681376134086,-1.97332817048643,-0.023518313,0.036651913,0.018936822,204.6271,-97.26157,1.8448557,STD
6430193394000,3.015503,-0.047836053507515,9.69168052154309,-1.95386051983968,-0.022907447,0.025350908,0.018325957,204.61815,-97.27925,1.8436861,STD
6430197836000,3.019945,-0.0517110921733012,9.69555543619056,-1.93836037569685,-0.016493361,0.023823744,0.011911872,204.60416,-97.29549,1.8420255,STD
6430203180000,3.025289,-0.0563730027158408,9.70021719753143,-1.91971274618328,-0.02076942,0.008857546,0.014660766,204.59773,-97.309135,1.8417959,STD
6430207846000,3.029955,-0.0585278775216711,9.70343911738252,-1.91642843640748,-0.015271631,0.010995574,0.009468411,204.58656,-97.32579,1.8379699,STD
6430212774000,3.034883,-0.0600658596529362,9.70651514267092,-1.9179664169328,-0.004581489,0.008552114,0.01863139,204.5817,-97.34357,1.8382808,STD
6430217831000,3.03994,-0.0616441014625562,9.70967168891351,-1.91954465709444,-0.004581489,0.007330383,0.0125227375,204.56676,-97.351456,1.8335824,STD
6430222834000,3.044943,-0.0632054903835625,9.71279452871016,-1.92110604438506,-0.018020526,0.0021380284,0.016798794,204.55461,-97.35966,1.8340576,STD
6430227799000,3.049908,-0.0647550198644333,9.71589364915597,-1.92265557224793,-0.015882496,-0.0030543262,0.008552114,204.54239,-97.37053,1.8290883,STD
6430232833000,3.054942,-0.066326083591866,9.71903583894936,-1.92422663433488,-0.011301007,0.01282817,0.014660766,204.52652,-97.3795,1.8298644,STD
6430237935000,3.060044,-0.0761117662068271,9.71138501454952,-1.92191349607163,-0.017104227,0.0067195175,0.017104227,204.51305,-97.38545,1.8292848,STD
6430242850000,3.064959,-0.0919159055252378,9.69558110296587,-1.91664545219922,-0.015882496,0.010995574,0.01282817,204.49246,-97.3943,1.8292072,STD
6430247833000,3.069942,-0.095768064,9.69350598485071,-1.91713853330392,-0.013439035,0.008552114,0.017715093,204.47583,-97.40258,1.8309455,STD
6430252851000,3.07496,-0.095768064,9.69586183953523,-1.91949458480169,-0.016798794,0.016798794,0.02321288,204.45515,-97.40911,1.8319697,STD
6430257832000,3.079941,-0.095768064,9.69820032342992,-1.92183326405844,-0.01038471,0.016798794,0.015271631,204.446845839591,-97.4139079593471,1.83029111247622,STD
6430262838000,3.084947,-0.095768064,9.70055054434476,-1.92418368131588,-0.004886922,0.007330383,0.020463986,204.4385,-97.41873,1.8286041,STD
6430267864000,3.089973,-0.0800382883074558,9.69815930976172,-1.92808415303613,-0.012217305,-0.0070249503,0.014660766,204.42137,-97.42206,1.8258141,STD
6430273469000,3.095578,-0.0542513936725596,9.69300236510377,-1.93324152851653,-0.004886922,0.0012217305,0.014966198,204.38943,-97.43336,1.8311892,STD
6430277809000,3.099918,-0.0420380767008776,9.68880596313888,-1.92574607254517,-0.01160644,0.0012217305,0.020463986,204.379851973094,-97.4372662780269,1.83155679790732,STD
6430282835000,3.104944,-0.0320983705664429,9.68383600939597,-1.91083652268456,-0.004886922,-0.004581489,0.01740966,204.36876,-97.44179,1.8319825,STD
6430287826000,3.109935,-0.01293719060969,9.67899329040024,-1.92157781817635,-0.006414085,-0.011911872,0.014966198,204.34647,-97.45117,1.831418,STD
6430292824000,3.114933,0.0110696708540475,9.67419182124586,-1.94558466259404,-0.011301007,-0.0036651916,0.015271631,204.32527,-97.46206,1.8367234,STD
6430297838000,3.119947,0.0279886419134047,9.66962993103767,-1.9683936372969,-0.005497787,0.0036651916,0.017715093,204.30717,-97.474174,1.8426006,STD
6430302864000,3.124973,0.0413194285518833,9.66518624547637,-1.99061160110783,-0.007941248,0.003970624,0.020158553,204.28911,-97.48242,1.84824,STD
6430307978000,3.130087,0.0505443684538947,9.66565838978947,-2.00421293423158,-0.009162978,0.003970624,0.009468411,204.26627,-97.50189,1.8573238,STD
6430312838000,3.134947,0.0554436618096842,9.67055778136842,-2.00911222349474,-0.01740966,-0.008552114,0.014660766,204.24814,-97.51944,1.8705753,STD
6430317832000,3.139941,0.0560474580303748,9.67964190394477,-2.01254278078896,-0.01160644,-0.014966198,0.009773844,204.23125,-97.54251,1.8808817,STD
6430322823000,3.144932,0.0536905621364892,9.69142637357002,-2.014899674714,-0.013439035,-0.007330383,0.009162978,204.21472,-97.56132,1.8933988,STD
6430327811000,3.14992,0.0513350829301775,9.70320375976331,-2.01725515195266,-0.02107485,-0.018020526,0.0070249503,204.202,-97.58528,1.9036379,STD
6430332838000,3.154947,0.0489611867854043,9.71507323057199,-2.0196290461144,-0.011301007,-0.0061086523,0.010079277,204.18132,-97.61311,1.9157865,STD
6430337807000,3.159916,0.0579830736696744,9.7255086225971,-2.03332999285994,-0.021380283,-0.01160644,0.008857546,204.16588,-97.627266,1.9289812,STD
6430343616000,3.165725,0.0798079743613182,9.73642129285994,-2.06061109878384,-0.013744468,-0.015271631,0.017104227,204.14752,-97.64937,1.9455885,STD
6430347835000,3.169944,0.0910247391107551,9.72752931484078,-2.07100693703184,-0.01740966,-0.0021380284,0.007941248,204.12611,-97.6673,1.9533112,STD
6430352867000,3.174976,0.100676352954136,9.7034003054276,-2.07583273891448,-0.014966198,0.0027488936,0.004886922,204.10907,-97.68942,1.9641595,STD
6430357825000,3.179934,0.102966225839008,9.69410745148593,-2.06389509887817,-0.009468411,0.004581489,0.009162978,204.08871,-97.72265,1.97719,STD
6430362871000,3.18498,0.0982108023459949,9.69886246978941,-2.03536260558945,-0.023518313,0.008552114,0.0027488936,204.0664,-97.74912,1.9860725,STD
6430367868000,3.189977,0.0935842948125533,9.70567262776145,-2.01415489517398,-0.016187929,0.010079277,0.00580322,204.0471,-97.784744,2.0003452,STD
6430372869000,3.194978,0.0890433261196549,9.71475475101925,-2.00053199478525,-0.00580322,0.01740966,0.01282817,204.02547,-97.81625,2.0137775,STD
6430377805000,3.199914,0.0915238113287147,9.72223655299349,-1.97953318889463,-0.024740042,0.021685716,0.018020526,204.00333,-97.841965,2.0222573,STD
6430382865000,3.204974,0.10655596159239,9.7272473709027,-1.94445819602937,-0.025350908,0.02076942,0.01160644,203.981,-97.87419,2.0290809,STD
6430387818000,3.209927,0.116943577151749,9.72801406273464,-1.93706957024303,-0.020463986,0.014966198,0.015577064,203.96178,-97.89668,2.0383806,STD
6430392883000,3.214992,0.121735766704209,9.72322177810709,-1.96582267753408,-0.022296581,0.014660766,0.013439035,203.94127,-97.91558,2.0439167,STD
6430397765000,3.219874,0.128115369963426,9.72226747680462,-1.98601587807507,-0.027183503,0.013133603,0.016798794,203.93163,-97.92764,2.0498364,STD
6430402876000,3.224985,0.137537323833494,9.72697854966314,-1.99543782702599,-0.028405234,0.007941248,0.019547688,203.92326,-97.93967,2.0545802,STD
6430407791000,3.2299,0.148204976949623,9.72851834371281,-2.00307022459342,-0.028710667,0.0036651916,0.021380283,203.9177,-97.954384,2.0614362,STD
6430413300000,3.235409,0.163900721076954,9.72328632338358,-2.00830213566045,-0.022907447,-0.00030543262,0.017715093,203.9136,-97.96988,2.0670483,STD
6430417796000,3.239905,0.168381281531127,9.71912522691849,-2.01513063568351,-0.022602014,0.0036651916,0.025045475,203.91083,-97.98616,2.078051,STD
6430422824000,3.244933,0.155136892445219,9.71471034143211,-2.02837501554965,-0.02443461,0.005497787,0.02321288,203.90942,-98.00207,2.0849295,STD
6430427841000,3.24995,0.141137578715156,9.71276792936357,-2.04300296309322,-0.034208454,0.00030543262,0.022602014,203.91928,-98.01733,2.0917096,STD
6430432857000,3.254966,0.121939955024478,9.72716644030373,-2.06700008040763,-0.02687807,0.012217305,0.03023783,203.924,-98.03691,2.100897,STD
6430437855000,3.259964,0.103495629439767,9.73899657083131,-2.08836041629558,-0.019242255,0.018020526,0.023823744,203.9304,-98.05327,2.103356,STD
6430442826000,3.264935,0.0896094896589208,9.7343677650948,-2.09298912536704,-0.03023783,0.01038471,0.023823744,203.93785,-98.06718,2.1095738,STD
6430447893000,3.270002,0.0748936474438864,9.72865936291999,-2.09559998747835,-0.026267206,0.020463986,0.026267206,203.93733,-98.087776,2.112693,STD
6430452886000,3.274995,0.0541900639868375,9.71209659438864,-2.07489633224801,-0.04153884,0.015577064,0.016493361,203.94278,-98.09872,2.1114304,STD
6430457842000,3.279951,0.0336399018372012,9.69565656217527,-2.05434609885694,-0.033292156,0.016493361,0.018325957,203.95067,-98.11702,2.1076252,STD
6430462882000,3.284991,0.0343250316311484,9.69545862165438,-2.04757173075447,-0.035124753,0.016798794,0.012217305,203.95926,-98.126816,2.0988262,STD
6430467768000,3.289877,0.0414140545641854,9.70018448560752,-2.04520872475508,-0.033292156,0.014966198,0.017104227,203.96857,-98.1406,2.0938447,STD
6430472856000,3.294965,0.0487961562185638,9.70510572911827,-2.04274802591657,-0.03634648,0.0015271631,0.014966198,203.98686,-98.14134,2.076417,STD
6430477775000,3.299884,0.0559330583486517,9.70986351151399,-2.04036906019594,-0.03573562,0.005497787,0.014966198,204.00067,-98.14423,2.0620894,STD
6430482955000,3.305064,0.0697849688161314,9.68623367373454,-2.04807588015799,-0.038179077,0.0027488936,0.015882496,204.01976,-98.14552,2.0471683,STD
6430487782000,3.309891,0.0841994514416381,9.65740462820913,-2.05768552855213,-0.02565634,0.002443461,0.013744468,204.03651,-98.15103,2.0321465,STD
6430492934000,3.315043,0.0841495252036887,9.66567144374198,-2.04880473241432,-0.03268129,0.0033597588,0.017715093,204.055,-98.15138,2.0217843,STD
6430497768000,3.319877,0.0819489129393925,9.6788751550126,-2.0378016779864,-0.034513887,0.020158553,0.018325957,204.06845,-98.156296,2.01093,STD
6430502868000,3.324977,0.0796272078198412,9.69280542548842,-2.02619315966155,-0.033292156,0.036957346,0.016187929,204.08907,-98.15627,2.00396,STD
6430507844000,3.329953,0.0773619520012359,9.7063969991919,-2.01486688766459,-0.044898596,0.051618114,0.0143553335,204.10518,-98.15253,1.9981079,STD
6430512870000,3.334979,0.065673227152889,9.70775603530433,-2.01581849393267,-0.043676864,0.04550946,0.016187929,204.1222,-98.15301,1.9927652,STD
6430517809000,3.339918,0.0497043384419311,9.70319364179608,-2.02266229858204,-0.0421497,0.051923547,0.015577064,204.13112,-98.15034,1.9874532,STD
6430522862000,3.344971,0.0333668623017266,9.69852594096653,-2.02966406916176,-0.040317107,0.0421497,0.017104227,204.14755,-98.1382,1.9817159,STD
6430527816000,3.349925,0.0173494752448153,9.69394969123179,-2.03652865880197,-0.04520403,0.04520403,0.01740966,204.15819,-98.12508,1.97638,STD
6430532871000,3.35498,0.00687594366414894,9.69713055351064,-2.0371589386383,-0.04062254,0.03481932,0.016187929,204.1751,-98.11567,1.9703188,STD
6430537856000,3.359965,0.00179717952638298,9.70728775617021,-2.03208017821277,-0.036957346,0.032986723,0.022907447,204.18875,-98.105804,1.9672161,STD
6430542918000,3.365027,-0.00935184812080537,9.70464763422819,-2.01781387785235,-0.04184427,0.022907447,0.01985312,204.20381,-98.094185,1.9552435,STD
6430547864000,3.369973,-0.0233767846900908,9.69529797591789,-1.99911397544414,-0.03359759,0.017104227,0.019242255,204.21823,-98.08835,1.9462472,STD
6430552886000,3.374995,-0.0316959087949149,9.6907404837796,-1.98505633096203,-0.03359759,0.013744468,0.02076942,204.23514,-98.07555,1.9361874,STD
6430557902000,3.380011,-0.036442204836808,9.6891583531601,-1.97398164790699,-0.03176499,0.01740966,0.025961773,204.25142,-98.06633,1.927415,STD
6430562864000,3.384973,-0.0411374043902118,9.68759325504726,-1.96302618990877,-0.03145956,0.008857546,0.019547688,204.26859,-98.05342,1.9126158,STD
6430567874000,3.389983,-0.0458780230444949,9.6860130169285,-1.95196475408227,-0.03481932,0.008857546,0.023518313,204.28255,-98.04165,1.903061,STD
6430572834000,3.394943,-0.0505713301353621,9.68444854964924,-1.94101371182689,-0.028405234,0.008552114,0.028405234,204.29842,-98.03288,1.8920192,STD
6430577879000,3.399988,-0.0553450668840365,9.68285727194283,-1.92987500050061,-0.027183503,0.007330383,0.025045475,204.31401,-98.02204,1.8800961,STD
6430582869000,3.404978,-0.0653252249199881,9.67953048543882,-1.94328841870589,-0.028099801,0.0070249503,0.021685716,204.3392,-98.011444,1.8643532,STD
6430587881000,3.40999,-0.0796376059000099,9.67475959546765,-1.97668395107842,-0.029321533,0.004886922,0.014049901,204.36441,-98.00118,1.8469229,STD
6430592850000,3.414959,-0.0937587484830575,9.67762009416864,-1.98945330559496,-0.028099801,-0.005192355,0.017104227,204.38266,-97.99163,1.8298992,STD
6430598532000,3.420641,-0.109838954003152,9.68834044759653,-1.98409324081954,-0.029626964,-0.004886922,0.016798794,204.39769,-97.9808,1.8106914,STD
6430602874000,3.424983,-0.108885798210714,9.69052179918804,-1.97636312199228,-0.026267206,-0.01038471,0.015577064,204.4171,-97.975494,1.7906632,STD
6430607851000,3.42996,-0.0970866687271017,9.68816192548767,-1.96456399990098,-0.0290161,-0.013439035,0.013133603,204.43521,-97.9684,1.7709452,STD
6430612829000,3.434938,-0.0852851685122289,9.68580157763145,-1.95276250707991,-0.03176499,-0.014660766,0.020158553,204.45357,-97.96009,1.7510883,STD
6430617833000,3.439942,-0.0734220292845826,9.68342890172294,-1.94089937528468,-0.019547688,-0.022602014,0.018020526,204.47372,-97.95497,1.7282877,STD
6430622835000,3.444944,-0.0648834508485144,9.68430624188992,-1.94313178760838,-0.020463986,-0.014660766,0.0067195175,204.48915,-97.9458,1.7061071,STD
6430627887000,3.449996,-0.0601701489371651,9.68901963731125,-1.96198497556746,-0.022296581,-0.011301007,0.013744468,204.50826,-97.941185,1.6887243,STD
6430632815000,3.454924,-0.049812997681594,9.69555279877688,-1.97091024071809,-0.025961773,-0.018020526,0.016187929,204.52544,-97.930145,1.6746987,STD
6430637817000,3.459926,-0.0309125494223713,9.70500272045769,-1.96618513186033,-0.032375857,-0.009468411,0.02321288,204.53741,-97.919044,1.6650819,STD
6430642817000,3.464926,-0.0245860655957937,9.71812522643966,-1.97229948032048,-0.028710667,-0.018325957,0.028405234,204.55966,-97.91807,1.6525227,STD
6430647839000,3.469948,-0.039036156651978,9.73739190185278,-1.99638295032549,-0.03145956,-0.020158553,0.032070424,204.57732,-97.91417,1.6425318,STD
6430652760000,3.474869,-0.0496004191425243,9.74060707145631,-2.01456217141748,-0.038179077,-0.02107485,0.027488936,204.60027,-97.90408,1.6370296,STD
6430657845000,3.479954,-0.054328386975534,9.71696725203883,-2.02401809918447,-0.034513887,-0.021991149,0.018020526,204.62325,-97.896614,1.6313198,STD
6430662774000,3.484883,-0.0664095182869122,9.70279647648997,-2.03326589068583,-0.03940081,-0.009773844,0.022907447,204.645,-97.89281,1.6228136,STD
6430668498000,3.490607,-0.099244284001198,9.70826904791854,-2.04421080497155,-0.04062254,-0.01985312,0.022907447,204.67232,-97.890526,1.6098645,STD
6430672781000,3.49489,-0.111974384775141,9.70056656765611,-2.04796295361858,-0.04062254,-0.02443461,0.015577064,204.69432,-97.8887,1.5970068,STD
6430677847000,3.499956,-0.10234148309183,9.6668517416857,-2.04314650680036,-0.029932396,-0.01863139,0.018020526,204.71614,-97.89043,1.5873852,STD
6430682864000,3.504973,-0.0933257204001962,9.64995085581167,-2.03863862883767,-0.038179077,-0.02687807,0.021380283,204.74431,-97.88184,1.5700685,STD
6430687811000,3.50992,-0.085580673100049,9.66931346395292,-2.03476610720942,-0.040317107,-0.02076942,0.015577064,204.76598,-97.87798,1.5522401,STD
6430693044000,3.515153,-0.0773878628066045,9.68979547899297,-2.03066970420141,-0.03604105,-0.020463986,0.021380283,204.79292,-97.87553,1.5405006,STD
6430697836000,3.519945,-0.0530915765526241,9.68780844128012,-2.03812395369083,-0.032070424,-0.032986723,0.021380283,204.82082,-97.872154,1.5257627,STD
6430703384000,3.525493,-0.0227274713692733,9.68274765491952,-2.04824531503953,-0.034208454,-0.026267206,0.02076942,204.84286,-97.86891,1.5137477,STD
6430707866000,3.529975,-0.0102250546532262,9.68750905721938,-2.05122231060141,-0.036957346,-0.024740042,0.015577064,204.86826,-97.87424,1.4986546,STD
6430712771000,3.53488,0.00121254879308498,9.69437151887022,-2.05350982966642,-0.036957346,-0.02565634,0.019547688,204.89229,-97.88027,1.4866917,STD
6430717833000,3.539942,0.013016248822693,9.70145363525688,-2.0558705679961,-0.034208454,-0.02687807,0.02443461,204.91946,-97.88918,1.4793261,STD
6430722835000,3.544944,0.0246800393300219,9.70845180715851,-2.0582033244412,-0.034513887,-0.025045475,0.022907447,204.9455,-97.89711,1.4717516,STD
6430727847000,3.549956,0.0256497756968864,9.69855949484334,-2.0528521152539,-0.034513887,-0.023823744,0.022602014,204.97469,-97.90612,1.4644066,STD
6430732830000,3.554939,0.0209624930824084,9.67981047402023,-2.04347755589824,-0.03359759,-0.009773844,0.029321533,204.99947,-97.91558,1.4596128,STD
6430738092000,3.560201,0.0306031638718159,9.67584636603581,-2.02677460912532,-0.03390302,-0.01038471,0.02443461,205.03017,-97.92585,1.4554069,STD
6430742855000,3.564964,0.0469356604394885,9.68051288787724,-2.00810891157033,-0.036651913,-0.0125227375,0.023823744,205.05734,-97.93618,1.4550078,STD
6430747834000,3.569943,0.0640088286969821,9.6853910344757,-1.98859673266496,-0.03726278,-0.013439035,0.022907447,205.08286,-97.94558,1.4524534,STD
6430752882000,3.574991,0.0813186004109463,9.69033678342711,-1.96881414999488,-0.035430185,-0.01740966,0.023518313,205.10948,-97.954926,1.4502056,STD
6430757833000,3.579942,0.0926749844533947,9.69821251457614,-1.9794546942079,-0.04153884,-0.013744468,0.026267206,205.13387,-97.96192,1.4488118,STD
6430762841000,3.58495,0.101873424131185,9.70741065650173,-2.0024507693901,-0.034208454,-0.014660766,0.032375857,205.16043,-97.9734,1.4484599,STD
6430767830000,3.589939,0.0996467837745992,9.70803289536335,-2.01397844513776,-0.045814894,-0.022907447,0.034513887,205.18306,-97.96854,1.459576,STD
6430772814000,3.594923,0.0904827593836997,9.70345079226265,-2.01856045254872,-0.049480084,-0.013439035,0.03023783,205.20068,-97.968254,1.4710178,STD
6430777841000,3.59995,0.0724377868596474,9.70216460940573,-2.0138294683665,-0.055283304,-0.014049901,0.029626964,205.22595,-97.968124,1.4854157,STD
6430782831000,3.60494,0.0469532599490051,9.70375742445755,-2.00108721405859,-0.035124753,-0.008857546,0.025045475,205.24634,-97.97416,1.4977936,STD
6430787812000,3.609921,0.0215146971149552,9.70534736669666,-1.98836794177249,-0.03848451,-0.007941248,0.02443461,205.26718,-97.97255,1.5092357,STD
6430792881000,3.61499,-0.00437329224577542,9.70696539866013,-1.97542395638436,-0.040927973,-0.005192355,0.03268129,205.286,-97.97724,1.5219747,STD
6430797832000,3.619941,-0.0296586414911842,9.70854576485685,-1.96278129083758,-0.049480084,-0.0070249503,0.01985312,205.30222,-97.97825,1.5299281,STD
6430802857000,3.624966,-0.0553219175885745,9.71014975195814,-1.94994966200047,-0.038789943,-0.005497787,0.01985312,205.3174,-97.985306,1.5437708,STD
6430808009000,3.630118,-0.0593557766117504,9.70832145766676,-1.94153117745346,-0.038789943,-0.010995574,0.020158553,205.33139,-97.98394,1.5568144,STD
6430812838000,3.634947,-0.0463761521919263,9.70399505496305,-1.93720463921789,-0.043982297,-0.0076358155,0.016493361,205.34222,-97.98411,1.5687932,STD
6430817827000,3.639936,-0.0329664718791281,9.69952530489288,-1.93273474912527,-0.04550946,-0.010079277,0.012217305,205.34456,-97.9759,1.5657569,STD
6430822818000,3.644927,-0.0195514158676677,9.69505376298063,-1.92826306713444,-0.042455133,-0.009468411,0.0067195175,205.34482,-97.96767,1.5615754,STD
6430827820000,3.649929,-0.00700091085660712,9.69301690681806,-1.92687012074587,-0.04886922,-0.01038471,0.011301007,205.3432,-97.959854,1.5595785,STD
6430832833000,3.654942,0.00300138764597114,9.69801789587999,-1.93437183933538,-0.05222898,-0.009773844,0.014966198,205.34071,-97.9537,1.5558751,STD
6430837810000,3.659919,0.0129318563567894,9.70298297119642,-1.94181968561904,-0.042760566,-0.022296581,0.009773844,205.34636,-97.95025,1.5542233,STD
6430842873000,3.664982,0.0230339184590343,9.70803384046044,-1.94939622685557,-0.054367006,-0.022602014,0.019547688,205.34903,-97.94135,1.5582563,STD
6430847850000,3.669959,0.0227445632263132,9.71487265174276,-1.96364502101129,-0.052534413,-0.021685716,0.022602014,205.3496,-97.93739,1.5621722,STD
6430852909000,3.675018,0.00847385190770741,9.72438665135002,-1.98742952331861,-0.04886922,-0.016187929,0.016493361,205.34898,-97.93112,1.5661839,STD
6430857794000,3.679903,-0.00526724366666667,9.72301305,-1.99979685333333,-0.06078109,-0.02107485,0.022907447,205.35605,-97.925026,1.5767201,STD
6430862872000,3.684981,-0.0194868414015595,9.70405369853801,-1.99505699072125,-0.054367006,-0.028710667,0.021380283,205.36177,-97.924576,1.583113,STD
6430867767000,3.689876,-0.0317564234996779,9.69324195316914,-1.99046279943506,-0.053450707,-0.023518313,0.020158553,205.36153,-97.92318,1.591243,STD
6430872824000,3.694933,-0.0413564860453937,9.69804183031865,-1.9856627719213,-0.048563786,-0.037873644,0.01740966,205.3689,-97.924706,1.5971926,STD
6430877798000,3.699907,-0.0507989837915655,9.702762927598,-1.98094152674563,-0.04917465,-0.036651913,0.0125227375,205.36234,-97.927956,1.602216,STD
6430882836000,3.704945,-0.0603629772867833,9.70754477080133,-1.976159533743,-0.05681047,-0.042455133,0.019242255,205.36229,-97.9311,1.6087021,STD
6430887806000,3.709915,-0.0579032911676506,9.71218693468279,-1.97934673715678,-0.06688975,-0.04337143,0.016493361,205.35721,-97.93269,1.6129725,STD
6430892867000,3.714976,-0.0261089376253397,9.71672907665636,-2.00205697274857,-0.05681047,-0.04062254,0.015577064,205.35318,-97.93833,1.6192938,STD
6430897815000,3.719924,0.00230005990498332,9.72199240422521,-2.01763945559486,-0.05589417,-0.047036625,0.01038471,205.34886,-97.935745,1.6193495,STD
6430902828000,3.724937,0.0168583936217528,9.73169815596887,-1.99822835748509,-0.05375614,-0.054367006,0.0143553335,205.34445,-97.93689,1.6216418,STD
6430907839000,3.729948,0.0327642164192273,9.73737200354934,-1.9837435978704,-0.052839845,-0.05222898,0.008246681,205.3475,-97.94319,1.6231033,STD
6430912827000,3.734936,0.0545633242622452,9.72526139651151,-1.99100996209309,-0.061391957,-0.05375614,0.006414085,205.35397,-97.94787,1.626366,STD
6430917804000,3.739913,0.0763143586918162,9.71317749690701,-1.9982603018558,-0.06261369,-0.052839845,0.008246681,205.35963,-97.94783,1.6335201,STD
6430922822000,3.744931,0.0982445758442349,9.70099405141466,-2.0055703691512,-0.059864793,-0.04642576,0.01160644,205.36409,-97.94676,1.6405497,STD
6430927812000,3.749921,0.12055453103753,9.69019273683731,-2.01215355405356,-0.062308256,-0.050396383,0.015577064,205.37129,-97.944305,1.6476935,STD
6430932814000,3.754923,0.144554122936783,9.68364726124977,-2.01651711331754,-0.062002823,-0.048258353,0.0143553335,205.37485,-97.94351,1.6545538,STD
6430937793000,3.759902,0.168443360854892,9.67713188281108,-2.02086060823465,-0.06169739,-0.043066,0.014660766,205.38098,-97.952995,1.6706123,STD
6430942816000,3.764925,0.192543710736928,9.67055892721807,-2.02524248711969,-0.057421334,-0.03604105,0.012217305,205.38588,-97.96338,1.6852627,STD
6430947792000,3.769901,0.216418554657497,9.66404747449444,-2.02958336494808,-0.06352998,-0.038179077,0.016493361,205.39952,-97.96836,1.6979722,STD
6430952736000,3.774845,0.229240007240131,9.65851118470761,-2.04374316477774,-0.059864793,-0.03390302,0.02076942,205.4092,-97.977135,1.7102325,STD
6430957814000,3.779923,0.238206205460366,9.65290073290649,-2.06022737707487,-0.06047566,-0.027794369,0.020158553,205.41888,-97.98302,1.7220056,STD
6430962743000,3.784852,0.222418130247026,9.64613451521812,-2.07601548525969,-0.06627888,-0.010079277,0.021991149,205.434650472255,-97.9960747697757,1.74398348919717,STD
6430967978000,3.790087,0.20564990672464,9.63894824019303,-2.09278374380047,-0.05955936,-0.018325957,0.017104227,205.4514,-98.00994,1.7673258,STD
6430972755000,3.794864,0.190348702566773,9.63239067843662,-2.10808497991304,-0.06414085,-0.022296581,0.015271631,205.46536,-98.0215,1.7909365,STD
6430977760000,3.799869,0.174317191825696,9.62552013278226,-2.12411652413398,-0.065973446,-0.016187929,0.008246681,205.48108,-98.03583,1.8045099,STD
6430982761000,3.80487,0.16807246988741,9.61607071975435,-2.12174114988741,-0.06627888,-0.0061086523,0.009468411,205.49693,-98.04957,1.8196129,STD
6430987732000,3.809841,0.163199770522006,9.60632511750256,-2.11686845052201,-0.058948494,-0.0061086523,0.017715093,205.505114144881,-98.0559139523049,1.82587337402714,STD
6430992783000,3.814892,0.153884700500426,9.62114886505034,-2.09863232839754,-0.065973446,-0.00580322,0.01038471,205.51343,-98.06236,1.8322346,STD
6430997737000,3.819846,0.144378412997545,9.63778495441567,-2.0796197186495,-0.06383542,0.007941248,0.013744468,205.51825,-98.08344,1.8454323,STD
6431002749000,3.824858,0.134760828628463,9.65461581430647,-2.06038451476231,-0.061086524,0.015882496,0.0067195175,205.52356,-98.103,1.8545868,STD
6431007747000,3.829856,0.125170109020187,9.67139966062215,-2.04120304049492,-0.06047566,0.018936822,0.011911872,205.52711,-98.12312,1.8681725,STD
6431012752000,3.834861,0.104921036634869,9.67692563286816,-2.0398598,-0.06291912,0.018325957,0.01160644,205.53378,-98.14669,1.872211,STD
6431017707000,3.839816,0.0840818784341759,9.6815566502391,-2.0398598,-0.065973446,0.015271631,0.005192355,205.54031,-98.16958,1.8759074,STD
6431022786000,3.844895,0.0627212155681175,9.68630355987118,-2.0398598,-0.070249505,0.020158553,0.0125227375,205.54033,-98.18512,1.8788964,STD
6431027846000,3.849955,0.041440460674978,9.69103271181809,-2.0398598,-0.06414085,0.007941248,0.018020526,205.54578,-98.2018,1.8787802,STD
6431032750000,3.854859,0.0362858130580085,9.68970754532075,-2.0317741501421,-0.05955936,0.011911872,0.013744468,205.5457,-98.20865,1.882609,STD
6431037730000,3.859839,0.033865365491017,9.68728704897483,-2.02209236695087,-0.06291912,0.0033597588,0.014660766,205.55307,-98.215614,1.88831,STD
6431042756000,3.864865,0.031422560376218,9.68484419463053,-2.01232115363378,-0.063224554,0.0036651916,0.017104227,205.55415,-98.22105,1.8843701,STD
6431047698000,3.869807,0.0290205820878502,9.68244216793545,-2.00271324750305,-0.058643065,-0.0070249503,0.01282817,205.56049,-98.22651,1.8781182,STD
6431052832000,3.874941,0.0408740678051053,9.67810403568101,-1.99750472021614,-0.05497787,0.0021380284,0.0125227375,205.55817,-98.23479,1.8752643,STD
6431057825000,3.879934,0.0542382365269238,9.6736492228433,-1.99305000040991,-0.050701816,-0.0033597588,0.016798794,205.563,-98.244385,1.8716079,STD
6431063389000,3.885498,0.0558181759951218,9.6701110399701,-1.98376247697392,-0.044593163,0.0033597588,0.010995574,205.5597,-98.25209,1.8646272,STD
6431067800000,3.889909,0.05415629734248,9.66761825838939,-1.97545308067391,-0.057421334,0.0012217305,0.013133603,205.56096,-98.25636,1.8606383,STD
6431072819000,3.894928,0.0522653499478736,9.66478187871278,-1.96599834024549,-0.051923547,0.014660766,0.0070249503,205.5576,-98.26675,1.8555439,STD
6431077843000,3.899952,0.0503725187642708,9.66194267339392,-1.95653418086864,-0.05681047,0.019547688,0.0106901415,205.55775,-98.271324,1.8534663,STD
6431082828000,3.904937,0.0484943811348401,9.6591255080845,-1.94714348928951,-0.061391957,0.017715093,0.0061086523,205.55544,-98.27648,1.8476506,STD
6431087807000,3.909916,0.046618504052205,9.65631173354577,-1.93776410044848,-0.059864793,0.016493361,0.012217305,205.55222,-98.28279,1.8461447,STD
6431092840000,3.914949,0.0447222820484087,9.65346744207089,-1.92828298696448,-0.06047566,0.02443461,0.0070249503,205.54631,-98.28616,1.8404804,STD
6431097835000,3.919944,0.0428403768409851,9.65064462547701,-1.91887345748849,-0.04642576,0.029932396,0.008857546,205.542,-98.29483,1.8384047,STD
6431102828000,3.924937,0.0409592251491601,9.64782293914002,-1.90946769559188,-0.048258353,0.031154128,0.004886922,205.54701,-98.29489,1.8276724,STD
6431107839000,3.929948,0.039071291816948,9.64499108049097,-1.90002802548094,-0.055283304,0.03023783,0.010079277,205.55139,-98.29809,1.8204414,STD
6431112836000,3.934945,0.0304519348939129,9.65170017727231,-1.90406301397919,-0.064751714,0.039095376,0.004886922,205.55199,-98.299164,1.8098484,STD
6431117829000,3.939938,0.0172416036424164,9.66491031540658,-1.91727338201492,-0.052839845,0.03176499,0.00580322,205.55777,-98.305,1.8019845,STD
6431122809000,3.944918,0.00299024889489324,9.67477056361435,-1.91615610602025,-0.04337143,0.04153884,0.004276057,205.5481,-98.2999,1.7936095,STD
6431127845000,3.949954,-0.0129338541379045,9.68007870493066,-1.89492392873652,-0.054061573,0.04184427,0.003970624,205.54327,-98.2928,1.7852963,STD
6431133067000,3.955176,-0.0315310232346635,9.67905758516974,-1.90519703356164,-0.058643065,0.04153884,0.0036651916,205.53477,-98.29059,1.7748873,STD
6431137810000,3.959919,-0.0495666766908874,9.6745485807028,-1.93225054246575,-0.052839845,0.040317107,0.0030543262,205.52647,-98.2884,1.7644416,STD
6431142898000,3.965007,-0.05838474864226,9.66980331555684,-1.94224398464495,-0.053145275,0.044593163,0.004581489,205.52065,-98.27193,1.7515142,STD
6431147837000,3.969946,-0.059899750230614,9.66525837881554,-1.93921398463214,-0.050701816,0.048563786,0.0036651916,205.51505,-98.258194,1.7379202,STD
6431152828000,3.974937,-0.0614307024329778,9.6606655909484,-1.93615208342462,-0.05222898,0.044898596,0.005192355,205.50993,-98.24637,1.7231945,STD
6431157845000,3.979954,-0.0629696299423465,9.65604887751834,-1.93307423161974,-0.04062254,0.044593163,0.0070249503,205.5027,-98.239265,1.7088763,STD
6431162832000,3.984941,-0.0644993551744018,9.65145977050703,-1.93001478435028,-0.032375857,0.049785517,0.0067195175,205.49583,-98.22055,1.6996198,STD
6431167833000,3.989942,-0.0660333748025368,9.64685778050031,-1.92694674829762,-0.035124753,0.05100725,0.0061086523,205.49019,-98.20274,1.6907164,STD
6431172803000,3.994912,-0.0612939847107856,9.6430244598636,-1.92411767699924,-0.03145956,0.0580322,0.010995574,205.48163,-98.189896,1.6838105,STD
6431177844000,3.999953,-0.0442221588128315,9.64058557847942,-1.92167884654711,-0.027488936,0.046731193,0.004581489,205.47743,-98.176216,1.6729218,STD
6431182828000,4.004937,-0.0273433688355645,9.63817427421066,-1.9192675926345,-0.026267206,0.053450707,0.008857546,205.46584,-98.163,1.6665108,STD
6431187813000,4.009922,-0.0104611922631978,9.63576248613286,-1.91685585492296,-0.028405234,0.05100725,0.0076358155,205.45952,-98.14974,1.6560311,STD
6431192813000,4.014922,-0.00118793185622485,9.63961367704141,-1.90882777336427,-0.02107485,0.05375614,0.0067195175,205.45013,-98.14419,1.645289,STD
6431197836000,4.019945,-0.004310371266909,9.65366461151499,-1.89165435285603,-0.028099801,0.05009095,0.0070249503,205.44325,-98.13433,1.6343493,STD
6431202759000,4.024868,-0.00737064783843957,9.66743581406595,-1.87482282803778,-0.016798794,0.05497787,0.006414085,205.43253,-98.12976,1.6339589,STD
6431207844000,4.029953,-0.0105316282093989,9.68166018233156,-1.85743743220174,-0.016493361,0.05467244,0.0067195175,205.42444,-98.120605,1.6334072,STD
6431212765000,4.034874,-0.0135906615241464,9.69542579024406,-1.84061274529729,-0.008246681,0.05467244,0.01160644,205.41518,-98.11733,1.6340352,STD
6431217831000,4.03994,-0.0167398309556666,9.70959700944437,-1.82329230964235,-0.015882496,0.06811147,0.0070249503,205.40192,-98.10943,1.6324334,STD
6431222792000,4.044901,-0.0149556683068009,9.71940949242655,-1.79952163247941,-0.024129177,0.059253927,0.0061086523,205.398,-98.10678,1.6292385,STD
