timestamp,rel_time,acc_x,acc_y,acc_z,gyro_x,gyro_y,gyro_z,azimuth,pitch,roll,label
58043178895000,0,-0.11191572170556,9.93170725066836,-0.750208222393403,-0.108123146,0.08307768,0.029321533,180.152,-50.13414,-9.261869,STD
58043183833000,0.004938,-0.10977288612624,9.92527883343151,-0.78663644961711,-0.10720685,0.09743301,0.030848695,180.64688,-50.41202,-9.694333,STD
58043188902000,0.010007,-0.107573203349495,9.91867987697675,-0.824031079790657,-0.10476339,0.111177474,0.024129177,181.13762,-50.672596,-10.11132,STD
58043194238000,0.015343,-0.105172224263163,9.91156336110862,-0.860790337980985,-0.10720685,0.106595986,0.03756821,181.62074,-50.920208,-10.505579,STD
58043198925000,0.02003,-0.10114616735492,9.90149822934792,-0.834620974383353,-0.098043874,0.118202426,0.029932396,182.09764,-51.156612,-10.894641,STD
58043204219000,0.025324,-0.0965987073011032,9.8901295910844,-0.805062491156157,-0.09285152,0.12370021,0.032070424,182.5668,-51.396816,-11.257723,STD
58043208889000,0.029994,-0.0925872531168715,9.88010096609561,-0.778988045241726,-0.09162979,0.118202426,0.03176499,183.03389,-51.625973,-11.607953,STD
58043213891000,0.034996,-0.0882906163225402,9.86935938532604,-0.751059912808324,-0.07238753,0.12858713,0.03359759,183.48601,-51.847893,-11.940048,STD
58043218987000,0.040092,-0.0785128286949511,9.85131362340018,-0.714378822120327,-0.065973446,0.12522738,0.029321533,183.94087,-52.056274,-12.256218,STD
58043223896000,0.045001,-0.0642996238395647,9.82762496513151,-0.671739237236723,-0.057421334,0.13622294,0.025045475,184.38693,-52.26128,-12.56237,STD
58043228896000,0.050001,-0.0522761669617772,9.80974616310092,-0.631780367647632,-0.048258353,0.13591751,0.025350908,184.8344,-52.451912,-12.851277,STD
58043233913000,0.055018,-0.0424158543640655,9.79742078071931,-0.59480417931866,-0.036651913,0.13469578,0.024740042,185.27826,-52.63706,-13.129937,STD
58043238944000,0.060049,-0.0325280264431789,9.78506100420707,-0.55772480848289,-0.03359759,0.13927728,0.025045475,185.72299,-52.811424,-13.398479,STD
58043243884000,0.064989,-0.0228190481229285,9.77292478954389,-0.521316123941306,-0.032986723,0.1337795,0.02565634,186.16869,-52.98135,-13.652586,STD
58043248953000,0.070058,-0.0252702467172331,9.7714013781521,-0.510629054282867,-0.024129177,0.13194689,0.025350908,186.61708,-53.140766,-13.90201,STD
58043253902000,0.075007,-0.0347181915729094,9.77612544602811,-0.515353023504435,-0.02107485,0.13622294,0.018020526,187.0646,-53.292362,-14.14054,STD
58043258901000,0.080006,-0.0467737981769652,9.76945325878685,-0.514325351866969,-0.031154128,0.1282817,0.018020526,187.51082,-53.433147,-14.357324,STD
58043263909000,0.085014,-0.0603680875178571,9.75585869642857,-0.509793925714286,-0.012217305,0.12767084,0.017715093,187.95427,-53.57675,-14.566248,STD
58043268903000,0.090008,-0.0837929335195311,9.7539763206246,-0.513554773309689,-0.01740966,0.12736541,0.018325957,188.40028,-53.708576,-14.766434,STD
58043273898000,0.095003,-0.116781755427319,9.76340188882321,-0.52533650227378,-0.01985312,0.12034045,0.009162978,188.84846,-53.840824,-14.95658,STD
58043278875000,0.09998,-0.149651698697601,9.7727934910103,-0.537075774556918,-0.015271631,0.13103059,0.010995574,189.2927,-53.96513,-15.14244,STD
58043283911000,0.105016,-0.182911299724152,9.78229642623516,-0.548954210405399,-0.009468411,0.12858713,0.006414085,189.74315,-54.08414,-15.31782,STD
58043288898000,0.110003,-0.22545266942005,9.78970951615576,-0.539965881488194,-0.009773844,0.13255776,0.0061086523,190.18158,-54.208744,-15.479533,STD
58043293874000,0.114979,-0.279739757539354,9.79464428997514,-0.50541955315348,-0.0070249503,0.12858713,0.0067195175,190.62231,-54.332447,-15.630569,STD
58043298919000,0.120024,-0.353037685957992,9.79462163465141,-0.277581966838576,0.003970624,0.12461651,0.007941248,191.07639,-54.43896,-15.797608,STD
58043303903000,0.125008,-0.442465286857312,9.78991531535352,0.127195595902771,0.00580322,0.12186762,0.008857546,191.52954,-54.542164,-15.953171,STD
58043308883000,0.129988,-0.486427432641931,9.79744558679035,-0.00306396849952761,0.009162978,0.12614368,0.006414085,191.99963,-54.627674,-16.125021,STD
58043313913000,0.135018,-0.48229007079361,9.81813239603195,-0.706416018417933,0.021685716,0.11575896,0.005497787,192.47153,-54.715572,-16.281874,STD
58043318838000,0.139943,-0.484816146302817,9.83463401034998,-1.21966548534571,0.017104227,0.113926366,0.0015271631,192.97528,-54.72621,-16.471905,STD
58043323901000,0.145006,-0.526205279929578,9.82946026397781,-0.712648529539053,0.018325957,0.09560041,0.008552114,193.4808,-54.745247,-16.641678,STD
58043328870000,0.149975,-0.563578330045032,9.82642889947462,-0.410581679975607,0.022296581,0.09590584,0.002443461,193.94899,-54.86366,-16.790552,STD
58043333920000,0.155025,-0.593070656951872,9.8286975855615,-0.61475931540107,0.02321288,0.084910266,-0.0009162979,194.4207,-54.98186,-16.92164,STD
58043338871000,0.159976,-0.621984817450042,9.83092179641617,-0.814934260547894,0.022907447,0.07147124,0.0009162979,194.92538,-55.025425,-17.06729,STD
58043343881000,0.164986,-0.65124354176752,9.83317251271226,-1.01749464737593,0.018020526,0.061086524,-0.0012217305,195.42972,-55.069412,-17.201103,STD
58043349181000,0.170286,-0.684097167043639,9.83613440626921,-1.183103560504,0.010995574,0.043676864,-0.006414085,195.94145,-55.11166,-17.32439,STD
58043354564000,0.175669,-0.742186844897562,9.84669582800656,-0.718386093558697,0.01282817,0.03359759,-0.01160644,196.45067,-55.15765,-17.436146,STD
58043358986000,0.180091,-0.792028647642931,9.85488824281012,-0.36393109720894,0.018325957,0.008552114,-0.0067195175,196.95363,-55.241848,-17.539547,STD
58043363920000,0.185025,-0.869799553240644,9.85898153092515,-0.253414549173597,0.009162978,-0.011911872,-0.01863139,197.45796,-55.321545,-17.636702,STD
58043368842000,0.189947,-0.947381311925676,9.86306486373874,-0.143166788851351,0.009162978,-0.032070424,-0.027794369,197.96938,-55.36561,-17.727133,STD
58043373896000,0.195001,-0.928947509041227,9.8780418198466,-0.247265257690316,0.029626964,-0.046120327,-0.019242255,198.48032,-55.417053,-17.80381,STD
58043378877000,0.199982,-0.878638501668265,9.89633589146692,-0.42105997439885,0.011911872,-0.06536258,-0.020463986,198.99742,-55.46025,-17.871674,STD
58043383906000,0.205011,-0.845277223862396,9.90907228386034,-0.475513267129468,0.016493361,-0.081855945,-0.026572637,199.50905,-55.499016,-17.939459,STD
58043388854000,0.209959,-0.820874069065815,9.91883374147698,-0.470632624958286,0.01985312,-0.0983493,-0.027794369,200.02196,-55.538216,-17.994337,STD
58043393879000,0.214984,-0.799073993993894,9.921572,-0.459293809329263,0.01038471,-0.12980886,-0.032375857,200.54175,-55.610252,-18.034311,STD
58043398967000,0.220072,-0.778153226372484,9.921572,-0.445346630914989,0.028099801,-0.13103059,-0.030848695,201.05411,-55.693733,-18.066637,STD
58043404039000,0.225144,-0.757298247328499,9.921572,-0.431443311552333,0.02107485,-0.14935656,-0.032070424,201.57892,-55.77382,-18.08205,STD
58043408921000,0.230026,-0.737224507641447,9.921572,-0.418060818427631,0.016798794,-0.17012598,-0.030543262,202.10107,-55.862873,-18.0883,STD
58043413892000,0.234997,-0.717477648749937,9.91121226761909,-0.389788406219629,0.008246681,-0.19028452,-0.032986723,202.62566,-55.951923,-18.086111,STD
58043418906000,0.240011,-0.698153507616077,9.89188797514965,-0.34872457856532,0.013744468,-0.19914207,-0.027488936,203.14835,-56.0484,-18.073334,STD
58043424577000,0.245682,-0.676297264223553,9.87003156059158,-0.302280029975854,0.016187929,-0.22021692,-0.027794369,203.6807,-56.14984,-18.048939,STD
58043428891000,0.249996,-0.659670948936063,9.85340511509633,-0.266949086118517,0.022907447,-0.22632557,-0.032375857,204.20822,-56.257236,-18.018969,STD
58043433912000,0.255017,-0.642712953436289,9.82510068411685,-0.220630532795519,0.01985312,-0.23304509,-0.03634648,204.73729,-56.37021,-17.98221,STD
58043438903000,0.260008,-0.627699470474296,9.79006962276201,-0.170585680166475,0.02443461,-0.24923302,-0.036957346,205.26768,-56.489574,-17.938028,STD
58043443875000,0.26498,-0.607539916151845,9.76894830995279,-0.141266897047885,0.030543262,-0.26725355,-0.03634648,205.80408,-56.599422,-17.885607,STD
58043448959000,0.270064,-0.584084630621447,9.75487485355044,-0.122502665684555,0.03573562,-0.2666427,-0.03726278,206.33698,-56.713394,-17.829088,STD
58043453976000,0.275081,-0.560909424234817,9.73822987660519,-0.134100260375591,0.03604105,-0.27763826,-0.04795292,206.87613,-56.823704,-17.7657,STD
58043458910000,0.280015,-0.538097832461137,9.71998069846481,-0.166036512678382,0.048258353,-0.27977628,-0.038789943,207.40694,-56.944687,-17.694397,STD
58043463911000,0.285016,-0.506897123764259,9.71969406653992,-0.190771447148289,0.05009095,-0.27977628,-0.038789943,207.94116,-57.061665,-17.619064,STD
58043468907000,0.290012,-0.467913624325548,9.73701995573058,-0.208097435842839,0.07452556,-0.28405234,-0.049785517,208.47429,-57.190083,-17.539434,STD
58043473901000,0.295006,-0.429298163372284,9.7510615273206,-0.228224630294602,0.076358154,-0.28680122,-0.051923547,209.00386,-57.322075,-17.451727,STD
58043478893000,0.299998,-0.391530618829822,9.75735624542462,-0.254976641628374,0.080634214,-0.28771752,-0.052839845,209.53253,-57.462,-17.362606,STD
58043483902000,0.305007,-0.353634458851218,9.76367239986833,-0.281819755564845,0.089491755,-0.28130344,-0.055588737,210.06151,-57.610485,-17.26255,STD
58043488904000,0.310009,-0.315791258169849,9.76997972758394,-0.308625356664911,0.09712757,-0.27763826,-0.06352998,210.58945,-57.761604,-17.160564,STD
58043494377000,0.315482,-0.274384653345951,9.77688096800527,-0.337955035757406,0.09743301,-0.26328292,-0.06261369,211.10281,-57.921738,-17.054129,STD
58043498954000,0.320059,-0.239756838568137,9.78265238722844,-0.362483071789993,0.10415252,-0.25992316,-0.07666359,211.61868,-58.083992,-16.94988,STD
58043503854000,0.324959,-0.201781288839433,9.79195120441807,-0.389753606161117,0.105068825,-0.24862215,-0.06688975,212.12265,-58.251102,-16.83978,STD
58043508916000,0.330021,-0.159158764836795,9.81326234124629,-0.421720500553907,0.11301007,-0.24037547,-0.073303826,212.62814,-58.4189,-16.734928,STD
58043513876000,0.334981,-0.12478730594928,9.8313767141878,-0.473969877806717,0.10323623,-0.23243423,-0.06719518,213.11774,-58.619938,-16.60153,STD
58043518916000,0.340021,-0.101157073735435,9.8455546442769,-0.559038711802605,0.09987647,-0.21471913,-0.064446285,213.60234,-58.823486,-16.47175,STD
58043523831000,0.344936,-0.0719868084476327,9.86400366073649,-0.622385277664275,0.09865474,-0.21380283,-0.06169739,214.07492,-59.04429,-16.324415,STD
58043528890000,0.349995,-0.0302802963156385,9.89180807957915,-0.650189628763271,0.0983493,-0.20555615,-0.07086037,214.54094,-59.26302,-16.182312,STD
58043533838000,0.354943,0.00817219655320776,9.91666479873793,-0.669209044220289,0.08857546,-0.1881465,-0.06872234,214.99773,-59.498096,-16.031504,STD
58043538902000,0.360007,0.0406302383927718,9.93521214054881,-0.664572184558753,0.08368854,-0.18020524,-0.05955936,215.45422,-59.733402,-15.880979,STD
58043543873000,0.364978,0.0704983137717622,9.95635819299363,-0.667721022123142,0.07819075,-0.15760323,-0.050701816,215.90042,-59.975,-15.719788,STD
58043548917000,0.370022,0.0910101681369427,9.99225412420382,-0.708744698726115,0.07544186,-0.1572978,-0.055588737,216.35037,-60.214508,-15.55851,STD
58043553877000,0.374982,0.11005895775491,10.0208755072464,-0.751556338187119,0.06811147,-0.13836098,-0.050396383,216.77672,-60.467022,-15.390653,STD
58043558890000,0.379995,0.126527021716834,10.0332263768116,-0.800960547268673,0.06536258,-0.12644911,-0.04886922,217.20547,-60.71725,-15.225105,STD
58043564436000,0.385541,0.143951459591664,10.0478661619262,-0.854431316516474,0.04642576,-0.11362094,-0.032070424,217.62436,-60.974785,-15.052445,STD
58043568901000,0.390006,0.147965395257674,10.0719498346006,-0.882528857795926,0.04642576,-0.09437868,-0.016798794,218.03792,-61.234467,-14.883167,STD
58043573833000,0.394938,0.152399153534216,10.0985524490754,-0.913565156472355,0.032375857,-0.086437434,-0.0030543262,218.45416,-61.49287,-14.707497,STD
58043578890000,0.399995,0.156863736711348,10.1144353169299,-0.955721698136247,0.021685716,-0.07147124,-0.00030543262,218.86247,-61.750847,-14.535349,STD
58043583943000,0.405048,0.161306595775799,10.1277636946383,-1.00015026558483,0.022602014,-0.06536258,0.0015271631,219.26904,-62.00832,-14.361311,STD
58043588910000,0.410015,0.156720290133437,10.1200902165189,-0.990799790065257,0.017715093,-0.045814894,0.010995574,219.66638,-62.268806,-14.187123,STD
58043593883000,0.414988,0.147442901192169,10.1015355548846,-0.953690248831207,0.00580322,-0.034208454,0.01282817,220.06453,-62.524895,-14.015856,STD
58043598939000,0.420044,0.126461599390582,10.082493734072,-0.918471464958449,0.0012217305,-0.025961773,0.01740966,220.45609,-62.78953,-13.842992,STD
58043603906000,0.425011,0.0982257473644638,10.0636699441037,-0.885529635956668,-0.0076358155,-0.005192355,0.015577064,220.84135,-63.047325,-13.6757965,STD
58043608904000,0.430009,0.0755425602829023,10.0316874987457,-0.836881123417599,-0.018325957,0.002443461,0.025961773,221.22076,-63.299484,-13.506346,STD
58043613911000,0.435016,0.057035778094944,9.9900473658819,-0.776734076958703,-0.021380283,0.010079277,0.02565634,221.59569,-63.5474,-13.344184,STD
58043618953000,0.440058,0.0409966765639013,9.96027291311659,-0.721737255250374,-0.031154128,0.016493361,0.02565634,221.9701,-63.778915,-13.18766,STD
58043623994000,0.445099,0.0274662171900224,9.94223240610987,-0.672125554867339,-0.043066,0.027183503,0.027794369,222.34052,-64.0078,-13.033463,STD
58043628880000,0.449985,0.0118823534279045,9.92569544466843,-0.612560969480106,-0.035430185,0.032375857,0.021685716,222.7143,-64.218414,-12.88567,STD
58043633875000,0.45498,-0.00841946130525199,9.91046877676393,-0.531353743405836,-0.036651913,0.03604105,0.02321288,223.08368,-64.424385,-12.737678,STD
58043638895000,0.46,-0.0281031269779043,9.88899369291957,-0.483942389539428,-0.048258353,0.05497787,0.023823744,223.44861,-64.61627,-12.598863,STD
58043643878000,0.464983,-0.0468485759770205,9.86087544063636,-0.474569656721006,-0.056505036,0.051923547,0.02107485,223.8177,-64.80773,-12.459779,STD
58043648904000,0.470009,-0.0594402987598425,9.84099821062992,-0.457386771574803,-0.053450707,0.06505715,0.022296581,224.17728,-64.98386,-12.329189,STD
58043653905000,0.47501,-0.0639297650899888,9.83201956861642,-0.430449982969629,-0.051923547,0.06536258,0.01160644,224.5414,-65.155266,-12.20189,STD
58043658920000,0.480025,-0.0750200349924861,9.82420749066123,-0.407013248671103,-0.0571159,0.08582657,0.01740966,224.88863,-65.32785,-12.085693,STD
58043663922000,0.485027,-0.100730202238085,9.81906535304852,-0.391587147249893,-0.05589417,0.07941248,0.0143553335,225.24387,-65.4993,-11.972493,STD
58043668880000,0.489985,-0.125343834239647,9.81935360045572,-0.373692323687339,-0.048258353,0.08979719,0.014049901,225.5867,-65.66651,-11.863099,STD
58043673936000,0.495041,-0.14932854604468,9.82654890855954,-0.352106088823063,-0.042760566,0.10140363,0.01160644,225.93011,-65.83254,-11.755128,STD
58043678889000,0.499994,-0.172824645247672,9.83359763503071,-0.330959605183277,-0.045814894,0.09865474,0.010079277,226.28671,-65.98154,-11.648333,STD
58043683922000,0.505027,-0.196700249384288,9.84076021131365,-0.309471567194373,-0.04550946,0.11301007,0.015271631,226.63333,-66.13359,-11.543885,STD
58043688829000,0.509934,-0.217865253373194,9.83957545020568,-0.302262648466469,-0.044898596,0.110872045,0.0106901415,226.98991,-66.279816,-11.441946,STD
58043693884000,0.514989,-0.236390365503683,9.825681816799,-0.316156484982302,-0.038179077,0.12308934,0.007330383,227.33617,-66.42889,-11.341759,STD
58043698895000,0.52,-0.251802074197819,9.81903215838538,-0.334026742341754,-0.03604105,0.1301143,0.004581489,227.68947,-66.561195,-11.250524,STD
58043703892000,0.524997,-0.260724483921879,9.82795474046798,-0.360793938905565,-0.03848451,0.13072516,0.0021380284,228.03922,-66.69445,-11.160896,STD
58043708867000,0.529972,-0.270676079125283,9.8328554698912,-0.381388608421846,-0.034513887,0.13622294,0.0030543262,228.39055,-66.82468,-11.0778265,STD
58043713917000,0.535022,-0.286305576162878,9.8172256573306,-0.370968950983518,-0.04184427,0.14172074,0.004276057,228.73944,-66.95222,-10.9953575,STD
58043718846000,0.539951,-0.298970304101578,9.80873932627934,-0.37297222468257,-0.029321533,0.14294247,-0.0012217305,229.08838,-67.08825,-10.915397,STD
58043723895000,0.545,-0.30594702065506,9.81571618367641,-0.403204663890439,-0.027183503,0.13927728,0.0061086523,229.43333,-67.22268,-10.8317,STD
58043728858000,0.549963,-0.312804902266256,9.82257420373221,-0.432922151667949,-0.027488936,0.13805555,0.004886922,229.7841,-67.34843,-10.754692,STD
58043733914000,0.555019,-0.31979129143132,9.82956073393613,-0.463196505527126,-0.027488936,0.13561209,0.00061086525,230.13326,-67.47641,-10.676069,STD
58043738860000,0.559965,-0.331213093447555,9.83398055812332,-0.496119426049407,-0.024740042,0.13500121,-0.0036651916,230.47673,-67.60887,-10.601469,STD
58043743883000,0.564988,-0.369547024329116,9.82439688026696,-0.548828598523757,-0.01985312,0.12950343,0.00061086525,230.81937,-67.74322,-10.524945,STD
58043749637000,0.570742,-0.407792561535302,9.82179367572263,-0.606008733564998,-0.01160644,0.13133603,0.0033597588,231.16208,-67.88557,-10.451416,STD
58043753906000,0.575011,-0.42393669433028,9.83793779166009,-0.641525808856421,-0.0070249503,0.12980886,-0.00061086525,231.50508,-68.02841,-10.377605,STD
58043758876000,0.579981,-0.442731807937924,9.85673288564208,-0.682875039167588,-0.01282817,0.12675454,-0.012217305,231.85007,-68.17105,-10.310157,STD
58043763996000,0.585101,-0.465529547862006,9.87644662473326,-0.729946145384615,-0.0076358155,0.12339478,-0.004886922,232.19162,-68.32029,-10.238182,STD
58043768911000,0.590016,-0.48944479613962,9.89557871547607,-0.777776656923077,-0.0030543262,0.11759156,0.0018325958,232.53333,-68.46688,-10.168648,STD
58043773941000,0.595046,-0.495029335756171,9.8964889572496,-0.806733436262177,0.0015271631,0.11911872,0.0070249503,232.87943,-68.617714,-10.0999565,STD
58043778910000,0.600015,-0.490528520547621,9.88748760881491,-0.824736711195498,0.0021380284,0.118202426,-0.00061086525,233.22585,-68.76835,-10.032005,STD
58043783909000,0.605014,-0.477506115201238,9.88599252941177,-0.846820986377709,0.00580322,0.115453534,0.01038471,233.56833,-68.93077,-9.960261,STD
58043788902000,0.610007,-0.457086776089463,9.89109693509128,-0.87234514694139,0.0125227375,0.112399206,-0.0012217305,233.91156,-69.090164,-9.896403,STD
58043793877000,0.614982,-0.441055676103345,9.8898231706353,-0.893138541680324,0.01160644,0.11362094,-0.0021380284,234.25098,-69.25398,-9.826136,STD
58043798917000,0.620022,-0.427096226840837,9.88517041444134,-0.91175114555577,0.009773844,0.10445796,0.011301007,234.59158,-69.41964,-9.753804,STD
58043803992000,0.625097,-0.424135736360161,9.88050870607914,-0.938667118911298,0.014966198,0.10598512,-0.00061086525,234.9302,-69.58872,-9.686661,STD
58043808918000,0.630023,-0.428644942706939,9.87599940556299,-0.970231586881093,0.015577064,0.093767814,0.0036651916,235.27039,-69.75996,-9.60964,STD
58043813904000,0.635009,-0.435708735772546,9.8713117337299,-0.981658660505621,0.013744468,0.094989546,0.0021380284,235.60843,-69.93198,-9.538693,STD
58043819281000,0.640386,-0.446092257572213,9.866119867117,-0.971275130574179,0.015271631,0.08827003,0.0033597588,235.94937,-70.10549,-9.464327,STD
58043823898000,0.645003,-0.455008143781822,9.86166183324091,-0.962359237382165,0.007330383,0.089491755,0.0018325958,236.28943,-70.27682,-9.385394,STD
58043828893000,0.649998,-0.464653985587538,9.8568388141352,-0.952713388022382,0.0018325958,0.0842994,0.008246681,236.63034,-70.449974,-9.303364,STD
58043833907000,0.655012,-0.471818184135865,9.85708870948416,-0.945549193866775,0.0076358155,0.0842994,0.006414085,236.96526,-70.62416,-9.223695,STD
58043838903000,0.660008,-0.47667661657697,9.86194722816816,-0.940690776645004,0.00580322,0.073303826,0.009162978,237.30177,-70.79612,-9.140297,STD
58043843862000,0.664967,-0.480118347374009,9.86283297593655,-0.91935707938133,0.0018325958,0.07422013,0.0030543262,237.6319,-70.9625,-9.064292,STD
58043848984000,0.670089,-0.482512605804759,9.86043866750457,-0.883443184169616,-0.003970624,0.06352998,0.008552114,237.96497,-71.129684,-8.983047,STD
58043853926000,0.675031,-0.484822723954851,9.85812850111043,-0.848791393826724,0.0018325958,0.057726767,0.00580322,238.29515,-71.29577,-8.907306,STD
58043858897000,0.680002,-0.487146398039048,9.85580477849908,-0.813936264366077,-0.0036651916,0.062002823,-0.0030543262,238.62337,-71.45725,-8.832298,STD
58043863900000,0.685005,-0.489485030395363,9.85346609730323,-0.778856760706528,-0.012217305,0.049785517,-0.0021380284,238.95062,-71.62303,-8.753979,STD
58043868915000,0.69002,-0.491829272103722,9.85112180663819,-0.743693116722392,-0.014660766,0.04642576,0.0033597588,239.27252,-71.78799,-8.678449,STD
58043873893000,0.694998,-0.494156218309945,9.84879481183649,-0.708788905405735,-0.009468411,0.04062254,-0.0030543262,239.5972,-71.950874,-8.60539,STD
58043878892000,0.699997,-0.496492980882245,9.8464580004637,-0.673737448521049,-0.0033597588,0.036957346,-0.007941248,239.91953,-72.114,-8.530983,STD
58043883900000,0.705005,-0.496196799874687,9.84316,-0.647628586613409,0.0027488936,0.032986723,-0.00061086525,240.2339,-72.283356,-8.4506,STD
58043888901000,0.710006,-0.491195382080201,9.838159,-0.637625714467419,-0.0030543262,0.028710667,-0.005192355,240.54877,-72.44835,-8.375311,STD
58043893850000,0.714955,-0.48639701467159,9.83740096657598,-0.626008826124174,-0.006414085,0.013439035,-0.007330383,240.85776,-72.59424,-8.295308,STD
58043898978000,0.720083,-0.481625363835989,9.84217221881073,-0.611693878599883,0.0015271631,0.015577064,-0.016187929,241.16187,-72.73981,-8.220441,STD
58043903837000,0.724942,-0.480484806501334,9.84989047253152,-0.595116550624827,0.00061086525,0.012217305,-0.016798794,241.46806,-72.88221,-8.138151,STD
58043908910000,0.730015,-0.484955507375541,9.86330285524984,-0.572763027580749,0.0036651916,0.0143553335,-0.011911872,241.77032,-73.027,-8.058467,STD
58043913883000,0.734988,-0.486483281077295,9.8746549531401,-0.548686264323672,-0.0021380284,0.0076358155,-0.02076942,242.07614,-73.16469,-7.9807935,STD
58043918918000,0.740023,-0.477165548995169,9.87931390917874,-0.516074228792271,0.003970624,0.0036651916,-0.01863139,242.3773,-73.30817,-7.9003158,STD
58043923851000,0.744956,-0.470602214569892,9.88259563978495,-0.489086496236559,0.007941248,-0.00030543262,-0.020158553,242.6737,-73.44746,-7.820898,STD
58043928898000,0.750003,-0.480792850307822,9.87750022348724,-0.494181806124816,0.010079277,0.0015271631,-0.015271631,242.96686,-73.588776,-7.740533,STD
58043933861000,0.754966,-0.49308291648744,9.8708884845674,-0.4970607976769,0.011301007,-0.0012217305,-0.014049901,243.2559,-73.72807,-7.665114,STD
58043938889000,0.759994,-0.512846584472993,9.8590300485142,-0.493108068207191,0.019242255,-0.005497787,-0.018020526,243.54285,-73.86919,-7.5910177,STD
58043943848000,0.764953,-0.532339032671154,9.84733434756198,-0.489209582638319,0.02321288,-0.0036651916,-0.009773844,243.82571,-74.01082,-7.5157743,STD
58043948888000,0.769993,-0.528436085719523,9.83709215673694,-0.50021478035747,0.016493361,-0.005497787,-0.017715093,244.11023,-74.148575,-7.4466968,STD
58043953868000,0.774973,-0.518721733260006,9.82737813901619,-0.51478625832875,0.023823744,-0.019242255,-0.013439035,244.39415,-74.29314,-7.3724365,STD
58043958907000,0.780012,-0.525220660079677,9.83387706528559,-0.527238936938399,0.027488936,-0.016798794,-0.021991149,244.67197,-74.42884,-7.3091707,STD
58043963846000,0.784951,-0.534642479567751,9.84329882082566,-0.539016207609183,0.029626964,-0.016493361,-0.021685716,244.95132,-74.56738,-7.242212,STD
58043968869000,0.789974,-0.544224540569693,9.85288081679199,-0.550993780109556,0.03970624,-0.015271631,-0.0143553335,245.22585,-74.71234,-7.1782265,STD
58043973843000,0.794948,-0.553713127355212,9.86236933917633,-0.562854509876002,0.03634648,-0.028405234,-0.015271631,245.50296,-74.85277,-7.1164136,STD
58043978924000,0.800029,-0.5554548,9.86018853785683,-0.592488282081266,0.036957346,-0.030848695,-0.013744468,245.7742,-74.99734,-7.0536437,STD
58043983860000,0.804965,-0.5554548,9.85554331877364,-0.625004160860807,0.04795292,-0.027794369,-0.011301007,246.04362567468,-75.1431673488247,-6.99417407257082,STD
58043993857000,0.814962,-0.5554548,9.84613524438658,-0.690859355382499,0.05467244,-0.038789943,-0.003970624,246.5893,-75.438515,-6.8737288,STD
58043998876000,0.819981,-0.551995452481181,9.84668670988157,-0.704295921278228,0.06078109,-0.044898596,-0.010079277,246.86041,-75.590775,-6.819348,STD
58044003855000,0.82496,-0.547423089514312,9.84897293910917,-0.711154465728532,0.053450707,-0.047647487,-0.010079277,246.994749897553,-75.6644700436642,-6.79076718308136,STD
58044008930000,0.830035,-0.542762566907993,9.85130324907705,-0.718145249638011,0.047647487,-0.050701816,-0.007941248,247.13168,-75.739586,-6.7616353,STD
58044013890000,0.834995,-0.538207652203097,9.85358075399147,-0.724977621695354,0.047647487,-0.052839845,-0.010079277,247.40019,-75.89973,-6.704392,STD
58044018900000,0.840005,-0.541684022068966,9.86260840172414,-0.752060016172414,0.054367006,-0.062002823,0.0027488936,247.66956,-76.059425,-6.642491,STD
58044023919000,0.845024,-0.550892060229885,9.87642074741379,-0.793496216741379,0.049785517,-0.055283304,-0.00061086525,247.93442,-76.21262,-6.5874443,STD
58044028882000,0.849987,-0.55222832193217,9.88487818597136,-0.826127845595129,0.052534413,-0.059253927,0.0009162979,248.20355,-76.37345,-6.5258894,STD
58044033919000,0.855024,-0.54566460221179,9.88815993788482,-0.850741779982311,0.046731193,-0.053450707,-0.0036651916,248.46692,-76.5284,-6.4689817,STD
58044038899000,0.860004,-0.539175159248223,9.89140455264143,-0.875077176696262,0.048258353,-0.055283304,0.005497787,248.73404,-76.69274,-6.408384,STD
58044043883000,0.864988,-0.532680503880668,9.8946517735143,-0.899432119913597,0.043066,-0.06414085,0.006414085,249.00058,-76.850784,-6.3522654,STD
58044048918000,0.870023,-0.526119390362282,9.89793222236963,-0.924036281049087,0.03970624,-0.055588737,0.0033597588,249.25212,-77.01244,-6.3081636,STD
58044053908000,0.875013,-0.519616916388747,9.90118335241691,-0.948420544021499,0.029321533,-0.05497787,-0.0027488936,249.50684,-77.16914,-6.2643113,STD
58044058912000,0.880017,-0.508698544302876,9.91086717508513,-0.954864352416761,0.034208454,-0.052534413,0.004276057,249.75644,-77.328636,-6.218786,STD
58044063925000,0.88503,-0.495075252109345,9.92449075652667,-0.950323229729474,0.014049901,-0.047647487,0.01038471,250.00385,-77.47682,-6.175911,STD
58044068900000,0.890005,-0.4747411535583,9.93342814035253,-0.936707198595532,0.015882496,-0.03970624,0.0125227375,250.25371,-77.642136,-6.133456,STD
58044074711000,0.895816,-0.443267404915638,9.9386733223678,-0.910479103026675,0.008246681,-0.044593163,0.010079277,250.50403,-77.79856,-6.0907516,STD
58044078885000,0.89999,-0.43295734383381,9.94272608562321,-0.89821881616619,-0.0012217305,-0.038789943,0.004886922,250.74097,-77.95775,-6.0489564,STD
58044083921000,0.905026,-0.438258373158936,9.94802722565399,-0.892917786841064,-0.00061086525,-0.042760566,0.010079277,250.98009,-78.116776,-6.004814,STD
58044088897000,0.910002,-0.432710667240546,9.9607318486314,-0.880213140578393,-0.008552114,-0.03970624,0.01038471,251.2136,-78.26679,-5.961801,STD
58044093880000,0.914985,-0.418863710778605,9.97919434800271,-0.861750515897089,-0.023518313,-0.03940081,0.00030543262,251.44757,-78.41268,-5.920656,STD
58044098939000,0.920044,-0.407087313867814,9.9815360492765,-0.84290505788815,-0.017104227,-0.025350908,0.017104227,251.66585,-78.566925,-5.8771663,STD
58044103943000,0.925048,-0.397716506828314,9.96748003441533,-0.824163424239343,-0.022602014,-0.01985312,0.018325957,251.88611,-78.70904,-5.840988,STD
58044108920000,0.930025,-0.381867337501487,9.95125365823914,-0.816184906698394,-0.02321288,-0.027794369,0.017715093,252.10457,-78.852066,-5.8007493,STD
58044113929000,0.935034,-0.358086735046599,9.93222929149316,-0.820941023216339,-0.027183503,-0.02443461,0.018020526,252.31665,-78.99141,-5.7614193,STD
58044118860000,0.939965,-0.354161437174254,9.91217561067504,-0.804812569576138,-0.036957346,-0.019547688,0.015577064,252.52718,-79.124756,-5.7227287,STD
58044123908000,0.945013,-0.376482855026318,9.8898542114692,-0.760169743195124,-0.03481932,-0.013439035,0.021685716,252.7345,-79.259674,-5.682433,STD
58044128850000,0.949955,-0.392028324429435,9.86872192691532,-0.735286357772177,-0.03481932,-0.022602014,0.027183503,252.95007,-79.38925,-5.6362634,STD
58044133907000,0.955012,-0.389587297275202,9.84919359753024,-0.764578647938508,-0.036957346,-0.021380283,0.0290161,253.15932,-79.51766,-5.591058,STD
58044138825000,0.95993,-0.387213365785282,9.83020203654234,-0.793065791113911,-0.040317107,-0.01863139,0.028099801,253.36649,-79.6341,-5.5495505,STD
58044144586000,0.965691,-0.384432515985887,9.80795511038306,-0.826435948054435,-0.040011674,-0.008552114,0.026572637,253.56953,-79.74991,-5.508926,STD
58044148964000,0.970069,-0.384448823088547,9.79569655477748,-0.83862931360914,-0.042760566,-0.0070249503,0.031154128,253.77234,-79.863815,-5.467393,STD
58044153995000,0.9751,-0.388888239049111,9.79125751893486,-0.825311074998618,-0.03573562,-0.004886922,0.021991149,253.97119,-79.97661,-5.4314365,STD
58044158919000,0.980024,-0.393195948075563,9.78968446088157,-0.812934824419909,-0.04550946,0.0033597588,0.028405234,254.16895,-80.09458,-5.390038,STD
58044163917000,0.985022,-0.397324719437592,9.80619946010524,-0.804677286007073,-0.039095376,0.00061086525,0.02443461,254.36856,-80.21371,-5.354527,STD
58044168899000,0.990004,-0.40144027344432,9.82266159018373,-0.796446182291038,-0.037873644,0.012217305,0.025961773,254.56363,-80.32296,-5.322352,STD
58044173903000,0.995008,-0.406101930569203,9.83355585829838,-0.802627067091072,-0.039095376,0.0125227375,0.021685716,254.76152,-80.43041,-5.2929764,STD
58044178899000,1.000004,-0.410879810816856,9.84311131945277,-0.812182822597364,-0.03145956,0.0061086523,0.020463986,254.95636,-80.53974,-5.2630734,STD
58044183910000,1.005015,-0.407849233127232,9.84891052943577,-0.79030785399449,-0.032375857,0.024740042,0.021991149,255.14041,-80.642044,-5.2439647,STD
58044188834000,1.009939,-0.403037870694827,9.85372199234772,-0.761439649256198,-0.036651913,0.03359759,0.01985312,255.32776,-80.74329,-5.2258387,STD
58044193882000,1.014987,-0.398373049853081,9.84682858109139,-0.745009209559244,-0.03726278,0.047647487,0.023823744,255.50763,-80.84619,-5.207051,STD
58044198911000,1.020016,-0.393778342049227,9.8376394533486,-0.731225086147682,-0.032986723,0.04184427,0.023823744,255.68945,-80.94691,-5.189769,STD
58044203898000,1.025003,-0.39264908,9.84732096436881,-0.723061314252476,-0.03634648,0.04886922,0.018020526,255.86003,-81.04056,-5.1739197,STD
58044208851000,1.029956,-0.39264908,9.86308706501363,-0.716754873994549,-0.036957346,0.055588737,0.02076942,256.03067,-81.13601,-5.155633,STD
58044214271000,1.035376,-0.39264908,9.88033969281393,-0.709853822874427,-0.03145956,0.0571159,0.021380283,256.20795,-81.2241,-5.135396,STD
58044218882000,1.039987,-0.39264908,9.89501715901084,-0.703982836395666,-0.028405234,0.058643065,0.014966198,256.38196,-81.30978,-5.116967,STD
58044223899000,1.045004,-0.39264908,9.91098698072193,-0.697594907711228,-0.03176499,0.06963864,0.01863139,256.55103,-81.39604,-5.0962286,STD
58044228888000,1.049993,-0.39264908,9.92686767446653,-0.691242630213388,-0.032070424,0.06994407,0.0076358155,256.72202,-81.47912,-5.0814357,STD
58044233918000,1.055023,-0.387355500115,9.9276198755,-0.6965882016,-0.027794369,0.076052725,0.015271631,256.88583,-81.56578,-5.0602207,STD
58044238898000,1.060003,-0.380201625535,9.9228505295,-0.7061266944,-0.028710667,0.079107046,0.01160644,257.04977,-81.6464,-5.045456,STD
58044243892000,1.064997,-0.373027639661,9.9180677757,-0.71569200224,-0.024129177,0.07269296,0.0030543262,257.21222,-81.72706,-5.0297656,STD
58044248937000,1.070042,-0.365780391216,9.9132361792,-0.72535499344,-0.021380283,0.0693332,0.005497787,257.3713,-81.80737,-5.012439,STD
58044253934000,1.075039,-0.339523055039147,9.89674775884023,-0.712590058840231,-0.022296581,0.08399397,0.004276057,257.53284,-81.87899,-5.0040703,STD
58044258962000,1.080067,-0.306380363403596,9.87603359279016,-0.691875892790157,-0.034208454,0.0852157,0.008552114,257.69733,-81.94933,-4.992959,STD
58044263891000,1.084996,-0.28830800266289,9.864111,-0.681960901133145,-0.036957346,0.07788532,0.0070249503,257.85938,-82.023735,-4.98213,STD
58044268918000,1.090023,-0.290787666538244,9.864111,-0.686920218526912,-0.034513887,0.08582657,0.012217305,258.01495,-82.0977,-4.968801,STD
58044273898000,1.095003,-0.293244146764873,9.864111,-0.691833168720062,-0.032986723,0.076052725,0.012217305,258.18478,-82.16753,-4.942959,STD
58044278882000,1.099987,-0.295702600067989,9.864111,-0.696750065057945,-0.035124753,0.07544186,0.016493361,258.34784,-82.23811,-4.915571,STD
58044283893000,1.104998,-0.296053467614277,9.86162838259236,-0.703244653287414,-0.03573562,0.08399397,0.019547688,258.50742,-82.31003,-4.8881793,STD
58044288903000,1.110008,-0.294472217632403,9.85688470859836,-0.711150886685562,-0.034208454,0.0729984,0.01740966,258.67114,-82.38107,-4.861124,STD
58044293856000,1.114961,-0.292908957919784,9.852195004548,-0.718967168925287,-0.02687807,0.07727446,0.01740966,258.82736,-82.45419,-4.834456,STD
58044298942000,1.120047,-0.291303720912237,9.84737937062914,-0.726993337201332,-0.03481932,0.080634214,0.018325957,258.98544,-82.52335,-4.8084106,STD
58044303898000,1.125003,-0.289739514343341,9.84268682605543,-0.734814353712553,-0.029321533,0.099571034,0.015882496,259.13638,-82.59567,-4.7845063,STD
58044308960000,1.130065,-0.288141852186007,9.83789391632337,-0.74280264781663,-0.039095376,0.09254608,0.017104227,259.29214,-82.663025,-4.7592535,STD
58044313921000,1.135026,-0.290566385202284,9.83864313751354,-0.742641322758146,-0.032986723,0.09682214,0.014966198,259.4294,-82.73798,-4.7362375,STD
58044318913000,1.140018,-0.297625261894872,9.84570191101486,-0.733229493719854,-0.038179077,0.09193522,0.0143553335,259.5699,-82.80798,-4.7125382,STD
58044323895000,1.145,-0.304669998209469,9.85274654434492,-0.723836518505758,-0.03481932,0.08460484,0.020158553,259.7034,-82.889114,-4.68515,STD
58044328891000,1.149996,-0.311734531053253,9.85981097391476,-0.714417147937789,-0.029321533,0.09132435,0.019547688,259.83337,-82.96711,-4.6605897,STD
58044333845000,1.15495,-0.319482361713479,9.86755872011291,-0.707821765471654,-0.03481932,0.09040806,0.02076942,259.96405,-83.04415,-4.6354465,STD
58044338901000,1.160006,-0.328594636728299,9.87667093803811,-0.705543699096683,-0.03940081,0.08552113,0.02076942,260.093,-83.12098,-4.6114564,STD
58044343848000,1.164953,-0.337510464358504,9.88558670980946,-0.703314744516584,-0.030848695,0.08124508,0.022296581,260.21918,-83.19542,-4.588785,STD
58044348923000,1.170028,-0.346656982495413,9.8947331706422,-0.701028117370031,-0.029626964,0.08246681,0.01863139,260.34424,-83.26527,-4.5680976,STD
58044353903000,1.175008,-0.354914707852966,9.90012662055138,-0.693951265734336,-0.029932396,0.07971791,0.0106901415,260.471,-83.33463,-4.5487857,STD
58044358956000,1.180061,-0.35895744556391,9.88395575413534,-0.657566601007519,-0.03726278,0.08155051,0.020158553,260.59473,-83.40441,-4.5261292,STD
58044363884000,1.184989,-0.362900174920635,9.86818491904762,-0.622082012095238,-0.036957346,0.06627888,0.015577064,260.71854,-83.4706,-4.511799,STD
58044368903000,1.190008,-0.360913324254,9.85208971977884,-0.624937001812851,-0.04153884,0.06383542,0.016187929,260.83685,-83.53607,-4.493988,STD
58044373837000,1.194942,-0.356954881496188,9.83625603141493,-0.640770797644299,-0.03848451,0.06291912,0.018325957,260.95813,-83.60157,-4.477043,STD
58044378878000,1.199983,-0.350622467588984,9.82208453379776,-0.649363186317623,-0.049480084,0.062002823,0.016187929,261.0811,-83.655785,-4.457241,STD
58044383907000,1.205012,-0.340137700529008,9.81159955872428,-0.64412075352128,-0.06383542,0.052534413,0.009773844,261.20563,-83.70881,-4.438343,STD
58044388895000,1.21,-0.327821032046302,9.8140173566804,-0.639190273417697,-0.07391469,0.051618114,0.012217305,261.32825,-83.76364,-4.41769,STD
58044393887000,1.214992,-0.31375175044536,9.82808692230724,-0.63450053083971,-0.076052725,0.051923547,0.004276057,261.45236,-83.813255,-4.402062,STD
58044399592000,1.220697,-0.303489646909615,9.8398331929999,-0.630585145004475,-0.0693332,0.057421334,0.0027488936,261.5732,-83.86579,-4.380685,STD
58044403901000,1.225006,-0.29938638805608,9.84598798916178,-0.628533517719996,-0.06291912,0.043676864,0.0027488936,261.631100746093,-83.8893229886534,-4.37241445982659,STD
58044408934000,1.230039,-0.294593697916874,9.85317691677439,-0.62613717515263,-0.053450707,0.042760566,-0.0027488936,261.69873,-83.91681,-4.3627543,STD
58044413903000,1.235008,-0.289861951979716,9.86027442945212,-0.62377130465447,-0.054367006,0.04886922,-0.0012217305,261.8153,-83.967255,-4.34259,STD
58044418872000,1.239977,-0.279965226424187,9.86306255409034,-0.623540854014578,-0.05009095,0.044593163,0.0021380284,261.93787,-84.020546,-4.323383,STD
58044423912000,1.245017,-0.263763550199003,9.86074798230555,-0.625855377463316,-0.04337143,0.042455133,-0.009162978,262.0572,-84.07078,-4.30853,STD
58044428862000,1.249967,-0.247851189620696,9.85847474215978,-0.628128570136185,-0.038179077,0.040011674,-0.0033597588,262.17624,-84.125275,-4.2873764,STD
58044433886000,1.254991,-0.23170094728829,9.85616751822192,-0.630435745891436,-0.040011674,0.03481932,-0.005192355,262.2959,-84.17512,-4.271906,STD
58044438877000,1.259982,-0.219075988127438,9.85572458673602,-0.630878668127438,-0.033292156,0.033292156,-0.004581489,262.41382,-84.22865,-4.2545347,STD
58044443877000,1.264982,-0.214924796103164,9.85987586545297,-0.626727476103164,-0.023823744,0.026267206,-0.011301007,262.53384,-84.279724,-4.2399516,STD
58044449353000,1.270458,-0.211000067117429,9.86286973801089,-0.621871796089173,-0.019547688,0.027488936,-0.019547688,262.6463,-84.3298,-4.2317343,STD
58044453978000,1.275083,-0.214827311565713,9.84756084014517,-0.614217311188974,-0.016798794,0.03481932,-0.011301007,262.7578,-84.38261,-4.2208047,STD
58044458903000,1.280008,-0.218902809707941,9.83125893268815,-0.606066319160114,-0.0106901415,0.035124753,-0.014966198,262.86978,-84.43169,-4.214967,STD
58044463912000,1.285017,-0.214130311013249,9.82887218196549,-0.609475072579354,0.005192355,0.03145956,-0.0076358155,262.97952,-84.4863,-4.203804,STD
58044469458000,1.290563,-0.204004877683729,9.83393500171576,-0.619600495336002,0.004276057,0.03970624,-0.014966198,263.08514,-84.53393,-4.1981826,STD
58044473900000,1.295005,-0.192972606862298,9.82995400168534,-0.625205872490334,0.008246681,0.035124753,-0.008857546,263.19458,-84.58765,-4.185616,STD
58044478895000,1.3,-0.178745537575097,9.82046909735303,-0.629948225618122,0.0143553335,0.03023783,0.005192355,263.3009,-84.64072,-4.173134,STD
58044483906000,1.305011,-0.175197976422825,9.83030426741478,-0.654592878442727,0.016798794,0.02565634,-0.01160644,263.4131,-84.69082,-4.1619735,STD
58044488899000,1.310004,-0.180260120434046,9.85561496104171,-0.695090025246665,0.026572637,0.03756821,-0.0067195175,263.5204,-84.750145,-4.1412926,STD
58044493878000,1.314983,-0.184746550935765,9.85853644171292,-0.700322037192704,0.02076942,0.03726278,-0.004886922,263.63168,-84.803665,-4.124739,STD
58044498978000,1.320083,-0.189050161826593,9.84992904017975,-0.687411204520222,0.043982297,0.03970624,-0.002443461,263.73782,-84.86392,-4.1072598,STD
58044503986000,1.325091,-0.197669172708215,9.84904577768001,-0.676886780780579,0.04184427,0.037873644,-0.002443461,263.8479,-84.92119,-4.0904694,STD
58044508955000,1.33006,-0.212448556421657,9.8588988990631,-0.669497094068016,0.040317107,0.04642576,-0.0036651916,263.95352,-84.98125,-4.073948,STD
58044513911000,1.335016,-0.227189274007454,9.86872624250738,-0.662126740405818,0.0421497,0.047036625,-0.004276057,264.05585,-85.04272,-4.054082,STD
58044518916000,1.340021,-0.242075733151302,9.87865074895181,-0.654683516015322,0.040011674,0.052839845,0.0061086523,264.15344,-85.10399,-4.0321374,STD
58044523897000,1.345002,-0.271503033614719,9.88576546280992,-0.641220197516726,0.04428773,0.059253927,0.0021380284,264.24908,-85.166595,-4.0089025,STD
58044528893000,1.349998,-0.313869383961039,9.89047243801653,-0.622390694273908,0.051618114,0.058948494,-0.004886922,264.3443,-85.22931,-3.984369,STD
58044533904000,1.355009,-0.33997568636036,9.88805370860861,-0.600947026598599,0.050396383,0.05681047,-0.0067195175,264.43613,-85.28612,-3.9632907,STD
58044538980000,1.360085,-0.349707795981982,9.87832191401401,-0.576616757625626,0.049480084,0.05497787,-0.0021380284,264.5274,-85.3424,-3.9429414,STD
58044543864000,1.364969,-0.358730040832095,9.871493863763,-0.547478865216382,0.04886922,0.054061573,-0.004886922,264.613,-85.38264,-3.9399755,STD
58044548940000,1.370045,-0.36775898526003,9.86697929726969,-0.511363063934807,0.047036625,0.056505036,0.004276057,264.69745,-85.425285,-3.9323545,STD
58044553831000,1.374936,-0.370708812755218,9.86271764727971,-0.485630498390534,0.044898596,0.05681047,-0.0015271631,264.78015,-85.45913,-3.9309561,STD
58044558955000,1.38006,-0.362138116187233,9.85843220950135,-0.477059788398393,0.040317107,0.052534413,-0.0033597588,264.86273,-85.494484,-3.92585,STD
58044564013000,1.385118,-0.354727418219248,9.85530513254234,-0.470420195865531,0.03726278,0.054061573,-0.004886922,264.93958,-85.52321,-3.9235904,STD
58044568913000,1.390018,-0.359486197247744,9.86482288936213,-0.484696547858229,0.038789943,0.034513887,-0.011301007,265.02313,-85.54946,-3.9229488,STD
58044573868000,1.394973,-0.364611161873411,9.87403423990938,-0.500244581359748,0.036957346,0.04550946,-0.014660766,265.1003,-85.572464,-3.922176,STD
58044578893000,1.399998,-0.373510962164686,9.87848399833557,-0.529168935791299,0.02687807,0.026572637,-0.018936822,265.19092,-85.59224,-3.922889,STD
58044583975000,1.40508,-0.38251171541449,9.88298423163346,-0.558421387377595,0.022907447,0.035430185,-0.008246681,265.2708,-85.61584,-3.9209378,STD
58044588905000,1.41001,-0.391243260774886,9.88734986527348,-0.586798913217902,0.013744468,0.021380283,-0.015271631,265.3621,-85.631454,-3.9246893,STD
58044593854000,1.414959,-0.400008457121457,9.89173232387073,-0.615285804776458,0.016187929,0.021685716,-0.0076358155,265.44116,-85.65537,-3.921344,STD
58044598975000,1.42008,-0.398560205366047,9.89650675118718,-0.626158104633953,0.018325957,0.027183503,-0.0143553335,265.5222,-85.67217,-3.9239028,STD
58044603845000,1.42495,-0.393946135718243,9.9011209171943,-0.630772174281757,0.01160644,0.027488936,-0.01282817,265.60364,-85.69186,-3.9218142,STD
58044609011000,1.430116,-0.389282118375926,9.90915204981482,-0.645537072980556,0.01282817,0.018936822,-0.007330383,265.69086,-85.71416,-3.9221618,STD
58044613902000,1.435007,-0.384945060355556,9.91782632888889,-0.662885300533333,0.018325957,0.021380283,-0.004886922,265.77408,-85.73511,-3.9228804,STD
58044618901000,1.440006,-0.380265048953193,9.92016836516398,-0.677394527617017,0.01282817,0.02687807,-0.008246681,265.85858,-85.755035,-3.922982,STD
58044623921000,1.445026,-0.375383788317596,9.91772768387654,-0.689597679206011,0.007941248,0.025961773,-0.0021380284,265.94342,-85.77807,-3.919594,STD
58044628886000,1.449991,-0.370556007629201,9.91531374312113,-0.701667130926998,0.002443461,0.028710667,-0.008552114,266.02295,-85.79113,-3.9279826,STD
58044633914000,1.455019,-0.365666968092192,9.91286917230176,-0.71388972976952,-0.0076358155,0.021991149,0.0027488936,266.1046,-85.808914,-3.9291813,STD
58044638900000,1.460005,-0.360977343017341,9.91052431233141,-0.721201813911368,-0.006414085,0.027794369,-0.0021380284,266.18134,-85.820625,-3.9366257,STD
58044643886000,1.464991,-0.356377152780347,9.90822417157996,-0.725801999344894,-0.0106901415,0.03023783,-0.00030543262,266.26016,-85.8351,-3.9386237,STD
58044648913000,1.470018,-0.351739135066474,9.90590511671484,-0.7304400122158,-0.0009162979,0.025961773,0.0076358155,266.3323,-85.85135,-3.9426594,STD
58044653904000,1.475009,-0.347134331722543,9.90360266936416,-0.735044810751445,-0.016493361,0.03390302,0.0143553335,266.39975,-85.864395,-3.946274,STD
58044658928000,1.480033,-0.347145433676753,9.89765737172351,-0.727892545177614,-0.020158553,0.03573562,0.014966198,266.46967,-85.87902,-3.949045,STD
58044663925000,1.48503,-0.351988604361907,9.88797135401275,-0.708519902894444,-0.02443461,0.028099801,0.015882496,266.5395,-85.893456,-3.9496346,STD
58044668902000,1.490007,-0.363527664682973,9.88096850206961,-0.708292699887112,-0.023518313,0.029932396,0.01160644,266.60645,-85.90743,-3.950429,STD
58044673901000,1.495006,-0.38154250878269,9.87646469934149,-0.726307534581373,-0.027794369,0.040317107,0.015882496,266.67258,-85.92259,-3.9483998,STD
58044678853000,1.499958,-0.397911164760039,9.87544206366307,-0.735660072967679,-0.036651913,0.030848695,0.012217305,266.74396,-85.92752,-3.954658,STD
58044683914000,1.505019,-0.412152561000979,9.88018929157689,-0.730912944191969,-0.029626964,0.015577064,0.0106901415,266.81342,-85.93461,-3.9588408,STD
58044688899000,1.510004,-0.428376516528908,9.87976642141328,-0.724338794475375,-0.021380283,0.021380283,0.013744468,266.88306,-85.93203,-3.9722486,STD
58044693873000,1.514978,-0.448776962141328,9.86956599357602,-0.714138579657388,-0.027794369,0.014660766,0.008857546,266.95996,-85.926285,-3.9876122,STD
58044698901000,1.520006,-0.461926078877259,9.86299130334749,-0.716521424577861,-0.02321288,0.016187929,0.008857546,267.03162,-85.922104,-4.0017,STD
58044703910000,1.525015,-0.466662944808927,9.86062282339291,-0.733100462757974,-0.03726278,0.009468411,0.014966198,267.1068,-85.91691,-4.0147266,STD
58044708892000,1.529997,-0.471374277624173,9.85826711024983,-0.749590134990619,-0.037873644,0.010079277,0.005192355,267.17328,-85.90943,-4.0306687,STD
58044713916000,1.535021,-0.476125328620519,9.8558915376222,-0.766218820919325,-0.03176499,0.002443461,0.011911872,267.24335,-85.90786,-4.03958,STD
58044718900000,1.540005,-0.471237906189537,9.8583352963276,-0.773820771682164,-0.03390302,-0.0033597588,0.0070249503,267.31,-85.90267,-4.051407,STD
58044724604000,1.545709,-0.450715265633512,9.86859681750728,-0.768690064666103,-0.02565634,0.0012217305,0.011911872,267.37524,-85.90268,-4.058111,STD
58044728869000,1.549974,-0.438550214625818,9.87038319334359,-0.765483538668719,-0.03145956,-0.00030543262,0.011911872,267.44623,-85.89887,-4.068167,STD
58044733914000,1.555019,-0.431579025278953,9.8587645525202,-0.76315981050404,-0.018325957,-0.00030543262,0.0106901415,267.5149,-85.896774,-4.0767813,STD
58044738865000,1.55997,-0.424737725287611,9.84736239380531,-0.760879378761062,-0.027183503,0.00580322,0.007941248,267.57684,-85.89407,-4.084644,STD
58044743874000,1.564979,-0.417816280800308,9.83582666102347,-0.758572232204694,-0.027488936,0.0067195175,0.004276057,267.63983,-85.89104,-4.092755,STD
58044748972000,1.570077,-0.408971854232789,9.82863480950966,-0.753029169638435,-0.027183503,0.0036651916,-0.002443461,267.70178,-85.88579,-4.102159,STD
58044753902000,1.575007,-0.390264118264487,9.84734243803863,-0.729644511887073,-0.03023783,-0.0036651916,0.015882496,267.7642,-85.88631,-4.1050396,STD
58044758858000,1.579963,-0.374425810374927,9.86457618465922,-0.709148874944598,-0.029626964,0.0143553335,0.009162978,267.81512,-85.878876,-4.1154723,STD
58044763929000,1.585034,-0.383211297807426,9.86896901781918,-0.713541616367419,-0.024740042,0.022602014,0.011301007,267.87048,-85.878815,-4.117859,STD
58044768842000,1.589947,-0.39172305086518,9.87322498100493,-0.717797490674325,-0.030848695,0.01282817,0.013439035,267.9235,-85.87841,-4.119749,STD
58044773906000,1.595011,-0.400496410825381,9.87761175030528,-0.722184168364163,-0.025045475,0.019242255,0.015882496,267.9692,-85.878525,-4.120773,STD
58044778862000,1.599967,-0.409082661212971,9.88190496291439,-0.726477291316539,-0.031154128,0.019242255,0.015271631,268.0192,-85.877945,-4.121902,STD
58044783915000,1.60502,-0.425482999055675,9.8866847896032,-0.714156998800369,-0.02107485,0.02321288,0.015577064,268.06592,-94.12197,-4.1219516,STD
58044788838000,1.609943,-0.444819263974162,9.89151844570901,-0.694820759120271,-0.021991149,0.02443461,0.01740966,268.11313,-94.121956,-4.121621,STD
58044794727000,1.615832,-0.460325007677892,9.89488405734818,-0.69361612936452,-0.02076942,0.021991149,0.008857546,268.1585,-94.12411,-4.1229053,STD
58044798992000,1.620097,-0.469917105057066,9.89680251608661,-0.697452966713635,-0.02321288,0.01863139,0.008552114,268.2036,-94.12379,-4.121266,STD
58044803902000,1.625007,-0.48095982443145,9.89901110516181,-0.701870052618477,-0.016493361,0.013133603,0.005497787,268.248,-94.12905,-4.124782,STD
58044808895000,1.63,-0.492189212992814,9.90125702883848,-0.706361806166925,-0.0125227375,0.017715093,0.004581489,268.29022,-94.13395,-4.127582,STD
58044813890000,1.634995,-0.500416243698659,9.89999565318525,-0.696572218860017,-0.021991149,0.026267206,0.010079277,268.3368,-94.137314,-4.128784,STD
58044818920000,1.640025,-0.505463525100587,9.89494826110646,-0.671335785498743,-0.02321288,0.011911872,0.0021380284,268.3883,-94.14513,-4.133948,STD
58044823899000,1.645004,-0.515624780344693,9.89821046114898,-0.652745656851996,-0.016187929,0.011911872,0.004886922,268.4316,-94.15299,-4.1385956,STD
58044828888000,1.649993,-0.529581573425511,9.9075151647517,-0.63878885891334,-0.008857546,0.019242255,0.0018325958,268.47662,-94.16477,-4.1468635,STD
58044833908000,1.655013,-0.529001014142349,9.90793934448399,-0.630446968640569,-0.014966198,0.011301007,0.00030543262,268.52356,-94.175316,-4.1542025,STD
58044838903000,1.660008,-0.515072661064057,9.90020137683597,-0.627351783197347,-0.02107485,0.0106901415,0.0061086523,268.56604,-94.18473,-4.159957,STD
58044843860000,1.664965,-0.501250269430605,9.89252227660951,-0.62428014471045,-0.014660766,0.007941248,0.0027488936,268.60748,-94.20016,-4.1714497,STD
58044848952000,1.670057,-0.487051435822064,9.88463404212229,-0.621124852562925,-0.021380283,0.011301007,0.006414085,268.64713,-94.2111,-4.1788764,STD
58044853831000,1.674936,-0.473446543996441,9.87707577502426,-0.618101547302168,-0.018936822,0.0106901415,0.008552114,268.68835,-94.22375,-4.1873317,STD
58044858894000,1.679999,-0.459328575701068,9.86923246567454,-0.614964225200259,-0.025961773,0.017104227,0.007941248,268.72632,-94.23536,-4.195159,STD
58044864496000,1.685601,-0.457148452496799,9.86587066645327,-0.604117484122919,-0.028710667,0.014966198,0.0125227375,268.7622,-94.24067,-4.195841,STD
58044868906000,1.690011,-0.470667565829065,9.86925051360435,-0.587218587163892,-0.028405234,0.01038471,0.007941248,268.79672,-94.248604,-4.199175,STD
58044873834000,1.694939,-0.485774638505122,9.87302735867478,-0.568334740403329,-0.033292156,0.014049901,0.0106901415,268.8286,-94.24829,-4.1945944,STD
58044878882000,1.699987,-0.486459130814692,9.87760391569796,-0.576779721245482,-0.028710667,0.016493361,0.013439035,268.8619,-94.24984,-4.191346,STD
58044883843000,1.704948,-0.484138602105109,9.88224482773273,-0.590702900772199,-0.027488936,0.014049901,0.016187929,268.89536,-94.25038,-4.1873536,STD
58044888905000,1.71001,-0.481770830218814,9.88698022316108,-0.60490953950718,-0.02565634,0.01740966,0.01740966,268.92163,-94.24908,-4.1815395,STD
58044893863000,1.714968,-0.479451704771906,9.89161832875843,-0.618824299453453,-0.03940081,0.022602014,0.017104227,268.94794,-94.24691,-4.1755285,STD
58044898937000,1.720042,-0.486149070273501,9.8899176065235,-0.623954172528363,-0.0290161,0.018936822,0.011301007,268.97803,-94.23971,-4.163273,STD
58044903847000,1.724952,-0.495675435164101,9.8861071839141,-0.625859443517018,-0.014049901,0.019547688,0.01038471,269.0052,-94.231255,-4.1500874,STD
58044908904000,1.730009,-0.505487008942464,9.88218268144246,-0.627821756223663,-0.026267206,0.014966198,0.018936822,269.0351,-94.22661,-4.140404,STD
58044913880000,1.734985,-0.515141426803079,9.87832103930308,-0.629752637779579,-0.02687807,0.013439035,0.019547688,269.06384,-94.226234,-4.133424,STD
58044918929000,1.740034,-0.524937479009319,9.87440274525932,-0.631711846175041,-0.024129177,0.0076358155,0.01160644,269.095,-94.225716,-4.126744,STD
58044923865000,1.74497,-0.521156107050106,9.86997573363584,-0.619076563247249,-0.016493361,0.013439035,0.0106901415,269.12314,-94.223694,-4.1180835,STD
58044928923000,1.750028,-0.514141306118459,9.8652991101564,-0.602708715567194,-0.028710667,0.004886922,0.007330383,269.1568,-94.22373,-4.1126595,STD
58044934265000,1.75537,-0.506732633406546,9.86035990046341,-0.585421834921317,-0.01985312,-0.00061086525,0.0027488936,269.18625,-94.219124,-4.0999203,STD
58044938864000,1.759969,-0.500354406936667,9.85610766808264,-0.570539325731802,-0.01740966,0.005192355,0.005192355,269.21475,-94.21279,-4.0865283,STD
58044943950000,1.765055,-0.502875400158156,9.84965262629914,-0.568285901238138,-0.007941248,0.0009162979,0.010079277,269.24762,-94.20863,-4.0741925,STD
58044948925000,1.77003,-0.51005188199528,9.84247625686599,-0.573070224128132,-0.016493361,-0.00030543262,0.007330383,269.27774,-94.20528,-4.063668,STD
58044953926000,1.775031,-0.517265869064116,9.83526238278857,-0.577879550514636,-0.007941248,-0.0067195175,0.0021380284,269.31207,-94.19876,-4.050134,STD
58044958939000,1.780044,-0.524497166239896,9.82803119887533,-0.582700416976452,-0.01038471,-0.00061086525,-0.00061086525,269.34286,-94.19139,-4.0370836,STD
58044963912000,1.785017,-0.525162123456708,9.83205303439581,-0.581060699963844,-0.00580322,-0.008246681,0.00030543262,269.37918,-94.186104,-4.0249863,STD
58044968969000,1.790074,-0.522858118650809,9.84126894776403,-0.576452709598478,-0.007330383,-0.0030543262,-0.0018325958,269.40976,-94.182144,-4.014785,STD
58044973923000,1.795028,-0.520601041370124,9.85029715318744,-0.571938573891532,-0.007941248,-0.00580322,-0.0036651916,269.44092,-94.18143,-4.0061584,STD
58044978956000,1.800061,-0.518307971133206,9.85946932878211,-0.567352452572788,-0.008246681,-0.0067195175,-0.0012217305,269.46997,-94.180336,-3.9971364,STD
58044984268000,1.805373,-0.514479167326777,9.86464468545689,-0.566098950852513,-0.007330383,-0.00061086525,0.0021380284,269.49762,-94.179855,-3.9886022,STD
58045028851000,1.849956,-0.471454191236245,9.87324985678584,-0.583308970041517,-0.00580322,-0.02076942,0.009773844,269.82172,-94.17043,-3.9135149,STD
58045033867000,1.854972,-0.464187683958695,9.873688,-0.586723156695619,0.00061086525,-0.01740966,0.01282817,269.87372,-94.168594,-3.9065163,STD
58045038803000,1.859908,-0.455063748525381,9.873688,-0.591285122030496,-0.009773844,-0.017104227,0.020158553,269.9246,-94.16244,-3.8963635,STD
58045043816000,1.864921,-0.445797482656823,9.873688,-0.595918252545841,-0.0021380284,-0.03176499,0.014049901,269.9772,-94.15985,-3.8879926,STD
58045048863000,1.869968,-0.436468369583092,9.873688,-0.600582806647365,-0.005497787,-0.027794369,0.017715093,270.02386,-94.15102,-3.8749855,STD
58045053801000,1.874906,-0.429066828464797,9.87179848900545,-0.599559896929595,-0.00580322,-0.022296581,0.0106901415,270.06445,-94.15601,-3.873351,STD
58045058833000,1.879938,-0.424205979402865,9.8669375384305,-0.589838198805729,-0.0076358155,-0.027488936,0.015882496,270.10666,-94.15643,-3.8673408,STD
58045063802000,1.884907,-0.41845492361435,9.86508587847534,-0.58808467144843,-0.009773844,-0.022296581,0.023823744,270.1447,-94.15673,-3.8604488,STD
58045068795000,1.8899,-0.411307390626806,9.86746843756851,-0.597614706309915,-0.023518313,-0.032070424,0.018936822,270.18802,-94.15783,-3.8560557,STD
58045073770000,1.894875,-0.404185624832088,9.86984240742401,-0.607110384947185,-0.013744468,-0.029626964,0.02687807,270.22266,-94.16089,-3.8511298,STD
58045078820000,1.899925,-0.396956495733931,9.8722521657698,-0.616749214518685,-0.011911872,-0.020158553,0.018936822,270.25745,-94.16718,-3.8521657,STD
58045084018000,1.905123,-0.393693865208074,9.87786711901321,-0.620402860674807,-0.0076358155,-0.023823744,0.022296581,270.29504,-94.16979,-3.8478334,STD
58045088803000,1.909908,-0.395977692170446,9.8870023791677,-0.615835209134812,-0.015882496,-0.025045475,0.025961773,270.32877,-94.173256,-3.8455846,STD
58045093782000,1.914887,-0.398354113162223,9.8965080135061,-0.611082369632694,-0.022296581,-0.024740042,0.029932396,270.36194,-94.18199,-3.846263,STD
58045098812000,1.919917,-0.400754875883379,9.90611101425367,-0.606280846697234,-0.023823744,-0.015577064,0.029626964,270.39252,-94.19042,-3.8469627,STD
58045103777000,1.924882,-0.396878506187605,9.90843001215775,-0.606903751532075,-0.03023783,-0.03145956,0.025045475,270.43207,-94.196945,-3.8478014,STD
58045108795000,1.9299,-0.382628308741722,9.89892968874172,-0.616403871589404,-0.020463986,-0.022907447,0.029321533,270.46167,-94.20287,-3.8458655,STD
58045113821000,1.934926,-0.372371407863303,9.89003086965826,-0.620806352381817,-0.02565634,-0.024129177,0.029321533,270.48828,-94.20882,-3.8450062,STD
58045118851000,1.939956,-0.36924766076519,9.88222150191298,-0.616120733365541,-0.026267206,-0.03023783,0.0290161,270.51373,-94.215324,-3.8429768,STD
58045123794000,1.944899,-0.366177942692432,9.87454720673108,-0.611516157859088,-0.021685716,-0.027794369,0.023823744,270.53772,-94.22247,-3.8408377,STD
58045128824000,1.949929,-0.363054195594319,9.8667378389858,-0.606830538842812,-0.022907447,-0.026267206,0.02321288,270.56354,-94.22776,-3.8375828,STD
58045133825000,1.95493,-0.359948458171325,9.85897349542831,-0.60217193432981,-0.03481932,-0.03359759,0.022602014,270.59528,-94.23681,-3.8407452,STD
58045138798000,1.959903,-0.356860109400169,9.85125262350042,-0.597539412785487,-0.03145956,-0.03145956,0.023518313,270.6236,-94.24713,-3.8433735,STD
58045143810000,1.964915,-0.35480340996223,9.8458801192023,-0.592838938147756,-0.02443461,-0.02443461,0.028099801,270.64996,-94.25437,-3.8429887,STD
58045148814000,1.969919,-0.357216780924611,9.85070696192778,-0.588012186142922,-0.024129177,-0.021380283,0.022907447,270.6765,-94.263374,-3.8450477,STD
58045154084000,1.975189,-0.359758440591227,9.85579038742005,-0.582928856193786,-0.028099801,-0.019547688,0.01985312,270.69998,-94.26911,-3.8442278,STD
58045158798000,1.979903,-0.36203194792869,9.86033749705394,-0.578381832022964,-0.022907447,-0.024740042,0.022907447,270.72443,-94.27569,-3.843119,STD
58045163831000,1.984936,-0.361245452388446,9.86518030448207,-0.576212325460159,-0.027488936,-0.021991149,0.018020526,270.7434,-94.28522,-3.8464239,STD
58045168806000,1.989911,-0.349381752239044,9.86992587968128,-0.583330549513944,-0.026267206,-0.01282817,0.026267206,270.76202,-94.29182,-3.8449721,STD
58045173797000,1.994902,-0.337479897476096,9.87468671703187,-0.590471666348606,-0.029321533,-0.0125227375,0.02076942,270.77887,-94.301994,-3.8489995,STD
58045178836000,1.999941,-0.32546357887251,9.87949334083665,-0.597681461525897,-0.036957346,-0.014660766,0.022296581,270.79385,-94.30767,-3.848513,STD
58045183825000,2.00493,-0.316509913023089,9.88278969754729,-0.603576486263396,-0.02687807,-0.015577064,0.022907447,270.8083,-94.316696,-3.849718,STD
58045188784000,2.009889,-0.318787186551104,9.8805123788391,-0.604715121838452,-0.020158553,-0.0061086523,0.021380283,270.82022,-94.324295,-3.8508968,STD
58045194841000,2.015946,-0.321568683981874,9.87773082622456,-0.606105869101633,-0.017104227,-0.010079277,0.0290161,270.8307,-94.33194,-3.8478932,STD
58045198834000,2.019939,-0.323402350688341,9.87589712313889,-0.607022701497518,-0.029321533,-0.011911872,0.022907447,270.8378,-94.3421,-3.849073,STD
58045203783000,2.024888,-0.325675032013235,9.87362439672493,-0.608159040973411,-0.03023783,0.0009162979,0.02687807,270.84665,-94.34834,-3.8453243,STD
58045208801000,2.029906,-0.327979399539668,9.87131998348078,-0.60931122353353,-0.029321533,0.0030543262,0.02321288,270.85892,-94.35653,-3.845559,STD
58045213786000,2.034891,-0.3302686127958,9.8690307248076,-0.61045582896641,-0.023823744,0.012217305,0.023518313,270.8656,-94.363075,-3.8432987,STD
58045218805000,2.03991,-0.332573439542545,9.86672585233403,-0.611608241136445,-0.022602014,0.0027488936,0.020158553,270.88144,-94.37112,-3.8451622,STD
58045223757000,2.044862,-0.334847498528375,9.8644517482318,-0.612745269442087,-0.021380283,0.007941248,0.025045475,270.8905,-94.37755,-3.8442135,STD
58045228816000,2.049921,-0.359471984129222,9.85196930543319,-0.604821064258444,-0.0125227375,0.0033597588,0.019242255,270.9049,-94.38852,-3.847346,STD
58045233792000,2.054897,-0.387462697769946,9.83797415320607,-0.595490832873226,-0.015271631,0.003970624,0.020463986,270.9164,-94.394875,-3.8468616,STD
58045238819000,2.059924,-0.404666440311799,9.82736926472386,-0.5817446713226,-0.020463986,0.004581489,0.01985312,270.93213,-94.402054,-3.8468862,STD
58045243781000,2.064886,-0.419192662447524,9.81768492113307,-0.567218439074791,-0.017104227,0.004886922,0.01863139,270.9477,-94.409744,-3.8466582,STD
58045248808000,2.069913,-0.423397455100433,9.81219100551398,-0.5650316,-0.01985312,0.0030543262,0.013133603,270.9627,-94.419,-3.8509865,STD
58045253773000,2.074878,-0.425738377313903,9.80750906331233,-0.5650316,-0.01160644,0.0030543262,0.015271631,270.9771,-94.42844,-3.8532765,STD
58045258801000,2.079906,-0.428109003072076,9.80276771278062,-0.5650316,-0.01160644,0.0033597588,0.008857546,270.985911391019,-94.4322198864881,-3.85542372584885,STD
58045263816000,2.084921,-0.430473499527373,9.79803862111067,-0.5650316,-0.0027488936,0.0125227375,0.015271631,270.9947,-94.43599,-3.8575654,STD
58045268804000,2.089909,-0.423178698106945,9.79318452796558,-0.553365209342348,0.0018325958,0.0061086523,0.01282817,271.01654,-94.44402,-3.861926,STD
58045273767000,2.094872,-0.413440999268593,9.78831609035034,-0.538758676336816,0.00030543262,0.0033597588,0.01038471,271.03235,-94.45015,-3.8627129,STD
58045278821000,2.099926,-0.403913094391994,9.79538654029778,-0.540245990744447,0.0027488936,0.00061086525,0.011911872,271.04996,-94.45753,-3.8636441,STD
58045283816000,2.104921,-0.394572378556017,9.80472720248963,-0.544916346224066,0.008246681,-0.0009162979,-0.004276057,271.06763,-94.46997,-3.87023,STD
58045288800000,2.109905,-0.385252232865023,9.81404729465462,-0.549576416636563,0.015882496,0.0030543262,0.0018325958,271.0859,-94.470345,-3.8644812,STD
58045293793000,2.114898,-0.375915257055406,9.82338421684159,-0.554244902103978,0.011911872,0.0015271631,0.00580322,271.10577,-94.47431,-3.8639882,STD
58045298809000,2.119914,-0.365280843368363,9.82744695695059,-0.5554548,0.016187929,0.004276057,0.0009162979,271.1231,-94.481186,-3.8641694,STD
58045303913000,2.125018,-0.354016092350664,9.82969995326327,-0.5554548,0.013133603,0.013439035,-0.0018325958,271.13895,-94.48491,-3.8625739,STD
58045308891000,2.129996,-0.343029428838496,9.83189733093658,-0.5554548,0.027183503,0.008246681,-0.0015271631,271.16348,-94.48422,-3.8533201,STD
58045313907000,2.135012,-0.331958897665929,9.83411148248525,-0.5554548,0.02565634,0.009468411,-0.006414085,271.18326,-94.483,-3.8464112,STD
58045318907000,2.140012,-0.327675480913242,9.83744486849315,-0.549262677260274,0.022602014,0.005497787,-0.0143553335,271.208,-94.48529,-3.8425097,STD
58045323901000,2.145006,-0.332528503663115,9.84229748584475,-0.534703609010655,0.028099801,0.014049901,-0.0070249503,271.2287,-94.48617,-3.8355956,STD
58045328889000,2.149994,-0.33518824,9.84937187343846,-0.53113918124104,0.025961773,0.007941248,-0.0070249503,271.25418,-94.48698,-3.8306837,STD
58045333917000,2.155022,-0.33518824,9.85923326110997,-0.541000362973582,0.022907447,0.0106901415,-0.002443461,271.2746,-94.485695,-3.822352,STD
58045338897000,2.160002,-0.33518824,9.86900050665574,-0.550767404546385,0.025961773,0.00580322,-0.002443461,271.30637,-94.48426,-3.8184686,STD
58045343883000,2.164988,-0.33518824,9.87877951996723,-0.560546213639156,0.03940081,0.01282817,0.0012217305,271.33356,-94.48217,-3.8121789,STD
58045348907000,2.170012,-0.33778140398892,9.88585794736842,-0.570217938808864,0.029932396,0.018020526,-0.0015271631,271.36212,-94.47889,-3.8079352,STD
58045353905000,2.17501,-0.342516746925208,9.89059289473684,-0.579688644459834,0.034208454,0.015577064,-0.00061086525,271.39056,-94.47812,-3.8017538,STD
58045358895000,2.18,-0.343568682866008,9.89643014635543,-0.579399806467135,0.029932396,0.016187929,-0.0027488936,271.41797,-94.47661,-3.79579,STD
58045363893000,2.184998,-0.34128385559979,9.90328477130173,-0.570260487859086,0.025350908,0.009773844,0.005192355,271.44785,-94.47322,-3.7869701,STD
58045368898000,2.190003,-0.338995828295384,9.91014899656308,-0.561108369084921,0.0290161,0.018020526,0.01160644,271.47375,-94.4728,-3.7796643,STD
58045374020000,2.195125,-0.336654314638408,9.91717368423314,-0.551742304677073,0.035430185,0.013133603,0.0067195175,271.50482,-94.47318,-3.7737725,STD
58045378871000,2.199976,-0.330549841641952,9.91693350800354,-0.550516395129137,0.032375857,0.017715093,0.013133603,271.5307,-94.46867,-3.7628722,STD
58045383913000,2.205018,-0.316324291446529,9.90270767062752,-0.564741935421781,0.0290161,0.013439035,0.010995574,271.55997,-94.46855,-3.7561882,STD
58045388934000,2.210039,-0.308029037913661,9.89441225072667,-0.576179624476262,0.02687807,0.014660766,0.018020526,271.58435,-94.46228,-3.7445478,STD
58045393885000,2.21499,-0.313133434167295,9.8995167535795,-0.581284042049736,0.01985312,0.02076942,0.023518313,271.6082,-94.4559,-3.734201,STD
58045398917000,2.220022,-0.320228581119502,9.89822406515623,-0.582088257250605,0.019547688,0.011911872,0.011911872,271.6388,-94.4549,-3.7287436,STD
58045403903000,2.225008,-0.329656484700133,9.88879622064268,-0.577374300538033,0.023823744,0.007941248,0.01740966,271.66614,-94.44845,-3.7169824,STD
58045409601000,2.230706,-0.340430691399378,9.87802208144528,-0.571987191563256,0.022907447,0.0033597588,0.021685716,271.69604,-94.44528,-3.7096608,STD
58045413903000,2.235008,-0.34856523636606,9.86988758744262,-0.567919914832914,0.02076942,-0.0061086523,0.029321533,271.72818,-94.44074,-3.700123,STD
58045418830000,2.239935,-0.34823507170219,9.86323858423358,-0.564159202452555,0.014660766,0.010995574,0.017104227,271.75574,-94.43753,-3.6937103,STD
58045423900000,2.245005,-0.33169585339562,9.86087579153284,-0.561796459094891,0.0067195175,0.010995574,0.017104227,271.775268438717,-94.4330560833084,-3.68765638270902,STD
58045428841000,2.249946,-0.315577455436496,9.85857311722628,-0.559493832875912,0.0061086523,-0.0018325958,0.019547688,271.7943,-94.428696,-3.6817565,STD
58045433917000,2.255022,-0.299018664090511,9.85620752832117,-0.557128293372263,0.004276057,-0.007330383,0.009468411,271.8244,-94.42718,-3.6789534,STD
58045438835000,2.25994,-0.2897970259847,9.85702687544135,-0.557947623381718,-0.0030543262,-0.011911872,0.004886922,271.85748,-94.421844,-3.6741903,STD
58045444013000,2.265118,-0.299524119389957,9.86675416182817,-0.567674706630051,-0.011301007,-0.014966198,0.002443461,271.89102,-94.41821,-3.6717944,STD
58045448894000,2.269999,-0.304293877362575,9.87152401443084,-0.57136248943321,-0.007941248,-0.009773844,0.0030543262,271.92865,-94.41534,-3.6725829,STD
58045453900000,2.275005,-0.29519077077186,9.8624207272382,-0.557707843805184,-0.012217305,-0.018020526,0.00580322,271.97028,-94.41026,-3.6735125,STD
58045458853000,2.279958,-0.288329900245153,9.85658538763801,-0.548955099664435,-0.012217305,-0.020158553,0.006414085,272.00882,-94.40868,-3.675596,STD
58045463921000,2.285026,-0.296768615898461,9.87346271320525,-0.574271237812745,-0.02107485,-0.014660766,0.007941248,272.04684,-94.40438,-3.6765099,STD
58045468882000,2.289987,-0.305029166087108,9.88998371007563,-0.599052879753108,-0.01985312,-0.007941248,0.0076358155,272.08307,-94.40004,-3.6766605,STD
58045473900000,2.295005,-0.310067450153121,9.88923167137809,-0.599729209846879,-0.023518313,-0.017715093,0.0070249503,272.12173,-94.39356,-3.6765273,STD
58045479529000,2.300634,-0.314951730954064,9.88434779858657,-0.594844929045936,-0.020158553,-0.013133603,0.007330383,272.1537,-94.38852,-3.6758907,STD
58045483906000,2.305011,-0.315059361027143,9.88424017750439,-0.605465153784417,-0.021991149,-0.011911872,0.012217305,272.18237,-94.39025,-3.677877,STD
58045488902000,2.310007,-0.313502188183298,9.88579722026948,-0.624151237666471,-0.021685716,-0.01038471,0.010079277,272.20914,-94.39442,-3.681533,STD
58045493880000,2.314985,-0.311950625649938,9.88734865319273,-0.642769997787541,-0.02076942,-0.015271631,0.0070249503,272.24103,-94.39616,-3.6848032,STD
58045498965000,2.32007,-0.310365712937577,9.88893343350908,-0.661788960265573,-0.027488936,-0.018936822,0.008857546,272.27167,-94.39611,-3.6870606,STD
58045503906000,2.325011,-0.308825682709106,9.8904733350908,-0.680269332655731,-0.019547688,-0.0036651916,0.015577064,272.29163,-94.39224,-3.6786597,STD
58045508894000,2.329999,-0.307271003336588,9.89202788459285,-0.698925494866237,-0.019242255,-0.004276057,0.013439035,272.3167,-94.388084,-3.6726737,STD
58045513902000,2.335007,-0.304003515630809,9.88302383377844,-0.711138004369191,-0.018936822,-0.005497787,0.013744468,272.33743,-94.38323,-3.6641188,STD
58045518908000,2.340013,-0.298882111849161,9.86253832560624,-0.716259408150839,-0.029321533,-0.0012217305,0.016493361,272.35648,-94.3769,-3.6556199,STD
58045523898000,2.345003,-0.308227706076345,9.86588062091184,-0.715423829961925,-0.025350908,-0.005192355,0.015882496,272.38336,-94.375,-3.643282,STD
58045528889000,2.349994,-0.326893266460998,9.88454607409939,-0.71075744230206,-0.01863139,-0.0018325958,0.007330383,272.40662,-94.37351,-3.632698,STD
58045533913000,2.355018,-0.331199641221057,9.89018201929547,-0.707354167999208,-0.01160644,0.014049901,0.015271631,272.42783,-94.36949,-3.61747,STD
58045538902000,2.360007,-0.32410800925094,9.88545441603998,-0.704990292321393,-0.0067195175,0.002443461,0.018020526,272.45554,-94.36974,-3.6067803,STD
58045543910000,2.365015,-0.316989369662577,9.88070880828221,-0.702617414110429,-0.013439035,0.004276057,0.01038471,272.472,-94.373215,-3.600265,STD
58045549456000,2.370561,-0.309105988041757,9.87545338882842,-0.699989622066099,-0.0125227375,0.0018325958,0.011911872,272.49295,-94.37605,-3.5908086,STD
58045553898000,2.375003,-0.313659973302877,9.86888646753499,-0.706309048289269,-0.009468411,0.009162978,0.013744468,272.5104,-94.37996,-3.5834925,STD
58045558896000,2.380001,-0.327617461557154,9.85958128751944,-0.720266526827372,-0.004581489,-0.00030543262,0.010995574,272.53317,-94.38514,-3.5774767,STD
58045563929000,2.385034,-0.334068310024174,9.85677390672845,-0.7278373,0.004276057,0.01038471,0.019547688,272.54794,-94.383064,-3.561448,STD
58045568905000,2.39001,-0.331668322272361,9.86157398247381,-0.7278373,0.0021380284,-0.0070249503,0.02321288,272.57324,-94.38203,-3.5484662,STD
58045573897000,2.395002,-0.329260617518131,9.86638949254633,-0.7278373,0.008857546,0.0018325958,0.02321288,272.58942,-94.38596,-3.5357203,STD
58045578888000,2.399993,-0.326853395076551,9.87120403797341,-0.7278373,0.006414085,-0.00030543262,0.024129177,272.61362,-94.387215,-3.5224416,STD
58045583901000,2.405006,-0.330094160666219,9.87032589104349,-0.725595940837093,0.015577064,-0.0018325958,0.015577064,272.63257,-94.39602,-3.5135846,STD
58045588902000,2.410007,-0.339289437963905,9.86342929264664,-0.720998304588653,0.009773844,-0.00061086525,0.016798794,272.65143,-94.39953,-3.5020041,STD
58045593854000,2.414959,-0.348394619563214,9.85660026739944,-0.716445716165883,0.005497787,-0.0076358155,0.016798794,272.67532,-94.40371,-3.4904351,STD
58045598957000,2.420062,-0.357777443008544,9.84956300652779,-0.711754306892579,0.01038471,0.002443461,0.01740966,272.69385,-94.408264,-3.4784617,STD
58045603834000,2.424939,-0.365378497508678,9.84641686799564,-0.705764024982644,0.0143553335,-0.0018325958,0.0076358155,272.71817,-94.41448,-3.47012,STD
58045608900000,2.430005,-0.370190167527522,9.85122863850045,-0.696140684944957,-0.004276057,-0.0021380284,0.008552114,272.73856,-94.41518,-3.4587047,STD
58045613905000,2.43501,-0.374795150308801,9.85323428254872,-0.685631029073596,0.0027488936,-0.002443461,0.007330383,272.75916,-94.424736,-3.4532702,STD
58045619016000,2.440121,-0.379151030419151,9.84887831147103,-0.672563388742547,0.012217305,0.005192355,-0.0021380284,272.77734,-94.433136,-3.4499981,STD
58045624004000,2.445109,-0.382329902143215,9.84532818668002,-0.65931498157336,-0.0061086523,-0.0018325958,0.0067195175,272.799,-94.43333,-3.4426508,STD
58045628886000,2.449991,-0.372965067371057,9.85001070185278,-0.640585277803706,0.002443461,0.006414085,0.0009162979,272.81366,-94.44533,-3.4419305,STD
58045633975000,2.45508,-0.36408728473565,9.8557143801926,-0.624515928060329,0.004886922,0.0027488936,0.00030543262,272.83252,-94.44874,-3.4380789,STD
58045638902000,2.460007,-0.366314668308157,9.87130615823263,-0.651244547211103,0.00061086525,0.0009162979,-0.0015271631,272.84824,-94.45399,-3.436155,STD
58045643857000,2.464962,-0.368554710037764,9.88698654390106,-0.678125064339596,-0.0012217305,-0.0009162979,0.00030543262,272.8675,-94.454956,-3.4327993,STD
58045648974000,2.470079,-0.370867988247734,9.90317958799094,-0.705884419767749,0.0018325958,0.009468411,-0.003970624,272.8834,-94.45787,-3.431609,STD
58045653837000,2.474942,-0.373066438889728,9.91856883430891,-0.73226584354088,-0.008246681,-0.00030543262,-0.01160644,272.9053,-94.458496,-3.43123,STD
58045658895000,2.48,-0.37349546,9.9179798600639,-0.7374141,-0.008552114,-0.0036651916,-0.003970624,272.91776,-94.46316,-3.430428,STD
58045663882000,2.484987,-0.37349546,9.9136201613875,-0.7374141,-0.010995574,-0.008552114,-0.004886922,272.93307,-94.46901,-3.4342415,STD
58045668899000,2.490004,-0.37349546,9.90923423633044,-0.7374141,-0.0106901415,-0.006414085,0.0033597588,272.95258,-94.47798,-3.433576,STD
58045673901000,2.495006,-0.37349546,9.90486142446372,-0.7374141,-0.020463986,-0.0012217305,0.008552114,272.97232,-94.48536,-3.433971,STD
58045678878000,2.499983,-0.36895667251086,9.89560991355343,-0.72606713127715,-0.022296581,0.002443461,0.005192355,272.99796,-94.49519,-3.4392753,STD
58045683914000,2.505019,-0.358481267471764,9.87989702476108,-0.699878618679409,-0.022296581,-0.0018325958,0.010079277,273.02423,-94.50056,-3.4406354,STD
58045688902000,2.510007,-0.345820510656905,9.87084749287693,-0.68384920439256,-0.01740966,-0.0018325958,0.008246681,273.04562,-94.50967,-3.4447117,STD
58045693878000,2.514983,-0.331677003541749,9.86613289533043,-0.674420206212901,-0.022602014,-0.006414085,0.0027488936,273.06927,-94.51657,-3.4484427,STD
58045698910000,2.520015,-0.330981974737555,9.86142567795462,-0.665005958252625,-0.02687807,-0.0070249503,0.014966198,273.0896,-94.51763,-3.446428,STD
58045703905000,2.52501,-0.340238641754148,9.8567972502056,-0.655749279153887,-0.02443461,-0.0125227375,0.0143553335,273.11203,-94.52295,-3.4496386,STD
58045708892000,2.529997,-0.349480483278022,9.85217623535388,-0.64650742556722,-0.022602014,-0.0125227375,0.011301007,273.1302,-94.519295,-3.442256,STD
58045713897000,2.535002,-0.358755682160515,9.84753854148324,-0.637232214578395,-0.02076942,-0.01160644,0.0106901415,273.14944,-94.515945,-3.4346397,STD
58045718902000,2.540007,-0.365332136949682,9.84566375323423,-0.634189450590309,-0.014049901,-0.015271631,0.006414085,273.16962,-94.51555,-3.4292104,STD
58045723901000,2.545006,-0.368516441263095,9.84725593864113,-0.638965918697995,-0.017104227,-0.017104227,0.00061086525,273.18872,-94.51432,-3.424525,STD
58045728874000,2.549979,-0.371684183881739,9.8488398430277,-0.643717544203,-0.016493361,-0.011911872,0.004886922,273.20508,-94.51343,-3.4202912,STD
58045734606000,2.555711,-0.375335400589976,9.85066548950747,-0.649194382609332,-0.009162978,-0.015271631,0.0009162979,273.2239,-94.51635,-3.4202228,STD
58045738895000,2.56,-0.378067443238551,9.85203153935947,-0.653292456566896,-0.006414085,-0.009468411,-0.007941248,273.24493,-94.5162,-3.4204314,STD
58045743891000,2.564996,-0.381249836587183,9.85362276926402,-0.658066058220426,-0.01038471,-0.0106901415,0.0030543262,273.2688,-94.512856,-3.4162498,STD
58045748954000,2.570059,-0.37462433827341,9.8587580468703,-0.65235176724687,-0.0070249503,-0.009468411,0.00061086525,273.2896,-94.51628,-3.4182384,STD
58045753901000,2.575006,-0.355645287963946,9.86824776524787,-0.633372692165248,-0.0070249503,-0.0106901415,0.002443461,273.31137,-94.51517,-3.415926,STD
58045758888000,2.579993,-0.341777409667875,9.8746838968818,-0.62946356986802,-0.008857546,-0.0076358155,0.005192355,273.3257,-94.52328,-3.4194634,STD
58045763901000,2.585006,-0.334814605923133,9.87700487831762,-0.645710117593909,0.0070249503,-0.0030543262,0.006414085,273.3398,-94.53446,-3.4227273,STD
58045768873000,2.589978,-0.327908749107082,9.87930687706067,-0.661823789106599,-0.008857546,0.00580322,0.0018325958,273.34967,-94.53599,-3.4244514,STD
58045773897000,2.595002,-0.320930666918057,9.88163295141407,-0.678105986548223,-0.0033597588,0.0036651916,-0.0012217305,273.36133,-94.54379,-3.4254284,STD
58045778869000,2.599974,-0.317465604979347,9.88040297624948,-0.683806172036349,-0.011911872,0.0021380284,-0.0033597588,273.36612,-94.54495,-3.422457,STD
58045783967000,2.605072,-0.322507181637753,9.87031963341594,-0.663639907517555,-0.004581489,0.004581489,0.0012217305,273.37048,-94.54926,-3.4184456,STD
58045788828000,2.609933,-0.322379759259259,9.86087925514403,-0.649607044444444,-0.0036651916,0.0061086523,0.0015271631,273.37842,-94.554695,-3.4148893,STD
58045793898000,2.615003,-0.31286488042328,9.85136418753674,-0.64484956031746,-0.00030543262,0.0067195175,0.0015271631,273.38602,-94.56098,-3.4102037,STD
58045798866000,2.619971,-0.307104850442155,9.84625108790922,-0.642293037198383,-0.00030543262,0.007330383,0.004276057,273.386336403484,-94.5635368193313,-3.40907037063782,STD
58045804575000,2.62568,-0.309481875406287,9.85100523712013,-0.644670086983175,-0.004581489,0.016187929,-0.004886922,273.3867,-94.566475,-3.407768,STD
58045809270000,2.630375,-0.311436706761445,9.85491498147907,-0.646624938750489,-0.0067195175,0.018325957,0.005192355,273.38965,-94.56938,-3.4008005,STD
58045813919000,2.635024,-0.313372385349333,9.8587864195035,-0.648560637550541,-0.008552114,0.015882496,-0.0009162979,273.3905,-94.57497,-3.3992918,STD
58045818845000,2.63995,-0.315423396905352,9.86288852828138,-0.650611670523021,-0.007941248,0.01863139,0.004276057,273.38968,-94.57602,-3.3917031,STD
58045823896000,2.645001,-0.306068399179011,9.87075528134379,-0.64125666183464,-0.0012217305,0.020463986,0.00061086525,273.38968,-94.581,-3.3885326,STD
58045828852000,2.649957,-0.292283138115984,9.87994564091393,-0.627471376780908,0.00061086525,0.029321533,-0.00030543262,273.38712,-94.583435,-3.3830714,STD
58045833914000,2.655019,-0.296262265012388,9.87878587707261,-0.618013402170764,-0.0015271631,0.022602014,0.00580322,273.3917,-94.581116,-3.3714871,STD
58045838962000,2.660067,-0.310082653821231,9.87187554316752,-0.611103214981894,-0.007941248,0.018936822,0.00580322,273.39288,-94.579865,-3.3620057,STD
58045843899000,2.665004,-0.323599147392796,9.86511715994854,-0.604344975253002,-0.007330383,0.02107485,0.006414085,273.39304,-94.57533,-3.3493314,STD
58045848932000,2.670037,-0.337378469277683,9.85822735991995,-0.597455321504669,-0.006414085,0.016493361,0.005497787,273.39612,-94.57016,-3.337632,STD
58045853903000,2.675008,-0.355864410071385,9.85231408148072,-0.60264152632164,-0.0036651916,0.020158553,0.005192355,273.3963,-94.565414,-3.3257856,STD
58045858895000,2.68,-0.380241029251479,9.8474386599021,-0.62214280028452,-0.00061086525,0.016798794,-0.0018325958,273.39966,-94.56271,-3.3166418,STD
58045863900000,2.685005,-0.390171414682906,9.85486784754305,-0.634546882381352,-0.004886922,0.014049901,0.0015271631,273.41556,-94.55579,-3.3143597,STD
58045868910000,2.690015,-0.385133629277614,9.87501936791264,-0.63958464148467,-0.0125227375,0.010995574,0.01038471,273.4322,-94.5493,-3.3124886,STD
58045874424000,2.695529,-0.37655124127279,9.88163471212345,-0.633494737655905,-0.01282817,0.015882496,0.010995574,273.44696,-94.54773,-3.311647,STD
58045878887000,2.699992,-0.368149593876849,9.87953425750651,-0.622992692666962,-0.00061086525,0.017715093,0.013133603,273.46332,-94.5452,-3.3080003,STD
58045883905000,2.70501,-0.358703152776058,9.87717259914492,-0.61118465731977,-0.015882496,0.01985312,0.0036651916,273.47806,-94.53969,-3.3068805,STD
58045888903000,2.710008,-0.349294361898865,9.87482035353088,-0.599423684688191,-0.009773844,0.019547688,0.008857546,273.493,-94.537445,-3.3010874,STD
58045893854000,2.714959,-0.349291127548747,9.87595108867224,-0.602814203282266,-0.009773844,0.021685716,0.016493361,273.5063,-94.532646,-3.2972407,STD
58045898915000,2.72002,-0.358291728367688,9.88045147836583,-0.620815381424327,-0.016493361,0.0143553335,0.014966198,273.52203,-94.528725,-3.2947643,STD
58045903899000,2.725004,-0.365775063876877,9.8795521147087,-0.630212826123123,-0.02076942,0.008552114,0.020158553,273.52936,-94.52666,-3.295231,STD
58045908899000,2.730004,-0.370875074527639,9.86935188039195,-0.625112815472361,-0.02107485,0.0070249503,0.013439035,273.53717,-94.5269,-3.2994504,STD
58045913892000,2.734997,-0.375807399790857,9.86757885778309,-0.61786855645354,-0.02443461,0.010079277,0.015271631,273.54715,-94.52591,-3.3007147,STD
58045918884000,2.739989,-0.380568622330445,9.87472058470272,-0.608346123803406,-0.023823744,0.010995574,0.0125227375,273.55783,-94.527985,-3.3050861,STD
58045923899000,2.745004,-0.385351781592471,9.88189521621353,-0.598779817765661,-0.027794369,0.008857546,0.015271631,273.56805,-94.5269,-3.3077404,STD
58045928892000,2.749997,-0.390113957902599,9.88903837376755,-0.589255477576935,-0.03481932,0.0076358155,0.0143553335,273.5775,-94.52667,-3.312,STD
58045933868000,2.754973,-0.401565249892559,9.89507008786023,-0.593101402909931,-0.033292156,0.0106901415,0.018325957,273.59308,-94.51967,-3.3094678,STD
58045938861000,2.759966,-0.420770787542926,9.89987157003715,-0.612306925519631,-0.030848695,0.014966198,0.014966198,273.60815,-94.51351,-3.309281,STD
58045944098000,2.765203,-0.426423924332328,9.89335330545654,-0.620226246898821,-0.03756821,0.009162978,0.01282817,273.62723,-94.503914,-3.3118558,STD
58045948873000,2.769978,-0.418064676046065,9.87663491362764,-0.616046631484325,-0.034208454,0.0030543262,0.016187929,273.64478,-94.4966,-3.313621,STD
58045953865000,2.77497,-0.412144063053281,9.86308686723769,-0.615646700861569,-0.035430185,0.003970624,0.018020526,273.6656,-94.49093,-3.3182564,STD
58045958869000,2.779974,-0.413351328635344,9.85946512847966,-0.625304812911954,-0.03390302,0.0015271631,0.015882496,273.6886,-94.48684,-3.3230262,STD
58045963867000,2.784972,-0.414557146656758,9.85584773233405,-0.634951344492253,-0.03268129,0.003970624,0.01985312,273.70917,-94.47992,-3.3243663,STD
58045968940000,2.790045,-0.415781059186295,9.85217605353319,-0.644742631948608,-0.03634648,0.003970624,0.0143553335,273.721309689,-94.4781317675,-3.32653105056,STD
58045973867000,2.794972,-0.416969747740018,9.84861004496788,-0.654252127966243,-0.027794369,-0.004886922,0.015882496,273.7331,-94.476395,-3.3286335,STD
58045978933000,2.800038,-0.418191971448797,9.84494343254818,-0.664029904874166,-0.03481932,0.00030543262,0.016187929,273.74988,-94.46913,-3.3286386,STD
58045983836000,2.804941,-0.419374869759919,9.84139479443255,-0.673493079011462,-0.01985312,0.0036651916,0.015271631,273.77145,-94.467354,-3.330135,STD
58045988928000,2.810033,-0.420603366231515,9.8377093640257,-0.683321037956418,-0.022907447,0.004276057,0.013439035,273.79187,-94.46121,-3.3316984,STD
58045993877000,2.814982,-0.415181056457399,9.83693047982063,-0.687980490732437,-0.03848451,-0.0036651916,0.014660766,273.82025,-94.4493,-3.3283732,STD
58045998962000,2.820067,-0.396982970190583,9.84147961659193,-0.683430973916293,-0.021685716,-0.007941248,0.01282817,273.84686,-94.44442,-3.3264315,STD
58046003837000,2.824942,-0.381239983005422,9.84678931525949,-0.680869438497289,-0.009773844,-0.0009162979,0.015271631,273.87317,-94.4442,-3.3281596,STD
58046008817000,2.829922,-0.372004416777692,9.85602507436096,-0.685487221611154,-0.020158553,-0.0033597588,0.017104227,273.90292,-94.44356,-3.3306515,STD
58046013848000,2.834953,-0.364245651288418,9.86443799811724,-0.688222134846326,-0.018325957,-0.004886922,0.01038471,273.9251,-94.44709,-3.3306565,STD
58046018822000,2.839927,-0.366669577769184,9.86686197521881,-0.678526428923265,-0.01863139,-0.009468411,0.015577064,273.9488,-94.44545,-3.3268497,STD
58046023815000,2.84492,-0.369102763317729,9.86929521158152,-0.668793686729086,-0.014966198,-0.004886922,0.008552114,273.96613,-94.44601,-3.3210626,STD
58046028851000,2.849956,-0.371556903598616,9.87174940311419,-0.658977125605536,-0.019242255,0.0012217305,0.014660766,273.98438,-94.44132,-3.3103595,STD
58046033818000,2.854923,-0.37260394501506,9.87457953360316,-0.65211441498494,-0.014660766,-0.009773844,0.01160644,274.00793,-94.44168,-3.3046224,STD
58046038821000,2.859926,-0.368094087108434,9.87908948569277,-0.656624272891566,-0.020463986,-0.0036651916,0.016798794,274.02478,-94.436424,-3.2947037,STD
58046043824000,2.864929,-0.364644501225741,9.88399081848825,-0.661525541225741,-0.018936822,-0.004581489,0.0125227375,274.03857,-94.432526,-3.282781,STD
58046048830000,2.869935,-0.374438466659857,9.89378447711951,-0.671319506659857,-0.021380283,-0.0070249503,0.012217305,274.0511,-94.42518,-3.2686524,STD
58046053899000,2.875004,-0.382459464369879,9.90057963870464,-0.677502111080765,-0.016798794,-0.015271631,0.015271631,274.06982,-94.420616,-3.25807,STD
58046058896000,2.880001,-0.377791568388607,9.88657614572766,-0.658830478413968,-0.017715093,-0.00030543262,0.0125227375,274.08224,-94.416115,-3.2492297,STD
58046063939000,2.885044,-0.373905222324371,9.87430263428737,-0.640826477062735,-0.024129177,-0.0018325958,0.014049901,274.10077,-94.409584,-3.2353232,STD
58046068910000,2.890015,-0.378492899158716,9.88118404654524,-0.631651142555652,-0.01863139,-0.01160644,0.010995574,274.1171,-94.40705,-3.2238457,STD
58046073993000,2.895098,-0.383183939462272,9.88822050168642,-0.622269081541871,-0.008857546,-0.0125227375,0.012217305,274.1317,-94.399025,-3.2094438,STD
58046078884000,2.899989,-0.387697785247181,9.89499116902766,-0.613241408825287,-0.02076942,-0.008246681,0.013133603,274.14728,-94.38894,-3.1965146,STD
58046083887000,2.904992,-0.392314994501301,9.90191687925219,-0.604007009602004,-0.021685716,-0.015271631,0.007941248,274.16608,-94.38434,-3.185612,STD
58046088902000,2.910007,-0.388495375352349,9.89826421728188,-0.615799923582215,-0.018325957,-0.015882496,0.0036651916,274.18158,-94.378265,-3.1744447,STD
58046093901000,2.915006,-0.384032798620433,9.89380155667412,-0.629187621159582,-0.01282817,-0.015882496,0.0030543262,274.1986,-94.373116,-3.1641734,STD
58046098997000,2.920102,-0.375466068949916,9.88143187227107,-0.639675448848168,-0.01038471,-0.016493361,0.009162978,274.21393,-94.36615,-3.154369,STD
58046103839000,2.924944,-0.366304582117949,9.8676898333498,-0.648836969162304,-0.021991149,-0.022907447,0.01160644,274.23062,-94.35865,-3.1461294,STD
58046108900000,2.930005,-0.362080131152875,9.8622724327574,-0.658577015388502,-0.020158553,-0.02565634,0.01038471,274.2463,-94.34972,-3.1275303,STD
58046113939000,2.935044,-0.35964214513691,9.85983439582702,-0.668328959452359,-0.019242255,-0.027488936,0.003970624,274.2633,-94.33947,-3.1104693,STD
58046118865000,2.93997,-0.357258831162979,9.85745103208043,-0.677862215348085,-0.01282817,-0.024740042,0.0030543262,274.28046,-94.33093,-3.091908,STD
58046123887000,2.944992,-0.354829070144488,9.85502122031929,-0.687581259422047,-0.009162978,-0.027183503,0.007330383,274.29944,-94.3228,-3.074386,STD
58046129384000,2.950489,-0.350087605545387,9.85878833885728,-0.678894452757853,-0.011301007,-0.03145956,0.0033597588,274.31775,-94.3171,-3.060023,STD
58046133894000,2.954999,-0.34581440118229,9.86306162799901,-0.668211430695028,-0.005497787,-0.03359759,0.0076358155,274.33615,-94.311646,-3.042648,STD
58046138900000,2.960005,-0.341071239088796,9.8678048841949,-0.656353513079396,-0.01282817,-0.03145956,0.00030543262,274.34924,-94.31337,-3.0323324,STD
58046143900000,2.965005,-0.336333761967846,9.87254245530547,-0.644509807909968,-0.008552114,-0.029321533,-0.0021380284,274.363,-94.31699,-3.0198858,STD
58046148931000,2.970036,-0.346078616399881,9.86279740374889,-0.634385765492413,-0.0067195175,-0.021685716,-0.00580322,274.372,-94.32268,-3.0118177,STD
58046153937000,2.975042,-0.360342672982247,9.84853305920857,-0.624876415951602,-0.004276057,-0.02687807,-0.013744468,274.38397,-94.33071,-3.0061123,STD
58046158897000,2.980002,-0.353362709375248,9.85551316372471,-0.615455138156486,-0.0106901415,-0.02687807,-0.0030543262,274.3901,-94.33044,-2.994979,STD
58046164010000,2.985115,-0.338795212602142,9.87008095458152,-0.605743485472035,-0.01740966,-0.026572637,-0.005497787,274.39734,-94.334755,-2.9901364,STD
58046168879000,2.989984,-0.323271393716111,9.85581267768952,-0.588442777478847,-0.006414085,-0.022602014,-0.005192355,274.3945,-94.34144,-2.9810283,STD
58046173899000,2.995004,-0.306667849906752,9.83090728829218,-0.567688341215679,-0.0021380284,-0.025961773,-0.0125227375,274.39368,-94.34728,-2.9751785,STD
58046178887000,2.999992,-0.293850712666216,9.81925726303478,-0.560505312926132,-0.007330383,-0.033292156,-0.0076358155,274.39703,-94.342514,-2.9585507,STD
58046183913000,3.005018,-0.286344391986276,9.82676347398243,-0.57301584913448,-0.0012217305,-0.021685716,-0.009468411,274.39578,-94.34391,-2.9461427,STD
58046188892000,3.009997,-0.27890826570983,9.83419949155274,-0.585409394654052,-0.0012217305,-0.021991149,-0.011301007,274.396238365938,-94.3430760286408,-2.94316564506457,STD
58046193885000,3.01499,-0.27145123046213,9.84165641778864,-0.597837788463898,-0.0012217305,-0.017715093,-0.006414085,274.396698020713,-94.342239712313,-2.94018021921749,STD
58046199555000,3.02066,-0.276302475083645,9.8531088716788,-0.606599586969101,0.0012217305,-0.014660766,0.0018325958,274.39722,-94.34129,-2.93679,STD
58046203919000,3.025024,-0.286584204235387,9.86339059653612,-0.61071227476481,0.0036651916,-0.01160644,-0.0018325958,274.39627,-94.343216,-2.9322782,STD
58046208893000,3.029998,-0.298303113676442,9.87510950108246,-0.615399834135997,0.010079277,-0.008857546,-0.0018325958,274.3952,-94.34971,-2.9284885,STD
58046213909000,3.035014,-0.310120976514466,9.88692735898445,-0.620126974828774,0.012217305,-0.0076358155,-0.004581489,274.39374,-94.35687,-2.9265573,STD
58046218906000,3.040011,-0.31139499759813,9.89516085964742,-0.620172621221389,0.00580322,-0.005497787,-0.009468411,274.39136,-94.36378,-2.9252253,STD
58046223936000,3.045041,-0.30201128200448,9.89985281542807,-0.615480768323756,0.009162978,-0.0061086523,0.002443461,274.3898,-94.37029,-2.9199092,STD
58046228911000,3.050016,-0.291606401887717,9.90136305544829,-0.613970561419377,0.0067195175,-0.003970624,-0.0012217305,274.3876,-94.38064,-2.9227865,STD
58046233863000,3.054968,-0.279867116992425,9.89901515188871,-0.616318413495222,0.010995574,-0.0018325958,0.0033597588,274.38608,-94.38904,-2.9199164,STD
58046238886000,3.059991,-0.267959518440517,9.89663358492995,-0.618699928232091,0.005192355,-0.0070249503,0.007330383,274.37466,-94.399536,-2.917873,STD
58046243894000,3.064999,-0.256087479111837,9.89425912995693,-0.621074331139165,0.007941248,-0.01160644,0.0015271631,274.3628,-94.41336,-2.9173,STD
58046248881000,3.069986,-0.250871569666569,9.88346800166716,-0.618743232624301,0.004581489,-0.004581489,0.0067195175,274.34967,-94.42145,-2.9124017,STD
58046253916000,3.075021,-0.255600331851525,9.85982419074238,-0.609285713192115,0.016798794,-0.010995574,0.0061086523,274.34183,-94.435326,-2.9111335,STD
58046258831000,3.079936,-0.26237376626738,9.84332845454546,-0.600081701475936,0.016798794,-0.009773844,0.009162978,274.3319,-94.44765,-2.9138498,STD
58046263935000,3.08504,-0.273463063550802,9.83857596969697,-0.590576592827095,0.015577064,-0.010995574,0.004886922,274.3247,-94.463326,-2.9187894,STD
58046269115000,3.09022,-0.284717483599417,9.83375271900827,-0.58092995042878,0.012217305,-0.0106901415,0.0125227375,274.3144,-94.475395,-2.919398,STD
58046273898000,3.095003,-0.295109354466699,9.82929912672176,-0.572022635642846,0.015882496,-0.008246681,0.011301007,274.30392,-94.49067,-2.9235408,STD
58046278873000,3.099978,-0.305918377582888,9.82466675757576,-0.562757761910873,0.018936822,-0.009773844,0.01282817,274.30368,-94.49864,-2.9249322,STD
58046283921000,3.105026,-0.316886005460379,9.81996641597796,-0.55335694128796,0.015271631,-0.01160644,0.008857546,274.30283,-94.50693,-2.9280665,STD
58046288907000,3.110012,-0.327358242557352,9.81797383903723,-0.549371608762693,0.015577064,-0.017104227,0.0015271631,274.3076,-94.51679,-2.9350233,STD
58046293957000,3.115062,-0.336452420819857,9.82706820722076,-0.567559984279804,0.022602014,-0.018020526,0.013439035,274.31186,-94.524216,-2.9372854,STD
58046298944000,3.120049,-0.344082264183522,9.83623446932501,-0.585550791989431,0.013744468,-0.012217305,0.007941248,274.3129,-94.53138,-2.9498062,STD
58046303913000,3.125018,-0.334937485121307,9.84766543718472,-0.603840354888302,0.005497787,-0.010995574,0.009773844,274.31586,-94.53639,-2.9565914,STD
58046308895000,3.13,-0.325768781300024,9.85912631097766,-0.6221777673178,0.0009162979,-0.017715093,0.007941248,274.31473,-94.546814,-2.9647706,STD
58046313904000,3.135009,-0.316550387594523,9.87064929709344,-0.640614559541677,0.010079277,-0.02107485,0.0030543262,274.3124,-94.558334,-2.972934,STD
58046318847000,3.139952,-0.307453458050444,9.88202045308672,-0.658808423379294,0.002443461,-0.018936822,0.0030543262,274.312202062269,-94.560754283612,-2.97649014928421,STD
58046323893000,3.144998,-0.308579769832776,9.88750876672241,-0.658677750167224,-0.0030543262,-0.024129177,0.0027488936,274.312,-94.563225,-2.9801204,STD
58046328986000,3.150091,-0.310978680043282,9.89230643684832,-0.656278839956719,-0.0015271631,-0.0106901415,0.00061086525,274.30783,-94.574196,-2.9886682,STD
58046333916000,3.155021,-0.313300813822546,9.8969505589219,-0.653956706177454,0.0015271631,-0.005192355,-0.0027488936,274.31012,-94.586044,-2.9955022,STD
58046338839000,3.159944,-0.315619650454456,9.90158808690734,-0.651637869545544,-0.0027488936,-0.013744468,-0.004886922,274.31415,-94.60061,-3.0104518,STD
58046343886000,3.164991,-0.305017413656112,9.91343542875552,-0.636533278759205,-0.004581489,-0.011911872,-0.0030543262,274.31366,-94.61571,-3.0243654,STD
58046349013000,3.170118,-0.291458792214654,9.92699432391384,-0.618455101106406,-0.00061086525,-0.009162978,-0.0027488936,274.31537,-94.63134,-3.0388722,STD
58046353930000,3.175035,-0.29596239916419,9.928262875349,-0.607143511242007,-0.0033597588,-0.004276057,-0.009468411,274.31354,-94.64402,-3.0511465,STD
58046358861000,3.179966,-0.308721986754931,9.92400959362334,-0.598637125436368,-0.010995574,-0.006414085,-0.007330383,274.31323,-94.654335,-3.0604558,STD
58046363910000,3.185015,-0.318298472707359,9.91025276010208,-0.602817429554445,-0.009468411,-0.011301007,0.00061086525,274.3104,-94.662025,-3.0678346,STD
58046368911000,3.190016,-0.323391377515951,9.88478828923862,-0.623189000927265,-0.009468411,-0.006414085,0.0036651916,274.3054,-94.66795,-3.0754747,STD
58046373897000,3.195002,-0.321625996134072,9.87501650810757,-0.640040121893415,-0.01160644,-0.00580322,0.0036651916,274.306429483813,-94.6688975249073,-3.08036319888744,STD
58046378888000,3.199993,-0.314537132864346,9.87737951023334,-0.654217855834981,-0.015882496,-0.0012217305,-0.0018325958,274.30746,-94.669846,-3.0852566,STD
58046383907000,3.205012,-0.307408500375717,9.87975576903302,-0.668475128255883,-0.0125227375,0.01038471,0.008552114,274.30658,-94.67017,-3.0891035,STD
58046388903000,3.210008,-0.300312535459759,9.88212113842199,-0.68266706549733,-0.018325957,0.0012217305,0.004581489,274.31393,-94.672874,-3.0992355,STD
58046393873000,3.214978,-0.304244541593578,9.88081044325138,-0.677257546924235,-0.016187929,-0.00030543262,0.0021380284,274.3223,-94.673874,-3.1074846,STD
58046398919000,3.220024,-0.318792830536879,9.87596091570497,-0.653010364927245,-0.006414085,0.0070249503,0.0027488936,274.3305,-94.675476,-3.11564,STD
58046403902000,3.225007,-0.330242836028447,9.87137225362519,-0.643961722194514,-0.014966198,-0.0015271631,0.0076358155,274.33936,-94.679665,-3.1227531,STD
58046408903000,3.230008,-0.339089899259259,9.86694862962963,-0.6483853,-0.019242255,-0.002443461,0.002443461,274.34378,-94.688385,-3.1319695,STD
58046413925000,3.23503,-0.341099221219667,9.86777689533657,-0.653055809390167,-0.0061086523,0.006414085,0.0027488936,274.34406,-94.69281,-3.1346612,STD
58046418978000,3.240083,-0.330887874859675,9.8779884549483,-0.658161482570162,-0.007330383,0.004276057,0.013744468,274.3478,-94.69214,-3.1357787,STD
58046423899000,3.245004,-0.327602297451404,9.87729230291577,-0.656817964308855,-0.010995574,0.004581489,0.008246681,274.34448,-94.698166,-3.1391678,STD
58046428891000,3.249996,-0.331904617969762,9.86438507181425,-0.648213278347732,-0.015577064,0.0030543262,0.0106901415,274.34274,-94.69999,-3.1372113,STD
58046433865000,3.25497,-0.336816073376168,9.85561924415888,-0.642188616413551,-0.010079277,0.004581489,0.014660766,274.3379,-94.706604,-3.1382034,STD
58046438904000,3.260009,-0.343863025594821,9.86031730714564,-0.644537623379089,-0.007941248,0.0070249503,0.0070249503,274.33316,-94.71307,-3.1417122,STD
58046443886000,3.264991,-0.350830264323403,9.86496222673286,-0.646860058922313,-0.00580322,0.0143553335,0.004581489,274.3194,-94.72217,-3.1444213,STD
58046448916000,3.270021,-0.357864630201519,9.86965189865654,-0.649204870400117,-0.008857546,0.01160644,0.0125227375,274.3082,-94.72966,-3.1462595,STD
58046454453000,3.275558,-0.365583472266513,9.87410421154123,-0.649558085995107,-0.009773844,0.003970624,0.009162978,274.2964,-94.74024,-3.1517618,STD
58046458899000,3.280004,-0.371710753174557,9.8756360629587,-0.64343079868902,-0.008552114,0.014966198,0.017715093,274.2807,-94.74648,-3.1511679,STD
58046463894000,3.284999,-0.378594641644121,9.877357070118,-0.636546903031371,-0.007941248,0.015271631,0.010079277,274.2724,-94.75917,-3.162195,STD
58046468900000,3.290005,-0.385493689828033,9.87908186728306,-0.629647847643546,-0.008246681,0.0106901415,0.0106901415,274.26294,-94.768326,-3.1680398,STD
58046473895000,3.295,-0.392377578297597,9.88080287444236,-0.622763951985897,-0.022296581,0.009162978,0.0125227375,274.25266,-94.77544,-3.1753032,STD
58046478916000,3.300021,-0.399297298819255,9.88253283979709,-0.615844224238739,-0.01160644,0.016187929,0.01740966,274.24152,-94.78666,-3.1811347,STD
58046483960000,3.305065,-0.40317944489255,9.88135783237822,-0.617683462471347,-0.009773844,0.01863139,0.014966198,274.23224,-94.793724,-3.1883383,STD
58046488989000,3.310094,-0.404822294445354,9.87807206808569,-0.625897706804475,-0.01282817,0.01863139,0.01863139,274.22205,-94.79959,-3.1920855,STD
58046493941000,3.315046,-0.406439990008187,9.87483661277118,-0.633986181240278,-0.029626964,0.013439035,0.012217305,274.20895,-94.80373,-3.1993966,STD
58046498886000,3.319991,-0.408055398844658,9.87160573100014,-0.642063222049052,-0.026572637,0.013439035,0.013744468,274.19482,-94.80894,-3.2030885,STD
58046503927000,3.325032,-0.409702168499795,9.86831212634739,-0.65029706688566,-0.021991149,0.01985312,0.008857546,274.18033,-94.81311,-3.2101603,STD
58046509818000,3.330923,-0.411626612070201,9.86446316284623,-0.65991928071872,-0.025350908,0.022296581,0.012217305,274.16733,-94.814156,-3.2142632,STD
58046513886000,3.334991,-0.412955526761154,9.86180528073407,-0.666563851398213,-0.031154128,0.022296581,0.011911872,274.15326,-94.817024,-3.2204714,STD
58046518903000,3.340008,-0.414594456211625,9.85852735680175,-0.674758495227862,-0.036957346,0.022907447,0.014660766,274.13867,-94.8177,-3.2245502,STD
58046524591000,3.345696,-0.41645258471756,9.85481102606085,-0.684049133877064,-0.035124753,0.019547688,0.014049901,274.12537,-94.81928,-3.2295225,STD
58046529045000,3.35015,-0.417907596033565,9.85190094569518,-0.691324187418475,-0.032986723,0.022602014,0.017104227,274.11035,-94.81832,-3.232337,STD
58046533911000,3.355016,-0.419497197529677,9.84872167962887,-0.699272191579342,-0.03604105,0.021685716,0.023823744,274.09766,-94.815926,-3.2342167,STD
58046538838000,3.359943,-0.421106726212648,9.84550255839815,-0.707319831632897,-0.03604105,0.026267206,0.02076942,274.07605,-94.818504,-3.2370799,STD
58046543908000,3.365013,-0.4213795,9.85444374869012,-0.702991650785928,-0.034208454,0.028405234,0.018936822,274.05585,-94.81912,-3.2376666,STD
58046548892000,3.369997,-0.4213795,9.8656083190494,-0.696292908570359,-0.029626964,0.019242255,0.020463986,274.0379,-94.820045,-3.2381988,STD
58046553901000,3.375006,-0.4213795,9.87682889146707,-0.68956056511976,-0.030848695,0.027488936,0.02076942,274.01935,-94.82763,-3.2404835,STD
58046558835000,3.37994,-0.4213795,9.88788145770958,-0.682929025374251,-0.0290161,0.024740042,0.02107485,274.00693,-94.836174,-3.2425666,STD
58046563903000,3.385008,-0.429196894148155,9.90065854924206,-0.669530091476785,-0.03756821,0.027183503,0.024740042,273.98462,-94.84295,-3.2411335,STD
58046568910000,3.390015,-0.442911572669463,9.91437349985699,-0.651243824806941,-0.03604105,0.034513887,0.023823744,273.9621,-94.85265,-3.2408457,STD
58046573897000,3.395002,-0.442986957391487,9.91919762869154,-0.63452304474619,-0.034513887,0.03268129,0.015882496,273.94037,-94.85868,-3.2414405,STD
58046578890000,3.399995,-0.427910652925906,9.9141720941671,-0.619446777013137,-0.027488936,0.027183503,0.014660766,273.91818,-94.86477,-3.240304,STD
58046583911000,3.405016,-0.426985336026626,9.9176009530978,-0.615718555086534,-0.022602014,0.017104227,0.019242255,273.8986,-94.86828,-3.241446,STD
58046588902000,3.410007,-0.436774953804403,9.92739077532002,-0.620613358864311,-0.022602014,0.014049901,0.009468411,273.87866,-94.87488,-3.2468693,STD
58046594266000,3.415371,-0.432494142898043,9.92311004625572,-0.619276850181128,-0.014660766,0.022296581,0.014966198,273.8618,-94.87753,-3.2485728,STD
58046598957000,3.420062,-0.421557151086766,9.91217305901256,-0.614902057567923,-0.032375857,0.016187929,0.0030543262,273.8496,-94.87965,-3.2580893,STD
58046603901000,3.425006,-0.410030293803681,9.90064620654397,-0.61029131898773,-0.01863139,0.013744468,0.008552114,273.83514,-94.8867,-3.261619,STD
58046608906000,3.430011,-0.39836121599182,9.888977133606,-0.605623692249489,-0.028710667,0.01038471,-0.0009162979,273.82242,-94.88978,-3.2726047,STD
58046613880000,3.434985,-0.385416327149412,9.87603210113704,-0.598517008122881,-0.026572637,0.009773844,0.004886922,273.81314,-94.88795,-3.26963,STD
58046618912000,3.440017,-0.37099667091163,9.86161215380012,-0.588903910656294,-0.03359759,0.0106901415,0.010079277,273.80426,-94.88389,-3.2694814,STD
58046623896000,3.445001,-0.359334482479056,9.85224186576542,-0.581893144059406,-0.038179077,0.019242255,0.008857546,273.79947,-94.87322,-3.2641504,STD
58046628884000,3.449989,-0.350239065822544,9.84769406721249,-0.577345421485149,-0.042760566,0.02321288,0.01038471,273.79578,-94.85985,-3.2568011,STD
58046633908000,3.455013,-0.342750025473465,9.84092709719043,-0.592743551779397,-0.047647487,0.015271631,0.01282817,273.78375,-94.8445,-3.2432706,STD
58046638902000,3.460007,-0.337773278418314,9.83097391488033,-0.637534327242456,-0.05131268,0.018325957,0.0143553335,273.76764,-94.82865,-3.229717,STD
58046643888000,3.464993,-0.337272274352256,9.82997193813683,-0.681640043522562,-0.047647487,0.039095376,0.018325957,273.7484,-94.811485,-3.2139919,STD
58046648899000,3.470004,-0.341638117219796,9.83870335034571,-0.725298472197962,-0.058643065,0.042455133,0.020463986,273.73337,-94.79089,-3.1990733,STD
58046653886000,3.474991,-0.350659107087827,9.84348360708783,-0.76098825877834,-0.0580322,0.038789943,0.016187929,273.72128,-94.775734,-3.1803107,STD
58046658895000,3.48,-0.371777406117103,9.8382044761171,-0.77682701337112,-0.054367006,0.04428773,0.018325957,273.7059,-94.75773,-3.159552,STD
58046663956000,3.485061,-0.390756936240526,9.83345979282466,-0.775692320687216,-0.03848451,0.053145275,0.021991149,273.6952,-94.74994,-3.14081,STD
58046668917000,3.490022,-0.406761839191511,9.82945848770423,-0.755686183642412,-0.03604105,0.053450707,0.016187929,273.6854,-94.741745,-3.1248097,STD
58046673879000,3.494984,-0.420976845681397,9.82701194361526,-0.734998179133743,-0.034208454,0.06505715,0.0125227375,273.6717,-94.73929,-3.1095114,STD
58046678881000,3.499986,-0.416303813426983,9.8410308159204,-0.706960044161545,-0.018936822,0.06078109,0.010995574,273.6627,-94.74104,-3.096002,STD
58046684066000,3.505171,-0.412111745506507,9.8557702529898,-0.678407973435631,-0.023823744,0.064751714,0.01740966,273.65082,-94.733475,-3.0822155,STD
58046688903000,3.510008,-0.416185178353852,9.87206386528315,-0.658040821959198,-0.021380283,0.071776666,0.018325957,273.63937,-94.73218,-3.070834,STD
58046693897000,3.515002,-0.420390827235315,9.88888633784735,-0.637012590726346,-0.013133603,0.06566802,0.009773844,273.62787,-94.72742,-3.060206,STD
58046698924000,3.520029,-0.402777240863077,9.89656152641662,-0.6283487812805,-0.008857546,0.06261369,0.019547688,273.61407,-94.718925,-3.0443413,STD
58046703837000,3.524942,-0.379057308566243,9.90130560798548,-0.623604798784029,-0.016798794,0.06719518,0.02321288,273.59982,-94.71234,-3.03298,STD
58046708898000,3.530003,-0.374712683579906,9.90363524900016,-0.616406308287433,-0.004276057,0.06078109,0.018325957,273.59186,-94.70607,-3.0226278,STD
58046713887000,3.534992,-0.376266208379125,9.90518880624289,-0.608638679424809,-0.013439035,0.06291912,0.024129177,273.5805,-94.690956,-3.0083592,STD
58046718906000,3.540011,-0.377829074878882,9.90675170538124,-0.600824342030239,-0.024740042,0.057421334,0.02107485,273.5766,-94.67729,-2.9975903,STD
58046723868000,3.544973,-0.379374192147618,9.9082968549179,-0.593098750846366,-0.021685716,0.04917465,0.02076942,273.573,-94.66359,-2.9848173,STD
58046728887000,3.549992,-0.380937058647374,9.90985975405625,-0.585284413451796,-0.015271631,0.062308256,0.028099801,273.56232,-94.65167,-2.975297,STD
58046733917000,3.555022,-0.382503350437327,9.91142607855633,-0.577452949595513,-0.018936822,0.057726767,0.036957346,273.55905,-94.63826,-2.9660962,STD
58046738901000,3.560006,-0.380069880893744,9.90899255819265,-0.580613170752731,-0.025961773,0.05375614,0.034513887,273.55182,-94.62648,-2.9580564,STD
58046743922000,3.565027,-0.375294795213505,9.90421737279047,-0.590163362057597,-0.018325957,0.053450707,0.032070424,273.54504,-94.61584,-2.9478521,STD
58046748910000,3.570015,-0.372075723704271,9.89957861635702,-0.595181776295729,-0.026267206,0.056505036,0.027183503,273.53784,-94.60046,-2.944445,STD
58046753899000,3.575004,-0.36978791221222,9.89500313670753,-0.59746958778778,-0.040011674,0.06414085,0.029321533,273.52945,-94.58491,-2.9397345,STD
58046758897000,3.580002,-0.367495973579774,9.89041940303582,-0.599761526420226,-0.038789943,0.06383542,0.027794369,273.5232,-94.57377,-2.9371662,STD
58046763903000,3.585008,-0.365200366378089,9.88582833245547,-0.602057133621912,-0.041233405,0.06536258,0.0290161,273.51428,-94.558235,-2.9331124,STD
58046768900000,3.590005,-0.359791419444173,9.88945576817693,-0.593020740765241,-0.04337143,0.06536258,0.03573562,273.5041,-94.540405,-2.9228566,STD
58046773896000,3.595001,-0.350427344141305,9.90350167090713,-0.569610557397006,-0.050396383,0.07391469,0.031154128,273.49084,-94.52322,-2.915575,STD
58046779510000,3.600615,-0.347310022662567,9.91708493343582,-0.545274873335896,-0.047036625,0.077579886,0.022907447,273.47958,-94.50809,-2.9073663,STD
58046783913000,3.605018,-0.351631487631053,9.92572780922367,-0.527989020230592,-0.044593163,0.07727446,0.027488936,273.46716,-94.490105,-2.8970037,STD
58046788894000,3.609999,-0.356520249159108,9.93550527102229,-0.508433981775557,-0.04734206,0.07574729,0.027794369,273.44876,-94.47522,-2.8951333,STD
58046793895000,3.615,-0.361428640325903,9.94532199185242,-0.488800424796311,-0.04550946,0.070249505,0.03023783,273.43182,-94.46087,-2.8914573,STD
58046798919000,3.620024,-0.359210243182762,9.9432394804784,-0.511799255429475,-0.054061573,0.07360926,0.022296581,273.41452,-94.44787,-2.8954442,STD
58046803907000,3.625012,-0.349766904588317,9.92907468459029,-0.577902600939014,-0.041233405,0.07727446,0.028710667,273.39908,-94.437,-2.8946173,STD
58046808897000,3.630002,-0.340450702624712,9.91725757252494,-0.610758471312356,-0.049785517,0.08093964,0.025350908,273.3806,-94.41963,-2.9026048,STD
58046813956000,3.635061,-0.331155032785879,9.90796170855718,-0.606110636392939,-0.052534413,0.062002823,0.022296581,273.36777,-94.40534,-2.9087481,STD
58046818888000,3.639993,-0.327286898797734,9.89571619979901,-0.599987922404531,-0.04795292,0.07452556,0.026267206,273.34875,-94.40361,-2.9182835,STD
58046823921000,3.645026,-0.3316903369852,9.87810253900969,-0.5911810460296,-0.04886922,0.07147124,0.030848695,273.3396,-94.400505,-2.9286032,STD
58046828851000,3.649956,-0.333299826391622,9.86033419644557,-0.580408412783243,-0.04642576,0.06780604,0.023518313,273.3337,-94.39113,-2.932026,STD
58046833899000,3.655004,-0.323071594744526,9.83987786131387,-0.559951949489051,-0.04642576,0.06566802,0.032070424,273.32855,-94.377396,-2.929561,STD
58046838867000,3.659972,-0.316587498664659,9.82469822188755,-0.54643087751004,-0.047036625,0.06811147,0.028710667,273.31955,-94.37054,-2.9363554,STD
58046843901000,3.665006,-0.318449165017763,9.82097481919988,-0.548292539975286,-0.04917465,0.057726767,0.028099801,273.31497,-94.36136,-2.9399734,STD
58046853143000,3.674248,-0.321867027639018,9.81413896547729,-0.551710395458758,-0.043066,0.056199603,0.02565634,273.30283,-94.354836,-2.9464095,STD
58046854189000,3.675294,-0.322253857795026,9.81336529062403,-0.55209722480692,-0.022907447,0.059253927,0.02443461,273.29236,-94.35083,-2.952493,STD
58046858890000,3.679995,-0.323992374586036,9.80988819168984,-0.553835737967254,-0.02565634,0.051923547,0.028405234,273.2853,-94.34283,-2.9576802,STD
58046863949000,3.685054,-0.324389555670258,9.80787190857143,-0.556065741526932,-0.032070424,0.06719518,0.029321533,273.27094,-94.339066,-2.9633927,STD
58046868917000,3.690022,-0.315475721088525,9.81678592,-0.560522654163934,-0.023823744,0.061391957,0.034208454,273.26486,-94.336235,-2.9670362,STD
58046874315000,3.69542,-0.307736044500157,9.825804,-0.563913153312105,-0.02107485,0.062002823,0.025045475,273.24872,-94.33527,-2.9724708,STD
58046878891000,3.699996,-0.323459580287034,9.825804,-0.550155056420146,-0.018936822,0.05467244,0.026267206,273.23694,-94.33283,-2.9736283,STD
58046883849000,3.704954,-0.340495701447728,9.825804,-0.535248447069112,-0.020158553,0.06566802,0.016187929,273.21994,-94.333916,-2.9790823,STD
58046888896000,3.710001,-0.357837634383998,9.825804,-0.520074252354577,-0.010079277,0.054367006,0.018325957,273.2118,-94.33502,-2.9810028,STD
58046893889000,3.714994,-0.374994018602503,9.825804,-0.505062412804413,-0.006414085,0.061391957,0.02107485,273.1953,-94.336205,-2.9849281,STD
58046898921000,3.720026,-0.377604173363859,9.82853810041529,-0.481589675817272,-0.011911872,0.06261369,0.020463986,273.1886,-94.332504,-2.9848254,STD
58046903903000,3.725008,-0.367443036615909,9.83361877489085,-0.451106239048025,-0.0027488936,0.0580322,0.02565634,273.18182,-94.3309,-2.982245,STD
58046908898000,3.730003,-0.3654813113635,9.83850620482469,-0.457722281315553,0.002443461,0.05131268,0.02076942,273.17227,-94.32812,-2.9866815,STD
58046913909000,3.735014,-0.367878142089701,9.84329971611228,-0.484087444331236,0.0067195175,0.042760566,0.014660766,273.16473,-94.32626,-2.9899898,STD
58046919328000,3.740433,-0.370470124868645,9.84848351927879,-0.512599281964839,0.0076358155,0.05009095,0.01740966,273.15002,-94.317276,-2.9859798,STD
58046923905000,3.74501,-0.37265936738188,9.85286186714614,-0.536680972470283,0.004581489,0.044593163,0.015882496,273.14136,-94.31051,-2.9852738,STD
58046928888000,3.749993,-0.364428743708906,9.84546741625207,-0.536811271085748,0.005192355,0.029626964,0.015882496,273.13348,-94.30392,-2.9834065,STD
58046933873000,3.754978,-0.350457312268071,9.83149618905473,-0.522839820193152,0.008246681,0.0290161,0.023518313,273.12326,-94.29606,-2.9796503,STD
58046938856000,3.759961,-0.347564958058829,9.82860397068436,-0.52274738196494,0.0106901415,0.027183503,0.015882496,273.12265,-94.29592,-2.9777415,STD
58046943909000,3.765014,-0.352357636226602,9.83339673893236,-0.532332748309399,0.006414085,0.03268129,0.012217305,273.12033,-94.29281,-2.972578,STD
58046948894000,3.769999,-0.346132763203951,9.84358997679012,-0.528092091774815,0.012217305,0.03359759,0.012217305,273.1184,-94.29032,-2.9672432,STD
58046953865000,3.77497,-0.33202719107358,9.85769534271605,-0.513986500005926,0.008246681,0.02443461,0.009773844,273.1178,-94.28622,-2.963834,STD
58046958867000,3.779972,-0.323013969565605,9.86281223901642,-0.50757074,0.010995574,0.02687807,0.012217305,273.11627,-94.289825,-2.9674847,STD
58046963876000,3.784981,-0.318267260552147,9.86043883742331,-0.50757074,0.014966198,0.029321533,0.009468411,273.11725,-94.29424,-2.9732366,STD
58046968915000,3.79002,-0.313492122456956,9.85805122100732,-0.50757074,0.016187929,0.032375857,0.009162978,273.11832,-94.29155,-2.9729254,STD
58046973937000,3.795042,-0.308733094174748,9.85567165965763,-0.50757074,0.0125227375,0.021991149,0.005192355,273.12238,-94.28996,-2.9745584,STD
58046978917000,3.800022,-0.311372962883582,9.8643642241791,-0.512485893148259,0.01282817,0.02443461,0.007941248,273.1244,-94.28505,-2.9710035,STD
58046983935000,3.80504,-0.320936432053731,9.88349104268657,-0.522049382290547,0.018020526,0.029932396,0.004886922,273.12823,-94.28246,-2.9703572,STD
58046988972000,3.810077,-0.33013010177303,9.89058185784717,-0.528983730886515,0.01282817,0.032070424,0.0070249503,273.1306,-94.27123,-2.9586205,STD
58046993896000,3.815001,-0.338740740538665,9.88627689811011,-0.533289050269333,0.014660766,0.025350908,0.0036651916,273.13382,-94.26449,-2.9496977,STD
58046999009000,3.820114,-0.33943619083287,9.87971236217058,-0.534524918180807,0.009468411,0.02107485,0.014966198,273.13675,-94.25393,-2.937176,STD
58047003839000,3.824944,-0.324005530474814,9.86942504759257,-0.529381368308685,0.013744468,0.027488936,0.014660766,273.13828,-94.24889,-2.9291348,STD
58047008815000,3.82992,-0.308963875825811,9.85939707538935,-0.514939822274576,0.01282817,0.03176499,0.009773844,273.14218,-94.2421,-2.9206924,STD
58047013849000,3.834954,-0.294617190548557,9.84983242545382,-0.491028671823232,0.0076358155,0.019242255,0.0106901415,273.14908,-94.23447,-2.9111433,STD
58047018816000,3.839921,-0.27417982054414,9.84276978767123,-0.489777336686644,0.013744468,0.016493361,0.006414085,273.1472,-94.2282,-2.8980296,STD
58047023820000,3.844925,-0.246826886434551,9.83821134931507,-0.512571456378425,0.017104227,0.020158553,0.0106901415,273.14716,-94.21879,-2.882765,STD
58047028815000,3.84992,-0.230728773846531,9.83892262949905,-0.523182747387493,0.02076942,0.022907447,0.01740966,273.1458,-94.2073,-2.8669143,STD
58047033851000,3.854956,-0.233090502729543,9.84836947598061,-0.513735839253709,0.022602014,0.019547688,0.010079277,273.14505,-94.19839,-2.854374,STD
58047038791000,3.859896,-0.235407210569512,9.85763623960629,-0.50446901515107,0.020463986,0.019547688,0.0125227375,273.14536,-94.1832,-2.8281708,STD
58047043811000,3.864916,-0.23776143594535,9.86705307227854,-0.495052121022477,0.018325957,0.015577064,0.00580322,273.14752,-94.172104,-2.8075657,STD
58047048794000,3.869899,-0.245210107889621,9.87224048855441,-0.499997007290687,0.024129177,0.019242255,0.003970624,273.1407,-94.1675,-2.7899933,STD
58047053896000,3.875001,-0.26563902358315,9.86713315563918,-0.540854844010662,0.029932396,0.011911872,0.008857546,273.13828,-94.16269,-2.773154,STD
58047058832000,3.879937,-0.276870356650016,9.86582512249661,-0.559889334530601,0.0290161,0.018020526,0.0125227375,273.1292,-94.156075,-2.757739,STD
58047063892000,3.884997,-0.274608155632323,9.87034961901872,-0.546316114251436,0.024740042,0.021380283,0.008246681,273.1231,-94.150764,-2.7438474,STD
58047068882000,3.889987,-0.272377249885626,9.8748115236917,-0.532930665794314,0.02321288,0.014660766,0.008857546,273.11798,-94.15198,-2.7286282,STD
58047073900000,3.895005,-0.270133826030531,9.87929846510434,-0.519470108608375,0.03634648,0.019547688,0.01160644,273.10876,-94.155876,-2.7142272,STD
58047078900000,3.900005,-0.2681506,9.88459269165724,-0.50863289498943,0.021685716,0.01863139,0.0067195175,273.1033,-94.1548,-2.7024782,STD
58047083913000,3.905018,-0.2681506,9.89639361058945,-0.518073644922079,0.027183503,0.013133603,0.016798794,273.0983,-94.15765,-2.6861153,STD
58047088915000,3.91002,-0.2681506,9.90816863482621,-0.527493679065926,0.016493361,0.01863139,0.01160644,273.08746,-94.153244,-2.675064,STD
58047093908000,3.915013,-0.2681506,9.91992247249398,-0.536896763928027,0.021991149,0.0143553335,0.01282817,273.08148,-94.150696,-2.6600266,STD
58047098977000,3.920082,-0.269340101242065,9.93101683052719,-0.545745833287331,0.03145956,0.018020526,0.016493361,273.0718,-94.14753,-2.646324,STD
58047104573000,3.925678,-0.291528264410709,9.92855142929432,-0.543280483540344,0.014966198,0.008857546,0.018020526,273.0672,-94.14014,-2.6335692,STD
58047108832000,3.929937,-0.308415217043886,9.92667506334529,-0.541404156776152,0.023518313,0.0018325958,0.0076358155,273.05643,-94.14441,-2.6185338,STD
58047113895000,3.935,-0.328490033005796,9.92444448320913,-0.539173623222008,0.016187929,-0.0030543262,0.008857546,273.04813,-94.13932,-2.6004694,STD
58047118904000,3.940009,-0.348350738744135,9.92223769357807,-0.536966879676143,0.006414085,-0.002443461,0.017104227,273.04047,-94.13625,-2.583877,STD
58047123897000,3.945002,-0.342751158767565,9.921572,-0.539612825959581,0.0125227375,0.0030543262,0.014660766,273.0329,-94.13692,-2.570468,STD
58047128916000,3.950021,-0.326044171551716,9.921572,-0.544386246606088,0.0030543262,-0.0009162979,0.020463986,273.02826,-94.12916,-2.5530248,STD
58047133909000,3.955014,-0.309423731789066,9.921572,-0.549134939430955,0.013133603,-0.018020526,0.014966198,273.02563,-94.132126,-2.5447607,STD
58047138888000,3.959993,-0.292849894501217,9.921572,-0.553870317274939,-0.0009162979,-0.02443461,0.0070249503,273.0213,-94.12703,-2.5358233,STD
58047143906000,3.965011,-0.27816716002277,9.91243477874763,-0.549363446375712,-0.0021380284,-0.024740042,0.004276057,273.01804,-94.12699,-2.5252056,STD
58047148941000,3.970046,-0.264442519126186,9.89870986555977,-0.540213695332068,-0.010079277,-0.027488936,0.009162978,273.01736,-94.12241,-2.5151248,STD
58047153889000,3.974994,-0.253102987725206,9.8942087234173,-0.541771979418527,-0.012217305,-0.0290161,0.00030543262,273.0193,-94.11901,-2.505256,STD
58047158897000,3.980002,-0.243300598590261,9.89665937059936,-0.551574363435696,-0.014966198,-0.03573562,0.00030543262,273.0237,-94.11155,-2.4920404,STD
58047163894000,3.984999,-0.233519740262123,9.89910463497011,-0.561355216657299,-0.01282817,-0.038789943,-0.00030543262,273.0264,-94.10448,-2.480352,STD
58047168880000,3.989985,-0.22376041274079,9.90154451652956,-0.571114539083338,-0.018325957,-0.029626964,0.004581489,273.0275,-94.09439,-2.4673913,STD
58047174570000,3.995675,-0.216636791288945,9.88789904095895,-0.585497691293798,-0.015271631,-0.032375857,0.0061086523,273.0396,-94.082596,-2.453171,STD
58047178890000,3.999995,-0.212621283572746,9.87183709395322,-0.59754423121421,-0.017104227,-0.03848451,0.0015271631,273.0498,-94.06917,-2.4397187,STD
58047183912000,4.005017,-0.227933862375127,9.87273292864424,-0.606212856228338,-0.01985312,-0.03604105,0.014049901,273.06018,-94.05488,-2.419335,STD
58047188906000,4.010011,-0.257185593761468,9.88735857798165,-0.611088140550459,-0.016493361,-0.03023783,0.0070249503,273.07074,-94.04618,-2.4063976,STD
58047193908000,4.015013,-0.273887515598086,9.88997278181818,-0.615784094803828,-0.021685716,-0.02443461,0.005192355,273.08893,-94.03062,-2.3881447,STD
