timestamp,rel_time,acc_x,acc_y,acc_z,gyro_x,gyro_y,gyro_z,azimuth,pitch,roll,label
518302375000,0,-5.50475229543909,-7.95066753695318,1.78471672955885e-05,-0.02321288,0.014660766,-0.002443461,162.09552,135.16878,-44.48599,STD
518307055000,0.00468,-5.49090038830123,-7.93954940893713,-0.0626762133351676,-0.01863139,0.018325957,-0.0033597588,162.00374,135.04861,-44.357723,STD
518311984000,0.009609,-5.53419371456232,-7.94435976735963,0.115307175879751,-0.029932396,0.023823744,-0.0009162979,161.92377,134.93259,-44.232773,STD
518316906000,0.014531,-5.57178847627079,-7.94817562088378,0.270266992182786,-0.025045475,0.026572637,0.003970624,161.94171,134.80647,-44.085434,STD
518321938000,0.019563,-5.54908604182409,-7.94136486684411,0.181727435257738,-0.023823744,0.022296581,0.00061086525,161.96594,134.68204,-43.939484,STD
518326916000,0.024541,-5.52662723445612,-7.93462720118246,0.094138024611297,-0.025045475,0.01282817,0.0009162979,161.87779,134.581,-43.830517,STD
518331947000,0.029572,-5.50392931162199,-7.92781780063127,0.00561606298770435,-0.026267206,0.012217305,0.009468411,161.79805,134.48238,-43.72424,STD
518336877000,0.034502,-5.48168706165732,-7.92114510241673,-0.0811287731888632,-0.034208454,0.02565634,0.003970624,161.72514,134.38129,-43.615334,STD
518341929000,0.039554,-5.52738775144396,-7.93320686147822,0.0295163838773046,-0.019547688,0.02107485,0.0067195175,161.64775,134.28615,-43.514412,STD
518347031000,0.044656,-5.58717829672051,-7.9491510485071,0.180985875126122,-0.031154128,0.016187929,0.015271631,161.58046,134.19362,-43.414356,STD
518351937000,0.049562,-5.61015474504696,-7.95261099241644,0.245289272190245,-0.038789943,0.017104227,0.009773844,161.63168,134.08144,-43.282246,STD
518356936000,0.054561,-5.58114873280824,-7.93810803677673,0.187277202281127,-0.030543262,0.021380283,0.012217305,161.68579,133.97585,-43.15748,STD
518362012000,0.059637,-5.55785961524992,-7.93168429190675,0.213790049100071,-0.018936822,0.016798794,0.009773844,161.62337,133.88959,-43.066376,STD
518366943000,0.064568,-5.54343728107503,-7.93649165296753,0.353205070996641,-0.026267206,0.02107485,0.014660766,161.56963,133.80727,-42.978573,STD
518372609000,0.070234,-5.53259530631389,-7.9419714521347,0.439352565171377,-0.021991149,0.013439035,0.021380283,161.53024,133.71925,-42.88375,STD
518376932000,0.074557,-5.52844621413109,-7.94612063096813,0.451800114669272,-0.02076942,0.015577064,0.018325957,161.49991,133.63162,-42.788483,STD
518381937000,0.079562,-5.5258174,-7.95492300969608,0.456599955812906,-0.01863139,0.022907447,0.013133603,161.41124,133.54828,-42.707073,STD
518386975000,0.0846,-5.5258174,-7.96864857979707,0.449737127765872,-0.032986723,0.016798794,0.009468411,161.32214,133.46577,-42.626526,STD
518391923000,0.089548,-5.5258174,-7.98212895313167,0.442996898870134,-0.02076942,0.021991149,0.014049901,161.20134,133.38159,-42.548046,STD
518396973000,0.094598,-5.5258174,-7.99588721613484,0.436117724269594,-0.03176499,0.02107485,0.0143553335,161.08261,133.29794,-42.468704,STD
518401908000,0.099533,-5.52637328226713,-8.00676590548549,0.42706504054399,-0.031154128,0.016493361,0.01863139,160.97038,133.21596,-42.39228,STD
518406941000,0.104566,-5.52881460464975,-8.00920732983842,0.409975416772527,-0.029626964,0.028099801,0.0143553335,160.86852,133.13263,-42.31343,STD
518411893000,0.109518,-5.53121663692448,-8.01160946244238,0.393160829664185,-0.030848695,0.016187929,0.010995574,160.77435,133.04657,-42.231594,STD
518416947000,0.114572,-5.53366814563136,-8.01406107354505,0.375999900091172,-0.027183503,0.018936822,0.008552114,160.69362,132.95993,-42.14849,STD
518421922000,0.119547,-5.53673047912153,-8.0131141115324,0.340530747055348,-0.032375857,0.020158553,0.011301007,160.59305,132.87607,-42.06865,STD
518426969000,0.124594,-5.54149068386843,-8.00359395056136,0.257228843998424,-0.02321288,0.023823744,0.012217305,160.49844,132.79079,-41.988216,STD
518433483000,0.131108,-5.54763452649202,-7.99130658607445,0.149713766425054,-0.025961773,0.021685716,0.009773844,160.41438,132.70609,-41.905964,STD
518436980000,0.134605,-5.55093280982864,-7.98471019159937,0.0919949720937562,-0.030543262,0.01740966,0.012217305,160.33478,132.62338,-41.826244,STD
518442508000,0.140133,-5.55725974515536,-7.9720564388991,-0.00923443691613766,-0.034208454,0.022296581,0.015577064,160.27571,132.53906,-41.745296,STD
518447004000,0.144629,-5.56445266917808,-7.95767040308219,-0.109936499863014,-0.037873644,0.011911872,0.007330383,160.21135,132.45319,-41.663647,STD
518451922000,0.149547,-5.57232072975276,-7.94193407653692,-0.220090580283996,-0.03145956,0.014049901,0.01740966,160.19788,132.37106,-41.57779,STD
518456938000,0.154563,-5.56971302905134,-7.94316111259527,-0.253379632412756,-0.035430185,0.0143553335,0.008552114,160.17943,132.28296,-41.48624,STD
518461933000,0.159558,-5.5649160358203,-7.94795815591657,-0.270169294055355,-0.041233405,0.01985312,0.009162978,160.16634,132.20123,-41.40137,STD
518466975000,0.1646,-5.560073905716,-7.95280033658243,-0.287116936498195,-0.04520403,0.007941248,0.00580322,160.18787,132.11739,-41.308556,STD
518471877000,0.169502,-5.55536622587244,-7.95750806558364,-0.303593997833935,-0.04062254,0.01160644,0.010995574,160.21878,132.03766,-41.21946,STD
518476930000,0.174555,-5.54280245206306,-7.94658087470806,-0.290797190258856,-0.03573562,0.011911872,0.006414085,160.25638,131.95595,-41.129105,STD
518481884000,0.179509,-5.5289515964383,-7.93273016371156,-0.272329501675749,-0.036651913,0.015271631,0.005497787,160.29543,131.87778,-41.042576,STD
518486936000,0.184561,-5.52929988053654,-7.93656107016651,-0.247255262224792,-0.044593163,0.011301007,0.007330383,160.3465,131.79565,-40.95094,STD
518491924000,0.189549,-5.53371875942646,-7.94539896637373,-0.220741412104533,-0.04337143,0.017104227,0.008246681,160.4003,131.71376,-40.859985,STD
518497040000,0.194665,-5.5383955638135,-7.95175104814257,-0.178423084744527,-0.03756821,0.020158553,0.008857546,160.4456,131.63211,-40.771767,STD
518501986000,0.199611,-5.54299889237834,-7.95635435267378,-0.128937526185281,-0.03726278,0.0143553335,0.00580322,160.4878,131.55101,-40.684597,STD
518506930000,0.204555,-5.54760035950825,-7.96095579577978,-0.0794719779610778,-0.039095376,0.0125227375,0.013744468,160.52065,131.47403,-40.603607,STD
518512155000,0.20978,-5.55246335824486,-7.96581876912704,-0.0271949776634515,-0.040317107,0.00030543262,0.009773844,160.54524,131.39392,-40.52074,STD
518516919000,0.214544,-5.55689729623169,-7.97025268396463,0.0204696404069584,-0.028099801,0.006414085,0.012217305,160.57553,131.31831,-40.44268,STD
518521942000,0.219567,-5.56157229004106,-7.97492765336621,0.0707255968653271,-0.036957346,0.004886922,0.0070249503,160.59662,131.24171,-40.363773,STD
518526925000,0.22455,-5.56621005515197,-7.97956539426371,0.120581346622853,-0.02687807,0.01160644,0.004581489,160.62221,131.166,-40.287136,STD
518531981000,0.229606,-5.57091576263758,-7.98427107718118,0.171167473609417,-0.03726278,0.007330383,0.013133603,160.64244,131.09459,-40.214214,STD
518536951000,0.234576,-5.56384747390445,-7.98902748521911,0.226733168427188,-0.027794369,0.00030543262,0.009468411,160.65955,131.01788,-40.13803,STD
518541913000,0.239538,-5.53911546516082,-7.99397388696784,0.291036442810451,-0.028405234,0.011911872,0.015271631,160.68214,130.9484,-40.067673,STD
518546934000,0.244559,-5.52797772664813,-7.9980737002205,0.343614048777682,-0.03481932,0.010995574,0.016493361,160.63454,130.88475,-40.01416,STD
518551934000,0.249559,-5.53256830601093,-8.00113404918033,0.381868636065574,-0.03145956,0.004886922,0.0061086523,160.5904,130.82007,-39.95962,STD
518556870000,0.254495,-5.53710012595788,-8.00415522567347,0.419633564636181,-0.030848695,0.010995574,0.015271631,160.55606,130.76692,-39.914555,STD
518561947000,0.259572,-5.54176140024287,-8.00726270400729,0.458477272568306,-0.036651913,0.005497787,0.010079277,160.51526,130.70822,-39.864323,STD
518566884000,0.264509,-5.54629413830569,-8.01028449257022,0.49624985205637,-0.03390302,0.0067195175,0.015882496,160.48155,130.65573,-39.820095,STD
518571936000,0.269561,-5.55093245969386,-8.01337666915924,0.534902287052056,-0.03481932,0.009162978,0.013744468,160.44572,130.60054,-39.772903,STD
518576892000,0.274517,-5.55352055917378,-8.01167734397724,0.560921922520814,-0.0421497,0.018020526,0.0143553335,160.41339,130.54839,-39.728317,STD
518581948000,0.279573,-5.54841767035515,-7.99126632153019,0.540510793508273,-0.037873644,0.0106901415,0.015882496,160.37613,130.4958,-39.684525,STD
518586875000,0.2845,-5.54427918288663,-7.97540458477856,0.515655547232335,-0.035430185,0.009468411,0.01038471,160.3179,130.4494,-39.65035,STD
518591935000,0.28956,-5.54196397482203,-7.96845908145812,0.47861295794372,-0.03023783,0.0033597588,0.01282817,160.25673,130.40572,-39.619644,STD
518596959000,0.294584,-5.53966523859347,-7.96156299278582,0.441833912768621,-0.046120327,0.005497787,0.017715093,160.20851,130.3644,-39.58933,STD
518601991000,0.299616,-5.53736284195691,-7.9546559230806,0.404996302234963,-0.04642576,0.0070249503,0.0076358155,160.15767,130.31876,-39.555916,STD
518606932000,0.304557,-5.53662861830673,-7.95060139523136,0.367322493513841,-0.036957346,0.006414085,0.01160644,160.10835,130.27898,-39.528,STD
518611966000,0.309591,-5.54637010507173,-7.96521337108507,0.318616046348757,-0.038789943,0.005497787,0.016187929,160.05945,130.23741,-39.49756,STD
518616958000,0.314583,-5.5559753279891,-7.97462530676136,0.269163336678665,-0.034208454,-0.002443461,0.010079277,160.03795,130.19437,-39.463486,STD
518621940000,0.319565,-5.56525854997568,-7.95605862044946,0.213463384372021,-0.03268129,0.005497787,0.011911872,160.02235,130.15532,-39.43257,STD
518627735000,0.32536,-5.57261817179418,-7.94242237330649,0.146557284923132,-0.0421497,0.007941248,0.013744468,160.01482,130.11368,-39.397423,STD
518633148000,0.330773,-5.56797931556152,-7.956338893566,0.0769743900884116,-0.038179077,0.008552114,0.019547688,160.00931,130.07327,-39.364044,STD
518636876000,0.334501,-5.56478447794184,-7.96592337306488,0.0290517904313199,-0.037873644,0.005497787,0.017104227,160.01581,130.03662,-39.331306,STD
518641931000,0.339556,-5.54786604690967,-7.96383840416997,-0.0377513617121632,-0.030848695,0.0061086523,0.013744468,160.02315,130.00095,-39.30005,STD
518646947000,0.344572,-5.52883386434231,-7.95908040821117,-0.10436404739996,-0.04184427,0.010079277,0.016798794,160.02988,129.96739,-39.2702,STD
518651945000,0.34957,-5.53413808018605,-7.93752464297674,-0.164845795869767,-0.03726278,0.0021380284,0.014660766,160.05368,129.92593,-39.23127,STD
518656873000,0.354498,-5.54389404305943,-7.91313478672868,-0.223381613858398,-0.04337143,0.016798794,0.01863139,160.08598,129.88824,-39.194263,STD
518661962000,0.359587,-5.53639142502341,-7.91473220988518,-0.25987205159316,-0.040927973,0.006414085,0.008552114,160.1237,129.84055,-39.147022,STD
518666884000,0.364509,-5.52710018893214,-7.91937785218548,-0.292391571949933,-0.024129177,0.003970624,0.019547688,160.1689,129.79974,-39.106556,STD
518671937000,0.369562,-5.51756166476125,-7.92414713917114,-0.325776605749766,-0.03268129,0.01282817,0.013133603,160.2189,129.75574,-39.06033,STD
518676890000,0.374515,-5.50821191011679,-7.9288220409008,-0.35850094226482,-0.03848451,0.01863139,0.008246681,160.26591,129.7148,-39.01857,STD
518681910000,0.379535,-5.51076198471727,-7.94598819561895,-0.384409020061131,-0.032070424,0.005192355,0.015577064,160.3071,129.67413,-38.97885,STD
518686908000,0.384533,-5.51563858653082,-7.9654949084055,-0.408792548533877,-0.03481932,0.004276057,0.014966198,160.35239,129.63098,-38.935406,STD
518691925000,0.38955,-5.523181380761,-7.96096218300115,-0.370157538837094,-0.026267206,0.008246681,0.01160644,160.41411,129.58191,-38.885056,STD
518697827000,0.395452,-5.53249149168177,-7.95165202347224,-0.314296260849942,-0.028099801,0.014049901,0.0106901415,160.47406,129.53456,-38.836037,STD
518701945000,0.39957,-5.53322351996816,-7.94440847194309,-0.277346275888966,-0.029321533,0.007941248,0.01282817,160.5315,129.48561,-38.784344,STD
518706934000,0.404559,-5.52846999719431,-7.93490127748483,-0.234563642715153,-0.03390302,0.011911872,0.014966198,160.5925,129.4373,-38.73272,STD
518711943000,0.409568,-5.52363976509964,-7.9317736462698,-0.17802486221768,-0.027488936,0.014049901,0.016798794,160.63252,129.39424,-38.68946,STD
518716953000,0.414578,-5.51873641640266,-7.9366770205672,-0.104473811525805,-0.029321533,0.009773844,0.013439035,160.66988,129.35141,-38.646133,STD
518721947000,0.419572,-5.51384872710271,-7.94156473538579,-0.0311576544089934,-0.03359759,0.019242255,0.016187929,160.70035,129.3082,-38.606346,STD
518726926000,0.424551,-5.50897571848748,-7.94643776944302,0.0419382899811957,-0.03848451,0.013439035,0.01985312,160.72256,129.26501,-38.56731,STD
518731953000,0.429578,-5.50792513747097,-7.95757763349311,0.118232889454366,-0.03359759,0.013439035,0.015577064,160.749,129.22063,-38.526794,STD
518736937000,0.434562,-5.51028367749172,-7.97408773380442,0.196066391257202,-0.03023783,0.009162978,0.015882496,160.77118,129.17938,-38.4896,STD
518741951000,0.439576,-5.51265641418194,-7.99069721272916,0.274368393271532,-0.030848695,0.0125227375,0.018020526,160.76349,129.1368,-38.455875,STD
518746943000,0.444568,-5.51501873998122,-8.00723381400405,0.3523268284641,-0.03359759,0.011301007,0.013744468,160.75223,129.093,-38.421223,STD
518751941000,0.449566,-5.51959938478661,-8.01354782183296,0.412801802748476,-0.030543262,0.008857546,0.017104227,160.74251,129.05249,-38.389816,STD
518756936000,0.454561,-5.52654356111487,-8.00891839511758,0.454466889722249,-0.038179077,0.013133603,0.015882496,160.73463,129.0109,-38.356262,STD
518761926000,0.459551,-5.53348078631569,-8.00429360246298,0.496090269902255,-0.04337143,0.004581489,0.007330383,160.69153,128.96918,-38.327915,STD
518767240000,0.464865,-5.54086844457563,-7.99936852267009,0.540416250318397,-0.038179077,0.008552114,0.007330383,160.65561,128.93004,-38.30133,STD
518771909000,0.469534,-5.54577195832928,-7.99583255839743,0.5650316,-0.03756821,0.011301007,0.013439035,160.61102,128.88664,-38.272125,STD
518776961000,0.474586,-5.54812727933015,-7.99347728658358,0.5650316,-0.03756821,0.01038471,0.011911872,160.5677,128.84203,-38.24136,STD
518781929000,0.479554,-5.55044343822413,-7.99116117605881,0.5650316,-0.043676864,0.014049901,0.009773844,160.50172,128.80481,-38.21936,STD
518786969000,0.484594,-5.5527931646383,-7.98881149871483,0.5650316,-0.038789943,0.0125227375,0.012217305,160.4349,128.76859,-38.198624,STD
518791923000,0.489548,-5.5533567561409,-7.98824791898192,0.562649162036166,-0.03970624,0.015271631,0.011911872,160.37193,128.7321,-38.17639,STD
518796967000,0.494592,-5.54830748385074,-7.99329708582628,0.552550828347444,-0.03756821,0.009162978,0.008246681,160.3063,128.69559,-38.154427,STD
518801913000,0.499538,-5.54650609897645,-7.99509843308159,0.522851976988969,-0.040317107,0.01038471,0.01985312,160.24452,128.66548,-38.137966,STD
518806927000,0.504552,-5.55127794415184,-7.99032668755838,0.451275734349597,-0.038179077,0.0067195175,0.014966198,160.17905,128.62993,-38.11631,STD
518811946000,0.509571,-5.55272477046903,-7.98477767498497,0.38855172039086,-0.03145956,0.015577064,0.016187929,160.12515,128.60074,-38.098427,STD
518816998000,0.514623,-5.54690609984967,-7.9775043746843,0.344911888208058,-0.03481932,0.022296581,0.0143553335,160.0697,128.57004,-38.07864,STD
518821989000,0.519614,-5.54115768633794,-7.97031889530968,0.301798981948286,-0.042455133,0.016187929,0.017715093,160.0324,128.54236,-38.060505,STD
518826918000,0.524543,-5.53548068168972,-7.96322267654841,0.259221639741431,-0.0421497,0.014966198,0.01038471,159.99915,128.51123,-38.038544,STD
518833448000,0.531073,-5.52795971590499,-7.95382151840048,0.202814651587492,-0.040011674,0.014660766,0.01985312,159.96523,128.48633,-38.02259,STD
518837162000,0.534787,-5.52368209463019,-7.94847451972339,0.170732637191822,-0.03145956,0.014049901,0.016187929,159.92232,128.45195,-37.997845,STD
518841935000,0.53956,-5.51818476389657,-7.9416028921828,0.129502843247144,-0.033292156,0.01282817,0.01740966,159.8803,128.42242,-37.977444,STD
518846921000,0.544546,-5.52266140841634,-7.94880397967066,0.069975520250864,-0.032986723,0.0021380284,0.015577064,159.83502,128.39102,-37.95568,STD
518851906000,0.549531,-5.53236660245985,-7.96336187207766,0.0020384049235617,-0.03634648,0.0143553335,0.015882496,159.79832,128.36122,-37.93442,STD
518856853000,0.554478,-5.55106731158931,-7.94596042923864,-0.0693082457815305,-0.041233405,0.0106901415,0.011301007,159.78117,128.32622,-37.90507,STD
518861892000,0.559517,-5.57435086615845,-7.91336355009167,-0.14381567194519,-0.029626964,0.011301007,0.0061086523,159.77011,128.2912,-37.875614,STD
518866830000,0.564455,-5.58036990225275,-7.89795744151935,-0.17819883999798,-0.02076942,0.011301007,0.00580322,159.76637,128.2539,-37.8418,STD
518871863000,0.569488,-5.57550082175977,-7.89308825933933,-0.187937209442368,-0.02565634,0.018020526,0.004276057,159.76527,128.21576,-37.806747,STD
518876841000,0.574466,-5.56778263873142,-7.88832938846383,-0.218170855456888,-0.03359759,0.020158553,0.016187929,159.76932,128.18784,-37.780773,STD
518881864000,0.579489,-5.55824770035679,-7.88356186949455,-0.26107856102775,-0.032070424,0.011911872,0.013133603,159.77124,128.15567,-37.750824,STD
518886856000,0.584481,-5.5690466081592,-7.89041116489552,-0.286426570951244,-0.029626964,0.010995574,0.013439035,159.77983,128.129,-37.725216,STD
518891859000,0.589484,-5.59288378746269,-7.90471347247761,-0.300728888489552,-0.032375857,0.005497787,0.013439035,159.78339,128.10197,-37.699535,STD
518896878000,0.594503,-5.59690266205477,-7.91320705453849,-0.29954617643671,-0.038179077,0.014966198,0.018936822,159.80113,128.07506,-37.672554,STD
518901870000,0.599495,-5.58774761892953,-7.91778455220222,-0.288102420327939,-0.035430185,0.017104227,0.01282817,159.81337,128.04507,-37.643173,STD
518906868000,0.604493,-5.57858157214669,-7.92236755166603,-0.276644909704615,-0.03481932,0.014660766,0.007941248,159.83534,128.0235,-37.621063,STD
518911905000,0.60953,-5.56934400158943,-7.92698631283033,-0.265097994736691,-0.030543262,0.013133603,0.013133603,159.85779,128.003,-37.60032,STD
518916887000,0.614512,-5.55543469141886,-7.93828586321155,-0.252056336295667,-0.03634648,0.0143553335,0.016187929,159.87773,127.980515,-37.577225,STD
518921872000,0.619497,-5.53515416975361,-7.9585662789932,-0.236845939752549,-0.040011674,0.016187929,0.008552114,159.89647,127.95645,-37.552933,STD
518926852000,0.624477,-5.53090066737175,-7.96536139285361,-0.201885370877731,-0.035124753,0.019547688,0.011911872,159.91606,127.93294,-37.529697,STD
518931890000,0.629515,-5.54043865657804,-7.96059244804784,-0.149426395384996,-0.02565634,0.017715093,0.018936822,159.93369,127.908585,-37.505863,STD
518936870000,0.634495,-5.54077272829293,-7.96252459362604,-0.0720200563993897,-0.03359759,0.014049901,0.0061086523,159.95343,127.8764,-37.473022,STD
518941854000,0.639479,-5.53268139566028,-7.97061596850314,0.0291216733242922,-0.03176499,0.0143553335,0.016187929,159.97443,127.8523,-37.449085,STD
518946835000,0.64446,-5.52660783952647,-7.97985133508714,0.126778527941467,-0.03940081,0.014966198,0.013133603,159.99287,127.83139,-37.428238,STD
518951931000,0.649556,-5.5319572151266,-7.99589957360517,0.207020887980927,-0.021685716,0.022296581,0.021685716,160.01395,127.81559,-37.413464,STD
518956871000,0.654496,-5.53069082814189,-8.00777777852019,0.272683493476467,-0.03268129,0.016798794,0.015577064,160.01036,127.796104,-37.39666,STD
518961915000,0.65954,-5.51645145308048,-8.01252440208313,0.315402248107497,-0.03481932,0.010079277,0.017715093,160.00926,127.78032,-37.384422,STD
518966877000,0.664502,-5.50776008153422,-8.01359480259531,0.346957251139182,-0.03481932,0.014660766,0.016187929,159.99313,127.758255,-37.369297,STD
518971909000,0.669534,-5.51144936734038,-8.00621611541112,0.354335984552136,-0.03145956,0.013744468,0.020463986,159.97356,127.738846,-37.356987,STD
518976900000,0.674525,-5.51510859338539,-7.99889754869086,0.361654597124483,-0.039095376,0.0030543262,0.017104227,159.94753,127.71578,-37.341373,STD
518981893000,0.679518,-5.52051269095064,-8.00090560582022,0.358222535758569,-0.029932396,0.005497787,0.008552114,159.92615,127.6919,-37.32515,STD
518986919000,0.684544,-5.52673812705324,-8.00713106359129,0.349921949954732,-0.040927973,0.010079277,0.015882496,159.90253,127.67285,-37.312813,STD
518991909000,0.689534,-5.53291897189049,-8.0133119299418,0.341680819202414,-0.032986723,0.011301007,0.018325957,159.88026,127.65232,-37.30152,STD
518996969000,0.694594,-5.53918652196594,-8.01957950183229,0.333324081405475,-0.040317107,0.014660766,0.016798794,159.86089,127.63383,-37.29088,STD
519002048000,0.699673,-5.54478370056902,-8.02555129943098,0.324674961620045,-0.035430185,0.013439035,0.01160644,159.84062,127.61438,-37.27983,STD
519006935000,0.70456,-5.54254572423851,-8.02778927576149,0.313485304302587,-0.042760566,0.018936822,0.0125227375,159.82445,127.597046,-37.269703,STD
519012319000,0.709944,-5.54008014933295,-8.03025485066705,0.301157676924401,-0.03726278,0.0106901415,0.011301007,159.80713,127.57895,-37.25832,STD
519016914000,0.714539,-5.53797589288959,-8.03235910711041,0.290636605638598,-0.03604105,0.011301007,0.01282817,159.7952,127.56238,-37.247524,STD
519022941000,0.720566,-5.53521856805274,-8.03423925206028,0.275271299613845,-0.031154128,0.01863139,0.0125227375,159.7828,127.54472,-37.235855,STD
519026929000,0.724554,-5.53342005235696,-8.02704498269367,0.250091535243701,-0.028710667,0.017715093,0.016493361,159.76805,127.528854,-37.22598,STD
519033477000,0.731102,-5.53046702307511,-8.01523252637156,0.208748231057217,-0.038179077,0.015271631,0.008857546,159.77213,127.51334,-37.21593,STD
519036910000,0.734535,-5.52891880231693,-8.00903946550506,0.187072671608194,-0.030848695,0.009162978,0.016493361,159.77504,127.50253,-37.211185,STD
519041914000,0.739539,-5.52666208904168,-8.00001235319049,0.15547800237344,-0.03176499,0.018020526,0.013133603,159.78172,127.486916,-37.2006,STD
519046938000,0.744563,-5.52302302118715,-7.99383912118715,0.126885815451431,-0.042455133,0.013439035,0.018020526,159.7875,127.47795,-37.197647,STD
519051969000,0.749594,-5.51856141540883,-7.98937751540883,0.100116162146495,-0.04153884,0.010995574,0.01740966,159.79677,127.46593,-37.19152,STD
519056905000,0.75453,-5.5228098957602,-7.98048740423979,0.0818117272066654,-0.02321288,0.011301007,0.016187929,159.81046,127.451675,-37.18268,STD
519061946000,0.759571,-5.53709011133899,-7.96620718866101,0.0722915785170578,-0.030543262,0.01038471,0.027183503,159.82297,127.44144,-37.17702,STD
519066930000,0.764555,-5.54078602012304,-7.96041876808891,0.0482052265699544,-0.03634648,0.0070249503,0.02076942,159.83618,127.42204,-37.163223,STD
519071977000,0.769602,-5.53119401583648,-7.96521472015281,0.00504117522960905,-0.047036625,-0.0018325958,0.020463986,159.84746,127.40788,-37.15425,STD
519076914000,0.774539,-5.53077221405851,-7.96493012191243,-0.0171716869279403,-0.037873644,0.0067195175,0.020158553,159.86479,127.39662,-37.14829,STD
519081969000,0.779594,-5.54265389577852,-7.95780113769389,-0.0124190107660514,-0.03634648,0.008246681,0.017715093,159.884089456212,127.384037317104,-37.139784558963,STD
519092729000,0.790354,-5.56794507190261,-7.94262648483703,-0.0023025329219517,-0.03848451,0.014966198,0.02076942,159.92517,127.357254,-37.12168,STD
519096936000,0.794561,-5.5674813566639,-7.94228270543087,0.00622001524577445,-0.039095376,0.016187929,0.016187929,159.94983,127.34098,-37.1089,STD
519101898000,0.799523,-5.54992512513162,-7.95106077536714,0.0237761674923802,-0.044593163,0.018936822,0.013744468,159.97772,127.326004,-37.09707,STD
519106808000,0.804433,-5.53500189262696,-7.95911053521823,0.042620501169845,-0.049480084,0.018936822,0.021685716,159.9949,127.31787,-37.092403,STD
519111878000,0.809503,-5.53252619601265,-7.96406205770447,0.0698537515323781,-0.038789943,0.025961773,0.01863139,160.01492,127.30554,-37.08352,STD
519116815000,0.81444,-5.53011544370793,-7.96888368818071,0.0963725990747502,-0.04337143,0.014966198,0.020158553,160.02274,127.290276,-37.071564,STD
519121858000,0.819483,-5.52765293127677,-7.97380884161228,0.123460820293341,-0.04062254,0.014966198,0.020158553,160.03671,127.27329,-37.05793,STD
519126853000,0.824478,-5.52701184246216,-7.97688276629667,0.146638208026236,-0.053145275,0.015577064,0.019242255,160.05196,127.26024,-37.047237,STD
519131862000,0.829487,-5.53185242684157,-7.97446242356206,0.158739676556509,-0.03573562,0.019547688,0.01863139,160.06815,127.24633,-37.036495,STD
519136822000,0.834447,-5.53664565872856,-7.97206575756811,0.170722763781534,-0.043982297,0.015882496,0.017715093,160.07458,127.23239,-37.02554,STD
519141857000,0.839482,-5.54151136892028,-7.96963285166498,0.182887046881937,-0.034513887,0.017715093,0.01282817,160.0842,127.21619,-37.013004,STD
519146848000,0.844473,-5.53853016835081,-7.96919119323165,0.183807127985701,-0.042455133,0.013439035,0.014660766,160.0885,127.20161,-37.001133,STD
519151916000,0.849541,-5.51539612526215,-7.97381809847474,0.15604626178551,-0.043676864,0.011301007,0.01863139,160.09412,127.18592,-36.988445,STD
519156899000,0.854524,-5.4978782319592,-7.9766887680408,0.133284083738207,-0.040927973,0.018020526,0.015577064,160.09537,127.17136,-36.977016,STD
519161973000,0.859598,-5.50200859303017,-7.97255840696983,0.129153804610285,-0.036651913,0.01282817,0.014966198,160.0918,127.15866,-36.96768,STD
519166863000,0.864488,-5.50598917356566,-7.96857782643434,0.125173303046324,-0.049785517,0.015577064,0.02107485,160.10632,127.14559,-36.955902,STD
519171915000,0.86954,-5.51921539470336,-7.967903,0.12868230498112,-0.04520403,0.005192355,0.015577064,160.11375,127.12851,-36.94104,STD
519177071000,0.874696,-5.53453980651735,-7.967903,0.133790462699012,-0.037873644,0.016798794,0.015882496,160.13002,127.115105,-36.92909,STD
519181924000,0.879549,-5.54896365650442,-7.967903,0.138598431939689,-0.051618114,0.0125227375,0.014049901,160.13383,127.09944,-36.91586,STD
519187232000,0.884857,-5.56376304654386,-7.96808378050337,0.144555984206639,-0.047036625,0.009162978,0.021991149,160.1473,127.089096,-36.907825,STD
519191907000,0.889532,-5.55559752766734,-7.97216662520518,0.164969794187489,-0.050396383,0.009162978,0.022296581,160.15991,127.076614,-36.89708,STD
519196916000,0.894541,-5.54684863268284,-7.97654116405253,0.186842045351997,-0.046731193,0.014660766,0.022296581,160.16367,127.06627,-36.889996,STD
519201927000,0.899552,-5.53840748183876,-7.97091644757096,0.18497260841198,-0.044898596,0.011301007,0.023823744,160.16402,127.05852,-36.885094,STD
519206868000,0.904493,-5.53016806536653,-7.96267698808114,0.176733187637994,-0.048563786,0.011911872,0.016493361,160.16783,127.04614,-36.875587,STD
519211921000,0.909546,-5.52339309477446,-7.95953845261277,0.17238252,-0.044898596,0.00061086525,0.02443461,160.1637,127.03754,-36.870483,STD
519216950000,0.914575,-5.51840462056036,-7.96203268971982,0.17238252,-0.049785517,0.0009162979,0.018325957,160.16432,127.02249,-36.858204,STD
519221934000,0.919559,-5.51346078371744,-7.96450460814128,0.17238252,-0.042455133,0.007330383,0.02321288,160.16484,127.012566,-36.85138,STD
519226917000,0.924542,-5.5085179388161,-7.96697603059195,0.17238252,-0.04917465,0.013439035,0.017715093,160.16583,126.99832,-36.839634,STD
519232925000,0.93055,-5.50291277420271,-7.96977861289865,0.168631370582474,-0.04917465,0.0143553335,0.01863139,160.16847,126.98779,-36.83109,STD
519236943000,0.934568,-5.49927121216996,-7.97159939391502,0.164989882696603,-0.056199603,0.0021380284,0.018020526,160.1683,126.97563,-36.820686,STD
519241918000,0.939543,-5.49476230945396,-7.97385384527302,0.160481071787641,-0.04795292,0.0070249503,0.016798794,160.17627,126.96131,-36.80811,STD
519246970000,0.944595,-5.49018362070597,-7.97614318964701,0.155902476267626,-0.062308256,0.0030543262,0.022907447,160.17679,126.94973,-36.797928,STD
519251988000,0.949613,-5.48550995871541,-7.97547987517673,0.149228741803676,-0.050396383,0.020463986,0.03023783,160.18973,126.93918,-36.78931,STD
519256941000,0.954566,-5.48071972443951,-7.97068944082004,0.139648068169057,-0.05375614,0.016493361,0.02076942,160.19322,126.92627,-36.778065,STD
519261989000,0.959614,-5.4757454268213,-7.9700910188719,0.136263273178703,-0.05497787,0.013744468,0.022296581,160.20685,126.91608,-36.76936,STD
519266947000,0.964572,-5.47073944111755,-7.97509710911966,0.141269258882446,-0.045814894,0.008857546,0.020158553,160.21776,126.90201,-36.757027,STD
519271938000,0.969563,-5.47075421735655,-7.97268474025121,0.141254482643448,-0.046120327,0.007941248,0.023518313,160.23077,126.88986,-36.746216,STD
519276919000,0.974544,-5.47529337815206,-7.96360637126273,0.13671532184794,-0.053145275,-0.00030543262,0.022907447,160.23912,126.87599,-36.73391,STD
519281943000,0.979568,-5.48506106684329,-7.9583263,0.132038821632592,-0.035430185,-0.00061086525,0.01985312,160.252,126.86182,-36.721603,STD
519286988000,0.984613,-5.50196707494126,-7.9583263,0.12720852856086,-0.042455133,0.015271631,0.02321288,160.26762,126.85008,-36.71085,STD
519291942000,0.989567,-5.51856813819545,-7.9583263,0.12246536267833,-0.047647487,0.010079277,0.016187929,160.2744,126.83577,-36.698273,STD
519297012000,0.994637,-5.53555792234941,-7.9583263,0.117611133565609,-0.04642576,0.00061086525,0.02076942,160.28539,126.82572,-36.689728,STD
519301885000,0.99951,-5.54301986704175,-7.96027737183891,0.116872774249334,-0.047647487,0.0067195175,0.02076942,160.30537,126.81601,-36.68096,STD
519306938000,1.004563,-5.5382431834962,-7.96505390575461,0.121649363029316,-0.04795292,0.01038471,0.020463986,160.3209,126.80736,-36.673496,STD
519311928000,1.009553,-5.53363286816194,-7.96966420539786,0.112170300479293,-0.049480084,0.0018325958,0.02565634,160.3309,126.80487,-36.672203,STD
519316942000,1.014567,-5.52916408524895,-7.9741331749651,0.0808881434667287,-0.04062254,0.0027488936,0.016798794,160.34494,126.79784,-36.66636,STD
519321870000,1.019495,-5.52467165375083,-7.97690710892957,0.0591794785159876,-0.04520403,0.0067195175,0.023518313,160.36148,126.79802,-36.66811,STD
519326925000,1.02455,-5.51973410277934,-7.97443825610689,0.0665858874659595,-0.043066,0.014660766,0.020463986,160.37917,126.7923,-36.664185,STD
519331933000,1.029558,-5.51484245979907,-7.97199235799888,0.0739234336620939,-0.035430185,0.013439035,0.022296581,160.39601,126.784744,-36.657757,STD
519336943000,1.034568,-5.50994886328727,-7.9695454830945,0.0812639101881789,-0.04917465,0.009773844,0.023518313,160.41441,126.776474,-36.650097,STD
519341918000,1.039543,-5.50938548795064,-7.96926378660203,0.0916342969995593,-0.046120327,0.01038471,0.021685716,160.4348,126.767975,-36.642723,STD
519347746000,1.045371,-5.51922471361833,-7.97418355354782,0.111312969228735,-0.04153884,0.00580322,0.021380283,160.45174,126.76041,-36.636147,STD
519352011000,1.049636,-5.52548662690204,-7.97549535450446,0.124829263443346,-0.053450707,0.009162978,0.02565634,160.46777,126.751785,-36.628593,STD
519356966000,1.054591,-5.52093390273434,-7.94817891442003,0.129381992364962,-0.04520403,0.008246681,0.019547688,160.4803,126.73956,-36.618076,STD
519362368000,1.059993,-5.51649478246818,-7.91951064037194,0.133058569171797,-0.04184427,0.0015271631,0.022907447,160.48824,126.73276,-36.61288,STD
519366940000,1.064565,-5.5204475792182,-7.91160512942132,0.11724736731281,-0.039095376,0.00061086525,0.021685716,160.49759,126.72272,-36.604492,STD
519371880000,1.069505,-5.52471853633655,-7.90306330437844,0.100163522784508,-0.041233405,0.0036651916,0.018020526,160.50316,126.71538,-36.59886,STD
519376937000,1.074562,-5.52917989325791,-7.90590933988686,0.0839993298729482,-0.05497787,0.002443461,0.020158553,160.50694,126.70946,-36.5945,STD
519381886000,1.079511,-5.53357529186683,-7.91250243780024,0.0686154246445331,-0.04886922,0.0106901415,0.016798794,160.51498,126.700516,-36.58725,STD
519386934000,1.084559,-5.5380586162107,-7.91922742431605,0.0529237791417973,-0.0571159,0.009162978,0.020463986,160.50943,126.68933,-36.576996,STD
519391909000,1.089534,-5.54247710642678,-7.92585515964017,0.0374590532352778,-0.050701816,0.01282817,0.021991149,160.5086,126.676346,-36.565166,STD
519396937000,1.094562,-5.54282704840417,-7.93173994040236,0.0298023965814552,-0.04337143,0.011301007,0.024740042,160.51154,126.66874,-36.55818,STD
519401949000,1.099574,-5.53798673966621,-7.93658022386931,0.032222552719407,-0.038179077,0.014966198,0.02565634,160.51743,126.660965,-36.550995,STD
519406932000,1.104557,-5.53317443750315,-7.94139250090758,0.0346287055596733,-0.04642576,0.018020526,0.019242255,160.52742,126.651306,-36.54145,STD
519411989000,1.109614,-5.5282906702869,-7.94627624262593,0.0370705909526547,-0.048258353,0.004581489,0.026267206,160.53288,126.64549,-36.536217,STD
519417225000,1.11485,-5.52056518626345,-7.95137563429011,0.0435594991450538,-0.046731193,0.008246681,0.022296581,160.53825,126.63074,-36.5216,STD
519421941000,1.119566,-5.51130558253204,-7.95600548450026,0.0528192058501281,-0.05222898,0.009162978,0.02076942,160.53796,126.619064,-36.510155,STD
519426914000,1.124539,-5.51645848872991,-7.95098042066837,0.0525635667427479,-0.05009095,0.018936822,0.027488936,160.54356,126.60636,-36.497707,STD
519433489000,1.131114,-5.54114180164641,-7.93246790376323,0.0402218374723638,-0.040317107,0.014049901,0.02565634,160.54399,126.591,-36.482876,STD
519436913000,1.134538,-5.54271935129584,-7.93184757817115,0.0338040205792665,-0.03756821,0.006414085,0.021991149,160.54776,126.57608,-36.468594,STD
519441927000,1.139552,-5.53802310894866,-7.93654367340831,0.0244117256568215,-0.040927973,0.017715093,0.021685716,160.55652,126.56174,-36.454758,STD
519446930000,1.144555,-5.54175540326679,-7.94341360598911,0.0149127049110708,-0.055283304,0.023518313,0.024740042,160.55824,126.55179,-36.445282,STD
519451944000,1.149569,-5.55628002802985,-7.95309662175842,0.00522968206412583,-0.04886922,0.01863139,0.025045475,160.56004,126.54076,-36.435074,STD
519456926000,1.154551,-5.56206690233855,-7.95729745116927,0.00205769916549346,-0.04642576,0.016493361,0.02565634,160.56728,126.52985,-36.42437,STD
519462010000,1.159635,-5.55746649120801,-7.95499724560401,0.00665811365861955,-0.04184427,0.008552114,0.023518313,160.57053,126.51819,-36.41327,STD
519466909000,1.164534,-5.55303348292153,-7.95278074146076,0.0110911251853357,-0.03359759,0.017715093,0.027794369,160.57309,126.50543,-36.400993,STD
519471939000,1.169564,-5.54848193532385,-7.95050496766193,0.015642676109888,-0.03940081,0.01160644,0.027794369,160.56737,126.49135,-36.387543,STD
519476883000,1.174508,-5.5429398718792,-7.9487495,0.0252470347357353,-0.038179077,0.019242255,0.024129177,160.56982,126.47739,-36.37417,STD
519481922000,1.179547,-5.53332064763044,-7.9487495,0.0541048797426621,-0.040011674,0.015271631,0.033292156,160.56627,126.467514,-36.364975,STD
519487032000,1.184657,-5.52356588757662,-7.9487495,0.0833693345919171,-0.032070424,0.018936822,0.026572637,160.56718,126.45141,-36.34962,STD
519491932000,1.189557,-5.51421200807296,-7.9487495,0.111431140611751,-0.035124753,0.012217305,0.025350908,160.5633,126.43993,-36.338856,STD
519496952000,1.194577,-5.50572220276753,-7.9468659547048,0.13313352145203,-0.03481932,0.016798794,0.01863139,160.56453,126.425,-36.324623,STD
519501946000,1.199571,-5.50131006826568,-7.93804191605166,0.128721474483395,-0.029321533,0.021991149,0.026267206,160.56392,126.41403,-36.31448,STD
519507117000,1.204742,-5.49809215268432,-7.92926094210809,0.123828387860594,-0.045814894,0.01985312,0.017715093,160.55655,126.395996,-36.297943,STD
519512008000,1.209633,-5.51066555876879,-7.92506971921976,0.115446112761274,-0.047647487,0.022296581,0.02565634,160.55331,126.384705,-36.288345,STD
519516891000,1.214516,-5.52321839906943,-7.92088535173586,0.107077548191661,-0.03970624,0.023518313,0.021991149,160.54921,126.36833,-36.273483,STD
519521940000,1.219565,-5.51798773516906,-7.92393395505163,0.101430000165216,-0.04795292,0.029321533,0.020158553,160.54793,126.355316,-36.261513,STD
519526924000,1.224549,-5.5083237803604,-7.92876608382264,0.0965979642324357,-0.04734206,0.009468411,0.021991149,160.53815,126.34223,-36.25009,STD
519531940000,1.229565,-5.49888952053859,-7.93737027651478,0.0918809038243731,-0.04337143,0.0125227375,0.024129177,160.54184,126.3338,-36.242317,STD
519536878000,1.234503,-5.48966106390867,-7.94659849224315,0.0872667699428237,-0.05009095,0.021991149,0.021991149,160.54079,126.32497,-36.234127,STD
519541922000,1.239547,-5.50152077679444,-7.95575481524803,0.103704654186396,-0.042455133,0.015882496,0.02107485,160.53772,126.314926,-36.22516,STD
519547006000,1.244631,-5.5198179227546,-7.96490329270011,0.126575986332206,-0.03481932,0.020463986,0.025350908,160.54184,126.306015,-36.216915,STD
519551949000,1.249574,-5.5258174,-7.98035223872824,0.1325191455652,-0.04337143,0.007941248,0.026267206,160.54181,126.29462,-36.206165,STD
519557028000,1.254653,-5.5258174,-7.99965311891771,0.130106536171321,-0.040317107,0.015882496,0.022602014,160.55061,126.28288,-36.19509,STD
519561922000,1.259547,-5.5258174,-8.01825097433163,0.127781804851446,-0.04550946,0.009773844,0.020463986,160.54771,126.27629,-36.18962,STD
519566946000,1.264571,-5.5258174,-8.0373428471554,0.12539532137146,-0.044593163,0.016187929,0.024129177,160.5521,126.27014,-36.18448,STD
519571939000,1.269564,-5.52728566698598,-8.03277110347126,0.128903386015208,-0.03359759,0.009162978,0.028710667,160.54381,126.259865,-36.175457,STD
519576924000,1.274549,-5.5296429329844,-8.0139125570314,0.135975336622556,-0.043066,0.007330383,0.022907447,160.5396,126.248184,-36.16451,STD
519581923000,1.279548,-5.53200681918823,-7.99500104777306,0.143067148274738,-0.039095376,0.01740966,0.018325957,160.5414,126.23386,-36.151188,STD
519586944000,1.284569,-5.53438110857199,-7.97600631122852,0.150190170140233,-0.0421497,0.02565634,0.017104227,160.54193,126.21942,-36.137486,STD
519591922000,1.289547,-5.53409077362764,-7.96529650642994,0.149319146510557,-0.043676864,0.01985312,0.018020526,160.54616,126.207794,-36.126873,STD
519597036000,1.294661,-5.53174073848369,-7.96059636252399,0.142268888934741,-0.037873644,0.013744468,0.013133603,160.55301,126.19422,-36.114258,STD
519601997000,1.299622,-5.52946101139156,-7.95603683692418,0.135429560066219,-0.043066,0.017715093,0.013744468,160.55261,126.185715,-36.10644,STD
519606938000,1.304563,-5.52719047489443,-7.9514956928023,0.128617803577735,-0.04734206,0.0125227375,0.011301007,160.54677,126.17496,-36.09668,STD
519611940000,1.309565,-5.52781071050021,-7.95472957720132,0.120511783660604,-0.045814894,0.016187929,0.018020526,160.5457,126.167145,-36.089684,STD
519616941000,1.314566,-5.53276033602728,-7.96957881557462,0.110612320699669,-0.04886922,0.010995574,0.018020526,160.53957,126.15703,-36.080406,STD
519621935000,1.31956,-5.53680197410045,-7.97818396499779,0.109568717031949,-0.03848451,0.006414085,0.02321288,160.53705,126.15025,-36.07452,STD
519626920000,1.324545,-5.53981043997731,-7.97968815081606,0.118593932464554,-0.039095376,-0.0012217305,0.023518313,160.53156,126.142426,-36.067436,STD
519633663000,1.331288,-5.54387986533493,-7.98172279975739,0.130801962085828,-0.036957346,0.004276057,0.014660766,160.54076,126.13837,-36.06372,STD
519636942000,1.334567,-5.54585875392274,-7.9827122130569,0.136738508004285,-0.031154128,0.011301007,0.013133603,160.54774,126.13629,-36.06213,STD
519641917000,1.339542,-5.54886118476275,-7.98421338145126,0.145745618691789,-0.038789943,0.0027488936,0.009468411,160.55083,126.1312,-36.057446,STD
519647001000,1.344626,-5.55192939750457,-7.98574743976621,0.154950071100888,-0.03268129,0.0125227375,0.015271631,160.56282,126.12797,-36.054646,STD
519651991000,1.349616,-5.55423891135789,-7.986438532398,0.162187554979922,-0.04062254,0.0076358155,0.014966198,160.5735,126.12657,-36.05302,STD
519656939000,1.354564,-5.55188964776164,-7.98174007879629,0.157489121002429,-0.04337143,0.008857546,0.012217305,160.58943,126.1257,-36.051926,STD
519661942000,1.359567,-5.54951427068564,-7.9769893990531,0.152738461101581,-0.037873644,0.004276057,0.014660766,160.58978,126.12315,-36.049816,STD
519666946000,1.364571,-5.5471384188191,-7.97223776974369,0.147986851638491,-0.03848451,0.013133603,0.017104227,160.59511,126.119934,-36.046707,STD
519672710000,1.370335,-5.54246059702667,-7.97041341171112,0.141978497144002,-0.03604105,0.014049901,0.018020526,160.59589,126.11676,-36.043953,STD
519676951000,1.374576,-5.53358101486664,-7.97929302477773,0.136058772613322,-0.03970624,0.028099801,0.017104227,160.60426,126.113785,-36.041027,STD
519681990000,1.379615,-5.52303062238741,-7.98984345397901,0.129025173954963,-0.036957346,0.021380283,0.013744468,160.60968,126.11193,-36.038998,STD
519687003000,1.384628,-5.51915285135298,-7.99226506215102,0.118673921913066,-0.04642576,0.0143553335,0.014660766,160.61955,126.11113,-36.037624,STD
519691925000,1.38955,-5.5272512135899,-7.98011734966927,0.102477015628382,-0.03573562,0.004886922,0.0143553335,160.62575,126.10849,-36.034954,STD
519697333000,1.394958,-5.53559067321373,-7.967903,0.0867812677303029,-0.036957346,0.0125227375,0.017104227,160.63638,126.10187,-36.02816,STD
519701939000,1.399564,-5.53756426106214,-7.967903,0.0927019117515995,-0.03848451,0.01038471,0.016798794,160.64001,126.094154,-36.020702,STD
519706897000,1.404522,-5.53968867455595,-7.967903,0.0990750235747841,-0.041233405,0.013439035,0.01740966,160.64838,126.09004,-36.01651,STD
519712278000,1.409903,-5.54199433591338,-7.967903,0.105991868012169,-0.040011674,0.005497787,0.018936822,160.65187,126.08601,-36.012627,STD
519717052000,1.414677,-5.54403990872892,-7.967903,0.112128462575276,-0.03940081,0.01038471,0.021380283,160.66078,126.08244,-36.008965,STD
519721956000,1.419581,-5.54091712645828,-7.96384914056833,0.108165219864118,-0.044593163,0.010995574,0.02076942,160.67166,126.082596,-36.00892,STD
519727012000,1.424637,-5.53341204237665,-7.95634408260915,0.0956567385579953,-0.03634648,0.0143553335,0.012217305,160.68478,126.08072,-36.006996,STD
519732035000,1.42966,-5.52595594321881,-7.94888800940326,0.0832298988426763,-0.041233405,0.01282817,0.020463986,160.69359,126.08443,-36.010582,STD
519736915000,1.43454,-5.51871211206407,-7.94164420346164,0.0711568393541721,-0.04886922,0.013133603,0.020158553,160.70369,126.082985,-36.009056,STD
519742787000,1.440412,-5.5315759536778,-7.9315050231611,0.0517023643772005,-0.042455133,0.012217305,0.015577064,160.7194,126.08664,-36.012604,STD
519746920000,1.444545,-5.54664156260348,-7.92397221869826,0.036636822309449,-0.03359759,0.011301007,0.01740966,160.73482,126.091736,-36.017536,STD
519751975000,1.4496,-5.55880965604441,-7.9214396014597,0.0301509928311061,-0.036957346,0.027183503,0.025350908,160.76222,126.09811,-36.0234,STD
519756864000,1.454489,-5.56602907267681,-7.92384615743215,0.0325575003055613,-0.04428773,0.016187929,0.02565634,160.7792,126.102325,-36.027554,STD
519761873000,1.459498,-5.57342568914474,-7.92631178207237,0.0350230752574013,-0.03268129,0.01740966,0.019242255,160.80742,126.110794,-36.035484,STD
519766865000,1.46449,-5.58079720230263,-7.92876903865132,0.0374802823166118,-0.03176499,0.01282817,0.016493361,160.82909,126.12012,-36.04422,STD
519771858000,1.469483,-5.58639139426945,-7.93893595524482,0.041420557876754,-0.0421497,0.0106901415,0.014049901,160.85133,126.12718,-36.05068,STD
519776847000,1.474472,-5.59107981081346,-7.95300086219213,0.0461088789585909,-0.03634648,0.0125227375,0.017715093,160.87286,126.134445,-36.05767,STD
519781859000,1.479484,-5.58705037187773,-7.95542398593886,0.059493296730131,-0.04062254,0.015577064,0.02321288,160.88704,126.139885,-36.062313,STD
519786856000,1.484481,-5.57776259514799,-7.95078009757399,0.0780688637671034,-0.036651913,0.0076358155,0.018020526,160.89735,126.14274,-36.064762,STD
519791833000,1.489458,-5.57647936022857,-7.95708358374026,0.102859381068052,-0.02565634,0.01282817,0.016798794,160.9159,126.14875,-36.069866,STD
519796892000,1.494517,-5.58151292068571,-7.97218463303896,0.133061395567792,-0.040011674,0.009162978,0.01863139,160.92789,126.15419,-36.074287,STD
519801890000,1.499515,-5.5771974639358,-7.97595982630102,0.136051384522476,-0.03726278,0.01160644,0.016187929,160.94131,126.15668,-36.07631,STD
519806893000,1.504518,-5.56776169410664,-7.9736008222638,0.124256601788587,-0.032986723,0.015577064,0.014966198,160.95357,126.15996,-36.07897,STD
519812286000,1.509911,-5.55759037556004,-7.97105792624686,0.111542377666289,-0.03604105,0.016187929,0.013439035,160.96147,126.16188,-36.080517,STD
519816895000,1.51452,-5.54889769853774,-7.96888470026094,0.100676466488898,-0.03176499,0.020463986,0.021380283,160.97183,126.16571,-36.08411,STD
519821897000,1.519522,-5.54586641929493,-7.967903,0.0930818609043579,-0.03268129,0.029321533,0.022602014,160.98021,126.16556,-36.084366,STD
519826897000,1.524522,-5.54739967151228,-7.967903,0.0884821980693542,-0.039095376,0.013744468,0.019547688,160.98131,126.16623,-36.08568,STD
519833215000,1.53084,-5.54933708901412,-7.967903,0.0826700641110435,-0.03481932,0.018325957,0.016798794,161.00058,126.166374,-36.08617,STD
519836902000,1.534527,-5.55046770919919,-7.967903,0.0792782727365118,-0.040011674,0.01985312,0.013744468,161.01295,126.1656,-36.0857,STD
519841850000,1.539475,-5.55198501559348,-7.967903,0.0747264463949922,-0.028099801,0.023518313,0.02443461,161.02051,126.16295,-36.084023,STD
519846913000,1.544538,-5.55353758678877,-7.967903,0.0700688278082674,-0.034513887,0.018325957,0.01160644,161.02498,126.15312,-36.07482,STD
519851909000,1.549534,-5.5559793150514,-7.96933437483525,0.0656063035620772,-0.03390302,0.017715093,0.021685716,161.03394,126.15324,-36.075817,STD
519856949000,1.554574,-5.56022024853704,-7.97357548545822,0.0613652770793428,-0.03726278,0.017715093,0.013744468,161.04074,126.1447,-36.068012,STD
519861967000,1.559592,-5.56375347484109,-7.97710885933976,0.0582031063616978,-0.021991149,0.025045475,0.016493361,161.05162,126.14212,-36.066288,STD
519866961000,1.564586,-5.55885030276809,-7.97220548246873,0.0680096624736518,-0.033292156,0.014966198,0.01985312,161.05614,126.137955,-36.06265,STD
519871980000,1.569605,-5.55426810694623,-7.96762311571389,0.078293778596348,-0.03634648,0.018020526,0.016187929,161.07048,126.13365,-36.058937,STD
519876923000,1.574548,-5.55209618957607,-7.96545126637915,0.0913250211077262,-0.030543262,0.01740966,0.018936822,161.07999,126.13205,-36.058052,STD
519881924000,1.579549,-5.54989878743806,-7.96325393307488,0.10450916915535,-0.024129177,0.019547688,0.01740966,161.08386,126.124084,-36.050945,STD
519886938000,1.584563,-5.54769567319692,-7.96105088784639,0.117727589133511,-0.027183503,0.02443461,0.021685716,161.08865,126.11868,-36.04628,STD
519893335000,1.59096,-5.5440733181253,-7.95850583450024,0.13425483637494,-0.02687807,0.023518313,0.017715093,161.09206,126.11035,-36.038883,STD
519897003000,1.594628,-5.52727384304161,-7.96186569443329,0.137614731391679,-0.032375857,0.011911872,0.02321288,161.09361,126.10612,-36.03548,STD
519901930000,1.599555,-5.50470813591583,-7.96637878873266,0.142127872816834,-0.035124753,0.017104227,0.01740966,161.09517,126.09703,-36.027637,STD
519906962000,1.604587,-5.50330563286258,-7.96479368356871,0.146761435911698,-0.022296581,0.015271631,0.019547688,161.09053,126.09168,-36.02387,STD
519911940000,1.609565,-5.51249694948667,-7.96019802525666,0.15135712301634,-0.027183503,0.014660766,0.011911872,161.0881,126.08229,-36.015606,STD
519916905000,1.61453,-5.52166426307418,-7.95561436846291,0.155940808527498,-0.03604105,0.010079277,0.015271631,161.08667,126.072876,-36.007492,STD
519921947000,1.619572,-5.53097374849376,-7.95095962575312,0.160595580400058,-0.036957346,0.0067195175,0.016187929,161.08554,126.06075,-35.99666,STD
519926918000,1.624543,-5.53080124743649,-7.94645309973946,0.15591651442263,-0.038179077,0.01282817,0.021685716,161.0831,126.048996,-35.985947,STD
519931934000,1.629559,-5.5218616871499,-7.94198327292268,0.142507024637573,-0.03268129,0.015882496,0.017715093,161.07854,126.03496,-35.973095,STD
519936872000,1.634497,-5.51173423544927,-7.94217692212063,0.129568963682082,-0.04520403,0.014660766,0.02565634,161.07057,126.03016,-35.969234,STD
519941960000,1.639585,-5.49888200291894,-7.95074501749604,0.116716811672235,-0.03940081,0.0033597588,0.02107485,161.06012,126.02041,-35.960835,STD
519946956000,1.644581,-5.48890556700098,-7.95879148090462,0.104414507504425,-0.038789943,0.005497787,0.02107485,161.06107,126.01606,-35.95714,STD
519951949000,1.649574,-5.50301096383481,-7.9634931980236,0.0950109652566372,-0.040317107,0.008552114,0.020158553,161.05838,126.01015,-35.95203,STD
519956995000,1.65462,-5.51780442294197,-7.96759023867746,0.0871295544183536,-0.03268129,0.01038471,0.02107485,161.05273,125.99672,-35.939857,STD
519961927000,1.659552,-5.53905173630229,-7.96334082037787,0.0998779513090418,-0.04062254,0.007330383,0.016493361,161.04662,125.98204,-35.92614,STD
519966888000,1.664513,-5.56042398317589,-7.95906641563653,0.112701308359874,-0.03940081,0.011301007,0.0143553335,161.04398,125.9697,-35.91483,STD
519971939000,1.669564,-5.48843015062022,-7.93840674965764,0.110937761611591,-0.03726278,0.014660766,0.015271631,161.04025,125.95733,-35.903385,STD
519976900000,1.674525,-5.39884995897589,-7.91483306424531,0.106223014682941,-0.03756821,0.01282817,0.016187929,161.03633,125.94466,-35.891613,STD
519981937000,1.679562,-5.44503115878304,-7.93008793423441,0.128919586725187,-0.037873644,0.01160644,0.018020526,161.02335,125.93337,-35.881523,STD
519986896000,1.684521,-5.52082773009476,-7.95377434421945,0.157343357853367,-0.03848451,0.009773844,0.0143553335,161.00986,125.9211,-35.87042,STD
519991921000,1.689546,-5.53202298381743,-7.95495521341632,0.142579186417704,-0.03359759,0.008857546,0.017715093,161.00647,125.90138,-35.851784,STD
519997891000,1.695516,-5.52708070321577,-7.95001282959889,0.112924862869986,-0.039095376,0.0076358155,0.0143553335,161.00264,125.87944,-35.830734,STD
520002005000,1.69963,-5.52200670528905,-7.94747926842969,0.109155577363674,-0.040317107,0.009468411,0.014049901,160.98405,125.86508,-35.81761,STD
520006933000,1.704558,-5.51475048290283,-7.94506052763428,0.116411804801148,-0.034208454,0.0033597588,0.014660766,160.96272,125.85045,-35.804295,STD
520011932000,1.709557,-5.50738971672817,-7.94260693890939,0.123772576099836,-0.03604105,0.010995574,0.017104227,160.95157,125.83623,-35.790844,STD
520016938000,1.714563,-5.50001864341943,-7.94014991447315,0.13114365453977,-0.03726278,0.012217305,0.021991149,160.93646,125.82321,-35.778793,STD
520021930000,1.719555,-5.5004919415686,-7.94371263394282,0.12953537364205,-0.036651913,0.011911872,0.018936822,160.92381,125.80902,-35.76546,STD
520026932000,1.724557,-5.5061672223837,-7.95127969478319,0.121968325443962,-0.03848451,0.010995574,0.024129177,160.91185,125.79895,-35.756184,STD
520033548000,1.731173,-5.51367375134665,-7.96128842619461,0.111959610754127,-0.03634648,-0.0015271631,0.019242255,160.90366,125.789474,-35.747467,STD
520036899000,1.734524,-5.51747580372798,-7.96635784260327,0.106890202814944,-0.03604105,0.0030543262,0.022907447,160.90144,125.784096,-35.742634,STD
520041941000,1.739566,-5.52319646863597,-7.97398541572546,0.0992626424361425,-0.03573562,0.0076358155,0.018020526,160.89485,125.77501,-35.73422,STD
520046958000,1.744583,-5.53413011207781,-7.97193820159256,0.0902262916325353,-0.033292156,0.009468411,0.022907447,160.88924,125.769875,-35.729744,STD
520051959000,1.749584,-5.54948728721676,-7.96170010265071,0.0799882407977768,-0.042760566,0.0076358155,0.02076942,160.88396,125.76163,-35.721992,STD
520056904000,1.754529,-5.54636796647668,-7.9555996411399,0.0847944379829016,-0.042760566,0.006414085,0.01985312,160.88225,125.75487,-35.715717,STD
520061941000,1.759566,-5.53387089979275,-7.95143398124352,0.0972914289813472,-0.04428773,0.010079277,0.017104227,160.88164,125.747246,-35.708405,STD
520067048000,1.764673,-5.5253677588869,-7.9482998588869,0.107143445391427,-0.04184427,0.009468411,0.015577064,160.87794,125.74257,-35.704086,STD
520071921000,1.769546,-5.5241903805182,-7.9471224805182,0.111852961325025,-0.04520403,0.008857546,0.014660766,160.87555,125.73746,-35.699207,STD
520076915000,1.77454,-5.52298376702071,-7.94591586702071,0.116679417834851,-0.044898596,0.008246681,0.022602014,160.869,125.731125,-35.69343,STD
520081947000,1.779572,-5.52176797224311,-7.94470007224311,0.12154259948432,-0.045814894,0.011911872,0.022907447,160.86382,125.72261,-35.685383,STD
520096905000,1.79453,-5.51815393045387,-7.94108603045387,0.135998774188763,-0.047647487,0.013744468,0.01863139,160.83003,125.69513,-35.65959,STD
520102547000,1.800172,-5.51679075196912,-7.93972285196912,0.141451490974594,-0.04642576,0.014966198,0.018020526,160.81674,125.68669,-35.65189,STD
520106933000,1.804558,-5.52001109081066,-7.94200054350119,0.13988162690624,-0.043676864,0.018936822,0.022296581,160.80206,125.6767,-35.642666,STD
520111931000,1.809556,-5.5289465640547,-7.94870209011994,0.130946195648481,-0.035430185,0.02321288,0.02107485,160.78824,125.6652,-35.631985,STD
520116920000,1.814545,-5.53786594701078,-7.95539156912774,0.122026854603071,-0.040011674,0.018936822,0.016798794,160.77335,125.653534,-35.62094,STD
520121937000,1.819562,-5.5468353886405,-7.96211859181407,0.113057455119242,-0.044898596,0.006414085,0.02076942,160.75743,125.64409,-35.612217,STD
520126933000,1.824558,-5.554548,-7.96856227240335,0.106004149305542,-0.03604105,0.008246681,0.01740966,160.75076,125.63546,-35.604366,STD
520131996000,1.829621,-5.554548,-7.97345654832442,0.110898402229232,-0.04153884,0.0009162979,0.019242255,160.7368,125.62984,-35.59945,STD
520136923000,1.834548,-5.554548,-7.97821935643484,0.115661187960028,-0.039095376,0.007941248,0.016493361,160.7289,125.62186,-35.59209,STD
520141934000,1.839559,-5.554548,-7.98306336525184,0.120505174015847,-0.040011674,0.005497787,0.015271631,160.7154,125.61512,-35.585995,STD
520146945000,1.84457,-5.55371195198571,-7.98622065780563,0.124219808977547,-0.05100725,0.004581489,0.01740966,160.70515,125.60884,-35.58018,STD
520151948000,1.849573,-5.54895882901359,-7.98146756792103,0.122635444028306,-0.032375857,0.009773844,0.02076942,160.69646,125.60245,-35.574524,STD
520156937000,1.854562,-5.54421900680533,-7.97672777870772,0.121055512640786,-0.04337143,0.011301007,0.018936822,160.69417,125.59956,-35.57145,STD
520161973000,1.859598,-5.53943453203267,-7.97194333724083,0.119460697153203,-0.047647487,0.018325957,0.021685716,160.69562,125.59866,-35.57056,STD
520166987000,1.864612,-5.53467095846037,-7.96717979682881,0.117872848691181,-0.049480084,0.015882496,0.02321288,160.69417,125.59698,-35.568867,STD
520172376000,1.870001,-5.52955111442743,-7.96205998843623,0.116166244111637,-0.04428773,0.008857546,0.015271631,160.69334,125.59331,-35.565205,STD
520176922000,1.874547,-5.52639707070846,-7.9583263,0.115211515656873,-0.04428773,0.009162978,0.014966198,160.69417,125.5923,-35.564102,STD
520181941000,1.879566,-5.53112006954898,-7.9583263,0.117573017542989,-0.048563786,0.015882496,0.021685716,160.69472,125.591064,-35.562798,STD
520186964000,1.884589,-5.53584683248502,-7.9583263,0.119936401478825,-0.04550946,0.0106901415,0.02321288,160.69225,125.587585,-35.55939,STD
520191947000,1.889572,-5.54053595446595,-7.9583263,0.122280964917461,-0.04520403,0.0061086523,0.01985312,160.69223,125.5847,-35.556454,STD
520197034000,1.894659,-5.54464814097711,-7.95897200793222,0.126112752413917,-0.03970624,0.0106901415,0.022296581,160.69193,125.58359,-35.555775,STD
520201980000,1.899605,-5.54037845988823,-7.967511236362,0.147460725406526,-0.043982297,0.0125227375,0.023518313,160.68909,125.581276,-35.553837,STD
520206915000,1.90454,-5.53611827465297,-7.97603147338201,0.168761220092843,-0.039095376,-0.004886922,0.018020526,160.6793,125.57895,-35.55217,STD
520211968000,1.909593,-5.53172928946604,-7.97381513639666,0.176047310895387,-0.040011674,0.007330383,0.022602014,160.68076,125.57991,-35.55344,STD
520216882000,1.914507,-5.52745582302942,-7.96954149146386,0.180320871042499,-0.04550946,0.00580322,0.023518313,160.67134,125.57827,-35.55232,STD
520221972000,1.919597,-5.52271261480433,-7.97721738800688,0.17574975636667,-0.04886922,0.004886922,0.018936822,160.66458,125.57507,-35.549675,STD
520226952000,1.924577,-5.51788983555466,-7.99168577611488,0.166104192831429,-0.04795292,0.004581489,0.016187929,160.65764,125.57268,-35.547802,STD
520231957000,1.929582,-5.51521341360403,-7.99252466860809,0.165887344616534,-0.04642576,0.009468411,0.01863139,160.6516,125.57039,-35.546062,STD
520236983000,1.934608,-5.51364992516485,-7.98627058424232,0.170577909523469,-0.043066,0.006414085,0.015577064,160.64276,125.565765,-35.542053,STD
520241920000,1.939545,-5.51211412285204,-7.98012724669482,0.175185414287802,-0.051618114,0.0070249503,0.02565634,160.64027,125.563515,-35.540184,STD
520246960000,1.944585,-5.51054627929186,-7.97385574148124,0.179889044835147,-0.040317107,0.008857546,0.019242255,160.63713,125.55556,-35.532825,STD
520251939000,1.949564,-5.50899741161605,-7.96766014139029,0.184535746520708,-0.05375614,0.0027488936,0.022907447,160.63588,125.5564,-35.533886,STD
520256939000,1.954564,-5.50744201125873,-7.96143841002761,0.189202046666883,-0.053145275,-0.00061086525,0.026267206,160.6362,125.55504,-35.53294,STD
520261952000,1.959577,-5.50416556568699,-7.94833274536297,0.176545829349881,-0.050701816,0.0106901415,0.022296581,160.6395,125.552666,-35.53082,STD
520266948000,1.964573,-5.49919654585108,-7.92845702921383,0.146732317388098,-0.057421334,0.0021380284,0.017104227,160.63467,125.55093,-35.529392,STD
520271940000,1.969565,-5.49433681317329,-7.9227692011853,0.127199827189797,-0.04184427,0.0021380284,0.016798794,160.64003,125.555176,-35.53419,STD
520276916000,1.974541,-5.48957020584146,-7.92753583340335,0.115283298905726,-0.0571159,0.0015271631,0.017715093,160.6421,125.558426,-35.537693,STD
520281945000,1.97957,-5.48475282877719,-7.9323532356189,0.103239846184546,-0.052839845,0.0027488936,0.019242255,160.65318,125.565926,-35.54565,STD
520286945000,1.98457,-5.47996323137784,-7.93714285802451,0.0912658426836709,-0.053145275,-0.00061086525,0.024129177,160.66226,125.57445,-35.554466,STD
520291924000,1.989549,-5.48841246188427,-7.93655296188427,0.0992900982974653,-0.043066,0.0021380284,0.02107485,160.67368,125.5806,-35.560986,STD
520297035000,1.99466,-5.50713920499283,-7.93187132499283,0.122698546737446,-0.040317107,-0.0012217305,0.02443461,160.68164,125.58962,-35.57037,STD
520301950000,1.999575,-5.51396442532264,-7.93642464287251,0.12952285081932,-0.05009095,-0.004276057,0.022296581,160.69797,125.59442,-35.57522,STD
520306939000,2.004564,-5.5092931643332,-7.95043866973015,0.120180123973406,-0.048563786,-0.00061086525,0.026267206,160.71524,125.601425,-35.58236,STD
520311924000,2.009549,-5.50462276943411,-7.96444986381437,0.108798111922851,-0.047647487,-0.004276057,0.02687807,160.71506,125.6055,-35.586933,STD
520316951000,2.014576,-5.49990928020364,-7.97859003620521,0.0946579296886626,-0.057726767,-0.010079277,0.024740042,160.71538,125.60973,-35.59156,STD
520321874000,2.019499,-5.49978302939272,-7.98795537646424,0.0915833225389974,-0.04795292,-0.009162978,0.013439035,160.71977,125.60888,-35.591183,STD
520326926000,2.024551,-5.50690291464731,-7.9903286715491,0.105823102960855,-0.040927973,-0.005497787,0.016187929,160.72316,125.611374,-35.59406,STD
520331884000,2.029509,-5.51389032381046,-7.99265780793682,0.119797931015403,-0.04734206,-0.014049901,0.021685716,160.72627,125.6091,-35.59211,STD
520336944000,2.034569,-5.52102148362602,-7.99503486120867,0.134060260574904,-0.05131268,-0.0070249503,0.019242255,160.73615,125.60521,-35.588493,STD
520341943000,2.039568,-5.52874232425847,-7.99175866017095,0.1348773821994,-0.048258353,-0.00030543262,0.019547688,160.74295,125.60359,-35.587208,STD
520347052000,2.044677,-5.53810538067232,-7.97615367477834,0.10678838893921,-0.05681047,-0.00580322,0.02107485,160.74788,125.6017,-35.585533,STD
520354486000,2.052111,-5.5517293699815,-7.95344718399566,0.0659166770785227,-0.05100725,-0.009773844,0.011911872,160.75099,125.598,-35.581978,STD
520357559000,2.055184,-5.55908649439127,-7.94572381074406,0.0559479862097355,-0.04550946,-0.002443461,0.011911872,160.7561,125.59735,-35.58139,STD
520361922000,2.059547,-5.57198646248842,-7.93712375717814,0.0516479333843779,-0.048258353,0.0021380284,0.0106901415,160.75873,125.59378,-35.577877,STD
520366908000,2.064533,-5.58020373720888,-7.93164552636164,0.0499335709882633,-0.057421334,-0.00580322,0.008857546,160.76213,125.59413,-35.5782,STD
520371936000,2.069561,-5.56695832734275,-7.94047587644416,0.0587639754724005,-0.04917465,-0.006414085,0.00580322,160.7695,125.59355,-35.577644,STD
520377012000,2.074637,-5.55523649625763,-7.94909375172346,0.0663491459060469,-0.04184427,0.0018325958,0.011301007,160.77515,125.59639,-35.580055,STD
520381984000,2.079609,-5.56461513569037,-7.95378312040575,0.056970399727595,-0.03848451,0.0033597588,0.008552114,160.77786,125.59592,-35.579254,STD
520387172000,2.084797,-5.57354064564293,-7.95816554564293,0.0475625230844267,-0.03970624,-0.0076358155,0.0070249503,160.77708,125.593124,-35.576416,STD
520392054000,2.089679,-5.57142527429192,-7.95605017429192,0.043331777731789,-0.042455133,-0.00580322,0.0036651916,160.7812,125.589035,-35.572216,STD
520396962000,2.094587,-5.56929863713691,-7.95392353713691,0.0390785007570356,-0.039095376,0.0012217305,0.008246681,160.78384,125.58749,-35.570606,STD
520401938000,2.099563,-5.56714253557144,-7.95176743557144,0.0347662949244412,-0.042455133,-0.0033597588,0.002443461,160.78287,125.582146,-35.56519,STD
520406874000,2.104499,-5.56500376601213,-7.94962866601213,0.030488753125871,-0.03848451,0.010079277,0.005497787,160.79066,125.5806,-35.563503,STD
520411927000,2.109552,-5.57590190557137,-7.9340279756405,0.0257861071346076,-0.04917465,0.0061086523,0.010079277,160.79257,125.57921,-35.5619,STD
520416948000,2.114573,-5.59545675056934,-7.90958459805815,0.0208974183458723,-0.042760566,0.007941248,0.003970624,160.801,125.57542,-35.557972,STD
520421939000,2.119564,-5.59955737285433,-7.89799103288622,0.0105299063553138,-0.039095376,0.007330383,0.008857546,160.80634,125.57509,-35.557625,STD
520427581000,2.125206,-5.59448904586812,-7.89292281174374,-0.00467476818572366,-0.031154128,0.013744468,0.008246681,160.8146,125.57136,-35.553925,STD
520433456000,2.131081,-5.60444146860552,-7.88935772862043,-0.0115078797910515,-0.032986723,0.010079277,0.013744468,160.80899,125.57062,-35.55311,STD
520436941000,2.134566,-5.61439680467313,-7.88769851171762,-0.0131670979066368,-0.0290161,0.0061086523,0.01740966,160.80548,125.56912,-35.551636,STD
520441922000,2.139547,-5.62862565085757,-7.88532704560776,-0.0155385657498881,-0.03390302,0.016798794,0.015882496,160.80792,125.56743,-35.549736,STD
520447055000,2.14468,-5.64328870395227,-7.88288321193139,-0.017982401212528,-0.03573562,0.015271631,0.009162978,160.80461,125.56525,-35.547504,STD
520452048000,2.149673,-5.64670901101309,-7.881712,-0.0167489696571174,-0.0421497,0.0125227375,0.011301007,160.79651,125.56038,-35.542744,STD
520456938000,2.154563,-5.6397456568299,-7.881712,-0.0121067624574742,-0.028099801,0.010079277,0.012217305,160.78809,125.55333,-35.535954,STD
520461931000,2.159556,-5.63263563076923,-7.881712,-0.00736677461538461,-0.03848451,0.015577064,0.014966198,160.77448,125.54878,-35.53124,STD
520466949000,2.164574,-5.6254900047383,-7.881712,-0.00260305360765266,-0.029932396,0.011301007,0.020158553,160.75682,125.545166,-35.527813,STD
520471939000,2.169564,-5.6184223685489,-7.8848750314511,0.00210868917537588,-0.034513887,0.019242255,0.019242255,160.74553,125.541,-35.523537,STD
520476925000,2.17455,-5.61140685484108,-7.89189054515892,0.00678570173250404,-0.033292156,0.017715093,0.013744468,160.72957,125.53706,-35.519684,STD
520481888000,2.179513,-5.60442370310985,-7.89887369689015,0.0114411396228023,-0.027183503,0.019242255,0.018020526,160.72122,125.536316,-35.519005,STD
520486945000,2.18457,-5.59730828938734,-7.90598911061266,0.0161847522384054,-0.03268129,0.016187929,0.004886922,160.71066,125.52925,-35.511948,STD
520491930000,2.189555,-5.59367760323753,-7.91208757211761,0.0224439604684506,-0.027794369,0.024129177,0.011301007,160.7048,125.52895,-35.511738,STD
520497510000,2.195135,-5.59619965052622,-7.91713156135731,0.0325319457947992,-0.023518313,0.028405234,0.010079277,160.69656,125.52298,-35.50583,STD
520501958000,2.199583,-5.59821005668035,-7.92115228969748,0.0405734079330785,-0.025350908,0.033292156,0.015577064,160.6935,125.5182,-35.50114,STD
520506940000,2.204565,-5.60046182004814,-7.92565572238426,0.0495802794197933,-0.038789943,0.034208454,0.011301007,160.69057,125.51052,-35.49347,STD
520511930000,2.209555,-5.60354740627567,-7.93015369731438,0.056624289078492,-0.030848695,0.030848695,0.01160644,160.68797,125.50568,-35.4888,STD
520516949000,2.214574,-5.61241939375202,-7.93458964473259,0.0499703285792072,-0.020463986,0.03359759,0.006414085,160.68779,125.49829,-35.481457,STD
520522197000,2.219822,-5.62169618001938,-7.93922798943288,0.0430127703603895,-0.020158553,0.035430185,0.011911872,160.68192,125.49306,-35.47642,STD
520526921000,2.224546,-5.63004670180425,-7.94340320672789,0.0367499073600664,-0.01985312,0.03176499,0.01282817,160.67519,125.48517,-35.46883,STD
520531883000,2.229508,-5.63881793150293,-7.9477887757833,0.0301715148521065,-0.023823744,0.04062254,0.007941248,160.67365,125.477394,-35.461227,STD
520536941000,2.234566,-5.63744659866667,-7.94216434428571,0.0386082120190476,-0.023823744,0.039095376,0.0070249503,160.66739,125.471146,-35.45526,STD
520541919000,2.239544,-5.63331878072727,-7.9339092687013,0.0509908986649351,-0.018936822,0.038789943,0.013133603,160.66481,125.4657,-35.450027,STD
520546988000,2.244613,-5.62516769556176,-7.93199370925691,0.0598585635278722,-0.016187929,0.035124753,0.006414085,160.6599,125.45822,-35.443016,STD
520552001000,2.249626,-5.61299206827289,-7.93686393474512,0.0647288180032463,-0.02107485,0.039095376,0.014966198,160.65793,125.45698,-35.44214,STD
520556938000,2.254563,-5.60100103058585,-7.94166032477809,0.0695252365839209,-0.019242255,0.04642576,0.014049901,160.65387,125.451645,-35.437294,STD
520561954000,2.259579,-5.58881811686533,-7.94653346482374,0.0743984056340857,-0.021991149,0.04337143,0.016187929,160.64784,125.44977,-35.43584,STD
520567053000,2.264678,-5.58602794762584,-7.95424925168127,0.0903639153254534,-0.004276057,0.047036625,0.004581489,160.6458,125.44272,-35.42928,STD
520571936000,2.269561,-5.59079302720603,-7.9637791620644,0.11418883358386,-0.014049901,0.043066,0.016187929,160.64035,125.443214,-35.430077,STD
520576915000,2.27454,-5.57693742547845,-7.97055597525614,0.119192647523681,-0.017715093,0.034208454,0.0143553335,160.6368,125.432495,-35.419834,STD
520581923000,2.279548,-5.54912332456988,-7.9751917394162,0.109921307983762,-0.01282817,0.03726278,0.009468411,160.63629,125.42437,-35.412125,STD
520586935000,2.28456,-5.53302179754242,-7.9798522272284,0.112461640951824,-0.009468411,0.044898596,0.01740966,160.63087,125.41905,-35.40725,STD
520591957000,2.289582,-5.52833156102984,-7.98454251271699,0.126532654140823,-0.021380283,0.03848451,0.017715093,160.62184,125.41046,-35.399055,STD
520597008000,2.294633,-5.51224747035739,-7.98479506867554,0.129551985395936,-0.019547688,0.034208454,0.023518313,160.62152,125.401245,-35.390247,STD
520601946000,2.299571,-5.48384208138953,-7.98006088661528,0.120083512519772,-0.01985312,0.03940081,0.018325957,160.62242,125.38933,-35.378605,STD
520606924000,2.304549,-5.46622432108698,-7.98174462462258,0.127715629570469,-0.015271631,0.054367006,0.016493361,160.62758,125.38114,-35.37067,STD
520611952000,2.309577,-5.46153442678484,-7.99112456014415,0.155855602641473,-0.019242255,0.04550946,0.01282817,160.6263,125.371185,-35.360985,STD
520616874000,2.314499,-5.45372680201876,-7.99494911239839,0.169013743037963,-0.008857546,0.04153884,0.02107485,160.63629,125.360596,-35.35064,STD
520621935000,2.31956,-5.44073836373381,-7.99061966310853,0.160354839937472,-0.02107485,0.03481932,0.013744468,160.64218,125.34495,-35.335117,STD
520626921000,2.324546,-5.430726725,-7.98976606365438,0.155260928850793,-0.0125227375,0.036957346,0.02107485,160.65065,125.33707,-35.32762,STD
520633462000,2.331087,-5.43612305,-8.011351870796,0.171450253215024,-0.01282817,0.039095376,0.02107485,160.65681,125.32536,-35.316177,STD
520636907000,2.334532,-5.438965175,-8.02272063789628,0.179976812217436,-0.021991149,0.04886922,0.022907447,160.66661,125.31264,-35.303577,STD
520641917000,2.339542,-5.4358405088843,-8.03672055240421,0.193316048424117,-0.026267206,0.03604105,0.02107485,160.6693,125.29911,-35.290276,STD
520646994000,2.344619,-5.43127435578512,-8.05041910706236,0.207014803339594,-0.027794369,0.03481932,0.021685716,160.6795,125.28707,-35.278328,STD
520651949000,2.349574,-5.41548763851037,-8.05118173893356,0.199040331685146,-0.03390302,0.04734206,0.023823744,160.68918,125.27429,-35.26563,STD
520656904000,2.354529,-5.39540594405417,-8.04716552585696,0.182974963538722,-0.03176499,0.03390302,0.016798794,160.68935,125.259315,-35.250877,STD
520661915000,2.35954,-5.38392346214737,-8.04275945621053,0.170624421136842,-0.038789943,0.029932396,0.02321288,160.69708,125.24732,-35.238968,STD
520666936000,2.364561,-5.38898494726316,-8.03769802394737,0.165562830315789,-0.03726278,0.027183503,0.021380283,160.70059,125.231255,-35.22309,STD
520671935000,2.36956,-5.3896261199961,-8.02859309485703,0.173385347590514,-0.04062254,0.028099801,0.023518313,160.7136,125.2186,-35.210457,STD
520676917000,2.374542,-5.38497006249634,-8.01462433892847,0.196666135866107,-0.04917465,0.02443461,0.019547688,160.72395,125.20395,-35.19584,STD
520681879000,2.379504,-5.38591860605546,-8.01090150756932,0.215381259528853,-0.036651913,0.02321288,0.025961773,160.73523,125.19404,-35.186043,STD
520687004000,2.384629,-5.39572746940794,-8.02316258675993,0.22764234384062,-0.046731193,0.025350908,0.031154128,160.74634,125.183075,-35.175007,STD
520691914000,2.389539,-5.40512483898076,-8.03490929872595,0.239389060712965,-0.03634648,0.021685716,0.026572637,160.757,125.1764,-35.168533,STD
520697010000,2.394635,-5.41487819852111,-8.04710099815139,0.251580765230577,-0.04886922,0.013744468,0.028710667,160.76686,125.17327,-35.165424,STD
520701930000,2.399555,-5.42421300091923,-8.05222383859769,0.256703550011735,-0.048258353,0.014966198,0.029321533,160.77728,125.16643,-35.15855,STD
520706944000,2.404569,-5.43360427293174,-8.04752830065519,0.252007864973597,-0.04917465,0.018020526,0.022907447,160.78542,125.15833,-35.150387,STD
520711895000,2.40952,-5.44041525573226,-8.03978206450036,0.249786209249941,-0.059253927,0.0070249503,0.021685716,160.78545,125.15271,-35.14477,STD
520716957000,2.414582,-5.44271664543081,-8.02597401467363,0.252087550887728,-0.05497787,-0.0036651916,0.01985312,160.78656,125.14511,-35.137245,STD
520721869000,2.419494,-5.44494983906955,-8.01257513266081,0.254320697889865,-0.036651913,0.0070249503,0.025961773,160.78918,125.139435,-35.13146,STD
520726924000,2.424549,-5.44724804628531,-7.99878617733207,0.256618857111322,-0.050396383,0.008246681,0.021685716,160.78465,125.130646,-35.122505,STD
520731932000,2.429557,-5.45099971122888,-7.9857091595429,0.257226229073866,-0.050701816,-0.0033597588,0.015882496,160.77934,125.12313,-35.115005,STD
520737656000,2.435281,-5.46552566472342,-7.97481463754223,0.246331703281219,-0.055283304,-0.007330383,0.02076942,160.77707,125.11774,-35.109493,STD
520741930000,2.439555,-5.47637191301756,-7.96667990885061,0.238196971758198,-0.05681047,0.00030543262,0.020158553,160.77124,125.11281,-35.1045,STD
520746962000,2.444587,-5.48779778441911,-7.95861407540424,0.228980024171418,-0.0580322,-0.0027488936,0.013744468,160.76027,125.10777,-35.09944,STD
520751961000,2.449586,-5.49003516281896,-7.9608513837181,0.222268024471446,-0.05589417,-0.0076358155,0.013133603,160.75131,125.10434,-35.09597,STD
520756975000,2.4546,-5.4922792546967,-7.96309540529956,0.215535884744369,-0.058643065,-0.0143553335,0.014966198,160.73915,125.10373,-35.095284,STD
520762175000,2.4598,-5.49460659370035,-7.9654226713992,0.208554008681185,-0.05681047,-0.010079277,0.014049901,160.7291,125.1022,-35.093704,STD
520767983000,2.465608,-5.49733480953307,-7.96691178774319,0.200617331025292,-0.05375614,-0.005497787,0.015271631,160.71683,125.10191,-35.09338,STD
520771971000,2.469596,-5.50105008929961,-7.95205105661479,0.193186922787938,-0.054367006,-0.0030543262,0.011911872,160.70528,125.10014,-35.091564,STD
520776934000,2.474559,-5.50567369348249,-7.93355712266537,0.183939902707198,-0.059864793,-0.00580322,0.016798794,160.69992,125.10347,-35.094616,STD
520782049000,2.479674,-5.50913734968449,-7.92712254700746,0.16711891163809,-0.050396383,-0.01038471,0.017104227,160.69449,125.10443,-35.09539,STD
520787494000,2.485119,-5.5124609896233,-7.92379876824527,0.14717664165275,-0.05009095,-0.002443461,0.016798794,160.69228,125.106674,-35.09733,STD
520791993000,2.489618,-5.5152071890879,-7.9210524540761,0.130699089281025,-0.052839845,-0.004276057,0.011301007,160.68402,125.10977,-35.10021,STD
520796988000,2.494613,-5.52681459638868,-7.92636341991574,0.126613291485989,-0.050396383,-0.0021380284,0.01863139,160.67976,125.11632,-35.10653,STD
520802380000,2.500005,-5.54408140090952,-7.93672353868789,0.130066655996121,-0.050396383,-0.009468411,0.014049901,160.67126,125.11785,-35.10787,STD
520806948000,2.504573,-5.55870950978399,-7.94550043456163,0.132992280825921,-0.05009095,-0.01160644,0.017715093,160.66914,125.12502,-35.114723,STD
520811914000,2.509539,-5.55732996828423,-7.94535218414211,0.117088706520797,-0.04428773,-0.009468411,0.020463986,160.66568,125.13048,-35.119915,STD
520816859000,2.514484,-5.54707059306759,-7.9402224965338,0.0914402470537262,-0.047647487,-0.0076358155,0.019547688,160.66112,125.13586,-35.124996,STD
520822130000,2.519755,-5.53739388850084,-7.94674981149916,0.089979817331971,-0.048563786,-0.006414085,0.016493361,160.6546,125.143135,-35.13206,STD
520826909000,2.524534,-5.52889165420769,-7.95525204579231,0.0942309362541334,-0.051923547,-0.01038471,0.022296581,160.64673,125.15253,-35.141224,STD
520832673000,2.530298,-5.53139224142308,-7.95646803246154,0.0883349891892308,-0.054367006,-0.0061086523,0.023518313,160.64778,125.16033,-35.148796,STD
520836932000,2.534557,-5.53727510802885,-7.95450709057692,0.0804912167365384,-0.055588737,0.00580322,0.019547688,160.64987,125.16806,-35.15627,STD
520841891000,2.539516,-5.54412486982692,-7.95222385253846,0.0713582588607692,-0.051923547,0.005497787,0.02443461,160.65146,125.17676,-35.164715,STD
520846954000,2.544579,-5.551118284625,-7.9498927305,0.062033764865,-0.05589417,-0.0033597588,0.026267206,160.65382,125.18329,-35.170918,STD
520851916000,2.549541,-5.55701174421959,-7.94751761502698,0.0525332967634911,-0.054061573,0.0076358155,0.02321288,160.65382,125.18271,-35.169918,STD
520856852000,2.554477,-5.56191736804691,-7.94506477750104,0.0427219400005189,-0.05375614,0.0070249503,0.016798794,160.64648,125.18177,-35.168636,STD
520861872000,2.559497,-5.56690647493773,-7.94257019800747,0.032743615253736,-0.05467244,0.0027488936,0.02443461,160.64163,125.18547,-35.171833,STD
520866853000,2.564478,-5.57185682183479,-7.94009499871316,0.0228428113565795,-0.06169739,0.007330383,0.021991149,160.63931,125.18457,-35.17035,STD
520871854000,2.569479,-5.57930181576794,-7.93357225499256,0.0331546639460766,-0.058948494,0.005497787,0.025045475,160.63513,125.18765,-35.172665,STD
520876869000,2.574494,-5.58823220847899,-7.92464181565638,0.0554806625087393,-0.054061573,0.0030543262,0.022907447,160.63185,125.18862,-35.172832,STD
520881867000,2.579492,-5.59032514692621,-7.92507862689981,0.0720972531254811,-0.06169739,0.011301007,0.02076942,160.62982,125.1899,-35.173042,STD
520886865000,2.58449,-5.58506111459364,-7.93560652666887,0.0826251034257121,-0.050701816,0.002443461,0.01863139,160.62054,125.190475,-35.17286,STD
520891855000,2.58948,-5.58642734859366,-7.93602345005984,0.0830419752022741,-0.04886922,-0.0027488936,0.019547688,160.60992,125.19411,-35.175667,STD
520896879000,2.594504,-5.59122635597447,-7.93122459300818,0.0782430650343108,-0.04642576,0.005192355,0.021991149,160.60052,125.19754,-35.17836,STD
520901858000,2.599483,-5.59143067466158,-7.929596,0.0808873446479513,-0.057421334,0.00580322,0.02107485,160.58554,125.19744,-35.177307,STD
520906829000,2.604454,-5.58926808417371,-7.929596,0.0873749864961388,-0.049785517,-0.00061086525,0.01282817,160.57054,125.1959,-35.17501,STD
520911845000,2.60947,-5.58708591682566,-7.929596,0.0939213577515217,-0.050701816,0.008246681,0.015577064,160.56055,125.19861,-35.176685,STD
520916849000,2.614474,-5.58490896997365,-7.929596,0.100452067831653,-0.050396383,0.005192355,0.01863139,160.54385,125.19915,-35.176422,STD
520921906000,2.619531,-5.58241658105422,-7.92873457205928,0.103622022769315,-0.050701816,0.0009162979,0.01985312,160.52956,125.20012,-35.17654,STD
520926886000,2.624511,-5.57913686671939,-7.92545482347763,0.0970625204690025,-0.050701816,-0.004886922,0.020463986,160.51341,125.20189,-35.177525,STD
520931859000,2.629484,-5.57586176242478,-7.92217968498436,0.0905122383526459,-0.03604105,0.0076358155,0.018325957,160.49644,125.198044,-35.172413,STD
520936834000,2.634459,-5.57258534097583,-7.91890322932297,0.083959321898016,-0.0421497,0.010079277,0.022296581,160.4737,125.1967,-35.16974,STD
520941830000,2.639455,-5.56929508940618,-7.91561294339649,0.0773787448915174,-0.04642576,0.014966198,0.018936822,160.44849,125.18735,-35.159107,STD
520946915000,2.64454,-5.5659462244679,-7.91226404348932,0.0706809398318606,-0.051923547,0.00580322,0.015271631,160.41905,125.17966,-35.15016,STD
520951815000,2.64944,-5.55792968230777,-7.91870221119531,0.0732325275867435,-0.042455133,0.0067195175,0.015577064,160.39468,125.17252,-35.141823,STD
520956850000,2.654475,-5.54331327622512,-7.93819056610084,0.0878488390437506,-0.042455133,0.009468411,0.015577064,160.36755,125.16497,-35.13298,STD
520961825000,2.65945,-5.53433219104905,-7.9487495,0.0925825690696734,-0.042760566,0.0070249503,0.02076942,160.34755,125.16316,-35.130047,STD
520966862000,2.664487,-5.53195198113096,-7.9487495,0.0854417867091681,-0.04062254,0.01985312,0.027794369,160.33365,125.162155,-35.12782,STD
520971821000,2.669446,-5.52960862973453,-7.9487495,0.0784115822768183,-0.040317107,0.0027488936,0.019242255,160.30411,125.1511,-35.115913,STD
520976852000,2.674477,-5.52723125508734,-7.9487495,0.0712793059107865,-0.039095376,0.008246681,0.015271631,160.28694,125.14372,-35.107468,STD
520981817000,2.679442,-5.53146561381028,-7.94686677516939,0.0708031016271423,-0.040927973,0.008552114,0.017104227,160.26195,125.13609,-35.09894,STD
520986831000,2.684456,-5.54581946279394,-7.94208219214827,0.0803722726654045,-0.047647487,0.008552114,0.015271631,160.23865,125.126816,-35.088715,STD
520991819000,2.689444,-5.55393543846281,-7.94039779748969,0.0812908666512618,-0.040317107,0.014966198,0.01985312,160.21294,125.11391,-35.074844,STD
520996885000,2.69451,-5.55233500692726,-7.94359859371598,0.0684876728891638,-0.040927973,0.01740966,0.014966198,160.18576,125.09865,-35.058514,STD
521001808000,2.699433,-5.55077975141019,-7.94670903979218,0.0560458799774369,-0.039095376,0.007330383,0.01038471,160.15317,125.0878,-35.04689,STD
521006856000,2.704481,-5.54918500636649,-7.94989846327231,0.0432881772314696,-0.04062254,0.0070249503,0.012217305,160.12491,125.078026,-35.036213,STD
521011881000,2.709506,-5.54759752739568,-7.95307335491011,0.0305886018950025,-0.046120327,0.008857546,0.014966198,160.09398,125.06784,-35.025196,STD
521016894000,2.714519,-5.54601383941943,-7.95624066471714,0.0179193539026225,-0.03848451,0.0143553335,0.016493361,160.06435,125.05826,-35.014942,STD
521021852000,2.719477,-5.54935342408175,-7.95978709277364,0.0212632793024027,-0.03390302,0.008552114,0.021380283,160.02812,125.048546,-35.00458,STD
521026880000,2.724505,-5.56265144959956,-7.96421972166068,0.0567247052145816,-0.04337143,0.0106901415,0.01038471,159.99657,125.035385,-34.99059,STD
521033056000,2.730681,-5.57036500129032,-7.95956191612903,0.0828548247096774,-0.037873644,0.010995574,0.016187929,159.96634,125.02565,-34.98087,STD
521036879000,2.734504,-5.56398109124673,-7.94360197436792,0.0764708446721883,-0.03756821,0.010995574,0.020158553,159.93694,125.01306,-34.968113,STD
521041897000,2.739522,-5.55560168748038,-7.9226532462075,0.0680913490331299,-0.03726278,0.0106901415,0.01863139,159.90129,125.003075,-34.958324,STD
521046873000,2.744498,-5.55864717855384,-7.92616785343809,0.0649880371810659,-0.03756821,0.01038471,0.016798794,159.86607,124.99461,-34.950058,STD
521051856000,2.749481,-5.56334826180672,-7.93321957649493,0.0626374685558073,-0.03604105,0.014966198,0.017715093,159.83289,124.98692,-34.94257,STD
521056879000,2.754504,-5.56808708203133,-7.94032790579746,0.0602680312279578,-0.0290161,0.016493361,0.022296581,159.79376,124.97757,-34.933918,STD
521061836000,2.759461,-5.57276363625259,-7.9473428347946,0.0579297272593833,-0.03756821,0.024129177,0.013439035,159.7588,124.96533,-34.922092,STD
521066888000,2.764513,-5.57499373623092,-7.95133421294603,0.0652150247201623,-0.044898596,0.014660766,0.016798794,159.72444,124.96227,-34.919743,STD
521071809000,2.769434,-5.57656090887566,-7.95446860732932,0.0746182635096937,-0.03940081,0.010079277,0.01985312,159.69476,124.95688,-34.914993,STD
521077083000,2.774708,-5.57824050012304,-7.95782784243956,0.0846960284712846,-0.042455133,0.008552114,0.018020526,159.66391,124.951454,-34.910015,STD
521081817000,2.779442,-5.57974811957035,-7.9608431285624,0.0937419403651358,-0.03756821,0.017104227,0.01740966,159.63545,124.94738,-34.906498,STD
521086884000,2.784509,-5.58136178829437,-7.96407051656081,0.10342416165076,-0.028710667,0.01863139,0.014049901,159.60643,124.945114,-34.90568,STD
521091839000,2.789464,-5.58293978879319,-7.96722656699145,0.112892368966779,-0.033292156,0.011911872,0.017104227,159.57813,124.94476,-34.9066,STD
521096906000,2.794531,-5.57593176680713,-7.95321045690481,0.111248525048841,-0.030543262,0.01038471,0.019242255,159.56001,124.94864,-34.91186,STD
521101914000,2.799539,-5.56674576535147,-7.93483835807317,0.10665547636085,-0.04428773,0.0106901415,0.020463986,159.54065,124.95329,-34.917625,STD
521106972000,2.804597,-5.55420986555725,-7.93290085396539,0.108649768474705,-0.029626964,0.020463986,0.014660766,159.52893,124.96275,-34.928844,STD
521112014000,2.809639,-5.54043469579688,-7.93749249730886,0.113241459764169,-0.026572637,0.012217305,0.013133603,159.51143,124.97374,-34.941345,STD
521116978000,2.814603,-5.53389993160264,-7.94365498319828,0.110439378080232,-0.027794369,0.015882496,0.01740966,159.50116,124.984116,-34.95313,STD
521121963000,2.819588,-5.53151200888355,-7.95081887603041,0.10327545532613,-0.032375857,0.01863139,0.01740966,159.48804,124.99257,-34.962963,STD
521126963000,2.824588,-5.52911690084034,-7.95800432521008,0.0960899761344538,-0.028405234,0.015577064,0.014660766,159.47284,124.99704,-34.969128,STD
521131985000,2.82961,-5.52671125432173,-7.96522139036615,0.0888728808343337,-0.028405234,0.02443461,0.0106901415,159.46323,125.00107,-34.97456,STD
521136975000,2.8346,-5.53182260337214,-7.97090566439181,0.0921964696427138,-0.03970624,0.022296581,0.0143553335,159.4492,125.00643,-34.98126,STD
521141999000,2.839624,-5.54148013914091,-7.97573453311923,0.101854015495785,-0.030848695,0.015577064,0.015577064,159.43704,125.00962,-34.985878,STD
521147018000,2.844643,-5.55108206492679,-7.98053550055782,0.114511483771292,-0.028710667,0.010079277,0.017715093,159.42863,125.01193,-34.989292,STD
521152055000,2.84968,-5.56069225351131,-7.98534054467576,0.128926776682937,-0.027183503,0.019547688,0.015271631,159.42348,125.0131,-34.991524,STD
521156937000,2.854562,-5.55830050010849,-7.98996874994575,0.131163247013512,-0.03390302,0.015882496,0.012217305,159.41016,125.01564,-34.995174,STD
521161929000,2.859554,-5.54887010547391,-7.99468394726304,0.12644804477266,-0.03604105,0.014049901,0.015577064,159.4012,125.01913,-34.9997,STD
521166941000,2.864566,-5.54588950465222,-7.99295955811699,0.121743031094151,-0.034513887,0.0125227375,0.016187929,159.39584,125.02721,-35.00879,STD
521171940000,2.869565,-5.54744703679485,-7.98672955965255,0.117070528017373,-0.03023783,0.014660766,0.020463986,159.39143,125.03696,-35.019485,STD
521176909000,2.874534,-5.5489952218752,-7.98053694865639,0.112426065567181,-0.03726278,0.02076942,0.017715093,159.39023,125.04281,-35.02611,STD
521181979000,2.879604,-5.55057487539853,-7.97421846651701,0.107687199674149,-0.04642576,0.013439035,0.017104227,159.38533,125.050156,-35.034267,STD
521186933000,2.884558,-5.55211838694775,-7.96804454925499,0.10305675753725,-0.035430185,0.014660766,0.013744468,159.38567,125.05553,-35.040424,STD
521191959000,2.889584,-5.55368433144642,-7.9617809020691,0.098359017896545,-0.045814894,0.019242255,0.01985312,159.38486,125.06341,-35.04884,STD
521196932000,2.894557,-5.55247411402991,-7.95417861467926,0.0853988437685951,-0.040927973,0.016493361,0.016187929,159.37903,125.065,-35.051163,STD
521201946000,2.899571,-5.54774968683589,-7.94472995761511,0.061777185322314,-0.03176499,0.0106901415,0.018325957,159.37405,125.06995,-35.05673,STD
521206907000,2.904532,-5.54313183573542,-7.94285095171328,0.0552405408036652,-0.038789943,0.008552114,0.016798794,159.36937,125.074905,-35.062157,STD
521211933000,2.909558,-5.53853758146416,-7.95203926836881,0.0736171875468168,-0.04184427,0.01038471,0.016493361,159.36417,125.08062,-35.068413,STD
521217175000,2.9148,-5.5323652699351,-7.95378317327662,0.0907344056990002,-0.033292156,0.015577064,0.016493361,159.36548,125.08876,-35.07723,STD
521221937000,2.919562,-5.52436592852131,-7.94178407762673,0.102733551466409,-0.039095376,0.009162978,0.019547688,159.3635,125.09754,-35.08658,STD
521227179000,2.924804,-5.51664861641069,-7.93041202856091,0.115737713673469,-0.03604105,0.013744468,0.020463986,159.36613,125.104034,-35.093693,STD
521233450000,2.931075,-5.52296632236482,-7.94304737450032,0.12837313877551,-0.040927973,0.015882496,0.019242255,159.3657,125.11062,-35.100826,STD
521236932000,2.934557,-5.52522073744864,-7.94815283744864,0.135268625725753,-0.04886922,0.0125227375,0.021380283,159.37102,125.12438,-35.11515,STD
521241958000,2.939583,-5.52062131109412,-7.94355341109412,0.144467483237458,-0.042760566,0.020463986,0.014966198,159.38103,125.13475,-35.126045,STD
521247061000,2.944686,-5.51593327740428,-7.94070934506956,0.152614251651264,-0.042760566,0.011301007,0.014660766,159.38277,125.14696,-35.138767,STD
521251948000,2.949573,-5.51118047510917,-7.96447385283843,0.143108443580786,-0.037873644,0.013744468,0.018936822,159.39136,125.15811,-35.150402,STD
521256962000,2.954587,-5.50631326358507,-7.98810888360883,0.134426029090369,-0.03848451,0.014966198,0.016493361,159.38675,125.16069,-35.153507,STD
521261920000,2.959545,-5.50161339562506,-8.00220814396714,0.139125798901316,-0.047036625,0.0143553335,0.02107485,159.38266,125.16632,-35.15962,STD
521267076000,2.964701,-5.49915546570295,-8.01371854509637,0.1433073569161,-0.044898596,0.0125227375,0.016493361,159.38058,125.163315,-35.156982,STD
521271936000,2.969561,-5.52554061876417,-7.98733352979025,0.138909846712018,-0.038179077,0.01740966,0.020463986,159.38087,125.16403,-35.15801,STD
521276893000,2.974518,-5.55245238907785,-7.9604218999811,0.134424567271353,-0.04886922,0.0021380284,0.023518313,159.37465,125.16131,-35.155594,STD
521281983000,2.979608,-5.53758818733176,-7.96256618675765,0.121355498053647,-0.04520403,0.004276057,0.01863139,159.3764,125.15733,-35.151936,STD
521286925000,2.98455,-5.51977028890353,-7.96702059159529,0.107992134699294,-0.046731193,0.013439035,0.016493361,159.3755,125.155106,-35.14995,STD
521291962000,2.989587,-5.51824238502112,-7.96590123588132,0.115353811376326,-0.041233405,0.02076942,0.021380283,159.36998,125.15999,-35.155117,STD
521296934000,2.994559,-5.52069504030081,-7.96344860621201,0.127617095457917,-0.038179077,0.017715093,0.020463986,159.36417,125.162506,-35.157887,STD
521301942000,2.999567,-5.52316545414649,-7.96097821816215,0.139969172425054,-0.04062254,0.014049901,0.019242255,159.36534,125.16289,-35.15845,STD
521306869000,3.004494,-5.52559591121871,-7.95854778646853,0.152121465399712,-0.043982297,0.009162978,0.019547688,159.36511,125.163345,-35.159107,STD
521311928000,3.009553,-5.52724827204252,-7.96118811879173,0.15322891,-0.03970624,0.017715093,0.02076942,159.37347,125.16724,-35.163147,STD
521316952000,3.014577,-5.52880764322292,-7.96430694256822,0.15322891,-0.0421497,0.019242255,0.021991149,159.37767,125.17107,-35.16711,STD
521321939000,3.019564,-5.53035553018085,-7.96740279730019,0.15322891,-0.036651913,0.024129177,0.019242255,159.38182,125.17534,-35.17157,STD
521326947000,3.024572,-5.53190993521099,-7.97051168851689,0.15322891,-0.048563786,0.01863139,0.014049901,159.38284,125.17909,-35.17545,STD
521331962000,3.029587,-5.53346651293187,-7.9736249252285,0.15322891,-0.03359759,0.013133603,0.019242255,159.39049,125.1875,-35.184002,STD
521336942000,3.034567,-5.53501222719907,-7.97671643446555,0.15322891,-0.032986723,0.01160644,0.018020526,159.39738,125.19243,-35.18896,STD
521341986000,3.039611,-5.52486693496013,-7.96695275175329,0.163756128933615,-0.03634648,0.014049901,0.012217305,159.40367,125.19718,-35.193798,STD
521346960000,3.044585,-5.51113814064752,-7.95322371851282,0.177485123945624,-0.03940081,0.013744468,0.010995574,159.4084,125.20262,-35.199326,STD
521351939000,3.049564,-5.50181345425842,-7.95036633732529,0.180342490986425,-0.03634648,0.010995574,0.018325957,159.42126,125.21355,-35.210262,STD
521356941000,3.054566,-5.49458819225742,-7.95277474122675,0.177934084570136,-0.042455133,0.010995574,0.013744468,159.43466,125.22037,-35.217037,STD
521361923000,3.059548,-5.48739181974862,-7.95517351536451,0.175535307927602,-0.03481932,0.017104227,0.017715093,159.44754,125.23092,-35.22762,STD
521367023000,3.064648,-5.4800249992358,-7.9576291051081,0.17307971561991,-0.042455133,0.006414085,0.01863139,159.45425,125.239,-35.235703,STD
521371938000,3.069563,-5.48278314878037,-7.9567097283266,0.165916229930376,-0.04550946,0.0036651916,0.015882496,159.46565,125.246704,-35.24342,STD
521376918000,3.074543,-5.48974932960709,-7.9543876842154,0.156628048636253,-0.035124753,0.01038471,0.017104227,159.47641,125.25542,-35.252167,STD
521381966000,3.079591,-5.49681063097522,-7.95203393347777,0.147213040770242,-0.039095376,0.0125227375,0.009468411,159.48299,125.255356,-35.252117,STD
521386940000,3.084565,-5.50376841881299,-7.94971468701008,0.137936050055991,-0.04153884,0.007330383,0.014049901,159.48929,125.258896,-35.255726,STD
521391996000,3.089621,-5.50387078628638,-7.95433578159797,0.131282141701504,-0.04337143,0.007330383,0.010079277,159.491702415579,125.257535679649,-35.2543681978285,STD
521396979000,3.094604,-5.49920950566517,-7.96365809948232,0.126620953556359,-0.042760566,0.0033597588,0.0125227375,159.49408,125.256195,-35.25303,STD
521402573000,3.100198,-5.50603078616234,-7.96492176907593,0.10959216852261,-0.03176499,0.011911872,0.012217305,159.50137,125.25508,-35.251934,STD
521406933000,3.104558,-5.51775857794214,-7.96101254596948,0.0900458341943638,-0.03634648,0.01282817,0.015577064,159.50067,125.25356,-35.250397,STD
521411921000,3.109546,-5.52378706947637,-7.96441729157088,0.0806751171673052,-0.03756821,0.011911872,0.014966198,159.50468,125.24983,-35.246708,STD
521416944000,3.114569,-5.51866741575138,-7.97977625274585,0.0909144299631758,-0.04642576,0.0021380284,0.014049901,159.50587,125.247116,-35.244007,STD
521421939000,3.119564,-5.51748929090184,-7.98081324549082,0.0982654478898643,-0.0421497,0.007330383,0.01160644,159.5133,125.245804,-35.242672,STD
521426942000,3.124567,-5.51987919166002,-7.96886374169992,0.103045253399042,-0.03573562,0.014049901,0.01863139,159.51765,125.24696,-35.24381,STD
521432957000,3.130582,-5.52275251827614,-7.95449710861931,0.108791911431764,-0.036957346,0.0125227375,0.01160644,159.52463,125.24364,-35.240425,STD
521437003000,3.134628,-5.52468526632083,-7.94483336839585,0.1126574107502,-0.035430185,0.009773844,0.018936822,159.5334,125.24629,-35.243053,STD
521441943000,3.139568,-5.52703190096225,-7.94038722632618,0.11492168,-0.03634648,0.01160644,0.02076942,159.54303,125.24533,-35.24203,STD
521446982000,3.144607,-5.5294131734715,-7.94276854856649,0.11492168,-0.030848695,0.012217305,0.017104227,159.5511,125.24476,-35.241447,STD
521451991000,3.149616,-5.53178026892672,-7.9451356934567,0.11492168,-0.03726278,0.007330383,0.014966198,159.55399,125.24817,-35.244827,STD
521456934000,3.154559,-5.53411617486306,-7.94747164817666,0.11492168,-0.044898596,0.0125227375,0.014966198,159.56047,125.25096,-35.24759,STD
521461924000,3.159549,-5.53103774963685,-7.94657135207442,0.1105653805098,-0.043066,0.010079277,0.014049901,159.54935,125.2431,-35.23976,STD
521466950000,3.164575,-5.52146009682619,-7.94178247566411,0.100987619688389,-0.035124753,0.013439035,0.018936822,159.54219,125.23718,-35.233852,STD
521471906000,3.169531,-5.51415069723398,-7.9433525928241,0.104127857504479,-0.034513887,0.0061086523,0.020158553,159.52975,125.23006,-35.22675,STD
521476917000,3.174542,-5.50942697023329,-7.95280024412836,0.123023177870263,-0.03726278,0.009468411,0.013439035,159.52235,125.22225,-35.218956,STD
521481908000,3.179533,-5.5060139630972,-7.95897631654036,0.130825180645799,-0.043066,-0.0021380284,0.02076942,159.50417,125.21419,-35.210934,STD
521486926000,3.184551,-5.50443052369028,-7.96055970634596,0.12290814233542,-0.035124753,0.004276057,0.015882496,159.49364,125.2011,-35.19788,STD
521491906000,3.189531,-5.50285907525535,-7.96213110555519,0.115051057683031,-0.049785517,0.0061086523,0.011301007,159.47641,125.18946,-35.186237,STD
521496940000,3.194565,-5.50127058701812,-7.96371954403295,0.107108775727183,-0.040011674,0.011911872,0.01985312,159.46313,125.180504,-35.177372,STD
521501864000,3.199489,-5.49971680948929,-7.96527327288962,0.0993400438339374,-0.042455133,0.010079277,0.01863139,159.448,125.168,-35.16488,STD
521506941000,3.204566,-5.49811475252059,-7.96687527967381,0.0913299195808896,-0.043066,0.007330383,0.015882496,159.43483,125.15784,-35.15475,STD
521511879000,3.209504,-5.50483863751926,-7.96325203367681,0.0970435606211479,-0.035124753,0.010079277,0.018325957,159.41722,125.14651,-35.143673,STD
521516948000,3.214573,-5.52821344453005,-7.94922719828582,0.129768314843991,-0.050701816,0.008246681,0.014660766,159.39754,125.133194,-35.130527,STD
521521874000,3.219499,-5.54619524893638,-7.94162114673988,0.145883563900069,-0.046120327,0.0125227375,0.01863139,159.38565,125.1216,-35.119114,STD
521526957000,3.224582,-5.55101170198872,-7.95125385167706,0.116985425954289,-0.04795292,-0.00030543262,0.016798794,159.36751,125.10785,-35.105503,STD
521531974000,3.229599,-5.5557641940505,-7.95711009324999,0.0982004797859367,-0.047036625,0.00580322,0.020158553,159.34692,125.10002,-35.097824,STD
521537024000,3.234649,-5.56054378934625,-7.95233044804566,0.107759779178139,-0.04550946,0.0030543262,0.0106901415,159.31924,125.088425,-35.086403,STD
521541912000,3.239537,-5.56517005901072,-7.94770413007363,0.117012423817562,-0.03756821,-0.0009162979,0.0070249503,159.3035,125.083664,-35.081795,STD
521546951000,3.244576,-5.56993924330681,-7.94293489597766,0.126550900973464,-0.04153884,0.011301007,0.021991149,159.2928,125.0818,-35.080032,STD
521551947000,3.249572,-5.57078523155383,-7.9343124294065,0.132131185672532,-0.04153884,0.007330383,0.015882496,159.2754,125.07312,-35.071495,STD
521556955000,3.25458,-5.55648143960632,-7.91047282594691,0.12259531441694,-0.03940081,-0.00030543262,0.017104227,159.2613,125.07094,-35.069443,STD
521561907000,3.259532,-5.54582338050005,-7.8925673618496,0.115347870695048,-0.0421497,0.0125227375,0.018936822,159.24883,125.06989,-35.068504,STD
521566954000,3.264579,-5.55048928547157,-7.89956617058596,0.117680825616855,-0.04520403,0.009468411,0.020158553,159.22849,125.06914,-35.06789,STD
521571936000,3.269561,-5.55509509854233,-7.90647484209866,0.119983734556907,-0.043066,0.011301007,0.01740966,159.21284,125.06475,-35.063522,STD
521576912000,3.274537,-5.5596953646684,-7.91337519325224,0.12228387002172,-0.04184427,0.002443461,0.017104227,159.1926,125.06163,-35.060436,STD
521582074000,3.279699,-5.56338462440904,-7.92075897945434,0.124128501818182,-0.04550946,0.01160644,0.019242255,159.17949,125.058655,-35.057453,STD
521586943000,3.284568,-5.55367319273144,-7.93047046183484,0.119272780909091,-0.03634648,0.010079277,0.014966198,159.15977,125.053955,-35.05281,STD
521591969000,3.289594,-5.54184135764984,-7.94105047887421,0.11617353824724,-0.037873644,0.005192355,0.015882496,159.1417,125.051575,-35.050457,STD
521596960000,3.294585,-5.51828171214511,-7.95518621697555,0.125597406289432,-0.04153884,0.007941248,0.014660766,159.12598,125.04756,-35.04648,STD
521601905000,3.29953,-5.49861860676626,-7.96752010030756,0.131777876016696,-0.039095376,0.0012217305,0.018936822,159.10936,125.0453,-35.04432,STD
521606937000,3.304562,-5.51555716775044,-7.96328548217047,0.106369881546397,-0.038179077,0.011911872,0.019547688,159.10014,125.041794,-35.040867,STD
521611927000,3.309552,-5.53235434964851,-7.95908620862039,0.0811739569822496,-0.040011674,0.021380283,0.015271631,159.09088,125.03388,-35.033028,STD
521616944000,3.314569,-5.53978003784927,-7.96271220045642,0.0722285059140599,-0.03359759,0.017715093,0.016493361,159.08116,125.02792,-35.027157,STD
521622200000,3.319825,-5.54468322152341,-7.9684785479385,0.0684765132354997,-0.03940081,0.0009162979,0.017104227,159.07031,125.02082,-35.020107,STD
521626921000,3.324546,-5.54117262155447,-7.97549963790667,0.0860291575114528,-0.034208454,0.0033597588,0.02107485,159.06383,125.01694,-35.016327,STD
521633437000,3.331062,-5.53632723511142,-7.98519025901079,0.110255598964982,-0.039095376,0.0033597588,0.016798794,159.05147,125.011185,-35.010662,STD
521636940000,3.334565,-5.53649278765917,-7.98870484133258,0.113822914369357,-0.03268129,0.003970624,0.014966198,159.04053,125.007385,-35.006954,STD
521641937000,3.339562,-5.53893524403501,-7.9923684366346,0.111380506959961,-0.030848695,-0.00061086525,0.014966198,159.02808,125.00307,-35.002712,STD
521647022000,3.344647,-5.54142071345089,-7.99609654992472,0.108895087372853,-0.03481932,0.006414085,0.013744468,159.03207,125.00691,-35.006607,STD
521651966000,3.349591,-5.54383726424579,-7.99972128780208,0.106478585025034,-0.031154128,0.01038471,0.013744468,159.03352,125.010895,-35.01065,STD
521656936000,3.354561,-5.5462665234389,-8.00336508781228,0.104049374533799,-0.034513887,0.007941248,0.018936822,159.04324,125.02154,-35.021324,STD
521661924000,3.359549,-5.54870458075382,-8.0070220846837,0.101611366097124,-0.04153884,0.006414085,0.015882496,159.05455,125.029396,-35.029205,STD
521666942000,3.364567,-5.55115730160512,-8.01070107632378,0.0991586944180468,-0.040927973,0.020158553,0.015577064,159.0702,125.039085,-35.038914,STD
521671934000,3.369559,-5.55359731405823,-8.01436100583101,0.0967187308823845,-0.036957346,0.01160644,0.018325957,159.07738,125.048386,-35.048244,STD
521676917000,3.374542,-5.55997649418789,-8.00764420203377,0.0930537874301707,-0.02687807,0.013744468,0.019547688,159.0912,125.05548,-35.055347,STD
521681942000,3.379567,-5.5689554880306,-7.99417561751096,0.0885642417542681,-0.030543262,0.01160644,0.016493361,159.1004,125.06179,-35.061676,STD
521686905000,3.38453,-5.56494791626387,-7.97830326196514,0.0927563430962758,-0.040317107,0.007941248,0.014049901,159.11107,125.06801,-35.067913,STD
521691911000,3.389536,-5.54595357747623,-7.95930902234548,0.107002032727813,-0.03390302,0.008246681,0.020158553,159.12225,125.07549,-35.07541,STD
521696939000,3.394564,-5.53851810137557,-7.95083220887823,0.112838958508186,-0.029932396,0.015882496,0.018020526,159.13783,125.08498,-35.084885,STD
521701943000,3.399568,-5.54548157722561,-7.95547446955827,0.108196669713068,-0.03573562,0.0076358155,0.016493361,159.14769,125.09592,-35.095818,STD
521706894000,3.404519,-5.55237129923472,-7.96006756161,0.103603549844038,-0.028099801,0.0027488936,0.016493361,159.15976,125.10571,-35.105618,STD
521711924000,3.409549,-5.55937095621428,-7.9647339427492,0.0989371404436695,-0.033292156,0.0061086523,0.012217305,159.1716,125.113464,-35.113365,STD
521716876000,3.414501,-5.5648594368868,-7.96863785223299,0.096502902114497,-0.03390302,0.0143553335,0.015577064,159.18326,125.12302,-35.122925,STD
521721935000,3.41956,-5.56727971020082,-7.97105817609152,0.0989231794720751,-0.031154128,0.016187929,0.024129177,159.19366,125.13251,-35.13242,STD
521727545000,3.42517,-5.5699635871116,-7.97374210905185,0.10160706086682,-0.032986723,0.01282817,0.014049901,159.20532,125.138115,-35.138023,STD
521732046000,3.429671,-5.57211690796283,-7.97589547487261,0.103760385315616,-0.03481932,0.007330383,0.01282817,159.21658,125.14825,-35.148155,STD
521736871000,3.434496,-5.56937180884462,-7.97603677280877,0.103901680537052,-0.03756821,0.008552114,0.0125227375,159.22879,125.155426,-35.155323,STD
521742014000,3.439639,-5.55465463282869,-7.97113094501992,0.0989959470023904,-0.03481932,0.004886922,0.008857546,159.23714,125.16098,-35.16088,STD
521746947000,3.444572,-5.54351945665362,-7.96499998909002,0.0914135227782779,-0.029626964,0.015577064,0.014966198,159.25653,125.17471,-35.17462,STD
521751983000,3.449608,-5.53880030088063,-7.95556192392368,0.0772563442162427,-0.027794369,0.011911872,0.011911872,159.26938,125.184296,-35.184216,STD
521756907000,3.454532,-5.53479181270306,-7.94814730012684,0.067639850124689,-0.040927973,0.0106901415,0.021380283,159.29207,125.199646,-35.199554,STD
521762049000,3.459674,-5.53238960395141,-7.94574504120689,0.0700421100480023,-0.032375857,0.013439035,0.016187929,159.31453,125.20935,-35.209267,STD
521766919000,3.464544,-5.53011446653007,-7.94346985627104,0.0723172959341431,-0.033292156,0.017104227,0.0106901415,159.33817,125.221115,-35.221024,STD
521771938000,3.469563,-5.52776972018147,-7.94112506095419,0.0746620922303527,-0.03604105,0.016187929,0.012217305,159.36078,125.23285,-35.23275,STD
521776920000,3.474545,-5.5250781737768,-7.93843348149572,0.0780929072183024,-0.03634648,0.011301007,0.015271631,159.3828,125.24411,-35.24402,STD
521781986000,3.479611,-5.52041451244833,-7.93376986886475,0.0874202347449774,-0.03604105,0.009468411,0.01740966,159.40526,125.255005,-35.25492,STD
521786930000,3.484555,-5.51768138836804,-7.93067658187322,0.0954078686381066,-0.024129177,0.011301007,0.014966198,159.4433,125.27658,-35.2765,STD
521791944000,3.489569,-5.53530117587377,-7.94389130751307,0.0910029429197321,-0.024129177,0.019242255,0.010079277,159.4822,125.29707,-35.296993,STD
521796964000,3.494589,-5.55294204808733,-7.95712184654619,0.0865927460497202,-0.03176499,0.02107485,0.020463986,159.51788,125.32025,-35.32017,STD
521801946000,3.499571,-5.54860942776388,-7.95981091980541,0.0921298058820103,-0.03756821,0.022602014,0.011301007,159.55566,125.335526,-35.335445,STD
521806941000,3.504566,-5.5420540314502,-7.96144974321491,0.0986851731042516,-0.029932396,0.015882496,0.01985312,159.59056,125.3579,-35.357822,STD
521811933000,3.509558,-5.53550257231149,-7.96308758234609,0.105236603169002,-0.031154128,0.018020526,0.017104227,159.62811,125.37468,-35.374588,STD
521816959000,3.514584,-5.52890649185652,-7.96473657663161,0.111832654351982,-0.033292156,0.018020526,0.01282817,159.66301,125.39342,-35.393322,STD
521821944000,3.519569,-5.52236421945938,-7.96637211911336,0.11837489771592,-0.027183503,0.019242255,0.012217305,159.69849,125.411514,-35.411427,STD
521826988000,3.524613,-5.51589386103448,-7.96755625741379,0.125191982775862,-0.031154128,0.024740042,0.018936822,159.73491,125.42967,-35.429577,STD
521833465000,3.53109,-5.50995251637931,-7.96161485071839,0.137074926451149,-0.038179077,0.01985312,0.0143553335,159.76756,125.44362,-35.443523,STD
521837258000,3.534883,-5.50648099439596,-7.95850929987138,0.143103094271015,-0.034208454,0.015271631,0.0125227375,159.79965,125.45507,-35.45497,STD
521841946000,3.539571,-5.50235632962793,-7.96263383543408,0.130729349763895,-0.03390302,0.015882496,0.02107485,159.83136,125.46759,-35.467487,STD
521846994000,3.544619,-5.49791492439136,-7.96707510154341,0.117405403033532,-0.040927973,0.014049901,0.018325957,159.8566,125.473526,-35.473415,STD
521851944000,3.549569,-5.50099300154639,-7.9666010130799,0.11492168,-0.037873644,0.018936822,0.018020526,159.88403,125.482086,-35.48198,STD
521856905000,3.55453,-5.50582654449267,-7.9649898489216,0.11492168,-0.03023783,0.013744468,0.01282817,159.90689,125.488014,-35.487904,STD
521861931000,3.559556,-5.51072341747151,-7.96335757497287,0.11492168,-0.03145956,0.014660766,0.016798794,159.93607,125.49469,-35.494568,STD
521867312000,3.564937,-5.51596616985893,-7.96161000909183,0.11492168,-0.03604105,0.008552114,0.019242255,159.96059,125.499084,-35.49896,STD
521871935000,3.56956,-5.52047039663592,-7.96010861584373,0.11492168,-0.034513887,0.008552114,0.025350908,159.97919,125.50069,-35.50059,STD
521876890000,3.574515,-5.52529809373304,-7.95849940028147,0.11492168,-0.034208454,0.0143553335,0.018020526,159.99759,125.498955,-35.49887,STD
521881962000,3.579587,-5.50848858909707,-7.96699070545147,0.110589499892366,-0.033292156,0.02107485,0.021685716,160.0162,125.50188,-35.50181,STD
521886874000,3.584499,-5.48973575385689,-7.97636712307156,0.105901315559099,-0.04062254,0.015577064,0.019547688,160.03242,125.500854,-35.500797,STD
521891917000,3.589542,-5.49385977581764,-7.9690136690783,0.118044352071358,-0.03481932,0.015271631,0.01863139,160.0497,125.50253,-35.502483,STD
521896949000,3.594574,-5.50102391750248,-7.95946152172448,0.132372545672944,-0.041233405,0.010995574,0.016798794,160.0635,125.50314,-35.503098,STD
521901976000,3.599601,-5.50818094060456,-7.94991886577304,0.146686502198216,-0.035430185,0.01740966,0.02321288,160.0844,125.502106,-35.502075,STD
521906869000,3.604494,-5.5151471856888,-7.94063057940535,0.160618905078295,-0.038179077,0.008857546,0.017104227,160.0984,125.49692,-35.496883,STD
521911928000,3.609553,-5.5202106559173,-7.94711281183461,0.158835659937204,-0.03023783,0.01160644,0.018325957,160.12006,125.4959,-35.495876,STD
521916917000,3.614542,-5.52482650512994,-7.95634451025988,0.154219805904744,-0.03634648,0.0033597588,0.017104227,160.13466,125.49237,-35.492344,STD
521921936000,3.619561,-5.52956366766411,-7.96019941427298,0.149482640379985,-0.02565634,0.0021380284,0.015271631,160.14102,125.49154,-35.491528,STD
521926935000,3.62456,-5.53430723201387,-7.96257117168194,0.144739073553629,-0.027183503,0.0106901415,0.015271631,160.14807,125.49079,-35.49079,STD
521931963000,3.629588,-5.5390783145405,-7.96495668803567,0.139967988536042,-0.024740042,0.012217305,0.020463986,160.15912,125.49243,-35.492428,STD
521937036000,3.634661,-5.5438920976864,-7.9673635544761,0.135154202876889,-0.037873644,0.0106901415,0.016493361,160.17192,125.491295,-35.491295,STD
521941923000,3.639548,-5.54331201302661,-7.97122092197894,0.139052160449002,-0.03268129,0.01160644,0.014049901,160.18365,125.49082,-35.49082,STD
521947029000,3.644654,-5.54105313636364,-7.97573860454545,0.145828653636364,-0.026572637,0.016493361,0.014966198,160.1961,125.49008,-35.490078,STD
521952014000,3.649639,-5.53884778968034,-7.98014922882945,0.152444560126571,-0.029626964,0.01740966,0.011911872,160.208,125.48809,-35.48809,STD
521956933000,3.654558,-5.53667164116778,-7.98450145768662,0.158972873872875,-0.039095376,0.0143553335,0.016493361,160.22006,125.48844,-35.488445,STD
521961924000,3.659549,-5.53433535882044,-7.98599804776598,0.163864383288478,-0.034513887,0.01282817,0.018325957,160.23286,125.48706,-35.487057,STD
521966940000,3.664565,-5.53181032593566,-7.98347298851451,0.166389468906644,-0.034513887,0.009468411,0.015882496,160.24377,125.48567,-35.48567,STD
521971931000,3.669556,-5.52929787794365,-7.98096051428722,0.168901969369218,-0.028099801,0.0070249503,0.013439035,160.23775,125.47061,-35.47061,STD
521976914000,3.674539,-5.52678945711733,-7.97845206726766,0.171410442582002,-0.03390302,0.004886922,0.014966198,160.2308,125.45648,-35.456486,STD
521982014000,3.679639,-5.52294888589792,-7.97461142599244,0.166645488800567,-0.032986723,0.004581489,0.013133603,160.22386,54.55882,-35.44118,STD
521986939000,3.684564,-5.51849087644612,-7.97015332344045,0.157729465241966,-0.03481932,0.013439035,0.025045475,160.21956,125.430725,-35.430725,STD
521991934000,3.689559,-5.52337062706231,-7.97027972532146,0.150852231830861,-0.035124753,0.00580322,0.01038471,160.20908,54.587505,-35.412495,STD
521996944000,3.694569,-5.53760794694362,-7.97502559772502,0.146106453581602,-0.03023783,0.0070249503,0.015577064,160.20491,54.59629,-35.40371,STD
522001935000,3.69956,-5.53843703240785,-7.97530196531792,0.150186072140624,-0.03390302,0.009162978,0.023823744,160.19856,54.609688,-35.390312,STD
522006938000,3.704563,-5.5248164324647,-7.97076167052023,0.163806681565432,-0.036957346,0.009773844,0.016798794,160.19226,125.3745,-35.374496,STD
522011913000,3.709538,-5.52160788221926,-7.96253573646228,0.168804329985669,-0.03848451,0.012217305,0.017715093,160.18393,54.636143,-35.363857,STD
522016939000,3.714564,-5.53638923040229,-7.94775443972771,0.158950092718804,-0.043982297,0.014660766,0.018325957,160.17603,54.64844,-35.35156,STD
522021906000,3.719531,-5.54143184169898,-7.93740313932726,0.147920168852917,-0.036651913,0.013744468,0.016798794,160.16733,54.661903,-35.338097,STD
522026938000,3.724563,-5.53274026308955,-7.93305739540085,0.134882791863108,-0.03756821,0.015271631,0.019242255,160.16052,54.67363,-35.32637,STD
522033613000,3.731238,-5.52867975483582,-7.9439080730696,0.127360907602824,-0.040011674,0.01740966,0.021991149,160.15628,54.6801,-35.3199,STD
522036893000,3.734518,-5.53220001125182,-7.96150972273899,0.130881241212597,-0.042760566,0.01863139,0.013744468,160.1523,54.688793,-35.311207,STD
522041911000,3.739536,-5.53475298589832,-7.97619793832891,0.1340753,-0.035124753,0.01740966,0.02076942,160.1508,125.30681,-35.306812,STD
522046909000,3.744534,-5.53318403953191,-7.97305996368047,0.1340753,-0.042455133,0.01160644,0.021991149,160.14812,125.29867,-35.298664,STD
522051880000,3.749505,-5.53162356886616,-7.96993894087586,0.1340753,-0.03848451,0.01740966,0.018936822,160.1498,125.28996,-35.28996,STD
522056907000,3.754532,-5.53004551896942,-7.96678275869145,0.1340753,-0.039095376,0.013133603,0.020463986,160.14592,125.28316,-35.283157,STD
522061877000,3.759502,-5.52848536221851,-7.96366236373291,0.1340753,-0.040927973,0.019547688,0.021991149,160.14783,125.275734,-35.275726,STD
522066913000,3.764538,-5.52690448708821,-7.96050053093388,0.1340753,-0.04153884,0.024740042,0.02107485,160.1478,125.26828,-35.26827,STD
522071897000,3.769522,-5.52293443895101,-7.95976778052449,0.135516795576447,-0.047036625,0.021380283,0.019547688,160.147,125.2613,-35.26128,STD
522076965000,3.77459,-5.51332835966353,-7.96457082016823,0.140319885373577,-0.04337143,0.011301007,0.020158553,160.14551,125.25485,-35.25483,STD
522081922000,3.779547,-5.5060280049311,-7.9685389950689,0.1436521,-0.045814894,0.0106901415,0.018936822,160.14949,125.24869,-35.248646,STD
522086980000,3.784605,-5.50379562251717,-7.97077137748283,0.1436521,-0.034208454,0.009773844,0.022296581,160.14955,125.244225,-35.24416,STD
522091934000,3.789559,-5.50160914120466,-7.97295785879534,0.1436521,-0.040927973,0.017104227,0.020463986,160.14598,125.2326,-35.232513,STD
522096957000,3.794582,-5.49939220627679,-7.97517479372321,0.1436521,-0.042760566,0.010995574,0.018936822,160.1375,125.22235,-35.222267,STD
522101863000,3.799488,-5.49722691008802,-7.97734008991198,0.1436521,-0.041233405,0.013439035,0.020158553,160.1382,125.21408,-35.21396,STD
522106857000,3.804482,-5.50416629407302,-7.97748,0.134213036307887,-0.034513887,0.022296581,0.01863139,160.13892,125.204895,-35.20474,STD
522111855000,3.80948,-5.51173146657183,-7.97748,0.124126134376482,-0.038179077,0.018936822,0.017104227,160.13611,125.19636,-35.196167,STD
522116855000,3.81448,-5.51929966635056,-7.97748,0.114035196069754,-0.04520403,0.012217305,0.020463986,160.13602,125.187965,-35.18773,STD
522122196000,3.819821,-5.52678676733496,-7.98038812224939,0.109222432342298,-0.040927973,0.016187929,0.018325957,160.13918,125.17912,-35.178864,STD
522126849000,3.824474,-5.53114470570171,-7.99346202836186,0.126654558959413,-0.043982297,0.019242255,0.021380283,160.1396,125.17297,-35.172684,STD
522131842000,3.829467,-5.53476827138559,-8.00621,0.142609203672159,-0.03756821,0.010079277,0.01985312,160.13802,125.16672,-35.1664,STD
522136858000,3.834483,-5.52788525662702,-8.00621,0.131137344065912,-0.038179077,0.010995574,0.018936822,160.1409,125.161674,-35.16131,STD
522141867000,3.839492,-5.52101184735158,-8.00621,0.119681493833118,-0.041233405,0.0061086523,0.02443461,160.13652,125.15778,-35.157402,STD
522146887000,3.844512,-5.51412334374552,-8.00621,0.108200486013469,-0.03604105,0.0070249503,0.02443461,160.13449,125.15224,-35.15184,STD
522151942000,3.849567,-5.50718681272389,-8.00621,0.0966394313265511,-0.03481932,0.015882496,0.02107485,160.13008,125.147964,-35.147644,STD
522156969000,3.854594,-5.49775226897001,-8.00398214866556,0.104679756877472,-0.051618114,0.0061086523,0.019547688,160.11977,125.14432,-35.144054,STD
522162281000,3.859906,-5.48756304916128,-8.00143493680837,0.114868933064544,-0.03756821,0.01282817,0.015882496,160.11859,125.13915,-35.138954,STD
522166940000,3.864565,-5.47862638216414,-7.99920085170998,0.123805561802414,-0.043982297,0.01038471,0.01282817,160.11581,125.13158,-35.13141,STD
522171908000,3.869533,-5.46909700640929,-7.99681859483751,0.133334896760503,-0.047036625,0.0076358155,0.015271631,160.11884,125.12724,-35.1271,STD
522176917000,3.874542,-5.48134766408451,-7.97931208122066,0.112423508438967,-0.04153884,0.008246681,0.021380283,160.1223,125.123184,-35.123066,STD
522181945000,3.87957,-5.49547681619718,-7.96047321173709,0.0888749019131455,-0.0421497,0.0018325958,0.015882496,160.12247,125.11661,-35.116516,STD
522186943000,3.884568,-5.50899297677468,-7.96229491748455,0.0901599205825061,-0.040927973,0.0033597588,0.01740966,160.12495,125.11203,-35.11197,STD
522192516000,3.890141,-5.52398778097022,-7.96729313335831,0.0951581907353437,-0.04337143,-0.0015271631,0.023518313,160.12317,125.107346,-35.107296,STD
522196958000,3.894583,-5.52191320390117,-7.9639988446684,0.0996722666215865,-0.04184427,0.008857546,0.02107485,160.12733,125.10507,-35.10505,STD
522201879000,3.899504,-5.51680619991331,-7.95889189400737,0.104779279141743,-0.04153884,0.007941248,0.017104227,160.126,125.10406,-35.10405,STD
522206935000,3.90456,-5.5162406,-7.96689281691454,0.109628140693536,-0.04795292,0.0018325958,0.019242255,160.12477,125.105576,-35.10558,STD
522211900000,3.909525,-5.5162406,-7.97632149270276,0.114342481048979,-0.04642576,0.011911872,0.022907447,160.12904,54.893654,-35.106346,STD
522216949000,3.914574,-5.5162406,-7.98590968687289,0.119136580637022,-0.05009095,0.0143553335,0.013744468,160.1282,54.896103,-35.103893,STD
522221869000,3.919494,-5.5162406,-7.99525290638509,0.123808192832144,-0.040317107,0.004276057,0.016187929,160.1266,54.894283,-35.1057,STD
522226915000,3.92454,-5.51292293453116,-7.98668026108928,0.131133962975856,-0.042455133,0.024740042,0.017715093,160.13725,54.89286,-35.1071,STD
522233478000,3.931103,-5.50788152715168,-7.97155567044999,0.141216993571028,-0.038179077,0.014049901,0.019242255,160.13371,54.89089,-35.109016,STD
522236938000,3.934563,-5.50860017910287,-7.97758409769247,0.137843437340953,-0.04886922,0.0070249503,0.02076942,160.1391,54.890316,-35.10954,STD
522242025000,3.93965,-5.51385316208756,-8.00384956113867,0.122084148302782,-0.050701816,0.01038471,0.024129177,160.14462,54.888905,-35.11087,STD
522246995000,3.94462,-5.52371567862177,-8.00831194739624,0.112429987126077,-0.05131268,0.011301007,0.018325957,160.14436,54.892197,-35.107548,STD
522251980000,3.949605,-5.53773496640564,-7.99429270840838,0.107756891198121,-0.052534413,0.009162978,0.015271631,160.14426,54.893757,-35.10596,STD
522256936000,3.954561,-5.5461074401454,-7.98592029545364,0.109890548024101,-0.036651913,0.0018325958,0.01740966,160.14598,54.897324,-35.102356,STD
522262089000,3.959714,-5.54856487869734,-7.98346293388109,0.11972010208545,-0.034208454,0.01038471,0.017104227,160.15257,54.902367,-35.097298,STD
522266905000,3.96453,-5.55086160372473,-7.98116628079872,0.128906815137934,-0.047036625,-0.0021380284,0.017715093,160.14084,54.90741,-35.092197,STD
522271948000,3.969573,-5.55326658385619,-7.97876137600339,0.138526539789862,-0.046731193,0.010079277,0.01740966,160.14102,54.91263,-35.08693,STD
522276930000,3.974555,-5.55049914396242,-7.97140682163581,0.145676487855761,-0.04550946,0.0067195175,0.017104227,160.13634,54.913567,-35.085915,STD
522281942000,3.979567,-5.54165693635443,-7.95814374104265,0.150097503948605,-0.049785517,0.0070249503,0.017715093,160.13736,54.914352,-35.08508,STD
522287006000,3.984631,-5.53683772957616,-7.94971197465897,0.15178518946895,-0.055588737,0.0061086523,0.02443461,160.13345,54.912075,-35.087288,STD
522291974000,3.989599,-5.54157514604534,-7.95287021383053,0.147047802680142,-0.047647487,0.007330383,0.016798794,160.1306,54.913754,-35.08552,STD
522296918000,3.994543,-5.54628967644462,-7.95601319580803,0.14233330181785,-0.04153884,0.0070249503,0.01740966,160.12068,54.91754,-35.08173,STD
522302022000,3.999647,-5.55115678064323,-7.95925789241263,0.137466228112118,-0.050701816,-0.00030543262,0.020463986,160.1089,54.92258,-35.076694,STD
522306865000,4.00449,-5.55577499883169,-7.96233666703176,0.132848038857247,-0.049480084,-0.002443461,0.02076942,160.09897,54.927975,-35.071285,STD
522311926000,4.009551,-5.56060109882173,-7.96555402783033,0.12802196910319,-0.037873644,0.007941248,0.020463986,160.091,54.932446,-35.0668,STD
522316877000,4.014502,-5.5641246,-7.967903,0.125102450301265,-0.043676864,0.01160644,0.016187929,160.08377,54.935295,-35.06397,STD
522321976000,4.019601,-5.5641246,-7.967903,0.127554356014762,-0.04428773,0.007941248,0.022296581,160.07764,54.935143,-35.06411,STD
522326915000,4.02454,-5.5641246,-7.967903,0.129929324110263,-0.04642576,0.008857546,0.023823744,160.07547,54.936676,-35.062603,STD
522332036000,4.029661,-5.5641246,-7.967903,0.132391808746234,-0.04642576,0.014966198,0.02443461,160.0738,54.936684,-35.06262,STD
522336926000,4.034551,-5.56292881634304,-7.97149043837648,0.130487871612729,-0.03940081,0.004886922,0.018325957,160.06677,54.93815,-35.061153,STD
522342002000,4.039627,-5.55855891148867,-7.98460047235707,0.117377874137001,-0.047036625,0.016493361,0.015271631,160.0694,54.93858,-35.060772,STD
522347036000,4.044661,-5.55419034676094,-7.99609702947767,0.105166056816213,-0.049785517,0.015271631,0.018020526,160.06987,54.93644,-35.063004,STD
522351950000,4.049575,-5.54950365871633,-7.98906711975303,0.102822757815864,-0.034208454,0.0125227375,0.0106901415,160.07358,54.938046,-35.061474,STD
522356924000,4.054549,-5.54475974615346,-7.98195137474481,0.10045084710611,-0.03634648,0.01038471,0.02076942,160.08028,54.936153,-35.06347,STD
522361975000,4.0596,-5.53994239545885,-7.97472547445601,0.0980422180359508,-0.040927973,0.020158553,0.020158553,160.08995,54.939312,-35.06039,STD
522367127000,4.064752,-5.53400884318353,-7.96894187665219,0.0954217728432779,-0.051618114,0.008246681,0.011911872,160.091,54.941772,-35.057987,STD
522371975000,4.0696,-5.51647557883308,-7.98209193934101,0.0910384320396526,-0.039095376,0.01282817,0.015577064,160.10092,54.940994,-35.05882,STD
522376954000,4.074579,-5.49846854021903,-7.99559733581949,0.0865366470022659,-0.03726278,0.0106901415,0.016187929,160.10461,54.943363,-35.0565,STD
522381981000,4.079606,-5.499171297662,-7.98829648346062,0.0820227495539521,-0.03756821,0.013133603,0.018325957,160.11125,54.944202,-35.055702,STD
522386872000,4.084497,-5.50136598008715,-7.97951793708944,0.0776334740767465,-0.047647487,0.015271631,0.019242255,160.1207,54.949158,-35.050785,STD
