timestamp,rel_time,acc_x,acc_y,acc_z,gyro_x,gyro_y,gyro_z,azimuth,pitch,roll,label
541167914000,0,4.58569180331213,8.86464796279428,-0.414935309514373,-0.089186326,-0.14996742,0.009468411,284.76843,-31.634615,10.422416,STD
541172911000,0.004997,4.59218403195845,8.85931507020345,-0.421659393266245,-0.08857546,-0.1600467,0.017104227,285.08582,-32.312263,10.655354,STD
541177899000,0.009985,4.59866456757739,8.85399178258226,-0.428371366400992,-0.07819075,-0.1695151,0.017104227,285.39874,-32.984135,10.880771,STD
541182917000,0.015003,4.60518407995426,8.84863647839559,-0.435123708259486,-0.08032878,-0.1731803,0.02076942,285.70496,-33.64437,11.106612,STD
541187895000,0.019981,4.61165162332056,8.84332386296289,-0.441822225152985,-0.06780604,-0.18570304,0.0125227375,286.01276,-34.304657,11.33236,STD
541192901000,0.024987,4.61815554499426,8.83798136540241,-0.44855841952198,-0.06627888,-0.18020524,0.020158553,286.3094,-34.952152,11.555402,STD
541197888000,0.029974,4.62463478138793,8.83265914500007,-0.455269047032603,-0.06078109,-0.15790866,0.015577064,286.60623,-35.597706,11.771452,STD
541202874000,0.03496,4.63111271855635,8.82733799181658,-0.461978328919101,-0.05131268,-0.14660765,0.032986723,286.89334,-36.234604,11.991196,STD
541207915000,0.040001,4.6376621131143,8.82195814159637,-0.468761620132466,-0.05467244,-0.13225232,0.034208454,287.1773,-36.8628,12.198988,STD
541212879000,0.044965,4.6441114673269,8.81666046722757,-0.475441298288217,-0.056199603,-0.1441642,0.026267206,287.45862,-37.48527,12.408923,STD
541217918000,0.050004,4.65065826343432,8.81128275144506,-0.482221898253332,-0.054061573,-0.15974127,0.021685716,287.73376,-38.099136,12.614566,STD
541222909000,0.054995,4.65714269672906,8.80595626216732,-0.488937908260455,-0.049480084,-0.16584991,0.018325957,288.0078,-38.70541,12.816818,STD
541227897000,0.059983,4.663623232348,8.80063297454613,-0.495649881395202,-0.047647487,-0.16401732,0.018325957,288.28067,-39.30318,13.017725,STD
541232951000,0.065037,4.67018951683439,8.79523925048088,-0.50245066572219,-0.048563786,-0.183565,0.007330383,288.55923,-39.894173,13.218998,STD
541237913000,0.069999,4.67663627259645,8.78994371054978,-0.509127652629692,-0.03848451,-0.19486602,-0.0021380284,288.8329,-40.48003,13.415325,STD
541242894000,0.07498,4.68310771363854,8.78462789346053,-0.515830206395566,-0.03970624,-0.19028452,0.0027488936,289.10403,-41.0537,13.610052,STD
541247879000,0.079965,4.68958435158169,8.77930780749589,-0.522538142657939,-0.043676864,-0.17928895,0.0027488936,289.3768,-41.621998,13.799949,STD
541252877000,0.084963,4.69607787945328,8.77397384768621,-0.529263572033935,-0.043676864,-0.18112154,0.005192355,289.6473,-42.181747,13.989832,STD
541257907000,0.089993,4.70261298253332,8.76860573687334,-0.536032061381927,-0.052534413,-0.16035213,0.0012217305,289.91,-42.729996,14.168385,STD
541262885000,0.094971,4.70908052589962,8.76329312144065,-0.542730578275426,-0.055283304,-0.14049901,0.007330383,290.16833,-43.270065,14.346935,STD
541267897000,0.099983,4.71559224292491,8.75794422056707,-0.54947484638917,-0.054367006,-0.13103059,0.016187929,290.42252,-43.80021,14.520152,STD
541272873000,0.104959,4.72080656040248,8.75312521266146,-0.55568366121903,-0.048563786,-0.124005646,0.013744468,290.67194,-44.322865,14.6858635,STD
541277878000,0.109964,4.71554341155743,8.75240750941075,-0.557836763477011,-0.04734206,-0.112704635,0.016798794,290.91327,-44.834507,14.848897,STD
541282913000,0.114999,4.71024871536665,8.75168550424245,-0.560002771442832,-0.053145275,-0.103847094,0.01282817,291.149,-45.339226,15.047939,STD
541287916000,0.120002,4.70498766967797,8.75096808778624,-0.56215501332029,-0.053450707,-0.08582657,0.012217305,291.37738,-45.836826,15.241059,STD
541292892000,0.124978,4.69975501660045,8.75025454305586,-0.564295640060692,-0.050701816,-0.06627888,0.02565634,291.59995,-46.324318,15.431154,STD
541297880000,0.129966,4.69450974458464,8.74953927755845,-0.56644142908423,-0.055588737,-0.05681047,0.025350908,291.82202,-46.80301,15.61351,STD
541302911000,0.134997,4.68921925470662,8.74881784597916,-0.568605716289006,-0.054061573,-0.058337633,0.0290161,292.0373,-47.273903,15.794872,STD
541307937000,0.140023,4.68393402271956,8.74809713138613,-0.570767852542474,-0.06352998,-0.05375614,0.034513887,292.2472,-47.732174,15.970621,STD
541312879000,0.144965,4.67873712330053,8.74738846216235,-0.572893852813991,-0.06841691,-0.04428773,0.03726278,292.45462,-48.183666,16.142906,STD
541317981000,0.150067,4.67337197137096,8.74665684937811,-0.575088683527321,-0.0693332,-0.032070424,0.04428773,292.65704,-48.62436,16.313007,STD
541323744000,0.15583,4.66731172625726,8.7458304510097,-0.577567870003394,-0.069027774,-0.027183503,0.043982297,292.85834,-49.05648,16.478706,STD
541327903000,0.159989,4.66293821256164,8.74523406183493,-0.579357031300285,-0.07696902,-0.02687807,0.048258353,293.05432,-49.476685,16.64268,STD
541332933000,0.165019,4.65764877426181,8.7445127736529,-0.5815208883148,-0.086132,-0.029932396,0.058948494,293.24738,-49.887775,16.804852,STD
541337878000,0.169964,4.65244872010821,8.74380367423736,-0.5836481791571,-0.086132,-0.025961773,0.058948494,293.43848,-50.291977,16.961369,STD
541342898000,0.174984,4.64716979759029,8.74308382002785,-0.585807734269001,-0.074830994,-0.024129177,0.056199603,293.62805,-50.687756,17.117643,STD
541347930000,0.180016,4.64187825613408,8.74236224505131,-0.587972451664038,-0.07971791,-0.032375857,0.064446285,293.8159,-51.070065,17.274546,STD
541352914000,0.185,4.63663719043103,8.74164755314291,-0.590116519926531,-0.087659165,-0.025350908,0.06811147,293.99945,-51.447548,17.424019,STD
541357905000,0.189991,4.63138876368065,8.74093185745373,-0.592263599520853,-0.07422013,-0.028099801,0.07422013,294.18433,-51.819878,17.57604,STD
541362875000,0.194961,4.62616242007227,8.74021917310687,-0.594401645119687,-0.076052725,-0.03390302,0.07666359,294.367,-52.178658,17.724493,STD
541367950000,0.200036,4.62082566075386,8.73949143204845,-0.596584860695961,-0.077579886,-0.04184427,0.07513642,294.5493,-52.532864,17.87129,STD
541372938000,0.205024,4.61558038873805,8.73877616655104,-0.598730649719499,-0.074830994,-0.03940081,0.07819075,294.72797,-52.87899,18.016119,STD
541377898000,0.209984,4.61036456091158,8.7380649161767,-0.60086439341572,-0.06536258,-0.03573562,0.07452556,294.9085,-53.220016,18.157104,STD
541382939000,0.215025,4.60506355525165,8.73734205062489,-0.603032982523109,-0.06841691,-0.039095376,0.06994407,295.08856,-53.55084,18.29639,STD
541387902000,0.219988,4.59984457269061,8.73663037005879,-0.605168016790114,-0.053450707,-0.03726278,0.0720821,295.26465,-53.880398,18.4322,STD
541393450000,0.225536,4.59401041688794,8.73583480209976,-0.607554712359999,-0.059864793,-0.03726278,0.06719518,295.44263,-54.198433,18.563137,STD
541397884000,0.22997,4.58934771918984,8.73519897868045,-0.609462175978758,-0.058948494,-0.032070424,0.058337633,295.6177,-54.5148,18.689772,STD
541402908000,0.234994,4.58406459035916,8.73447855088193,-0.611623451851704,-0.054061573,-0.021991149,0.055588737,295.79004,-54.823143,18.813263,STD
541407899000,0.239985,4.57881616360878,8.73376285519276,-0.613770531446026,-0.04184427,-0.03359759,0.053450707,295.96655,-55.127586,18.934418,STD
541412876000,0.244962,4.57358245895306,8.73304916706512,-0.61591158837669,-0.043982297,-0.018020526,0.042760566,296.1336,-55.424572,19.044851,STD
541417911000,0.249997,4.56828776276228,8.73232716189682,-0.61807759634251,-0.043676864,-0.02443461,0.04917465,296.30588,-55.7155,19.161188,STD
541422913000,0.254999,4.5630277686518,8.73160988883787,-0.620229408029707,-0.04520403,-0.02565634,0.04520403,296.47433,-56.002068,19.26688,STD
541427893000,0.259979,4.55779090926151,8.73089577051848,-0.622371755531155,-0.04428773,-0.026267206,0.042760566,296.64172,-56.2811,19.372892,STD
541432895000,0.264981,4.55253091515103,8.73017849745952,-0.624523567218351,-0.03726278,-0.019242255,0.047647487,296.80554,-56.55389,19.476492,STD
541437904000,0.26999,4.54726355999321,8.7294602206198,-0.626678390237377,-0.03359759,-0.01282817,0.03970624,296.97037,-56.822132,19.574028,STD
541442894000,0.27498,4.54201618482102,8.72874466832788,-0.628825039641438,-0.03481932,-0.0012217305,0.034208454,297.1294,-57.083054,19.6695,STD
541447884000,0.27997,4.53676880964883,8.72802911603596,-0.630971689045499,-0.041233405,-0.00030543262,0.0421497,297.28738,-57.336193,19.76472,STD
541452907000,0.284993,4.53148673239633,8.72730883163469,-0.633132534728184,-0.026572637,-0.0030543262,0.03970624,297.4439,-57.590237,19.852705,STD
541457897000,0.289983,4.52623935722414,8.72659327934277,-0.635279184132245,-0.025961773,-0.004886922,0.03634648,297.59756,-57.83226,19.940144,STD
541463574000,0.29566,4.52026954783485,8.72577921313811,-0.637721374245842,-0.021685716,0.005192355,0.032070424,297.74768,-58.07279,20.023504,STD
541467891000,0.299977,4.51572988478508,8.72516016719739,-0.639578505604025,-0.016798794,-0.0021380284,0.029932396,297.90176,-58.30773,20.106876,STD
541472937000,0.305023,4.5104656738653,8.72394518740849,-0.638385960175695,-0.014049901,0.004886922,0.025350908,298.0485,-58.538387,20.183592,STD
541477895000,0.309981,4.50612068646596,8.71308277562225,-0.571038970805271,-0.024740042,0.0033597588,0.019547688,298.1986,-58.761982,20.259409,STD
541483527000,0.315613,4.50118503317167,8.7007437068082,-0.494536702928258,-0.0143553335,0.00061086525,0.021685716,298.33524,-59.011112,20.314459,STD
541487926000,0.320012,4.4973299303944,8.69110600018302,-0.434782889648609,-0.0018325958,-0.0012217305,0.02321288,298.4715,-59.253498,20.366581,STD
541492833000,0.324919,4.49302963729868,8.68035532357247,-0.368128658740849,-0.0009162979,0.005192355,0.016187929,298.59625,-59.499493,20.414461,STD
541497884000,0.32997,4.4992888483761,8.68280020626187,-0.287292541954667,0.00030543262,0.004276057,0.01863139,298.72098,-59.73964,20.465012,STD
541502912000,0.334998,4.51101211623411,8.692178771583,-0.200540299333252,0.0015271631,0.0018325958,0.021380283,298.84387,-59.975037,20.512053,STD
541507896000,0.339982,4.52263279384039,8.70147526513123,-0.11454722510391,0.009162978,-0.010995574,0.028405234,298.94812,-60.19298,20.557013,STD
541512916000,0.345002,4.53433740892535,8.71083890831183,-0.0279330130992355,0.0067195175,0.0012217305,0.022907447,299.04605,-60.40535,20.595942,STD
541517895000,0.349981,4.54216512135155,8.7231707233234,0.037165329621444,0.004886922,-0.00061086525,0.020158553,299.13312,-60.62578,20.635141,STD
541522900000,0.354986,4.54708772415528,8.73793899435144,0.0863919092008832,0.004581489,-0.0030543262,0.026572637,299.21564,-60.839104,20.673265,STD
541527894000,0.35998,4.54623695111257,8.75735538780853,0.11358311841997,0.009468411,0.0015271631,0.024129177,299.26474,-61.044415,20.700418,STD
541533295000,0.365381,4.5414011473822,8.78153465893792,0.128090691196709,0.003970624,-0.0061086523,0.014660766,299.31754,-61.241734,20.728403,STD
541537907000,0.369993,4.53718936634947,8.79372586420353,0.141834572406661,0.01740966,-0.010079277,0.025961773,299.33286,-61.45292,20.751696,STD
541542898000,0.374984,4.53254812647958,8.7983669586833,0.158078921643929,0.015577064,-0.00030543262,0.01985312,299.3493,-61.658787,20.767252,STD
541547883000,0.379969,4.5279124661407,8.80300247380687,0.174303742511045,0.004581489,-0.0015271631,0.027183503,299.32407,-61.887703,20.781372,STD
541552907000,0.384993,4.52324053885032,8.80767425474584,0.190655497784143,0.005192355,-0.011911872,0.029321533,299.30087,-62.11184,20.793236,STD
541557891000,0.389977,4.51769827766956,8.81151349189216,0.184083445972037,0.015577064,-0.007941248,0.028405234,299.21127,-62.372604,20.799658,STD
541562884000,0.39497,4.51049656637883,8.81391411245544,0.136072004028716,0.004581489,-0.0009162979,0.025961773,299.12683,-62.616943,20.808897,STD
541567892000,0.399978,4.50327321966464,8.81632194497716,0.0879163258288067,0.013744468,-0.009162978,0.030543262,298.94025,-62.924988,20.811543,STD
541572925000,0.405011,4.49601381391134,8.81874179742959,0.0395202538679151,0.002443461,-0.010995574,0.032375857,298.7583,-63.208584,20.816273,STD
541577827000,0.409913,4.48813087231135,8.82193474925728,-0.0192503490701129,0.002443461,0.0018325958,0.016798794,298.43518,-63.573475,20.819511,STD
541582899000,0.414985,4.47851044656368,8.82674506258665,-0.10102402669182,-0.006414085,0.0012217305,0.031154128,298.13092,-63.89485,20.841135,STD
541587878000,0.419964,4.4739990924901,8.82737036019166,-0.185836784487361,0.0021380284,-0.004581489,0.03481932,297.6505,-64.31401,20.881971,STD
541592961000,0.425047,4.47875916430352,8.82023010335892,-0.281038292826969,-0.003970624,0.005497787,0.01863139,297.19992,-64.67589,20.932909,STD
541597858000,0.429944,4.48334505288711,8.81335112682736,-0.37275613393243,-0.010995574,0.0027488936,0.023823744,296.6363,-65.047035,21.060497,STD
541603074000,0.43516,4.48822967507456,8.80602404053195,-0.470448651638391,-0.008552114,-0.0030543262,0.02687807,296.11676,-65.35487,21.193161,STD
541607862000,0.439948,4.49249001229743,8.80495597044805,-0.55081704613918,-0.006414085,0.005497787,0.028099801,295.5644,-65.59842,21.401907,STD
541612887000,0.444973,4.49631293234032,8.82024812964728,-0.608161485486177,-0.01038471,0.005497787,0.021685716,295.313164927221,-65.6894412149718,21.5074155800574,STD
541617961000,0.450047,4.50017313060852,8.83568940641881,-0.666065104440737,-0.0067195175,-0.0018325958,0.021991149,295.05948,-65.78135,21.613953,STD
541622923000,0.455009,4.50465900826344,8.83405290396546,-0.71021323084024,-0.011301007,-0.0070249503,0.02687807,294.5471,-65.90065,21.901188,STD
541627839000,0.459925,4.50933217264877,8.82704304759541,-0.74993494512879,-0.008857546,-0.0015271631,0.027183503,294.07245,-65.96804,22.181868,STD
541632929000,0.465015,4.51417074195742,8.81978507995434,-0.791062594788823,-0.010995574,-0.007330383,0.03634648,293.67517,-65.964874,22.48774,STD
541637869000,0.469955,4.51886672081493,8.81274100134002,-0.830978231197578,-0.017715093,-0.0070249503,0.02687807,293.2997,-65.93007,22.781128,STD
541642898000,0.474984,4.5262304578745,8.80169548802657,-0.86069229234924,-0.010995574,-0.003970624,0.025961773,292.9512,-65.85759,23.07607,STD
541647892000,0.479978,4.53459027944415,8.78915593025695,-0.885771783245936,-0.0033597588,-0.016798794,0.03481932,292.628,-65.75955,23.363901,STD
541652885000,0.484971,4.53725187635552,8.78624071231129,-0.895910999213268,-0.005497787,-0.015271631,0.032070424,292.3073,-65.64694,23.644207,STD
541657899000,0.489985,4.53214682902403,8.79645048713587,-0.885700872566447,-0.007941248,-0.011301007,0.032986723,292.00894,-65.51301,23.920118,STD
541662877000,0.494963,4.52863006950032,8.79868621414666,-0.839086107462687,-0.0027488936,-0.009162978,0.03268129,291.72675,-65.36254,24.19191,STD
541667935000,0.500021,4.52638479952721,8.79419581486975,-0.760501611513859,-0.016798794,-0.0070249503,0.029626964,291.46045,-65.19954,24.454554,STD
541672965000,0.505051,4.5241519588857,8.78973027347733,-0.682352142430704,-0.0106901415,0.008552114,0.023823744,291.2018,-65.0325,24.704205,STD
541677903000,0.509989,4.52195995747659,8.7853464079911,-0.605632047334755,-0.0076358155,0.014049901,0.027183503,290.95972,-64.8559,24.947884,STD
541682932000,0.515018,4.52141821148604,8.78134923208683,-0.530143582768376,-0.0070249503,0.009773844,0.025045475,290.72998,-64.67396,25.184313,STD
541687912000,0.519998,4.52632459119901,8.7788959909984,-0.463907405411244,-0.009162978,0.0033597588,0.022907447,290.51114,-64.48751,25.414028,STD
541692823000,0.524909,4.53116299095211,8.77647674059976,-0.398588958222314,-0.007330383,0.01282817,0.024129177,290.2789,-64.2946,25.63843,STD
541697884000,0.52997,4.53614917322669,8.77398359739725,-0.331275445450337,-0.009468411,0.010079277,0.015882496,290.06195,-64.104416,25.852816,STD
541702845000,0.534931,4.54014616735599,8.76865562459154,-0.268807309978527,-0.005192355,0.0106901415,0.02107485,289.84943,-63.910572,26.064579,STD
541707899000,0.539985,4.54240555685277,8.7573585591448,-0.212321943109327,0.0012217305,0.005497787,0.017104227,289.64777,-63.72269,26.264984,STD
541712873000,0.544959,4.54462918236859,8.74624031547008,-0.15673068572757,-0.009468411,-0.0012217305,0.009773844,289.43475,-63.53376,26.461254,STD
541718673000,0.550759,4.54722207098777,8.73327573699935,-0.0919077478879657,-0.011911872,0.004581489,0.014660766,289.22586,-63.345024,26.653944,STD
541722985000,0.555071,4.55034863346077,8.72515382920768,-0.0458355857659371,-0.02107485,0.0021380284,0.015271631,289.01978,-116.84082,26.840797,STD
541727897000,0.559983,4.56833252504062,8.73414593930995,-0.0188598005066425,0.00061086525,0.009162978,0.013744468,288.81537,-117.02413,27.02251,STD
541733353000,0.565439,4.58703978959006,8.74395901329862,0.0103283413426277,-0.008246681,-0.00061086525,0.01985312,288.59692,-117.21034,27.20539,STD
541737912000,0.569998,4.58293159909042,8.7494365910987,0.0226529638895336,-0.014966198,0.00580322,0.019242255,288.3771,-117.39011,27.380293,STD
541742883000,0.574969,4.57845214855879,8.75540918141329,0.0360913711456576,-0.006414085,-0.006414085,0.01282817,288.16565,-117.568695,27.552755,STD
541747888000,0.579974,4.57394206006336,8.76142262227519,0.0496216926739015,0.0027488936,0.007330383,0.014049901,287.94916,-117.74463,27.72186,STD
541752877000,0.584963,4.56944638943324,8.76741683935012,0.0631087604270301,-0.0070249503,-0.004276057,0.013744468,287.74982,-117.91359,27.88321,STD
541757900000,0.589986,4.56492008083932,8.77345190697237,0.0766877424522786,0.0015271631,0.0012217305,0.014966198,287.55624,-118.082855,28.044353,STD
541762877000,0.594963,4.56043522360819,8.77943170620707,0.0901423698740708,-0.0027488936,0.004276057,0.016493361,287.37106,-118.24717,28.200401,STD
541767901000,0.599987,4.55856,8.77764079712241,0.0700209187262485,-0.003970624,0.010995574,0.024129177,287.18665,-118.40915,28.3538,STD
541772923000,0.605009,4.55856,8.77031819404689,0.0260854231214982,0.0030543262,0.009162978,0.018325957,287.00745,-118.563255,28.499058,STD
541777896000,0.609982,4.55856,8.76306703811409,-0.0174213908256192,0.0033597588,0.00061086525,0.019242255,286.82202,-118.71109,28.638744,STD
541782896000,0.614982,4.55856,8.75577651334754,-0.0611644171146975,0.0009162979,0.011301007,0.021380283,286.63416,-118.85345,28.77316,STD
541788409000,0.620495,4.55491203629155,8.76049723696249,-0.113093354406831,0.002443461,0.009468411,0.017715093,286.4513,-118.99129,28.902666,STD
541792968000,0.625054,4.5504735344109,8.76937400899664,-0.157477476892752,-0.0012217305,-0.00061086525,0.016493361,286.27063,-119.12628,29.029686,STD
541797890000,0.629976,4.54741258606799,8.77706622539774,-0.210072874164128,0.01740966,0.0061086523,0.014966198,286.10257,-119.25923,29.153055,STD
541802917000,0.635003,4.54508452035398,8.78405039823009,-0.265947073628319,-0.0015271631,0.0061086523,0.022907447,285.94293,-119.3897,29.274858,STD
541807887000,0.639973,4.54278285204314,8.79095537912858,-0.321187728360172,-0.0009162979,0.0033597588,0.017104227,285.78677,-119.5099,29.384695,STD
541812902000,0.644988,4.54046034367716,8.79792287997485,-0.376928549985976,0.00061086525,0.009162978,0.016798794,285.6308,-119.62992,29.49511,STD
541817996000,0.650082,4.54474086479541,8.80375232417474,-0.415562236285827,0.0076358155,0.016798794,0.016187929,285.48624,-119.74491,29.60093,STD
541822934000,0.65502,4.55408865789682,8.80842629393161,-0.438931621431113,0.0067195175,0.020158553,0.02107485,285.3435,-119.85789,29.70518,STD
541827894000,0.65998,4.5674181740988,8.81287660133511,-0.463397262833111,0.0021380284,0.020463986,0.013744468,285.22345,-119.963356,29.799866,STD
541832935000,0.665021,4.58460603230975,8.81717367805964,-0.489179189242546,-0.003970624,0.01740966,0.018936822,285.1059,-120.07056,29.896568,STD
541837914000,0.67,4.59481705907754,8.81887233942114,-0.508254056019192,-0.00030543262,0.032070424,0.016187929,284.98798,-120.172226,29.987553,STD
541842889000,0.674975,4.58744290427694,8.81395611644224,-0.510712116174999,-0.012217305,0.02565634,0.013439035,284.88013,-120.271645,30.076761,STD
541847875000,0.679961,4.58005244481246,8.80902902342259,-0.513175611237683,-0.009162978,0.018020526,0.011301007,284.7738,-120.37157,30.165642,STD
541852912000,0.684998,4.57258639099727,8.80405153294124,-0.515664304504979,-0.012217305,0.02321288,0.011301007,284.6673,-120.467705,30.251692,STD
541858237000,0.690323,4.56614985762258,8.80307190461731,-0.531055602614986,-0.0021380284,0.03023783,0.013744468,284.56058,-120.552444,30.326181,STD
541862879000,0.694965,4.56217959403412,8.80704229257837,-0.558847779394481,-0.007330383,0.028405234,0.013744468,284.4571,-120.63327,30.397585,STD
541867954000,0.70004,4.55934970538003,8.80987226988164,-0.583395523075418,-0.011301007,0.02076942,0.01038471,284.36133,-120.711334,30.466278,STD
541872953000,0.705039,4.56403266765137,8.80518916091167,-0.578712492344713,-0.013133603,0.024740042,0.0143553335,284.26425,-120.78894,30.535143,STD
541877895000,0.709981,4.56770128961828,8.79977877340141,-0.573737570143448,-0.011911872,0.018936822,0.014660766,284.1876,-120.86398,30.600779,STD
541882945000,0.715031,4.56378182005025,8.78802040562444,-0.565898549153092,-0.014966198,0.024740042,0.018020526,284.1072,-120.93851,30.666737,STD
541887876000,0.719962,4.55995471026015,8.77653911621687,-0.558244249647459,-0.013439035,0.021380283,0.013133603,284.03152,-121.00992,30.729418,STD
541892881000,0.724967,4.55546790901771,8.77853918196457,-0.530718572584541,-0.008246681,0.025350908,0.018020526,283.953,-121.08284,30.794165,STD
541897888000,0.729974,4.55064181813607,8.78819136372786,-0.492110626615338,-0.007941248,0.01863139,0.016187929,283.8801,-121.1502,30.853426,STD
541902872000,0.734958,4.548983,8.7962279162388,-0.46311039542082,-0.0015271631,0.036957346,0.01863139,283.79395,-121.215126,30.91099,STD
541907897000,0.739983,4.548983,8.80349501832276,-0.438886361782946,-0.005497787,0.02565634,0.01985312,283.72104,-121.276886,30.965218,STD
541912878000,0.744964,4.548983,8.81069848807007,-0.414874439086379,0.004581489,0.010079277,0.015577064,283.6388,-121.33207,31.014063,STD
541917879000,0.749965,4.548983,8.81793088160677,-0.390766102325581,0.002443461,0.014966198,0.018325957,283.5548,-121.3873,31.064062,STD
541922861000,0.754947,4.55214174946425,8.80128683304111,-0.345168038223261,-0.00061086525,0.0076358155,0.017715093,283.4791,-121.43724,31.107983,STD
541927975000,0.760061,4.55691252464446,8.7726626801091,-0.287919901729983,-0.0070249503,0.019242255,0.01863139,283.3966,-121.48668,31.152445,STD
541932883000,0.764969,4.55755953672241,8.76477892655518,-0.261147497040263,-0.006414085,0.017104227,0.015882496,283.31232,-121.5314,31.193285,STD
541937911000,0.769997,4.55595854074542,8.76798091850916,-0.24994074921036,-0.0070249503,0.017715093,0.022296581,283.225398223468,-121.573279192631,31.2340490519023,STD
541957853000,0.789939,4.54960868756857,8.78068062486285,-0.205492665434718,0.002443461,0.008857546,0.022602014,282.88065,-121.73938,31.395727,STD
541962821000,0.794907,4.55786296001441,8.77601192363112,-0.212952857838617,0.00030543262,0.009773844,0.013439035,282.79962,-121.77119,31.427664,STD
541967844000,0.79993,4.57271611990531,8.76610964470976,-0.232757022774804,0.0033597588,0.015882496,0.010995574,282.71884,-121.805725,31.462357,STD
541972812000,0.804898,4.58064384167833,8.77449930551666,-0.242350518618501,-0.004276057,0.018936822,0.017104227,282.63574,-121.83984,31.498343,STD
541977815000,0.809901,4.58511623320265,8.79238877821339,-0.24682290547279,0.004581489,0.017104227,0.016798794,282.5529,-121.87125,31.53095,STD
541982846000,0.814932,4.58201809004448,8.80635732005931,-0.264813613629528,-0.0018325958,0.02321288,0.01863139,282.4681,-121.90857,31.569855,STD
541987817000,0.819903,4.57193415172633,8.81644146896844,-0.295065454907859,-0.0021380284,0.026267206,0.013744468,282.38562,-121.943344,31.605597,STD
541992811000,0.824897,4.56533459527648,8.82304119250234,-0.351291995915651,-0.0018325958,0.022602014,0.008552114,282.3051,-121.976295,31.639734,STD
541997800000,0.829886,4.56085679243674,8.82751913561387,-0.422937640900656,-0.0018325958,0.037873644,0.017104227,282.2184,-122.010704,31.676,STD
542002876000,0.834962,4.55740053347763,8.82865653347763,-0.446932856128427,0.0076358155,0.03604105,0.012217305,282.15594,-122.03797,31.70414,STD
542007869000,0.839955,4.55510048725349,8.82635648725349,-0.421632859211159,-0.0027488936,0.04153884,0.021991149,282.08722,-122.07011,31.738571,STD
542012860000,0.844946,4.55280136233766,8.82405736233766,-0.396342996480519,0.007941248,0.039095376,0.024129177,282.0389,-122.09929,31.766335,STD
542017924000,0.85001,4.55046860966811,8.82172460966811,-0.370683235937951,0.01282817,0.03848451,0.015882496,281.98868,-122.12669,31.793222,STD
542022876000,0.854962,4.55008067512527,8.81969015384105,-0.35434186,0.0030543262,0.043676864,0.022296581,281.9394,-122.159256,31.825674,STD
542027865000,0.859951,4.55325166597644,8.81810463358222,-0.35434186,0.011911872,0.03970624,0.025961773,281.89362,-122.188736,31.853962,STD
542032872000,0.864958,4.55643409756429,8.81651339286544,-0.35434186,0.004581489,0.04917465,0.023518313,281.83063,-122.21513,31.882328,STD
542037879000,0.869965,4.55961652915215,8.81492215214866,-0.35434186,0.0076358155,0.05100725,0.02687807,281.7724,-122.244095,31.9123,STD
542043447000,0.875533,4.56315553036668,8.81315262382612,-0.35434186,0.0036651916,0.025350908,0.028099801,281.71753,-122.26718,31.936445,STD
542047862000,0.879948,4.5659616888369,8.8117495226149,-0.35434186,0.008246681,0.02565634,0.02443461,281.65393,-122.28955,31.960148,STD
542052866000,0.884952,4.56533507314965,8.80996157866026,-0.350839823511627,-0.0012217305,0.025961773,0.03359759,281.59995,-122.3145,31.986584,STD
542057899000,0.889985,4.55642193286025,8.80773324705284,-0.339698388842864,0.01160644,0.022296581,0.033292156,281.5474,-122.33609,32.008564,STD
542062885000,0.894971,4.54759202674403,8.80552572442328,-0.328660996977486,0.0070249503,0.017104227,0.032986723,281.49573,-122.36029,32.03422,STD
542067994000,0.90008,4.53854429502566,8.80326374425593,-0.317351322881975,0.005192355,0.016798794,0.03023783,281.44412,-122.383545,32.05841,STD
542073000000,0.905086,4.52974930019704,8.80116520147783,-0.306858819349754,0.005192355,0.01160644,0.035430185,281.419575626516,-122.394367895109,32.0695389409863,STD
542077890000,0.909976,4.52513545270936,8.8057791453202,-0.329928076059113,0.0125227375,0.013744468,0.02321288,281.3956,-122.40494,32.08041,STD
542083378000,0.915464,4.52010859600981,8.8108061085044,-0.35491828228066,0.005192355,0.022907447,0.026267206,281.34378,-122.42709,32.10414,STD
542087904000,0.91999,4.5180248431037,8.81288992668622,-0.363253385291092,0.005192355,0.01863139,0.027183503,281.312681691332,-122.435108579281,32.1124073657505,STD
542092838000,0.924924,4.51575324857459,8.81516159237537,-0.372339863031585,0.008246681,0.024129177,0.02687807,281.27878,-122.44385,32.12142,STD
542097891000,0.929977,4.51342686690544,8.81748804692082,-0.381645491735013,0.008857546,0.016187929,0.027488936,281.22015,-122.459885,32.1377,STD
542102842000,0.934928,4.51114744564204,8.81976753958944,-0.390763276755925,0.0106901415,0.022602014,0.0290161,281.15704,-122.47603,32.15437,STD
542107897000,0.939983,4.51725359060317,8.82352788115522,-0.376205003901857,0.007941248,0.028710667,0.035430185,281.09753,-122.49309,32.172,STD
542113620000,0.945706,4.52659210487306,8.82819726018061,-0.352858576834214,0.012217305,0.02565634,0.027794369,281.03934,-122.50645,32.185577,STD
542117954000,0.95004,4.5287565842868,8.83196176420671,-0.350129623047292,0.009468411,0.03634648,0.028405234,280.98,-122.52231,32.20202,STD
542122905000,0.954991,4.52649615633105,8.83648247849924,-0.361431772267353,0.0061086523,0.018325957,0.031154128,280.93192,-122.53633,32.215786,STD
542127891000,0.959977,4.52421974877956,8.84103515098207,-0.372813819532799,0.018020526,0.027183503,0.035430185,280.85678,-122.54907,32.228943,STD
542132908000,0.964994,4.52192918787185,8.84561612929062,-0.384266633638444,0.017715093,0.035430185,0.035430185,280.78876,-122.56042,32.240925,STD
542137844000,0.96993,4.51904424054108,8.84836482389937,-0.3914406255885,0.00061086525,0.040927973,0.023518313,280.71585,-122.57507,32.256233,STD
542142896000,0.974982,4.51421422694419,8.84595003144654,-0.386610632165319,0.0018325958,0.023823744,0.03756821,280.6494,-122.597206,32.278122,STD
542147865000,0.979951,4.50946356630229,8.84357491194969,-0.381859991365678,0.014049901,0.039095376,0.035430185,280.5827,-122.61044,32.29203,STD
542152911000,0.984997,4.50463928906359,8.84116298742138,-0.37703573427673,0.0070249503,0.038179077,0.033292156,280.52823,-122.62647,32.30869,STD
542157868000,0.989954,4.50167477706396,8.84112027107105,-0.371192398638412,0.008857546,0.03573562,0.023518313,280.4695,-122.63999,32.32244,STD
542162890000,0.994976,4.50398064023396,8.84803761981014,-0.361969133759709,0.007330383,0.030543262,0.030848695,280.4131,-122.656906,32.33997,STD
542167963000,1.000049,4.50630992017451,8.85502521641576,-0.352652203706012,0.0018325958,0.03604105,0.035430185,280.3471,-122.67122,32.355072,STD
542172920000,1.005006,4.50858593844089,8.86185303356026,-0.343548316011123,0.0030543262,0.032375857,0.028710667,280.28653,-122.68413,32.368305,STD
542177865000,1.009951,4.50989587728262,8.86578263592082,-0.335968359459011,0.004581489,0.042455133,0.027488936,280.22043,-122.69922,32.38444,STD
542183538000,1.015624,4.49863471653021,8.83199921245725,-0.347229473176495,0.0036651916,0.022296581,0.027794369,280.16632,-122.71236,32.397926,STD
542187899000,1.019985,4.49294624444338,8.81350985914955,-0.357901704009556,0.007941248,0.029626964,0.028405234,280.1009,-122.72179,32.409412,STD
542192897000,1.024983,4.50209389782131,8.83180497486861,-0.380770727608218,-0.00030543262,0.026267206,0.03023783,280.04657,-122.73087,32.42036,STD
542197959000,1.030045,4.51174989537028,8.84861106353342,-0.402941813486321,0.0015271631,0.025350908,0.032070424,279.99213,-122.74164,32.43236,STD
542202910000,1.034996,4.52600420094198,8.84386000871831,-0.412444726866419,0.0018325958,0.02076942,0.040927973,279.94086,-122.754234,32.446434,STD
542207930000,1.040016,4.53873311136254,8.84040276889745,-0.421042904978334,0.0018325958,0.018020526,0.03604105,279.89188,-122.76718,32.459873,STD
542212878000,1.044964,4.52960725553202,8.85409136206066,-0.416479967533943,0.0018325958,0.009468411,0.03573562,279.870793465116,-122.775743108527,32.4684682321705,STD
542218250000,1.050336,4.52071312307692,8.867432375,-0.412032892019231,0.0076358155,0.008246681,0.04062254,279.8479,-122.78504,32.4778,STD
542222960000,1.055046,4.52794176538462,8.8565895625,-0.415647220721154,0.013744468,0.009773844,0.039095376,279.80746,-122.803055,32.496105,STD
542227829000,1.059915,4.53541443192308,8.84538071875,-0.419383561793269,0.014049901,0.010995574,0.04062254,279.7702,-122.81998,32.513287,STD
542232884000,1.06497,4.53340153041545,8.83338823041545,-0.420178543575042,0.013744468,0.007941248,0.043982297,279.73425,-122.83668,32.530033,STD
542237891000,1.069977,4.52114974504063,8.82113644504063,-0.417728181382799,0.009162978,-0.0015271631,0.040011674,279.70032,-122.85109,32.54456,STD
542242895000,1.074981,4.50890530045991,8.80889200045991,-0.415279287352445,0.014966198,-0.0033597588,0.039095376,279.67252,-122.87074,32.564354,STD
542247886000,1.079972,4.49669266598702,8.79667936598702,-0.412836755356942,0.02321288,-0.0021380284,0.0421497,279.64713,-122.88973,32.583454,STD
542253286000,1.085372,4.48527924902573,8.79306962829094,-0.416484959267192,0.015577064,-0.005497787,0.04062254,279.62402,-122.906265,32.60033,STD
542257900000,1.089986,4.47651580600922,8.79526030031236,-0.423057528947395,0.004276057,-0.002443461,0.034513887,279.5985,-122.921936,32.616405,STD
542262874000,1.09496,4.46706860931132,8.79762189602856,-0.430142912906936,0.0070249503,-0.00580322,0.033292156,279.5794,-122.94185,32.636456,STD
542267947000,1.100033,4.45743338035103,8.80003049576082,-0.437369320793297,0.007941248,-0.0015271631,0.027794369,279.55658,-122.95777,32.65325,STD
542272942000,1.105028,4.44832886711422,8.80841439065661,-0.43320385730366,0.0033597588,0.0030543262,0.026267206,279.53503,-122.97385,32.670242,STD
542277906000,1.109992,4.43958526089755,8.82153014235792,-0.420088370373368,0.0018325958,0.0012217305,0.022907447,279.5142,-122.98752,32.68464,STD
542282885000,1.114971,4.43784660620845,8.8222457875831,-0.409910117014797,0.002443461,-0.007941248,0.024129177,279.503,-123.00161,32.699265,STD
542287907000,1.119993,4.44816066121596,8.80161767756809,-0.404753062586318,0.0021380284,-0.0061086523,0.019547688,279.48853,-123.01263,32.711105,STD
542292893000,1.124979,4.46027907444374,8.79386360952335,-0.399871194255806,-0.0018325958,-0.004886922,0.021380283,279.47028,-123.02112,32.72049,STD
542297884000,1.12997,4.47424216178977,8.79851780997127,-0.395216843147183,0.005192355,-0.015271631,0.0143553335,279.4551,-123.02598,32.725616,STD
542302874000,1.13496,4.48820245148255,8.80317107790058,-0.39056342458737,-0.009468411,-0.02076942,0.012217305,279.43704,-123.034546,32.73567,STD
542307896000,1.139982,4.50225226607917,8.80785418642582,-0.385880164465651,-0.002443461,-0.021380283,0.005192355,279.42065,-123.04053,32.74196,STD
542312881000,1.144967,4.52214954054218,8.80874969997977,-0.394545828496864,-0.004886922,-0.021685716,0.004581489,279.40103,-123.04219,32.744427,STD
542317959000,1.150045,4.55166455516893,8.80383041958325,-0.424060915035404,-0.00580322,-0.0290161,0.0018325958,279.384,-123.041565,32.744114,STD
542322944000,1.15503,4.56235405843548,8.79530243894451,-0.438605552811828,-0.007941248,-0.026572637,-0.0030543262,279.3609,-123.043076,32.746643,STD
542327895000,1.159981,4.54904403594086,8.78199260175915,-0.434168878646954,-0.008552114,-0.03023783,-0.0009162979,279.3427,-123.04576,32.750027,STD
542332858000,1.164944,4.54140642585632,8.76835473436395,-0.436289971734869,-0.007330383,-0.027183503,-0.00061086525,279.32562,-123.05161,32.75586,STD
542337905000,1.169991,4.54873199566535,8.75370354375063,-0.455824834758008,0.005192355,-0.029626964,-0.00061086525,279.319004803292,-123.054884674328,32.7590845285026,STD
542342822000,1.174908,4.55586887435587,8.73942973668789,-0.474856521202385,-0.009773844,-0.03145956,0.0009162979,279.31256,-123.058075,32.762226,STD
542347886000,1.179972,4.56321911915732,8.72472919591795,-0.494457184239669,-0.0076358155,-0.030848695,0.01282817,279.29657,-123.06673,32.770905,STD
542352854000,1.18494,4.56662584767848,8.71791579930105,-0.49548378890664,-0.0076358155,-0.030848695,0.0036651916,279.2819,-123.0695,32.77374,STD
542357902000,1.189988,4.5617987701348,8.72757025681478,-0.45686674516026,-0.0015271631,-0.023518313,0.019547688,279.26566,-123.082794,32.78705,STD
542362877000,1.194963,4.56248091065658,8.73535500206256,-0.428342347734617,0.00061086525,-0.03145956,0.010079277,279.25684,-123.08629,32.7889,STD
542368852000,1.200938,4.57723370736507,8.74027272078034,-0.418507105426263,-0.007330383,-0.03726278,0.014966198,279.24582,-123.097855,32.799286,STD
542373286000,1.205372,4.5866142685569,8.74430101026594,-0.411464664278451,-0.02321288,-0.048258353,0.008246681,279.22998,-123.100876,32.802204,STD
542377890000,1.209976,4.57799252682831,8.7529224819124,-0.407153793414157,-0.0070249503,-0.051923547,0.014660766,279.21432,-123.109665,32.810112,STD
542383462000,1.215548,4.56804606876972,8.762778,-0.401953983280757,-0.013744468,-0.05497787,0.009162978,279.20114,-123.11281,32.81396,STD
542387906000,1.219992,4.56674262156136,8.762778,-0.398043598101743,-0.011301007,-0.04550946,0.025045475,279.1859,-123.12451,32.82573,STD
542392855000,1.224941,4.56529105535206,8.762778,-0.393688850970567,-0.024129177,-0.058337633,0.016798794,279.17487,-123.12298,32.824417,STD
542397886000,1.229972,4.56381543813666,8.762778,-0.389261950017457,-0.029626964,-0.065973446,0.011911872,279.1596,-123.127075,32.828777,STD
542402845000,1.234931,4.56236093887783,8.762778,-0.384898403639705,-0.022296581,-0.058948494,0.018936822,279.14404,-123.132126,32.834133,STD
542407897000,1.239983,4.56087916225843,8.762778,-0.380453024268782,-0.026572637,-0.06627888,0.023823744,279.13754,-123.13243,32.834995,STD
542412870000,1.244956,4.55942055673027,8.762778,-0.376077158945821,-0.03023783,-0.070249505,0.014049901,279.12747,-123.13081,32.83388,STD
542417899000,1.249985,4.56057955722482,8.76681711444965,-0.375515029877699,-0.03268129,-0.07971791,0.008857546,279.12213,-123.13171,32.835094,STD
542422904000,1.25499,4.56540432281443,8.77646664562887,-0.380339825695304,-0.032070424,-0.08246681,0.018325957,279.1161,-123.13399,32.837788,STD
542427891000,1.259977,4.57021173659973,8.78608147319946,-0.385147269599879,-0.030543262,-0.07819075,0.01282817,279.11377,-123.13083,32.835835,STD
542432923000,1.265009,4.57506252989582,8.79578305979163,-0.38999809328703,-0.036651913,-0.09010262,0.008552114,279.11816,-123.13045,32.836437,STD
542438693000,1.270779,4.5929387769004,8.81022035691725,-0.417009535759107,-0.04428773,-0.081855945,0.004886922,279.11407,-123.128685,32.8362,STD
542442902000,1.274988,4.61415837639503,8.82295238250158,-0.450960912676353,-0.04062254,-0.08277224,0.003970624,279.11707,-123.12677,32.835094,STD
542447875000,1.279961,4.62302670011913,8.83238685356894,-0.464121922922665,-0.04184427,-0.07452556,0.00030543262,279.1159,-123.12251,32.83221,STD
542452903000,1.284989,4.61824638140574,8.83716727211357,-0.454561290487442,-0.046120327,-0.0720821,0.0015271631,279.1171,-123.11954,32.830395,STD
542457896000,1.289982,4.61098095276317,8.83183326074015,-0.452629790462347,-0.04917465,-0.0720821,0.002443461,279.12415,-123.116295,32.82734,STD
542462880000,1.294966,4.60150957258657,8.81762596795317,-0.457365455825975,-0.049480084,-0.06994407,0.008246681,279.12973,-123.11484,32.82623,STD
542467897000,1.299983,4.5945083168692,8.80987575313367,-0.460472959625873,-0.049785517,-0.053145275,0.008246681,279.12793,-123.11081,32.82324,STD
542472945000,1.305031,4.58988258553886,8.80833380512232,-0.462014873826109,-0.04428773,-0.053450707,0.013133603,279.13147,-123.11009,32.823017,STD
542477889000,1.309975,4.58535215453705,8.80682362466112,-0.463525021172775,-0.043982297,-0.048258353,0.017104227,279.13962,-123.109604,32.824184,STD
542482910000,1.314996,4.58075116463815,8.80528992399451,-0.465058688209103,-0.041233405,-0.03634648,0.017104227,279.14542,-123.10965,32.82571,STD
542487881000,1.319967,4.57619599220489,8.80377149618856,-0.466577082719676,-0.03970624,-0.03176499,0.021685716,279.15204,-123.11208,32.82955,STD
542492901000,1.324987,4.57159591865531,8.80223810097917,-0.468110444305489,-0.042760566,-0.029321533,0.02687807,279.15527,-123.11461,32.83372,STD
542497866000,1.329952,4.56079682956204,8.79741510948905,-0.474156778029197,-0.032070424,-0.038789943,0.028710667,279.16248,-123.11586,32.836006,STD
542502909000,1.334995,4.52969181559682,8.7818627919708,-0.494893500920996,-0.03573562,-0.035124753,0.024740042,279.16425,-123.116295,32.83838,STD
542508056000,1.340142,4.50891235546039,8.76530060599572,-0.500516305481799,-0.044898596,-0.032070424,0.026572637,279.17584,-123.12085,32.844486,STD
542512887000,1.344973,4.5047843676838,8.74878908592077,-0.484004690579943,-0.04062254,-0.03573562,0.027794369,279.18817,-123.124344,32.849068,STD
542517858000,1.349944,4.49972492640645,8.73817025665068,-0.467889439949847,-0.040011674,-0.035124753,0.021380283,279.2028,-123.12332,32.849056,STD
542522911000,1.354997,4.48917296004143,8.76982643120366,-0.457337424002399,-0.03573562,-0.04917465,0.022602014,279.22363,-123.12508,32.851086,STD
542527845000,1.359931,4.47636975833992,8.79429678349802,-0.444534181062253,-0.04428773,-0.05375614,0.025350908,279.2409,-123.12697,32.85465,STD
542532960000,1.365046,4.45700796703557,8.80397737588933,-0.425172364486166,-0.038179077,-0.05681047,0.027794369,279.2622,-123.12973,32.858086,STD
542537867000,1.369953,4.44320737847372,8.81238567710583,-0.413526368354932,-0.04153884,-0.06566802,0.017104227,279.27518,-123.122116,32.85125,STD
542542921000,1.375007,4.44162346764186,8.81872128735519,-0.419862019951895,-0.051923547,-0.07666359,0.02107485,279.2902,-123.11948,32.84928,STD
542547880000,1.379966,4.44006932957,8.82493780718633,-0.426078580353426,-0.056505036,-0.083383106,0.010079277,279.30164,-123.10625,32.836994,STD
542552966000,1.385052,4.43847539001898,8.83131353210289,-0.432454346879377,-0.060170226,-0.080634214,0.019547688,279.31403,-123.09996,32.83191,STD
542557894000,1.38998,4.4369309672688,8.83749119085019,-0.438632045943452,-0.062308256,-0.079107046,0.007330383,279.32806,-123.08466,32.817657,STD
542562883000,1.394969,4.43536742727273,8.84374531818182,-0.444886214090909,-0.06047566,-0.0711658,0.0061086523,279.33936,-123.075516,32.809715,STD
542567914000,1.4,4.43528479745713,8.84407585274985,-0.453372048178593,-0.06994407,-0.067500606,-0.0009162979,279.3499,-123.05734,32.793095,STD
542572905000,1.404991,4.44235132246698,8.81580999866943,-0.472216066499606,-0.070249505,-0.07941248,-0.008246681,279.36288,-123.03966,32.77636,STD
542578261000,1.410347,4.44993463401833,8.78547701641041,-0.492438178727085,-0.067500606,-0.06963864,-0.011301007,279.37164,-123.019684,32.757523,STD
542582910000,1.414996,4.45651693711808,8.7591480331165,-0.509990941935738,-0.06047566,-0.06811147,-0.0067195175,279.3871,-123.00064,32.738987,STD
542587876000,1.419962,4.46477685717058,8.73305554550747,-0.523250878189404,-0.059253927,-0.06352998,-0.011911872,279.39764,-122.978546,32.717735,STD
542592897000,1.424983,4.48343971831943,8.72372387133709,-0.490590666558316,-0.064446285,-0.067500606,-0.01863139,279.41058,-122.957985,32.697807,STD
542598013000,1.430099,4.50248200341246,8.7135110074184,-0.458649479065282,-0.062002823,-0.070554934,-0.021991149,279.43,-122.94287,32.68203,STD
542602882000,1.434968,4.52093089002967,8.6950622652819,-0.444812835774481,-0.06291912,-0.06811147,-0.026267206,279.44843,-122.92586,32.664654,STD
542608115000,1.440201,4.53972201538461,8.67500840659341,-0.430009143296703,-0.050701816,-0.08368854,-0.02565634,279.46545,-122.91322,32.65161,STD
542612876000,1.444962,4.54393243820297,8.65395607267522,-0.417377734152738,-0.050701816,-0.080634214,-0.02107485,279.4752,-122.90054,32.63942,STD
542618009000,1.450095,4.54847184175824,8.63125881789639,-0.403759371805338,-0.050396383,-0.081855945,-0.022602014,279.49536,-122.894295,32.633595,STD
542622902000,1.454988,4.57767926961741,8.63416891399094,-0.395393448985814,-0.03390302,-0.07971791,-0.026267206,279.5131,-122.88943,32.628708,STD
542627878000,1.459964,4.61077142201977,8.6404721325353,-0.387514381378261,-0.027794369,-0.082161374,-0.030848695,279.53247,-122.88369,32.623123,STD
542632908000,1.464994,4.64422269343937,8.6468437541748,-0.379549809419662,-0.023518313,-0.08399397,-0.029932396,279.5445,-122.87979,32.619175,STD
542637842000,1.469928,4.67703553105056,8.65309377031183,-0.371737245196257,-0.015882496,-0.09773844,-0.034208454,279.56097,-122.873604,32.61229,STD
542642898000,1.474984,4.7106597116266,8.65949832677491,-0.363731504476043,-0.015271631,-0.09590584,-0.03726278,279.5727,-122.8681,32.606472,STD
542647886000,1.479972,4.74383166825502,8.66581674600708,-0.355833435901591,-0.0143553335,-0.094989546,-0.03390302,279.58923,-122.86366,32.60113,STD
542652889000,1.484975,4.75747330831753,8.68914098643778,-0.361718829802731,-0.0125227375,-0.0888809,-0.030848695,279.5999,-122.863266,32.599644,STD
542657876000,1.489962,4.76653244165402,8.71631833915023,-0.370777915842185,-0.009468411,-0.086132,-0.029932396,279.61133,-122.86331,32.598484,STD
542662878000,1.494964,4.78396223416002,8.72152849171852,-0.382322806640961,-0.004581489,-0.07971791,-0.03176499,279.61224,-122.86799,32.60315,STD
542668021000,1.500107,4.80554381438962,8.7172120855315,-0.395271763792831,-0.004276057,-0.0729984,-0.029626964,279.6122,-122.873795,32.609066,STD
542672953000,1.505039,4.82558435986581,8.70644364013419,-0.40856368740063,-0.005497787,-0.06383542,-0.023823744,279.60846,-122.877914,32.613018,STD
542677893000,1.509979,4.84482158462946,8.68720641537054,-0.422991691344922,0.004581489,-0.056199603,-0.014660766,279.60318,-122.88388,32.61854,STD
542682873000,1.514959,4.84871167617216,8.67210079192224,-0.433199415750078,0.008552114,-0.04795292,-0.005192355,279.59772,-122.89388,32.62825,STD
542687906000,1.519992,4.83367897008005,8.66207900530201,-0.438210335221957,0.012217305,-0.04184427,-0.010079277,279.59033,-122.902374,32.63625,STD
542692892000,1.524978,4.82587475142302,8.66077735541078,-0.443876933588326,0.017104227,-0.029626964,0.0061086523,279.58005,-122.934006,32.666862,STD
542697886000,1.529972,4.82430116409042,8.66707181976113,-0.450171356860132,0.015271631,-0.01740966,0.0070249503,279.5673,-122.95888,32.69098,STD
542702908000,1.534994,4.82271875408153,8.67340157546145,-0.456501071251604,0.015577064,-0.008246681,0.0015271631,279.55884,-122.98956,32.721012,STD
542707900000,1.539986,4.82114579694009,8.67969351900109,-0.462792973729148,0.030848695,0.004581489,0.0009162979,279.54517,-123.021194,32.751934,STD
542712874000,1.54496,4.8195785115191,8.6859627752443,-0.469062189058336,0.023518313,0.0106901415,-0.0015271631,279.53058,-123.04893,32.779797,STD
542718030000,1.550116,4.81795387870233,8.6924614252624,-0.475560796665351,0.02107485,0.021685716,0.0027488936,279.51038,-123.07805,32.808804,STD
542722927000,1.555013,4.81287452892442,8.70638962209302,-0.480970074418605,0.03756821,0.026267206,0.004276057,279.4903,-123.10513,32.8354,STD
542727892000,1.559978,4.80365959476744,8.7294268372093,-0.485577517441861,0.03940081,0.03940081,0.009468411,279.46402,-123.132935,32.86377,STD
542732892000,1.564978,4.79345920397625,8.74452919087945,-0.482087610845866,0.04153884,0.058337633,0.015577064,279.44168,-123.16129,32.89199,STD
542737905000,1.569991,4.7817765986324,8.74686563875505,-0.46573195116562,0.035124753,0.056505036,0.014660766,279.42212,-123.18798,32.918633,STD
542742889000,1.574975,4.77016157668273,8.74918857037524,-0.449470908307782,0.03970624,0.0693332,0.016493361,279.3898,-123.20986,32.94056,STD
542747884000,1.57997,4.7585209196525,8.75151662885093,-0.43317397631041,0.039095376,0.0693332,0.020463986,279.36285,-123.231026,32.961876,STD
542752835000,1.584921,4.74441105455232,8.7543385395912,-0.420810976048878,0.043982297,0.070554934,0.020463986,279.33145,-123.25126,32.98226,STD
542757898000,1.589984,4.72286584669185,8.75864754516774,-0.418656457512553,0.0421497,0.07269296,0.02076942,279.30017,-123.271774,33.00324,STD
542763486000,1.595572,4.69908654163075,8.7634033664519,-0.416278529489447,0.03176499,0.06688975,0.016493361,279.26392,-123.2861,33.018932,STD
542767904000,1.59999,4.68028608175961,8.76716342701622,-0.414398485465452,0.031154128,0.074830994,0.02687807,279.2231,-123.304474,33.038773,STD
542772914000,1.605,4.65896641133082,8.77142732548323,-0.412266520648745,0.029321533,0.06688975,0.013744468,279.1894,-123.31412,33.049763,STD
542777890000,1.609976,4.63270570446403,8.75073270446402,-0.419010094284884,0.028405234,0.06627888,0.013439035,279.15152,-123.329834,33.06719,STD
542782871000,1.614957,4.6049906622446,8.7230176622446,-0.428248419182725,0.02076942,0.059253927,0.016493361,279.11868,-123.34212,33.081123,STD
542787908000,1.619994,4.59170691348162,8.72349417413135,-0.441276517937839,0.032070424,0.06627888,0.013133603,279.0812,-123.34561,33.08598,STD
542792831000,1.624917,4.58460512261498,8.73533053344045,-0.455480161468166,0.026572637,0.062308256,0.017104227,279.05054,-123.35109,33.09325,STD
542797894000,1.62998,4.57730137141494,8.7475034944768,-0.470087727422675,0.02565634,0.062002823,0.0143553335,279.00418,-123.35299,33.095314,STD
542802844000,1.63493,4.57016063105543,8.7594047698333,-0.484369270277666,0.024129177,0.060170226,0.013133603,278.96036,-123.35614,33.098763,STD
542807897000,1.639983,4.54857036405448,8.76930025953914,-0.475372896524862,0.029321533,0.06505715,0.0106901415,278.91232,-123.35671,33.09948,STD
542812903000,1.644989,4.52173500028921,8.77824558317007,-0.457482613539509,0.026267206,0.06688975,0.004581489,278.86642,-123.355545,33.098724,STD
542817900000,1.649986,4.50772226111637,8.78488573888363,-0.456017281315043,0.027488936,0.060170226,0.0030543262,278.82956,-123.35188,33.094337,STD
542822909000,1.654995,4.50267956238831,8.78992843761169,-0.466102462888679,0.028099801,0.056505036,-0.0021380284,278.7913,-123.345474,33.08748,STD
542827894000,1.65998,4.49511955009599,8.79449849081269,-0.466273782560563,0.03145956,0.06078109,0.011301007,278.7471,-123.336334,33.078236,STD
542833740000,1.665826,4.48488357231008,8.79961607889204,-0.461155772290886,0.02443461,0.055588737,0.011301007,278.723297677394,-123.325815172896,33.0676827021787,STD
542837900000,1.669986,4.47415215562842,8.79848744459016,-0.470077825086339,0.025961773,0.057726767,-0.0018325958,278.70636,-123.31833,33.060173,STD
542842894000,1.67498,4.45847126852459,8.79326093704918,-0.490985612701639,0.03023783,0.05222898,0.0015271631,278.6687,-123.30873,33.04994,STD
542847875000,1.679961,4.45220398174302,8.79251994435754,-0.492938803818356,0.027794369,0.049785517,-0.00030543262,278.6276,-123.28914,33.030163,STD
542852912000,1.684998,4.45066406672626,8.79405974681564,-0.485239145119553,0.028099801,0.041233405,-0.004886922,278.59097,-123.270515,33.010906,STD
542857897000,1.689983,4.44914004918436,8.79558365296089,-0.47761897465826,0.030543262,0.0421497,-0.008246681,278.55997,-123.24704,32.986694,STD
542862887000,1.694973,4.44761450303911,8.79710908759776,-0.469991161097207,0.038179077,0.032375857,-0.0033597588,278.536,-123.22554,32.963905,STD
542867898000,1.699984,4.44608253675978,8.79864094189944,-0.462331246517159,0.03573562,0.030848695,-0.0015271631,278.50916,-123.20271,32.940285,STD
542872944000,1.70503,4.44453987025698,8.80018349564246,-0.454617830238787,0.03176499,0.032070424,-0.004276057,278.48502,-123.180855,32.917336,STD
542877891000,1.709977,4.4465156603609,8.80300328030075,-0.454905532604511,0.03390302,0.024740042,-0.002443461,278.45673,-123.16043,32.89503,STD
542882891000,1.714977,4.45371626186466,8.80780378155389,-0.466906540123308,0.043982297,0.03573562,-0.007330383,278.42194,-123.13815,32.87123,STD
542887879000,1.719965,4.46089958192481,8.81259276160401,-0.47887874522406,0.038789943,0.028405234,-0.007330383,278.3883,-123.12082,32.85277,STD
542892864000,1.72495,4.46807858162406,8.81737886135338,-0.490843749720301,0.044593163,0.024129177,-0.0033597588,278.35037,-123.10452,32.835007,STD
542897845000,1.729931,4.46663636386287,8.82597125632848,-0.499904726717162,0.038789943,0.03145956,-0.005192355,278.3113,-123.086555,32.816307,STD
542903252000,1.735338,4.45115447500498,8.84145292963923,-0.505065350947778,0.04795292,0.03023783,-0.0012217305,278.2773,-123.0726,32.800705,STD
542907842000,1.739928,4.4436383,8.85355952837001,-0.50757074,0.035124753,0.032986723,0.00030543262,278.24512,-123.0584,32.785492,STD
542912904000,1.74499,4.4436383,8.86538510323462,-0.50757074,0.040927973,0.030848695,-0.005497787,278.21527,-123.04463,32.769684,STD
542917827000,1.749913,4.4436383,8.87688595370054,-0.50757074,0.048563786,0.032986723,-0.0009162979,278.18524,-123.03133,32.754803,STD
542922944000,1.75503,4.4436383,8.88884001663658,-0.50757074,0.043982297,0.032375857,-0.005192355,278.1569,-123.014145,32.73623,STD
542927837000,1.759923,4.44784239833967,8.89405035557111,-0.517380311572314,0.042760566,0.021685716,-0.005497787,278.13184,-123.000244,32.720448,STD
542932897000,1.764983,4.46238288883777,8.88435699889978,-0.55130815310062,0.04520403,0.027183503,-0.00061086525,278.10193,-122.98706,32.70585,STD
542938078000,1.770164,4.46806582383461,8.87052853972434,-0.577476990100957,0.04795292,0.030848695,-0.005497787,278.075638358209,-122.969320874627,32.6866571014925,STD
542942947000,1.775033,4.45578522357124,8.85006087261873,-0.58566407404091,0.040011674,0.028099801,-0.0021380284,278.05093,-122.95265,32.66862,STD
542948141000,1.780227,4.44214133324718,8.82831904497053,-0.594136280711258,0.035124753,0.023823744,-0.0033597588,278.03577,-122.93326,32.647194,STD
542952824000,1.78491,4.42359557847617,8.80977343543885,-0.598772707300734,0.036957346,0.025045475,-0.0018325958,278.02008,-122.91615,32.62824,STD
542957817000,1.789903,4.40627276151146,8.79169733656824,-0.602208725399546,0.034208454,0.028405234,-0.0018325958,278.00793,-122.89873,32.608963,STD
542962796000,1.794882,4.4185799283502,8.79415856431964,-0.587440114912244,0.029932396,0.014660766,-0.0027488936,278.0014,-122.882034,32.590115,STD
542967828000,1.799914,4.43101810138344,8.79664599112121,-0.572514296882098,0.0290161,0.01282817,-0.005497787,277.99146,-122.86453,32.570633,STD
542972817000,1.804903,4.44334998637208,8.79911216208961,-0.55771602459426,0.035124753,0.0036651916,-0.0021380284,277.98892,-122.84916,32.552753,STD
542977811000,1.809897,4.45979929427145,8.80296626341559,-0.547759224128476,0.033292156,-0.003970624,-0.0027488936,277.9864,-122.83212,32.53357,STD
542982861000,1.814947,4.49295052664512,8.81243822777125,-0.557230990677634,0.017715093,-0.009468411,-0.00061086525,277.9865,-122.81705,32.516533,STD
542987814000,1.8199,4.51948910291223,8.81947537899177,-0.565795205061257,0.015577064,-0.004886922,0.0012217305,277.9714,-122.81621,32.513718,STD
542992810000,1.824896,4.5146844038562,8.81467052942358,-0.57059995428801,0.0143553335,-0.0070249503,0.00030543262,277.96054,-122.81471,32.51055,STD
542997798000,1.829884,4.50933337442298,8.81133332330313,-0.575951021371175,0.024129177,-0.0033597588,-0.005497787,277.9477,-122.81665,32.510567,STD
543002897000,1.834983,4.50098453562147,8.81550780808685,-0.58429983401949,0.015577064,0.0009162979,-0.008857546,277.93555,-122.81822,32.510963,STD
543007832000,1.839918,4.49290422193537,8.81954802820995,-0.592380122393572,0.005497787,-0.0033597588,-0.011301007,277.9247,-122.820465,32.511368,STD
543012879000,1.844965,4.50987339437403,8.81656870447707,-0.608442911666819,0.009162978,-0.00580322,-0.010995574,277.91196,-122.82266,32.51175,STD
543017947000,1.850033,4.53200124264612,8.81214304239993,-0.626145185663354,0.007941248,-0.008552114,-0.0076358155,277.90097,-122.82446,32.512226,STD
543022934000,1.85502,4.53662356568956,8.82457567155218,-0.626503764284831,0.005192355,-0.0012217305,-0.016798794,277.88324,-122.82028,32.506134,STD
543027868000,1.859954,4.53245157812114,8.84543560939431,-0.618159793504326,-0.004581489,-0.0061086523,-0.009773844,277.8713,-122.821365,32.505367,STD
543032883000,1.864969,4.53372202484604,8.86243862645997,-0.616808183136547,0.0070249503,-0.0036651916,-0.004886922,277.85825,-122.82411,32.50541,STD
543037919000,1.870005,4.54396379868337,8.87268066765768,-0.627050005098747,0.011911872,0.00580322,-0.009468411,277.84454,-122.82547,32.5048,STD
543042898000,1.874984,4.54666431388487,8.87306248249928,-0.63902537792884,0.007941248,0.01160644,-0.008552114,277.83618,-122.8297,32.50775,STD
543047881000,1.879967,4.54206295470061,8.86385947584611,-0.652829633257159,0.007941248,0.0076358155,0.003970624,277.82825,-122.83615,32.51266,STD
543052902000,1.884988,4.53298518426978,8.86282684811842,-0.67150159679975,0.015882496,0.0067195175,0.0030543262,277.81543,-122.83298,32.507607,STD
543057898000,1.889984,4.51802254705514,8.87280218263317,-0.696439412290212,0.010995574,0.009773844,-0.0036651916,277.80295,-122.83123,32.50453,STD
543062874000,1.89496,4.51184060279077,8.87653536072685,-0.69936677187497,0.028099801,0.021380283,0.006414085,277.79214,-122.83554,32.50618,STD
543067926000,1.900012,4.51417257793898,8.87420331252711,-0.680710758839832,0.01740966,0.017715093,0.009162978,277.7852,-122.83467,32.503643,STD
543072891000,1.904977,4.51646439437027,8.87191142430231,-0.662376019188316,0.012217305,0.018020526,0.008246681,277.77924,-122.83414,32.500282,STD
543077901000,1.909987,4.51877698255169,8.86959876367668,-0.64387510364872,0.017104227,0.015882496,0.010995574,277.77563,-122.83542,32.49868,STD
543082895000,1.914981,4.51943027085305,8.86565572114695,-0.62548972554552,0.017104227,0.015577064,0.0076358155,277.7677,-122.838356,32.498936,STD
543087898000,1.919984,4.51714055854241,8.85878660812425,-0.607171828614098,0.017104227,0.008857546,0.011911872,277.76312,-122.844284,32.501884,STD
543092872000,1.924958,4.51486411859976,8.85195731206691,-0.588960111776822,0.015271631,0.022296581,0.017715093,277.74283,-122.84984,32.50634,STD
543097884000,1.92997,4.51257028727838,8.84507584205496,-0.57060926240239,0.013133603,0.01038471,0.016798794,277.73355,-122.85454,32.5092,STD
543102864000,1.93495,4.51030218318946,8.84051441139887,-0.555080990996008,0.01038471,0.01985312,0.010079277,277.7123,-122.8571,32.510952,STD
543107900000,1.939986,4.50806372723475,8.84722954553049,-0.552842581787803,-0.00030543262,0.01863139,0.008552114,277.69907,-122.86036,32.513287,STD
543112888000,1.944974,4.50584660684118,8.85388067520653,-0.550625507695164,-0.00061086525,0.013439035,0.007941248,277.67456,-122.86763,32.520596,STD
543118014000,1.9501,4.50356814670937,8.86071581769238,-0.548347095145271,-0.0009162979,0.004581489,0.009468411,277.652,-122.874435,32.52776,STD
543123946000,1.956032,4.50077232465617,8.86844968557727,-0.545224642490047,-0.0021380284,-0.0012217305,0.005192355,277.6303,-122.87918,32.53286,STD
543127896000,1.959982,4.49734959890518,8.87187251854868,-0.538379119507781,0.0012217305,0.0015271631,0.0033597588,277.60907,-122.884995,32.53889,STD
543132888000,1.964974,4.4930239667662,8.87619828619255,-0.529727764893232,-0.0018325958,-0.00061086525,0.004581489,277.59113,-122.889694,32.544037,STD
543137904000,1.96999,4.49795849212897,8.86482775015353,-0.5331605585261,-0.011911872,-0.007941248,-0.0009162979,277.57394,-122.89169,32.546562,STD
543142882000,1.974968,4.50771766496418,8.84530960829069,-0.542919680409417,-0.015882496,-0.006414085,-0.0027488936,277.55487,-122.89507,32.55054,STD
543147890000,1.979976,4.51393815666861,8.84591717708333,-0.552402381464174,-0.0106901415,-0.009773844,0.004886922,277.53806,-122.89824,32.554348,STD
543152959000,1.985045,4.51866404182243,8.85536875,-0.56185425046729,-0.01038471,-0.0061086523,0.004276057,277.51825,-122.89819,32.555477,STD
543157982000,1.990068,4.51865770465175,8.86014104531313,-0.569816642671618,-0.01740966,-0.004581489,0.008857546,277.5067,-122.90254,32.560936,STD
543162883000,1.994969,4.51630245541951,8.86249636832597,-0.576882473986351,-0.016493361,-0.01038471,0.0012217305,277.49615,-122.903496,32.56255,STD
543168007000,2.000093,4.51384004018466,8.86495886069851,-0.584269807113609,-0.026572637,0.00061086525,0.00580322,277.48636,-122.90977,32.57064,STD
543172959000,2.005045,4.51146028213569,8.86733869329587,-0.591409165748695,-0.029626964,0.0021380284,0.004276057,277.48135,-122.912346,32.574303,STD
543177886000,2.009972,4.51378873896424,8.86501017977805,-0.59843117119852,-0.021380283,-0.004581489,0.0061086523,277.4757,-122.917114,32.580147,STD
543182891000,2.014977,4.51851689025894,8.86028190505549,-0.60552343270037,-0.022907447,-0.0018325958,0.01038471,277.46646,-122.92153,32.58638,STD
543187898000,2.019984,4.52324693092478,8.85555174091245,-0.61261852827275,-0.025045475,0.0030543262,0.007941248,277.4621,-122.92395,32.589703,STD
543193410000,2.025496,4.52845403780518,8.85034449810111,-0.620429226654007,-0.028099801,0.0012217305,0.00580322,277.45923,-122.927444,32.59408,STD
543197875000,2.029961,4.5270737774027,8.84345772745529,-0.628003866562111,-0.021991149,0.0070249503,0.01282817,277.44263,-122.93596,32.602825,STD
543202909000,2.034995,4.52246350569953,8.83423747288897,-0.637224395526442,-0.034513887,0.014966198,0.016493361,277.42593,-122.94192,32.60984,STD
543207898000,2.039984,4.51900478731846,8.82482432321239,-0.631662594301908,-0.025961773,0.008552114,0.009773844,277.4155,-122.95014,32.617435,STD
543212873000,2.044959,4.51659377155508,8.8151802098072,-0.612374266788118,-0.021380283,0.0027488936,0.011301007,277.4027,-122.96078,32.62831,STD
543217983000,2.050069,4.51411733124336,8.80527439684226,-0.592562537422195,-0.02321288,0.0015271631,0.01160644,277.39203,-122.97276,32.639984,STD
543222923000,2.055009,4.51172327739993,8.79569813147108,-0.573409906684884,-0.022296581,0.0018325958,0.010995574,277.38293,-122.98481,32.651367,STD
543227897000,2.059983,4.50809997198317,8.78378091594951,-0.575335507641997,-0.025961773,-0.0021380284,0.017104227,277.37604,-122.99823,32.66427,STD
543232893000,2.064979,4.50352484366036,8.77005553098107,-0.593635657865749,-0.024740042,-0.0015271631,0.016187929,277.36734,-123.00934,32.674774,STD
543237899000,2.069985,4.49412645911244,8.75580553191928,-0.601014651614498,-0.024129177,-0.0015271631,0.0106901415,277.3484,-123.02437,32.690197,STD
543242896000,2.074982,4.4793441991145,8.74102342627677,-0.59608721446458,-0.013744468,-0.009162978,-0.0012217305,277.33176,-123.03722,32.702854,STD
543247871000,2.079957,4.47462069798724,8.74080389990116,-0.600518031610208,-0.004886922,-0.004581489,0.0125227375,277.31656,-123.056274,32.721455,STD
543252891000,2.084977,4.47894054127954,8.75376324934855,-0.613477556976368,-0.012217305,-0.018020526,0.007941248,277.30933,-123.06615,32.73045,STD
543257896000,2.089982,4.48342539201818,8.76795768001226,-0.620272581155653,-0.009468411,-0.014660766,0.0076358155,277.29807,-123.07857,32.74224,STD
543263208000,2.095294,4.48862115302318,8.78614304698192,-0.612478901670412,-0.0106901415,-0.01282817,0.0067195175,277.2918,-123.088745,32.751854,STD
543267972000,2.100058,4.49328090555102,8.80245236329282,-0.605489238818813,-0.008552114,-0.01160644,0.009468411,277.28802,-123.09949,32.76148,STD
543272973000,2.105059,4.49817247196405,8.81957303727913,-0.598151853445,-0.013133603,-0.009468411,0.01038471,277.28326,-123.10884,32.77012,STD
543277896000,2.109982,4.50451759642296,8.83323447148535,-0.586924875711249,-0.016798794,-0.00580322,0.013133603,277.27777,-123.11929,32.779846,STD
543282902000,2.114988,4.51338009963028,8.84209665079952,-0.569199943329328,-0.025350908,-0.002443461,0.008857546,277.2715,-123.127335,32.787598,STD
543287839000,2.119925,4.51921146985109,8.848969,-0.559619700481785,-0.016798794,0.01038471,0.008552114,277.2529,-123.12886,32.789005,STD
543292896000,2.124982,4.51422047377235,8.848969,-0.579583588383573,-0.013439035,0.009162978,0.0076358155,277.238,-123.12849,32.788773,STD
543297841000,2.129927,4.50934001587056,8.848969,-0.599105325712887,-0.019242255,0.01038471,0.002443461,277.2171,-123.12457,32.786358,STD
543302912000,2.134998,4.50433520251971,8.848969,-0.619124482436234,-0.01985312,0.013133603,0.004276057,277.1966,-123.1228,32.785767,STD
543307829000,2.139915,4.49955472516243,8.84433617011223,-0.631039710395747,-0.02107485,0.017715093,0.0070249503,277.17886,-123.11731,32.782036,STD
543312875000,2.144961,4.49479745359323,8.83006433884623,-0.627868186633196,-0.021380283,0.0106901415,0.00061086525,277.16415,-123.10994,32.776157,STD
543317902000,2.149988,4.49005809485791,8.81584624614426,-0.624708604795235,-0.022602014,0.005497787,0.0021380284,277.15714,-123.10514,32.77184,STD
543322943000,2.155029,4.48530553719236,8.80158855660563,-0.621540223644418,-0.024740042,0.0015271631,0.0027488936,277.15198,-123.09845,32.765526,STD
543327832000,2.159918,4.48069628219794,8.78776077557918,-0.618467377890333,-0.030848695,-0.004581489,0.004276057,277.14948,-123.09248,32.75995,STD
543332915000,2.165001,4.47590412774168,8.77338429553062,-0.615272598800945,-0.027794369,-0.016798794,-0.004581489,277.15012,-123.08421,32.75153,STD
543337854000,2.16994,4.47347384050565,8.76222544705683,-0.614020779928665,-0.012217305,-0.020158553,0.006414085,277.14862,-123.08453,32.751392,STD
543342894000,2.17498,4.47815837216965,8.75988325459795,-0.618705309146892,-0.026267206,-0.020463986,-0.0030543262,277.14935,-123.075714,32.742867,STD
543347970000,2.180056,4.48287636477411,8.75752433219294,-0.623423299288106,-0.023518313,-0.022296581,0.0061086523,277.15997,-123.07907,32.74604,STD
543352947000,2.185033,4.4875023397923,8.75521141713981,-0.628049271891105,-0.030543262,-0.013133603,0.0030543262,277.1662,-123.07548,32.74336,STD
543357852000,2.189938,4.48996858680653,8.75164777599067,-0.63103341813986,-0.011301007,-0.007330383,0.0009162979,277.17255,-123.07792,32.745335,STD
543362871000,2.194957,4.47652361005128,8.73820270564103,-0.622070073784615,-0.014049901,-0.007330383,0.0015271631,277.1777,-123.07913,32.747253,STD
543368338000,2.200424,4.46353528313911,8.72536294287145,-0.613658924070466,-0.021685716,-0.01038471,0.009773844,277.18427,-123.08434,32.7524,STD
543372968000,2.205054,4.4736273679898,8.7374734868445,-0.623751021566824,-0.008857546,-0.0036651916,0.015577064,277.18738,-123.089615,32.75717,STD
543377830000,2.209916,4.48422514694101,8.75019086585033,-0.634348813797342,0.0027488936,0.0015271631,0.004886922,277.1898,-123.09108,32.7586,STD
543382895000,2.214981,4.49526540823015,8.76343922550983,-0.645389088920248,-0.004886922,0.011911872,0.0125227375,277.18878,-123.09897,32.767014,STD
543387912000,2.219998,4.50620104315368,8.77656203309359,-0.656324737546431,-0.0033597588,0.01160644,0.017715093,277.18927,-123.103806,32.771446,STD
543392897000,2.224983,4.51634967771267,8.80462671085068,-0.643778560222267,0.011911872,0.031154128,0.02076942,277.1874,-123.10557,32.773907,STD
543397883000,2.229969,4.52599802596484,8.84322010385937,-0.614833334120024,0.0030543262,0.028099801,0.01985312,277.1933,-123.106766,32.776062,STD
543402906000,2.234992,4.52381524961304,8.87658890816221,-0.606345980893613,0.007330383,0.03726278,0.019547688,277.19366,-123.11127,32.78056,STD
543407901000,2.239987,4.51394302461046,8.90620584088329,-0.611282119166237,-0.0076358155,0.036651913,0.018325957,277.1982,-123.114044,32.78408,STD
543412913000,2.244999,4.50160164649741,8.92205667428303,-0.615940410814292,-0.01038471,0.04642576,0.02321288,277.1919,-123.11029,32.782177,STD
543417971000,2.250057,4.48793743690644,8.93116630587682,-0.620495126735308,-0.004581489,0.034513887,0.021991149,277.1929,-123.10444,32.777786,STD
543422995000,2.255081,4.46902727059898,8.93257730016345,-0.630243386525334,-0.00030543262,0.057726767,0.027488936,277.18338,-123.09634,32.772476,STD
543427900000,2.259986,4.44644568998173,8.92806088972214,-0.643792367906932,-0.01038471,0.043982297,0.03268129,277.19037,-123.08782,32.765812,STD
543432903000,2.264989,4.42463347769738,8.91615602692062,-0.641794862930411,-0.01038471,0.052534413,0.030543262,277.183,-123.0771,32.75726,STD
543437908000,2.269994,4.40423259070015,8.89575524643541,-0.62139394397957,-0.018936822,0.050701816,0.026572637,277.1839,-123.066925,32.749302,STD
543442894000,2.27498,4.39836718988827,8.87421241413952,-0.62075438060276,-0.018020526,0.04550946,0.03359759,277.1903,-123.05354,32.737606,STD
543448415000,2.280501,4.4033313210215,8.84939149929584,-0.635646908774763,-0.03359759,0.045814894,0.03268129,277.19507,-123.03639,32.723072,STD
543452873000,2.284959,4.40319369135864,8.84259893506493,-0.637371364863137,-0.033292156,0.03970624,0.030543262,277.1996,-123.02075,32.70958,STD
543457896000,2.289982,4.39838809542957,8.84980726623377,-0.627760132861139,-0.04337143,0.03145956,0.03145956,277.2047,-123.00525,32.69707,STD
543462868000,2.294954,4.39363129213287,8.85694240909091,-0.618246486531469,-0.043982297,0.031154128,0.03268129,277.21335,-122.994606,32.68856,STD
543468000000,2.300086,4.38872141391109,8.86430716233766,-0.608426689072927,-0.052839845,0.026267206,0.038179077,277.22626,-122.98512,32.681507,STD
543472937000,2.305023,4.38825719021926,8.8702027336511,-0.605418530219257,-0.046731193,0.022296581,0.032375857,277.23672,-122.97583,32.67388,STD
543477898000,2.309984,4.3927863136511,8.87473195166826,-0.609947653651096,-0.046731193,0.023823744,0.032986723,277.24713,-122.96959,32.66981,STD
543482927000,2.315013,4.39751296273497,8.87594128217311,-0.614674319262549,-0.04642576,0.010079277,0.03176499,277.25894,-122.958954,32.66113,STD
543487912000,2.319998,4.40244374661227,8.87101034383392,-0.619605149478414,-0.051923547,0.01282817,0.029321533,277.2645,-122.94826,32.65293,STD
543492895000,2.324981,4.40721589825498,8.86623810174502,-0.631916738236865,-0.04917465,0.0009162979,0.030848695,277.2805,-122.93727,32.6433,STD
543497885000,2.329971,4.41177289548965,8.86168110451035,-0.654701281890913,-0.049480084,-0.004276057,0.034208454,277.29306,-122.92623,32.634056,STD
543502838000,2.334924,4.41342291409916,8.8570609683738,-0.666663799204244,-0.055283304,-0.002443461,0.031154128,277.30817,-122.91518,32.62458,STD
543507900000,2.339986,4.4084771872373,8.85211542226076,-0.654299528527851,-0.052839845,-0.0033597588,0.032375857,277.3259,-122.90688,32.617344,STD
543512870000,2.344956,4.40362134715364,8.84725975964089,-0.642159973952255,-0.058643065,-0.01038471,0.036957346,277.3458,-122.89685,32.607754,STD
543518733000,2.350819,4.39789301910324,8.84153164094062,-0.627839207659151,-0.064751714,-0.017104227,0.027488936,277.36533,-122.88363,32.594822,STD
543522831000,2.354917,4.39230418508681,8.84284308789394,-0.623354956476694,-0.05009095,-0.013133603,0.028405234,277.38544,-122.87326,32.58443,STD
543527894000,2.35998,4.38315388031704,8.85199332100396,-0.62564252669749,-0.06078109,-0.013133603,0.025961773,277.40848,-122.85861,32.570564,STD
543532838000,2.364924,4.3742186429515,8.86092848839404,-0.627876330207586,-0.06078109,-0.022602014,0.032375857,277.42783,-122.8472,32.55957,STD
543537915000,2.370001,4.36504303613418,8.87010402335346,-0.630170225923759,-0.06261369,-0.018020526,0.034208454,277.44202,-122.83383,32.54732,STD
543542831000,2.374917,4.35892974848306,8.87791182531952,-0.631010125741717,-0.07269296,-0.01863139,0.03726278,277.4558,-122.82712,32.54126,STD
543547880000,2.379966,4.36942960415064,8.87941183378831,-0.623510241590148,-0.062308256,-0.01985312,0.03145956,277.4679,-122.819305,32.533485,STD
543552864000,2.38495,4.37979428639409,8.88089253139347,-0.616106909720189,-0.070554934,-0.029626964,0.035124753,277.48456,-122.8103,32.525154,STD
543557903000,2.389989,4.39027334615027,8.88238956896017,-0.60862187976579,-0.065973446,-0.018936822,0.03268129,277.4942,-122.7991,32.5142,STD
543562870000,2.394956,4.40060267534434,8.88386521603177,-0.601243800031021,-0.06658431,-0.02076942,0.031154128,277.514,-122.7924,32.507797,STD
543567923000,2.400009,4.41111084937647,8.8853664128614,-0.593737974200583,-0.06811147,-0.026572637,0.029626964,277.53125,-122.785355,32.501053,STD
543572835000,2.404921,4.42132580105782,8.88682571997146,-0.586441592550254,-0.06780604,-0.036651913,0.020158553,277.54688,-122.77983,32.495346,STD
543577897000,2.409983,4.42788455995992,8.87707738461924,-0.57398565302004,-0.07666359,-0.029321533,0.020158553,277.55856,-122.77631,32.492275,STD
543582879000,2.414965,4.43266528316633,8.86273516508016,-0.559643473416834,-0.07971791,-0.03390302,0.024129177,277.57733,-122.771645,32.487312,STD
543588190000,2.420276,4.43776171450902,8.84744581783567,-0.544354168745491,-0.0711658,-0.035124753,0.025045475,277.5845,-122.77402,32.490143,STD
543592877000,2.424963,4.4422593559519,8.83395284654308,-0.530861235024048,-0.07452556,-0.04062254,0.021685716,277.59454,-122.77569,32.49256,STD
543597879000,2.429965,4.46051987238924,8.82643961501187,-0.536853343433544,-0.08124508,-0.04734206,0.022602014,277.6054,-122.778915,32.496284,STD
543602884000,2.43497,4.48422036882911,8.8216994167326,-0.551073641297468,-0.07880162,-0.045814894,0.021685716,277.61505,-122.78081,32.498497,STD
543607899000,2.439985,4.49789280374449,8.81068342731277,-0.558640035242291,-0.08307768,-0.04428773,0.017104227,277.62277,-122.78818,32.507416,STD
543612877000,2.444963,4.50702392025474,8.79698701474813,-0.563205569660984,-0.07849618,-0.046120327,0.018020526,277.63104,-122.79696,32.517273,STD
543617927000,2.450013,4.52254003897945,8.78854291282778,-0.576895713309709,-0.07422013,-0.043982297,0.02076942,277.64035,-122.80863,32.52986,STD
543622967000,2.455053,4.54208719702339,8.7836559957477,-0.596442993819986,-0.07544186,-0.0421497,0.026267206,277.65027,-122.82095,32.543045,STD
543627894000,2.45998,4.55416336599674,8.78970240024049,-0.608519176245813,-0.070554934,-0.05467244,0.022296581,277.6651,-122.834015,32.556156,STD
543632923000,2.465009,4.56243648781242,8.80211184540067,-0.616792250548828,-0.06994407,-0.036651913,0.026267206,277.6691,-122.850174,32.57328,STD
543637900000,2.469986,4.56956443827647,8.81208976809308,-0.612498257592191,-0.0693332,-0.04520403,0.022602014,277.687,-122.872604,32.594757,STD
543642895000,2.474981,4.57428107365411,8.816806501972,-0.579481795173536,-0.06047566,-0.039095376,0.026267206,277.69394,-122.897705,32.619335,STD
543647866000,2.479952,4.57369760253191,8.81756168842854,-0.55277754433982,-0.05955936,-0.036651913,0.028710667,277.7068,-122.92064,32.64149,STD
543652907000,2.484993,4.55854480377694,8.80745964678803,-0.542675713663946,-0.05681047,-0.02107485,0.030543262,277.71298,-122.943985,32.664143,STD
543657837000,2.489923,4.54735618878205,8.80271186217949,-0.541181684615385,-0.061086524,-0.018020526,0.030543262,277.71426,-122.966125,32.686577,STD
543662871000,2.494957,4.54267387450466,8.8073943231352,-0.555228774125874,-0.064446285,-0.01985312,0.027183503,277.71185,-122.98717,32.70802,STD
543667949000,2.500035,4.53407306234321,8.81199533377814,-0.557031756044836,-0.061391957,-0.022602014,0.027183503,277.7069,-123.00707,32.728542,STD
543672977000,2.505063,4.51693854544969,8.81627904127747,-0.531330020960769,-0.057726767,-0.014660766,0.02565634,277.6988,-123.02484,32.747204,STD
543677999000,2.510085,4.501809520244,8.81988373338623,-0.508281259502083,-0.05375614,-0.022602014,0.02687807,277.708,-123.04519,32.767887,STD
543682900000,2.514986,4.51112037509919,8.81522822088871,-0.517592104634993,-0.049785517,-0.005497787,0.022907447,277.70572,-123.06309,32.786705,STD
543687906000,2.519992,4.52063070756298,8.81047296776433,-0.527102427168221,-0.05955936,-0.015271631,0.025961773,277.70865,-123.07865,32.803543,STD
543692893000,2.524979,4.53010494407856,8.80573576294386,-0.536576653790914,-0.058337633,-0.01038471,0.021380283,277.70047,-123.09097,32.817287,STD
543698161000,2.530247,4.54013521830179,8.80254285943734,-0.545513542751918,-0.0580322,-0.004581489,0.02687807,277.70032,-123.107315,32.835457,STD
543702909000,2.534995,4.54943872393862,8.82115016214834,-0.540861814219949,-0.063224554,-0.008857546,0.021991149,277.70142,-123.118835,32.84876,STD
543707928000,2.540014,4.55871605330826,8.83923694180321,-0.535833034208971,-0.064446285,-0.02076942,0.016187929,277.70773,-123.13523,32.866188,STD
543712879000,2.544965,4.56083863553138,8.83711429308801,-0.529465207749127,-0.06505715,-0.008246681,0.028710667,277.70743,-123.154755,32.88732,STD
543717975000,2.550061,4.56302338184708,8.83492947833289,-0.522910886674725,-0.071776666,-0.004276057,0.023823744,277.7068,-123.163284,32.897102,STD
543722928000,2.555014,4.56514682150595,8.83280597215507,-0.516540487875369,-0.071776666,-0.010995574,0.023823744,277.70593,-123.17653,32.91141,STD
543727833000,2.559919,4.5672496827066,8.83070304508013,-0.510231825224282,-0.071776666,-0.017104227,0.025961773,277.70343,-123.18837,32.92461,STD
543732905000,2.564991,4.55665257085954,8.81833193081761,-0.490344543291405,-0.06994407,-0.013439035,0.025350908,277.70276,-123.202805,32.940475,STD
543738009000,2.570095,4.53713375796147,8.79881321982629,-0.461066318848957,-0.07422013,-0.014660766,0.029321533,277.70584,-123.21844,32.957474,STD
543742894000,2.57498,4.53241301287632,8.79409229706202,-0.447526409030649,-0.0711658,-0.019547688,0.022296581,277.7076,-123.232895,32.973465,STD
543747875000,2.579961,4.5367385515778,8.79841747442873,-0.443200856779108,-0.07513642,-0.016798794,0.02565634,277.70752,-123.25048,32.993073,STD
543752938000,2.585024,4.5373386998265,8.79694992919107,-0.442600706650401,-0.07544186,-0.01282817,0.02321288,277.70242,-123.25693,33.00204,STD
543757896000,2.589982,4.53218994962047,8.78665275135545,-0.447749472985253,-0.07238753,-0.01985312,0.021991149,277.70023,-123.264404,33.011803,STD
543762887000,2.594973,4.53482942441414,8.77443204811756,-0.455109877908183,-0.062308256,-0.017715093,0.023518313,277.6911,-123.27603,33.025715,STD
543767986000,2.600072,4.54420934148098,8.76036205008644,-0.464489839050134,-0.06291912,-0.008246681,0.02076942,277.68173,-123.285515,33.037655,STD
543773442000,2.605528,4.55158482290381,8.74799799002944,-0.482272368278416,-0.064446285,-0.008857546,0.031154128,277.6739,-123.29581,33.049633,STD
543777901000,2.609987,4.55563988348685,8.73988808057165,-0.502547256245371,-0.06505715,-0.013133603,0.034208454,277.66388,-123.303024,33.058598,STD
543782890000,2.614976,4.55321604885448,8.73582934804896,-0.513584920163197,-0.058948494,-0.00061086525,0.027794369,277.6507,-123.31309,33.07028,STD
543787916000,2.620002,4.53810991923841,8.74086481221885,-0.503514207396171,-0.061086524,0.0018325958,0.029932396,277.64276,-123.32575,33.084515,STD
543792892000,2.624978,4.53619082394577,8.74150452178247,-0.504355262875087,-0.049785517,0.0030543262,0.03573562,277.64053,-123.33749,33.096996,STD
543797877000,2.629963,4.55046871672814,8.73674514136178,-0.518633130809491,-0.048563786,-0.0009162979,0.027488936,277.63895,-123.34509,33.105644,STD
543802915000,2.635001,4.56277297043038,8.7298349195905,-0.520404900362787,-0.047036625,0.017715093,0.030543262,277.6321,-123.35653,33.11872,STD
543807979000,2.640065,4.57241349562668,8.72019414272935,-0.505944011902395,-0.054367006,0.0076358155,0.030543262,277.6361,-123.36424,33.127583,STD
543812890000,2.644976,4.57188630695146,8.7187788629732,-0.496051559077906,-0.044593163,0.0070249503,0.03268129,277.6378,-123.37396,33.138317,STD
543817919000,2.650005,4.55810870759035,8.72796408906265,-0.491459041942405,-0.046120327,0.004581489,0.03145956,277.6433,-123.38187,33.147514,STD
543822855000,2.654941,4.54821389299475,8.73635531298474,-0.486878917518139,-0.05100725,0.00030543262,0.033292156,277.64752,-123.3888,33.156,STD
543827895000,2.659981,4.54579875323993,8.74360070703027,-0.482048580005004,-0.047036625,0.0018325958,0.03481932,277.65042,-123.395325,33.16386,STD
543832843000,2.664929,4.54342769936953,8.75071384388291,-0.47730641531949,-0.04062254,0.0018325958,0.027488936,277.65387,-123.39677,33.166634,STD
543837908000,2.669994,4.54100057975482,8.75799517738304,-0.472452117798849,-0.040011674,0.00030543262,0.02443461,277.65735,-123.39967,33.17089,STD
543843416000,2.675502,4.5363559259225,8.7637948161328,-0.46926352,-0.04795292,-0.005192355,0.024740042,277.66315,-123.39737,33.17001,STD
543847873000,2.679959,4.53012230957064,8.76587273887645,-0.46926352,-0.046120327,0.00580322,0.026572637,277.66373,-123.39508,33.169064,STD
543853012000,2.685098,4.52293483942654,8.7682686206309,-0.46926352,-0.04734206,0.00580322,0.030848695,277.666995379551,-123.39169159202,33.1666423904239,STD
543857898000,2.689984,4.51610121826989,8.77054654984909,-0.46926352,-0.05467244,0.0033597588,0.03023783,277.6701,-123.38847,33.16434,STD
543862922000,2.695008,4.51171704447926,8.77443715418209,-0.465099296426469,-0.05009095,0.00061086525,0.026267206,277.6726,-123.380936,33.15836,STD
543867922000,2.700008,4.5162630902402,8.78352953052312,-0.446914914009304,-0.042760566,0.008552114,0.027794369,277.67773,-123.37944,33.15896,STD
543872863000,2.704949,4.5218211793129,8.791509,-0.431479127256528,-0.056505036,0.0070249503,0.020463986,277.68658,-123.37163,33.153393,STD
543877908000,2.709994,4.53613036219458,8.791509,-0.436248862354509,-0.056199603,0.004581489,0.023518313,277.6932,-123.36805,33.15148,STD
543882917000,2.715003,4.55033743792389,8.791509,-0.440984561681722,-0.052839845,0.005497787,0.02687807,277.7019,-123.35929,33.14565,STD
543887873000,2.719959,4.56439418923441,8.791509,-0.445670152790858,-0.052534413,-0.0015271631,0.025045475,277.7139,-123.35016,33.139206,STD
543892934000,2.72502,4.57909937848151,8.79254839438993,-0.449070520053524,-0.046120327,0.0076358155,0.02443461,277.71994,-123.3429,33.134575,STD
543897869000,2.729955,4.59783721493706,8.80660157607295,-0.435017128037467,-0.05009095,0.005192355,0.024740042,277.73212,-123.335365,33.1295,STD
543903020000,2.735106,4.61444172313718,8.81929162707233,-0.421063703967936,-0.037873644,0.0033597588,0.025350908,277.74295,-123.332535,33.128376,STD
543907913000,2.739999,4.59309936460193,8.80648639023502,-0.416795223346693,-0.043982297,0.006414085,0.024740042,277.75272,-123.32892,33.127087,STD
543913200000,2.745286,4.57003845113864,8.79265003479687,-0.412183031022044,-0.047647487,-0.0033597588,0.01863139,277.76718,-123.33331,33.13351,STD
543917916000,2.750002,4.58421547258017,8.78346946680396,-0.403763314696479,-0.040011674,0.0030543262,0.026267206,277.77512,-123.341415,33.143776,STD
543922886000,2.754972,4.60288638373051,8.7741338406394,-0.394427883491223,-0.04520403,0.006414085,0.03176499,277.787,-123.34657,33.15123,STD
543927913000,2.759999,4.60248029945222,8.76046431223372,-0.396612697772368,-0.03970624,0.005192355,0.032070424,277.79712,-123.350685,33.157116,STD
543932863000,2.764949,4.59767139805234,8.74603811016433,-0.401421498746196,-0.047647487,0.00030543262,0.030848695,277.80725,-123.35522,33.163887,STD
543947921000,2.780007,4.596867,8.73684992120308,-0.40222588,-0.046731193,0.017715093,0.028405234,277.82748,-123.37831,33.193806,STD
543952846000,2.784932,4.596867,8.73450506785981,-0.40222588,-0.042455133,0.020158553,0.023823744,277.83054,-123.38433,33.201904,STD
543957809000,2.789895,4.60079367525863,8.73993790013316,-0.400262552621121,-0.04520403,0.017104227,0.02443461,277.83612,-123.3911,33.21086,STD
543962818000,2.794904,4.60570716923077,8.747308,-0.397805818461538,-0.046120327,0.015577064,0.029321533,277.8402,-123.39779,33.21956,STD
543967841000,2.799927,4.61063439626652,8.75469869906791,-0.395342217806002,-0.036957346,0.027488936,0.029321533,277.84055,-123.40367,33.227364,STD
543972763000,2.804849,4.61546254905767,8.76194078961385,-0.392928154014135,-0.03634648,0.034513887,0.025350908,277.8429,-123.40935,33.235023,STD
543977809000,2.809895,4.61814988178477,8.76490722625019,-0.399036629800864,-0.046731193,0.029321533,0.035430185,277.84012,-123.41547,33.242893,STD
543982803000,2.814889,4.62052493959875,8.7672823336644,-0.406161808202811,-0.03359759,0.030848695,0.03145956,277.8323,-123.41704,33.24574,STD
543987813000,2.819899,4.62290760672891,8.76966505055371,-0.413309814569201,-0.030543262,0.03268129,0.03848451,277.82364,-123.425995,33.256428,STD
543992759000,2.824845,4.62525983659433,8.77201732954263,-0.420366509077817,-0.026572637,0.03970624,0.035430185,277.81247,-123.43114,33.26298,STD
543997808000,2.829894,4.6255975,8.78000828635233,-0.43094616188323,-0.025350908,0.04642576,0.032070424,277.801,-123.43794,33.27119,STD
544002834000,2.83492,4.6255975,8.78887332834515,-0.442027526857906,-0.01985312,0.048563786,0.03604105,277.78888,-123.44597,33.28041,STD
544007897000,2.839983,4.6255975,8.79780363228658,-0.453190469728336,-0.025961773,0.06078109,0.038789943,277.77448,-123.45264,33.288494,STD
544012906000,2.844992,4.6255975,8.80663868905977,-0.464234352967124,-0.029626964,0.058948494,0.044593163,277.76437,-123.46128,33.298122,STD
544017909000,2.849995,4.61261411041936,8.80936363392768,-0.466666843439586,-0.024129177,0.061086524,0.038179077,277.74783,-123.47293,33.31081,STD
544022903000,2.854989,4.58879374026297,8.80698154716605,-0.461902771895607,-0.03573562,0.059253927,0.038789943,277.7337,-123.48723,33.326565,STD
544027891000,2.859977,4.56500198889332,8.80460232234286,-0.457144424105987,-0.02443461,0.06291912,0.0421497,277.72278,-123.4995,33.339138,STD
544032881000,2.864967,4.54120069792808,8.80222214354019,-0.452384168398247,-0.024129177,0.062002823,0.035124753,277.71393,-123.50801,33.348423,STD
544037907000,2.869993,4.53255629228365,8.79835843549951,-0.458290312545533,-0.025350908,0.065973446,0.03756821,277.69528,-123.515015,33.355804,STD
544042901000,2.874987,4.53771056959802,8.79320458874879,-0.473753155252721,-0.02321288,0.06352998,0.043676864,277.67926,-123.52101,33.361965,STD
544047863000,2.879949,4.52792517947444,8.78002781953224,-0.464488971821383,-0.030848695,0.064751714,0.042455133,277.6659,-123.522354,33.364326,STD
544052915000,2.885001,4.51044924669496,8.76255179551201,-0.442644090062308,-0.031154128,0.058337633,0.047647487,277.65637,-123.527405,33.369965,STD
544057897000,2.889983,4.49676877565597,8.75103638782798,-0.428791174263181,-0.026267206,0.055283304,0.037873644,277.64584,-123.525345,33.368225,STD
544062936000,2.895022,4.48719440072417,8.74624920036208,-0.424003956804722,-0.02443461,0.060170226,0.034513887,277.63513,-123.52644,33.369755,STD
544067913000,2.899999,4.47773782917514,8.74152091458757,-0.419275641406676,-0.021991149,0.05497787,0.03176499,277.6186,-123.52045,33.364124,STD
544072977000,2.905063,4.46811595287932,8.73670997643966,-0.414464673117405,-0.026572637,0.04795292,0.035430185,277.60135,-123.515396,33.359623,STD
544077891000,2.909977,4.46068922174862,8.73825344672003,-0.405494472593825,-0.033292156,0.051923547,0.028710667,277.5821,-123.506836,33.3517,STD
544082892000,2.914978,4.45571005790623,8.74821151445057,-0.390557282613577,-0.021380283,0.042760566,0.029932396,277.57016,-123.50214,33.34693,STD
544087898000,2.919984,4.45809268666599,8.7410073470001,-0.387949926293165,-0.018325957,0.04184427,0.022907447,277.5455,-123.48967,33.334877,STD
544092898000,2.924984,4.46784805999796,8.71661904100031,-0.397705258879495,-0.022907447,0.031154128,0.013744468,277.52762,-123.47737,33.322586,STD
544098545000,2.930631,4.47392449783393,8.70687324909747,-0.392891086498195,-0.0143553335,0.030543262,0.017715093,277.50363,-123.466095,33.31138,STD
544102905000,2.934991,4.47596151842131,8.70891020587374,-0.380668954465802,-0.027183503,0.030543262,0.020463986,277.4832,-123.45169,33.297546,STD
544107893000,2.939979,4.47829194472631,8.7112405591765,-0.366686386902137,-0.026572637,0.023823744,0.01282817,277.46338,-123.44001,33.285343,STD
544112903000,2.944989,4.48063264957557,8.71358119070153,-0.352642148030052,-0.021991149,0.021685716,0.0106901415,277.4425,-123.43077,33.275913,STD
544117955000,2.950041,4.4861913124382,8.71913992327467,-0.336273366355547,-0.016187929,0.018936822,0.005497787,277.42093,-123.423096,33.267673,STD
544122970000,2.955056,4.49568852447103,8.72863738323116,-0.31727883320348,-0.008552114,0.015577064,0.009468411,277.40076,-123.41782,33.26166,STD
544127851000,2.959937,4.50200810083482,8.73768430841385,-0.307366901849733,-0.0143553335,0.008246681,-0.006414085,277.37555,-123.40541,33.24925,STD
544133043000,2.965129,4.50434014210675,8.74701222999719,-0.309698894420786,-0.009162978,0.013439035,-0.0018325958,277.34808,-123.40067,33.244232,STD
544137829000,2.969915,4.50648982421912,8.75561073398368,-0.311848531640559,-0.013133603,0.0061086523,-0.005497787,277.3271,-123.39092,33.234905,STD
544142898000,2.974984,4.50876661875059,8.76471767437389,-0.314125278624894,-0.0036651916,0.014660766,-0.004581489,277.2994,-123.384514,33.22881,STD
544147852000,2.979938,4.51401950933651,8.77302371583234,-0.315700269066349,-0.003970624,0.009773844,-0.0076358155,277.28067,-123.37384,33.218563,STD
544152904000,2.98499,4.53804711839491,8.77782933800159,-0.313297508160509,-0.0061086523,0.015882496,-0.010079277,277.25558,-123.36412,33.20941,STD
544157860000,2.989946,4.5616181458085,8.78254364193484,-0.31094040541915,-0.0143553335,0.018325957,-0.0076358155,277.23718,-123.35583,33.201733,STD
544162910000,2.994996,4.5856362427493,8.78734736164084,-0.30853859572507,-0.008552114,0.018325957,-0.005497787,277.21768,-123.3474,33.193653,STD
544168695000,3.000781,4.6122498680884,8.7949924723536,-0.309941343278012,-0.004276057,0.023823744,-0.004581489,277.19452,-123.34326,33.190155,STD
544172905000,3.004991,4.62958511961476,8.80539347845902,-0.320342501434345,-0.004276057,0.023823744,0.004276057,277.17365,-123.34218,33.189583,STD
544177830000,3.009916,4.64986448155473,8.81756092621894,-0.332510127068536,-0.0030543262,0.03176499,0.009773844,277.1539,-123.34178,33.190357,STD
544182881000,3.014967,4.64719681953074,8.80954243406851,-0.331622668381042,-0.01038471,0.03481932,0.007330383,277.13605,-123.34142,33.19128,STD
544187903000,3.019989,4.63816914412952,8.79600118019709,-0.327108854246832,-0.003970624,0.029626964,0.0009162979,277.11853,-123.34183,33.19256,STD
544192898000,3.024984,4.6351743,8.8026712154254,-0.320827587242535,-0.0143553335,0.04153884,0.0143553335,277.0933,-123.3472,33.199284,STD
544197879000,3.029965,4.6351743,8.81937262576902,-0.313669770905817,-0.0030543262,0.041233405,0.006414085,277.07373,-123.34537,33.19778,STD
544202963000,3.035049,4.6351743,8.83641939753914,-0.306363941101385,-0.009773844,0.03756821,0.008552114,277.05106,-123.34928,33.202957,STD
544207900000,3.039986,4.6351743,8.8529732748462,-0.299269353818837,-0.0125227375,0.034208454,0.0125227375,277.02853,-123.35179,33.206345,STD
544212904000,3.04499,4.62615780431026,8.84952959845995,-0.28786448665039,-0.0027488936,0.034513887,0.009773844,277.00623,-123.35309,33.208355,STD
544217951000,3.050037,4.612541331017,8.83591326734905,-0.274247956484177,-0.01740966,0.025045475,0.01863139,276.98895,-123.35806,33.214508,STD
544222984000,3.05507,4.60898040774594,8.83996168395415,-0.278296342221586,-0.024129177,0.010995574,0.017715093,276.96826,-123.36079,33.218094,STD
544227896000,3.059982,4.6134733160936,8.85793341117479,-0.296268172655205,-0.023823744,0.016187929,0.013744468,276.94464,-123.364815,33.22332,STD
544232872000,3.064958,4.61818677502839,8.86379075947146,-0.308623895028389,-0.02687807,0.0106901415,0.021685716,276.93314,-123.37367,33.23374,STD
544238362000,3.070448,4.62361432039847,8.85293544203572,-0.314051440398472,-0.03481932,0.008246681,0.017715093,276.91864,-123.37772,33.23956,STD
544242893000,3.074979,4.62315172069384,8.84163176423587,-0.320926183720036,-0.03268129,-0.0033597588,0.016187929,276.91525,-123.38022,33.243088,STD
544247900000,3.079986,4.61830181297664,8.82708224365328,-0.330626009282897,-0.025961773,-0.0036651916,0.0106901415,276.90875,-123.380325,33.24441,STD
544252955000,3.085041,4.60566118076923,8.80469966706731,-0.340368005024038,-0.04520403,-0.004276057,0.018020526,276.90417,-123.38662,33.252,STD
544257902000,3.089988,4.58668023942308,8.77622815594952,-0.349858485606971,-0.05681047,-0.009773844,0.021380283,276.9012,-123.390465,33.25669,STD
544262880000,3.094966,4.57522703432953,8.75780522443964,-0.34688245779591,-0.054367006,-0.012217305,0.009162978,276.89978,-123.392365,33.259357,STD
544267944000,3.10003,4.57045934703107,8.74827014854502,-0.332579385943767,-0.046120327,-0.014966198,0.014660766,276.9007,-123.399956,33.267742,STD
544272985000,3.105071,4.58655848497898,8.74823030798692,-0.323308709063055,-0.05375614,-0.021685716,0.014049901,276.91394,-123.40289,33.271767,STD
544277893000,3.109979,4.62168440598786,8.75701152461467,-0.318917954036432,-0.061391957,-0.032070424,0.008246681,276.92926,-123.40596,33.27559,STD
544282873000,3.114959,4.63764977621861,8.75745212850812,-0.310708670649926,-0.058948494,-0.030848695,0.010995574,276.93945,-123.41125,33.281887,STD
544287917000,3.120003,4.61726356520363,8.74216260329183,-0.295418921918126,-0.06047566,-0.028099801,0.009162978,276.95233,-123.413216,33.284958,STD
544292893000,3.124979,4.60865243053814,8.73183951181102,-0.290616865408496,-0.04917465,-0.023518313,0.01160644,276.96246,-123.42184,33.294468,STD
544297876000,3.129962,4.61343912447966,8.72705269291339,-0.297796948805858,-0.051618114,-0.024740042,0.010079277,276.9734,-123.42824,33.30201,STD
544302892000,3.134978,4.61825751838106,8.72223417322835,-0.305024582424394,-0.051923547,-0.032070424,0.002443461,276.98138,-123.43211,33.306915,STD
544308003000,3.140089,4.62316716974272,8.71732439370079,-0.312389103043282,-0.046731193,-0.029932396,0.004886922,276.98663,-123.438354,33.314198,STD
544312886000,3.144972,4.61669333704435,8.71044205798676,-0.318260665387731,-0.045814894,-0.03390302,0.007941248,276.99283,-123.444626,33.32121,STD
544317972000,3.150058,4.59744702476539,8.70081920329942,-0.323072253505878,-0.039095376,-0.03359759,0.004886922,276.99667,-123.44992,33.327053,STD
544322972000,3.155058,4.57942786586317,8.69377535554768,-0.323645832492024,-0.04184427,-0.03359759,0.006414085,277.00543,-123.459305,33.336815,STD
544327894000,3.15998,4.56271849590571,8.68959793672457,-0.319468492183623,-0.035430185,-0.0290161,0.013133603,277.0124,-123.469376,33.346985,STD
544332845000,3.164931,4.55251731147416,8.6879311442043,-0.317801775275767,-0.029321533,-0.030848695,0.005192355,277.02032,-123.472015,33.349472,STD
544337906000,3.169992,4.57228211851361,8.69781348322969,-0.32768417621572,-0.03176499,-0.028710667,0.00580322,277.02554,-123.478745,33.35623,STD
544342826000,3.174912,4.59149627592007,8.7074204992354,-0.337291252411051,-0.030543262,-0.03481932,0.009162978,277.03314,-123.481804,33.359016,STD
544347900000,3.179986,4.61131185207462,8.71732822265266,-0.347199037901927,-0.022296581,-0.023518313,0.008552114,277.03394,-123.48395,33.361073,STD
544352868000,3.184954,4.63066800874002,8.7320767300192,-0.345468531253915,-0.016798794,-0.024129177,-0.00030543262,277.0359,-123.49054,33.367065,STD
544357902000,3.189988,4.6501526965242,8.76130363453572,-0.311370564148732,-0.023518313,-0.023518313,0.0030543262,277.03375,-123.50008,33.376305,STD
544362900000,3.194986,4.6599961804444,8.78258348126353,-0.288607136677337,-0.012217305,-0.018936822,0.0030543262,277.034584241431,-123.504464733234,33.3803048897168,STD
544367967000,3.200053,4.64628961387817,8.78486794878072,-0.293175981067696,-0.021380283,-0.01740966,0.0061086523,277.03543,-123.50891,33.38436,STD
544372993000,3.205079,4.63269395499482,8.78713393136239,-0.297707856320497,-0.01740966,-0.02107485,0.004886922,277.04022,-123.51709,33.391758,STD
544377900000,3.209986,4.61942019889841,8.7893462625459,-0.302132430905753,-0.018020526,-0.012217305,0.004276057,277.0301,-123.52577,33.400692,STD
544383100000,3.215186,4.60607030412471,8.79038791237413,-0.306084131928737,-0.025045475,-0.0067195175,0.004886922,277.0261,-123.53213,33.407425,STD
544387908000,3.219994,4.60161191760263,8.7770127528079,-0.301625838512781,-0.0290161,-0.006414085,0.007941248,277.02094,-123.53885,33.414528,STD
544393220000,3.225306,4.59754614569506,8.76260821933812,-0.296711233664879,-0.029321533,-0.005497787,-0.0033597588,277.0162,-123.537094,33.413097,STD
544397876000,3.229962,4.61376205521411,8.7585543795345,-0.292657258401673,-0.020463986,-0.0015271631,0.002443461,277.01074,-123.541145,33.41741,STD
544402904000,3.23499,4.63127356575143,8.75417665046822,-0.288279383053005,-0.028710667,-0.0106901415,-0.00030543262,277.0143,-123.53923,33.416294,STD
544407898000,3.239984,4.64214091663694,8.77061776880105,-0.29775407767158,-0.019242255,-0.014049901,0.0015271631,277.01465,-123.540855,33.418247,STD
544412873000,3.244959,4.65108746226645,8.79298378255563,-0.31117383539386,-0.024740042,-0.0125227375,0.00061086525,277.01636,-123.54039,33.418556,STD
544417956000,3.250042,4.63902284617633,8.81639015382367,-0.3068515213132,-0.013744468,-0.016493361,0.004276057,277.01974,-123.545334,33.423637,STD
544423653000,3.255739,4.61244757603507,8.84296542396493,-0.290906348128592,-0.024740042,-0.0125227375,0.010079277,277.01987,-123.549904,33.429092,STD
544427898000,3.259984,4.60097837732973,8.84077072294038,-0.303700993818252,-0.019547688,-0.02107485,0.010995574,277.0294,-123.55751,33.43644,STD
544432916000,3.265002,4.59170640486205,8.82686303048428,-0.33151678535983,-0.024129177,-0.02687807,0.015577064,277.03668,-123.56708,33.446304,STD
544437905000,3.269991,4.58189407166396,8.8121447701897,-0.352859388138753,-0.026572637,-0.015577064,0.017104227,277.03293,-123.56723,33.446815,STD
544442897000,3.274983,4.57152932681843,8.79659786937669,-0.36840651622981,-0.028405234,-0.01282817,0.023518313,277.03424,-123.56996,33.449776,STD
544447901000,3.279987,4.57351119059117,8.78613439716903,-0.365433718501249,-0.035124753,-0.009162978,0.022602014,277.0401,-123.56903,33.448948,STD
544452944000,3.28503,4.58155378882598,8.77809163097419,-0.353369812751041,-0.028710667,-0.009773844,0.014966198,277.04642,-123.56824,33.447964,STD
544457919000,3.290005,4.58592218571429,8.77167092857143,-0.343396925714286,-0.027488936,-0.0030543262,0.015271631,277.05426,-123.56723,33.44701,STD
544462885000,3.294971,4.5809918115903,8.76920569002695,-0.338466551590297,-0.031154128,-0.004886922,0.01740966,277.06503,-123.56471,33.44436,STD
544467982000,3.300068,4.57593137725482,8.76667542001866,-0.333406117254821,-0.03176499,-0.009162978,0.016187929,277.07062,-123.56346,33.443214,STD
544472981000,3.305067,4.57096823987145,8.76419379950238,-0.328442979871449,-0.02565634,-0.0021380284,0.015577064,277.0729,-123.563095,33.44302,STD
544477851000,3.309937,4.56083285177627,8.76460400018897,-0.329263364111867,-0.02687807,0.0027488936,0.0070249503,277.0791,-123.55777,33.438038,STD
544482878000,3.314964,4.54263837951625,8.76915271324641,-0.338360600241875,-0.038179077,-0.003970624,0.006414085,277.0869,-123.55455,33.435184,STD
544487836000,3.319922,4.53375938042221,8.77497496587623,-0.343455084418739,-0.03268129,-0.0027488936,0.008857546,277.08542,-123.54767,33.428566,STD
544493576000,3.325662,4.54965614830345,8.78557299556584,-0.338156180235203,-0.03268129,-0.0125227375,0.006414085,277.08987,-123.53912,33.420383,STD
544497841000,3.329927,4.55807392836427,8.78713443140951,-0.336646425469838,-0.021380283,-0.006414085,0.0061086523,277.09433,-123.52579,33.40725,STD
544502884000,3.33497,4.55573939573666,8.76612400340777,-0.343649881969258,-0.02687807,-0.015882496,0.0061086523,277.1073,-123.51193,33.393574,STD
544507826000,3.339912,4.55345161857115,8.74553436724188,-0.35051307491396,-0.03359759,-0.016493361,0.006414085,277.11368,-123.49979,33.381706,STD
544512894000,3.34498,4.55110551280936,8.72441978284513,-0.357551250115043,-0.03390302,-0.015577064,0.0106901415,277.12274,-123.4892,33.37125,STD
544517915000,3.350001,4.54919668261604,8.70681324484417,-0.364773373060744,-0.03481932,-0.017715093,0.0070249503,277.1328,-123.47667,33.35894,STD
544522908000,3.354994,4.55164374064787,8.72394226779592,-0.374561405887109,-0.032986723,-0.026267206,0.011911872,277.1449,-123.468185,33.35054,STD
544527925000,3.360011,4.55410256102554,8.74115362532624,-0.384396487138836,-0.033292156,-0.030848695,0.0067195175,277.16626,-123.46246,33.344906,STD
544532880000,3.364966,4.55653099534312,8.75815228519523,-0.394110026625045,-0.03023783,-0.035124753,0.004886922,277.1903,-123.45928,33.341568,STD
544537887000,3.369973,4.55778609199366,8.77390281601267,-0.400678094694753,-0.019547688,-0.025350908,0.005497787,277.20764,-123.459595,33.341503,STD
544542897000,3.374983,4.55331402842763,8.78284694314475,-0.39173414500699,-0.02565634,-0.022907447,0.00580322,277.2286,-123.458984,33.34066,STD
544548118000,3.380204,4.55009055897409,8.79187817347472,-0.383626037945048,-0.036957346,-0.034208454,0.008246681,277.25702,-123.45531,33.3363,STD
544552916000,3.385002,4.56449182715211,8.79667842911617,-0.390826651983911,-0.02107485,-0.030848695,0.0076358155,277.27917,-123.45146,33.331543,STD
544557892000,3.389978,4.57942736497075,8.8016567684392,-0.398294400099248,-0.03145956,-0.02443461,0.01038471,277.29733,-123.44539,33.325314,STD
544563469000,3.395555,4.59616681320518,8.80723639030506,-0.40666410091099,-0.02443461,-0.014966198,0.010079277,277.313,-123.439255,33.31835,STD
544567887000,3.399973,4.60872102702961,8.80884038788691,-0.410891869188155,-0.01985312,-0.011911872,0.009773844,277.3285,-123.43379,33.31236,STD
544572904000,3.40499,4.62021382844568,8.79964619475673,-0.406294748621729,-0.02443461,-0.0070249503,0.016187929,277.3401,-123.4303,33.30856,STD
544577867000,3.409953,4.63158292819213,8.79055096244558,-0.40174710872315,-0.029932396,-0.009773844,0.010079277,277.3556,-123.42465,33.30222,STD
544582891000,3.414977,4.64309176500981,8.78134394106109,-0.397143573996077,-0.01038471,-0.0012217305,0.007941248,277.36557,-123.42251,33.299168,STD
544588166000,3.420252,4.65466166195857,8.77168769350282,-0.392982734990584,-0.013439035,-0.0027488936,0.017715093,277.38345,-123.41708,33.293484,STD
544592896000,3.424982,4.65892712429378,8.76315699152542,-0.397248108248588,-0.02321288,-0.00580322,0.013133603,277.39844,-123.407524,33.283485,STD
544597842000,3.429928,4.66338737306968,8.75423672683616,-0.401708263879473,-0.02107485,-0.00580322,0.022907447,277.400846908656,-123.408454211009,33.2844314872357,STD
544602924000,3.43501,4.67777638202849,8.7624490075506,-0.397602102084181,-0.025961773,0.015577064,0.021685716,277.40332,-123.40941,33.285404,STD
544608137000,3.440223,4.69147763015963,8.77200764569755,-0.392764866379522,-0.016798794,0.0143553335,0.018020526,277.41644,-123.40662,33.282192,STD
544612884000,3.44497,4.67716406731526,8.76771365904726,-0.394196215190957,-0.023518313,0.02321288,0.02321288,277.41754,-123.408066,33.283947,STD
544618238000,3.450324,4.66102022584301,8.76287059931992,-0.395810590909606,-0.025350908,0.01740966,0.023518313,277.42245,-123.40846,33.2842,STD
544622905000,3.454991,4.64694788588206,8.7586489781493,-0.397217817558641,-0.017715093,0.020158553,0.024129177,277.42148,-123.410446,33.286236,STD
544627833000,3.459919,4.63208855626397,8.75419126460124,-0.398703742762507,-0.028405234,0.024129177,0.020158553,277.4253,-123.40663,33.283047,STD
544633096000,3.465182,4.6162191058216,8.74943052060703,-0.400290679521426,-0.021991149,0.028710667,0.021380283,277.42795,-123.40512,33.281635,STD
544637913000,3.469999,4.60169447295425,8.74507321416202,-0.401743135224961,-0.018936822,0.027183503,0.016493361,277.43112,-123.40054,33.277424,STD
544642896000,3.474982,4.58555019731456,8.74039155545572,-0.395759122585604,-0.028405234,0.018020526,0.018936822,277.43542,-123.39836,33.275703,STD
544647883000,3.479969,4.56886276532395,8.73562361106119,-0.386223427959469,-0.020463986,0.020158553,0.024129177,277.4363,-123.3962,33.27366,STD
544652960000,3.485046,4.55187417654987,8.73076961994609,-0.376515643396226,-0.017104227,0.026572637,0.01985312,277.44272,-123.38898,33.26671,STD
544657897000,3.489983,4.5353540538834,8.72604947928521,-0.367075554290706,-0.024740042,0.02565634,0.02443461,277.45105,-123.38585,33.263832,STD
544662888000,3.494974,4.53430086060761,8.72894236060761,-0.368390008157122,-0.024129177,0.015271631,0.019547688,277.46008,-123.37926,33.257168,STD
544667962000,3.500048,4.54109358028517,8.73573508028517,-0.375182708920367,-0.025961773,0.018020526,0.021685716,277.4651,-123.37586,33.254112,STD
544672981000,3.505067,4.54781266977308,8.74245416977308,-0.381901779698989,-0.01985312,0.016187929,0.015271631,277.4706,-123.36536,33.24383,STD
544677894000,3.50998,4.55438985380458,8.74903135380458,-0.388478945416337,-0.016187929,0.016187929,0.017104227,277.4747,-123.35799,33.23683,STD
544682874000,3.51496,4.56428702110945,8.75701950742839,-0.390740062332193,-0.02076942,0.010995574,0.017715093,277.48627,-123.35167,33.23101,STD
544687909000,3.519995,4.57974844271056,8.76732710389055,-0.385586226430098,-0.014049901,0.013744468,0.01985312,277.49506,-123.34686,33.226448,STD
544692894000,3.52498,4.57789823391178,8.77000694057198,-0.385420275296171,-0.015271631,0.02565634,0.0125227375,277.5009,-123.33873,33.218464,STD
544697888000,3.529974,4.55935178154144,8.76537024275327,-0.390056885968008,-0.020158553,0.026572637,0.017104227,277.50964,-123.33487,33.214554,STD
544702880000,3.534966,4.5508615128388,8.76841353851641,-0.385135181640514,-0.0125227375,0.02321288,0.017104227,277.51416,-123.32915,33.208733,STD
544707909000,3.539995,4.55515562241441,8.78129586724322,-0.367959093072397,-0.021991149,0.01985312,0.009468411,277.51825,-123.322205,33.202206,STD
544712897000,3.544983,4.56063856174111,8.78735182225715,-0.353302571532958,-0.010079277,0.03359759,0.0106901415,277.51624,-123.31323,33.192978,STD
544717922000,3.550008,4.57107290015178,8.76648287304857,-0.348085364193409,-0.012217305,0.041233405,0.01282817,277.51727,-123.3022,33.182083,STD
544722827000,3.554913,4.57130204883812,8.756407208844,-0.347970768928326,-0.01282817,0.03268129,0.012217305,277.5174,-123.296234,33.176346,STD
544727896000,3.559982,4.55226300610844,8.76592668050789,-0.357490300233356,-0.005497787,0.03390302,0.020158553,277.51184,-123.293625,33.174084,STD
544732850000,3.564936,4.53650750223903,8.77090561247034,-0.364643357548438,-0.016493361,0.022602014,0.013744468,277.51202,-123.289246,33.17026,STD
544737909000,3.569995,4.52692878383748,8.76611629077699,-0.367038030897588,-0.011911872,0.03268129,0.01985312,277.50494,-123.29124,33.172615,STD
544742840000,3.574926,4.51759242083333,8.76144814583333,-0.369372115555556,-0.011301007,0.024740042,0.016493361,277.5101,-123.285225,33.166656,STD
544747881000,3.579967,4.50804778365955,8.7566758646204,-0.371758268620008,-0.016187929,0.023823744,0.008246681,277.50943,-123.27966,33.16141,STD
544752926000,3.585012,4.50168713644484,8.75673022655203,-0.375259833715945,-0.01985312,0.01740966,0.008857546,277.51044,-123.27974,33.161396,STD
544757897000,3.589983,4.50381341009379,8.7694875354176,-0.381638525891916,-0.0143553335,0.018325957,0.013133603,277.50922,-123.27871,33.160263,STD
544762913000,3.594999,4.50595893184457,8.78236032987941,-0.388074961207682,-0.020463986,0.010079277,0.013744468,277.51678,-123.27652,33.15804,STD
544767954000,3.60004,4.50811514698526,8.79529728300581,-0.394543476045556,-0.014660766,0.015577064,0.018325957,277.51947,-123.27711,33.158424,STD
544772837000,3.604923,4.51020377990174,8.80782875337204,-0.400809248303707,-0.014049901,0.013744468,0.02107485,277.5274,-123.27712,33.15826,STD
544777890000,3.609976,4.5162815313587,8.81253055597826,-0.391014770456522,-0.015577064,0.0061086523,0.013744468,277.53525,-123.27562,33.15649,STD
544782899000,3.614985,4.5233917128162,8.81490067420949,-0.376794348146245,-0.02076942,0.0125227375,0.01985312,277.53912,-123.27865,33.159508,STD
544787904000,3.61999,4.53049621634881,8.81726889975297,-0.362585281733202,-0.021380283,0.0021380284,0.013744468,277.55573,-123.270676,33.15093,STD
544792833000,3.624919,4.5374928393083,8.81960116422925,-0.348591977367589,-0.02076942,-0.0015271631,0.01282817,277.5679,-123.266,33.14594,STD
544797899000,3.629985,4.53591387681946,8.81674661328713,-0.337780164464788,-0.017715093,-0.007941248,0.02107485,277.57898,-123.26471,33.143833,STD
544802951000,3.635037,4.53116838948539,8.81200117550513,-0.328289150154973,-0.027488936,-0.0027488936,0.014966198,277.58698,-123.25891,33.137623,STD
544807928000,3.640014,4.52649335178513,8.80732618662133,-0.318939035701301,-0.02687807,-0.003970624,0.022296581,277.5924,-123.26091,33.139305,STD
544812937000,3.645023,4.52178825557445,8.80262113954097,-0.309528803975675,-0.022602014,-0.012217305,0.017104227,277.59808,-123.25753,33.1357,STD
544818469000,3.650555,4.51659189058393,8.79742482881057,-0.299136030586543,-0.028099801,-0.014966198,0.016798794,277.59586,-123.255936,33.13389,STD
544822898000,3.654984,4.51243160487478,8.79326458654286,-0.290815424415092,-0.032986723,-0.030848695,0.014049901,277.6008,-123.252365,33.129692,STD
544827896000,3.659982,4.51352443101711,8.77726669619772,-0.298698054939164,-0.024129177,-0.02687807,0.013744468,277.59998,-123.24971,33.12648,STD
544832887000,3.664973,4.51806790152091,8.75454910646388,-0.316872145703422,-0.032070424,-0.033292156,0.012217305,277.608,-123.24553,33.12186,STD
544837903000,3.669989,4.53089881673218,8.74628643886115,-0.328272962235207,-0.029932396,-0.041233405,0.014049901,277.60638,-123.24188,33.117825,STD
544842899000,3.674985,4.55123062070541,8.75136921735897,-0.33335589995963,-0.03756821,-0.03268129,0.013439035,277.60126,-123.23685,33.11297,STD
544847870000,3.679956,4.5671072487917,8.7517770006804,-0.332339149136127,-0.037873644,-0.03145956,0.016798794,277.60602,-123.23665,33.11213,STD
544853094000,3.68518,4.58119268339355,8.74942949770072,-0.327643991195157,-0.03940081,-0.035124753,0.015882496,277.60944,-123.23489,33.110004,STD
544857892000,3.689978,4.59412949717986,8.74727342585988,-0.323331707925484,-0.03145956,-0.032375857,0.014660766,277.60724,-123.23886,33.113243,STD
544862918000,3.695004,4.60768106576885,8.74501489791657,-0.318814505817653,-0.040011674,-0.024129177,0.0143553335,277.60443,-123.24228,33.116398,STD
544867914000,3.7,4.62382905388817,8.74752904445159,-0.335555465991859,-0.036651913,-0.01863139,0.018325957,277.59985,-123.248985,33.122295,STD
544872901000,3.704987,4.6442916187018,8.75775997964867,-0.386711776533847,-0.03481932,-0.016798794,0.018020526,277.59375,-123.25397,33.12679,STD
544877904000,3.70999,4.65491976426949,8.76100276898168,-0.408252167295442,-0.03756821,-0.009468411,0.018325957,277.58124,-123.263016,33.135803,STD
544882898000,3.714984,4.65607552131361,8.7575356185298,-0.401317767433667,-0.03573562,-0.0106901415,0.019547688,277.57123,-123.27208,33.14459,STD
544888544000,3.72063,4.65738217014644,8.75361580846745,-0.393478035431347,-0.029932396,-0.008857546,0.011301007,277.56595,-123.27788,33.149235,STD
544892992000,3.725078,4.65841156688898,8.75052772572616,-0.387301781809966,-0.028405234,-0.0070249503,0.017104227,277.5615,-123.28769,33.15797,STD
544901263000,3.733349,4.66032571717172,8.74478547474747,-0.375817115959596,-0.028710667,-0.0021380284,0.01740966,277.55524,-123.29346,33.16268,STD
544903469000,3.735555,4.66083624981876,8.74325393011454,-0.372753982981006,-0.028710667,-0.0021380284,0.01740966,277.55026,-123.30058,33.168686,STD
544908029000,3.740115,4.66189156662317,8.74008808989416,-0.366422212182108,-0.009773844,0.0030543262,0.018325957,277.542,-123.30824,33.17499,STD
544912951000,3.745037,4.66303066077038,8.73667092639312,-0.359587787648736,-0.021991149,0.0018325958,0.0125227375,277.53595,-123.313,33.179058,STD
544917892000,3.749978,4.66300814429503,8.73315114429503,-0.356135533951204,-0.010995574,0.009162978,0.01160644,277.5255,-123.32019,33.184795,STD
544922919000,3.755005,4.65913153756341,8.72927453756341,-0.363888585501248,-0.0033597588,0.023518313,0.021685716,277.51337,-123.32829,33.19197,STD
544927868000,3.759954,4.65531508108543,8.72545808108543,-0.371521339056285,-0.01160644,0.014660766,0.016187929,277.49945,-123.33258,33.195805,STD
544932912000,3.764998,4.64803483250698,8.73705720356145,-0.360909184155028,-0.002443461,0.01740966,0.0036651916,277.47708,-123.338036,33.20065,STD
544937878000,3.769964,4.63973199781774,8.75366269954609,-0.344303592803771,-0.009162978,0.01863139,0.017715093,277.45892,-123.34868,33.211143,STD
544967801000,3.799887,4.608221867552,8.78074672608741,-0.308235694977752,-0.007330383,0.0143553335,0.015882496,277.36908,-123.3707,33.232113,STD
544972814000,3.8049,4.61486684478142,8.78473968333333,-0.323303579923497,0.0070249503,0.014660766,0.015271631,277.3561,-123.37813,33.239136,STD
544977809000,3.809895,4.6279367763388,8.78909643333333,-0.349443552218579,-0.0033597588,0.013133603,0.009468411,277.34317,-123.38558,33.24699,STD
544982857000,3.814943,4.63755750931298,8.77959282900763,-0.368685128396947,-0.007941248,0.010995574,0.018325957,277.32782,-123.40106,33.262478,STD
544987834000,3.81992,4.64275524496183,8.75360387938931,-0.379080708244275,-0.01160644,0.021380283,0.014660766,277.30853,-123.410736,33.272568,STD
544992812000,3.824898,4.63357766961484,8.75200492486923,-0.38586561301379,-0.007330383,0.015577064,0.0076358155,277.3025,-123.42352,33.28484,STD
544997806000,3.829892,4.61538412154066,8.76564996718973,-0.390414033278174,-0.0125227375,0.023518313,0.01282817,277.28848,-123.437996,33.299522,STD
545002840000,3.834926,4.59897438847181,8.76986515115635,-0.383934558349373,-0.010079277,0.021380283,0.013744468,277.28207,-123.45201,33.31302,STD
545007838000,3.839924,4.58450418753464,8.76504179281503,-0.36705270594246,-0.0125227375,0.02321288,0.013744468,277.2718,-123.46652,33.327457,STD
545012821000,3.844907,4.57007741457147,8.76023291033909,-0.350221519359097,0.0009162979,0.031154128,0.014049901,277.26132,-123.47562,33.336,STD
545017884000,3.84997,4.55541902574696,8.75534682324785,-0.333120115050134,-0.008857546,0.03145956,0.022296581,277.2531,-123.48606,33.346466,STD
545022837000,3.854923,4.55027930670831,8.75579404573851,-0.326907719637067,-0.011911872,0.03268129,0.015577064,277.2417,-123.49255,33.35263,STD
545027841000,3.859927,4.55265539416927,8.76054609660866,-0.329283757477317,-0.005497787,0.026267206,0.018325957,277.23328,-123.503746,33.363415,STD
545032868000,3.864954,4.55504240289553,8.76531998943924,-0.331670716354802,-0.007330383,0.029321533,0.01740966,277.21768,-123.509346,33.369896,STD
545037862000,3.869948,4.55741374198027,8.77006254380485,-0.334042005917993,-0.004276057,0.039095376,0.021685716,277.20227,-123.51727,33.378437,STD
545042837000,3.874923,4.55444932995056,8.77646573443392,-0.333132915706025,-0.0067195175,0.02443461,0.0106901415,277.194,-123.520226,33.381805,STD
545047825000,3.879911,4.54644307371994,8.78447211606469,-0.32912980849074,-0.01160644,0.026267206,0.013133603,277.17725,-123.528015,33.390434,STD
545052835000,3.884921,4.53961081725173,8.79171350230273,-0.326224998589022,-0.009162978,0.02076942,0.021991149,277.17252,-123.53219,33.395058,STD
545057899000,3.889985,4.54126525073858,8.7933678148603,-0.331188354331525,-0.006414085,0.008857546,0.014049901,277.16916,-123.5321,33.395428,STD
545062899000,3.894985,4.54289877511343,8.7950012198342,-0.336088982039368,-0.006414085,0.010079277,0.016187929,277.16248,-123.53511,33.399124,STD
545067900000,3.899986,4.54453262619316,8.7966349514891,-0.340990589872753,-0.0125227375,0.0070249503,0.009162978,277.16107,-123.53319,33.39767,STD
545072852000,3.904938,4.54615046873401,8.79825267577525,-0.3458441715546,-0.008857546,0.0027488936,0.013133603,277.15997,-123.5352,33.399933,STD
545077894000,3.90998,4.54779771471361,8.79989980135094,-0.350785964535189,-0.017104227,0.004886922,0.013439035,277.15753,-123.5338,33.399235,STD
545082877000,3.914963,4.55026327180347,8.79852459007498,-0.356902350134175,-0.009468411,0.004276057,0.01038471,277.15417,-123.535324,33.400703,STD
545087910000,3.919996,4.55501870205209,8.7890142261247,-0.366413012012628,-0.01282817,0.00580322,0.015271631,277.14954,-123.538666,33.404522,STD
545092877000,3.924963,4.55966017880501,8.78083178673075,-0.3756958428838,-0.020158553,0.0009162979,0.013133603,277.15057,-123.5396,33.405426,STD
545097905000,3.929991,4.56419807792857,8.77629374545283,-0.384771745377439,-0.01282817,-0.00030543262,0.008552114,277.1499,-123.54139,33.407017,STD
545102907000,3.934993,4.56917581537415,8.77131589005102,-0.391090405853742,-0.007941248,0.0061086523,0.015882496,277.15076,-123.54726,33.412777,STD
545107965000,3.940051,4.57741381782313,8.76307793061224,-0.378733393578231,-0.0067195175,0.002443461,0.011301007,277.15515,-123.54843,33.41356,STD
545112971000,3.945057,4.58556712748299,8.75492466352041,-0.36650342057483,-0.009162978,-0.005497787,0.01282817,277.15695,-123.55295,33.417343,STD
545117994000,3.95008,4.59103435543778,8.75881757338296,-0.382638853134983,-0.011301007,-0.005497787,0.012217305,277.156313790658,-123.554487081771,33.4185019189381,STD
545122840000,3.954926,4.59561031827549,8.76568150569414,-0.405518564593275,-0.0061086523,-0.0012217305,0.013439035,277.1557,-123.55597,33.41962,STD
545127899000,3.959985,4.60038741196017,8.77284713375074,-0.429403925771051,-0.015271631,-0.0021380284,0.0076358155,277.15884,-123.557144,33.42021,STD
545132857000,3.964943,4.60506913374088,8.77986970420035,-0.452812429570105,-0.0012217305,-0.004276057,0.01282817,277.15753,-123.56414,33.426365,STD
545137907000,3.969993,4.60961944605591,8.77875645446997,-0.450160282410739,-0.014966198,-0.006414085,0.014049901,277.15662,-123.563065,33.425625,STD
545143432000,3.975518,4.61450100962266,8.77387473798321,-0.435515423498478,-0.0125227375,-0.01282817,0.017104227,277.15845,-123.564896,33.426777,STD
545147878000,3.979964,4.60948070380781,8.76450697725337,-0.424416298344606,-0.013744468,-0.013439035,0.01985312,277.1755,-123.56262,33.423843,STD
545153050000,3.985136,4.59707246451726,8.74961703827847,-0.412008048688812,-0.023823744,-0.013439035,0.008857546,277.19348,-123.55708,33.41769,STD
545157895000,3.989981,4.58544873687559,8.73566851655895,-0.400384311337241,-0.011911872,-0.016493361,0.008246681,277.2092,-123.55671,33.41646,STD
545162878000,3.994964,4.57349393092339,8.72132269948394,-0.388429495398567,-0.014049901,-0.01985312,0.017104227,277.2248,-123.55545,33.414917,STD
545167915000,4.000001,4.56549025401597,8.72151008041786,-0.377779392902336,-0.021991149,-0.016493361,0.009773844,277.2349,-123.55194,33.41083,STD
545172984000,4.00507,4.56070607616537,8.73347046259978,-0.36821108216123,-0.01740966,-0.023518313,0.02565634,277.25015,-123.5578,33.415665,STD
545177951000,4.010037,4.55601816703459,8.74519017423869,-0.358835307955061,-0.015882496,-0.01863139,0.024740042,277.2627,-123.556656,33.414833,STD
545182899000,4.014985,4.55134819031241,8.75686505509018,-0.349495398397556,-0.016493361,-0.028405234,0.013744468,277.2825,-123.5571,33.415165,STD
545187899000,4.019985,4.56159496493822,8.7703453369944,-0.352332224230647,-0.018020526,-0.01863139,0.024740042,277.2899,-123.56189,33.420048,STD
545192897000,4.024983,4.58686946404055,8.78551035315239,-0.367496934248601,-0.023823744,-0.012217305,0.018936822,277.30103,-123.55867,33.41681,STD
545197873000,4.029959,4.60482660919169,8.78620250152425,-0.365535872971824,-0.018325957,-0.01282817,0.013744468,277.3081,-123.55354,33.411934,STD
545202921000,4.035007,4.61822444420323,8.7772704560739,-0.352138075266513,-0.018020526,-0.012217305,0.014966198,277.31253,-123.54851,33.40753,STD
545207899000,4.039985,4.63181744686085,8.77028164829758,-0.348911661137571,-0.02076942,-0.007330383,0.015577064,277.32245,-123.541885,33.401463,STD
545213519000,4.045605,4.64770658384176,8.76498517713049,-0.359504393316276,-0.01282817,-0.010995574,0.009162978,277.33478,-123.53412,33.393806,STD
545217919000,4.050005,4.65059149953078,8.75997567097967,-0.362050412691597,-0.005192355,0.00061086525,0.01740966,277.3347,-123.53122,33.391666,STD
545222903000,4.054989,4.64154255961894,8.75318907825015,-0.357525949822266,-0.01740966,-0.0018325958,0.01740966,277.34027,-123.524124,33.38529,STD
545227851000,4.059937,4.63255898123134,8.74645150585336,-0.35303416766387,-0.024129177,-0.0033597588,0.013133603,277.34384,-123.52101,33.38258,STD
545232893000,4.064979,4.62340473664155,8.73958593592113,-0.348457052538035,-0.017715093,-0.009773844,0.013133603,277.3499,-123.5192,33.381027,STD
545237840000,4.069926,4.61645237464017,8.73447968365518,-0.344333365359832,-0.017104227,0.00061086525,0.02107485,277.3582,-123.52157,33.384476,STD
545242894000,4.07498,4.61893156058495,8.73695892137479,-0.341854179415049,-0.014049901,-0.0061086523,0.011301007,277.37393,-123.51908,33.382427,STD
545247840000,4.079926,4.62135776827844,8.73938517973672,-0.339427971721559,-0.016187929,-0.009773844,0.009468411,277.3856,-123.52344,33.387756,STD
545252943000,4.085029,4.62386099065205,8.74188845438713,-0.336924749347949,-0.016187929,-0.009468411,0.016187929,277.39795,-123.5275,33.392582,STD
545257844000,4.08993,4.62870338593147,8.74238263265501,-0.335809410700091,-0.024129177,-0.015577064,0.008552114,277.41467,-123.52457,33.390537,STD
545262896000,4.094982,4.64023236148311,8.73777099428109,-0.338115181733785,-0.020158553,-0.004581489,0.011911872,277.4255,-123.52693,33.393757,STD
545267953000,4.100039,4.65177274734309,8.73315479173617,-0.340423234805319,-0.02107485,-0.009773844,0.002443461,277.44208,-123.52338,33.391052,STD
545273006000,4.105092,4.66330400495639,8.72854224052805,-0.342729462246581,-0.0106901415,-0.0076358155,0.005192355,277.4525,-123.52463,33.39305,STD
545277876000,4.109962,4.67328983193853,8.724471,-0.345341532546371,-0.01160644,-0.013439035,0.008857546,277.47067,-123.52098,33.39037,STD
545283250000,4.115336,4.67077102422552,8.724471,-0.352897803141976,-0.015271631,-0.0070249503,0.01160644,277.4837,-123.51816,33.388527,STD
545287921000,4.120007,4.66858171443254,8.724471,-0.359465599932462,-0.014966198,-0.0021380284,0.013744468,277.5028,-123.52211,33.393272,STD
545292896000,4.124982,4.66624991905251,8.724471,-0.366460844854892,-0.0125227375,-0.006414085,0.018325957,277.52258,-123.52738,33.399277,STD
