timestamp,rel_time,acc_x,acc_y,acc_z,gyro_x,gyro_y,gyro_z,azimuth,pitch,roll,label
54588877224000,0,3.22570373132304,9.3548161092871,0.524275049204498,-0.017715093,0.040011674,0.04917465,164.1094,-14.204288,41.452213,STD
54588882197000,0.004973,3.23022844342382,9.35267280589238,0.515940051344737,-0.013744468,0.03726278,0.04795292,164.21988,-14.599159,41.39475,STD
54588887159000,0.009935,3.23474314711256,9.35053424336582,0.507623490037652,0.0015271631,0.043982297,0.03756821,164.3208,-14.988243,41.331486,STD
54588892236000,0.015012,3.23936248419997,9.34834611721762,0.499114182952592,-0.0067195175,0.04062254,0.03481932,164.41083,-15.362879,41.268208,STD
54588897204000,0.01998,3.24388264702256,9.34620496876297,0.490787565344047,-0.009773844,0.0421497,0.044593163,164.48822,-15.732451,41.198185,STD
54588902196000,0.024972,3.24842464638051,9.34405347659598,0.482420722529664,-0.015577064,0.039095376,0.035124753,164.56433,-16.09542,41.124325,STD
54588907188000,0.029964,3.25296664573847,9.34190198442899,0.474053879715282,-0.015882496,0.032070424,0.03359759,164.62462,-16.447184,41.0494,STD
54588912462000,0.035238,3.25776522438708,9.33962895364199,0.465214390732298,-0.01863139,0.028405234,0.030848695,164.67885,-16.791311,40.96991,STD
54588917198000,0.039974,3.26207430070105,9.33758779440664,0.457276616780191,-0.025045475,0.016187929,0.029932396,164.72563,-17.126787,40.891323,STD
54588922196000,0.044972,3.26662175919285,9.33543371631156,0.448899717664348,-0.017104227,0.02443461,0.0421497,164.7569,-17.455124,40.806404,STD
54588927223000,0.049999,3.27119560349823,9.33326713956407,0.440474213091451,-0.030543262,0.029932396,0.040317107,164.78636,-17.77333,40.72076,STD
54588932202000,0.054978,3.27572577473286,9.33112125024127,0.432129158930231,-0.03970624,0.01160644,0.035124753,164.80618,-18.085388,40.637302,STD
54588937185000,0.059961,3.28025958539005,9.3289736369664,0.423777400568037,-0.040011674,0.0015271631,0.034513887,164.8142,-18.389303,40.547863,STD
54588942281000,0.065057,3.28489620973463,9.32677732204593,0.415236248528354,-0.046731193,-0.004276057,0.031154128,164.8186,-18.68507,40.45852,STD
54588947220000,0.069996,3.28938998674364,9.3246486722437,0.406958236376865,-0.042760566,-0.003970624,0.02687807,164.81577,-18.977043,40.367455,STD
54588952201000,0.074977,3.29392197768955,9.32250192094486,0.398609830115157,-0.042455133,-0.007941248,0.027183503,164.80597,-19.260563,40.276695,STD
54588957193000,0.079969,3.29846397704751,9.32035042877787,0.390242987300775,-0.048563786,0.0018325958,0.034513887,164.7849,-19.53716,40.18033,STD
54588962204000,0.08498,3.30302326366264,9.31819074783861,0.38184429953177,-0.05131268,-0.0061086523,0.036957346,164.761,-19.809746,40.086704,STD
54588967196000,0.089972,3.3075652630206,9.31603925567162,0.373477456717387,-0.05681047,-0.019547688,0.027488936,164.7303,-20.076015,39.98922,STD
54588972196000,0.094972,3.31211454122368,9.31388431560051,0.365097205501058,-0.03481932,-0.013744468,0.019547688,164.68892,-20.341515,39.887226,STD
54588977202000,0.099978,3.31666927856061,9.31172678960132,0.356706897983269,-0.033292156,-0.013133603,0.01740966,164.64452,-20.597258,39.78748,STD
54588982200000,0.104976,3.32121673705241,9.30957271150625,0.348329998867426,-0.023823744,-0.01160644,0.004581489,164.59775,-20.85791,39.681606,STD
54588987179000,0.109955,3.32424260732814,9.30961028710613,0.344628714083983,-0.019547688,-0.01740966,0.0067195175,164.54062,-21.110453,39.577248,STD
54588992348000,0.115124,3.32621923751017,9.31133984883529,0.344381635311229,-0.009162978,-0.01282817,0.0030543262,164.48024,-21.365122,39.465622,STD
54588997205000,0.119981,3.32807655861563,9.31296501449955,0.344149470173046,-0.0015271631,-0.017715093,-0.0012217305,164.45222,-21.640036,39.42007,STD
54589002196000,0.124972,3.32998512143987,9.31463501693528,0.343910899820016,0.008857546,-0.0143553335,-0.0036651916,164.41536,-21.912844,39.36708,STD
54589007202000,0.129978,3.33189942027741,9.31631003841258,0.343671612465323,0.010995574,-0.017104227,-0.005192355,164.3744,-22.181105,39.312527,STD
54589012202000,0.134978,3.33381142470963,9.31798305227326,0.343432611911296,0.008552114,-0.019242255,-0.015271631,164.32916,-22.447763,39.251724,STD
54589017197000,0.139973,3.33572151713742,9.31965439312007,0.343193850357822,0.0076358155,-0.0036651916,-0.023823744,164.27408,-22.710384,39.18361,STD
54589022185000,0.144961,3.33762893275901,9.32132339174748,0.342955423405124,0.00030543262,-0.0061086523,-0.03023783,164.2182,-22.968012,39.115967,STD
54589027183000,0.149959,3.33954017238946,9.32299573640261,0.342716518451318,-0.0015271631,0.0027488936,-0.028405234,164.15044,-23.22216,39.038456,STD
54589032210000,0.154986,3.34146250164561,9.32467778453814,0.342476227294299,-0.0061086523,0.013439035,-0.036957346,164.08118,-23.473139,38.95567,STD
54589037172000,0.159948,3.34335997484415,9.32633808349347,0.342239043144482,-0.0070249503,0.017104227,-0.038789943,164.00206,-23.71867,38.87083,STD
54589042286000,0.165062,3.34531557297742,9.32804924207017,0.341994593377822,-0.008246681,0.01740966,-0.032986723,163.91513,-23.959373,38.781437,STD
54589047243000,0.170019,3.34721113417153,9.32970786801164,0.341757648228559,-0.016187929,0.017715093,-0.03481932,163.82388,-24.196512,38.68725,STD
54589052174000,0.17495,3.34909675294259,9.33135779428104,0.341521945882177,-0.02076942,0.01038471,-0.038179077,163.72627,-24.42961,38.593044,STD
54589057211000,0.179987,3.35102290620761,9.33304318844428,0.341281176724049,-0.015577064,0.008552114,-0.025961773,163.61703,-24.656921,38.497192,STD
54589062199000,0.184975,3.35293032182919,9.33471218707169,0.341042749771351,-0.024129177,0.017104227,-0.02443461,163.50542,-24.879808,38.39626,STD
54589067200000,0.189976,3.3548427086623,9.33638553553513,0.340803701417213,-0.010079277,0.0076358155,-0.02687807,163.38922,-25.1037,38.299137,STD
54589072187000,0.194963,3.35674974188299,9.33805419955977,0.340565322264626,-0.02107485,-0.005497787,-0.02107485,163.26334,-25.315693,38.200233,STD
54589077196000,0.199972,3.35866518792319,9.3397302248454,0.340325891509601,-0.032375857,0.0036651916,-0.016187929,163.13023,-25.528254,38.095634,STD
54589082199000,0.204975,3.36057833955808,9.34140424251439,0.340086747555241,-0.040011674,-0.0076358155,-0.011911872,162.99675,-25.735481,37.997818,STD
54589087169000,0.209945,3.3624788719637,9.3430672182919,0.339849181004537,-0.03176499,0.0021380284,-0.010079277,162.85123,-25.940636,37.89117,STD
54589092300000,0.215076,3.36444097091205,9.34478406511572,0.339603918635994,-0.028405234,0.0027488936,-0.010079277,162.704,-26.14029,37.78783,STD
54589097506000,0.220282,3.36643174992688,9.34652600714746,0.33935507125914,-0.043982297,-0.00030543262,-0.009773844,162.54988,-26.33498,37.681465,STD
54589102207000,0.224983,3.36822941649405,9.34809897477926,0.339130362938243,-0.04642576,-0.005192355,-0.013133603,162.39218,-26.531626,37.572968,STD
54589107212000,0.229988,3.37014333293071,9.3497736616538,0.338891123383662,-0.04917465,-0.002443461,-0.0018325958,162.22438,-26.719997,37.46404,STD
54589112195000,0.234971,3.37204883654786,9.35144098726735,0.338652935431518,-0.05009095,-0.007330383,-0.0009162979,162.05856,-26.908953,37.354153,STD
54589117192000,0.239968,3.37395969377742,9.3531129973197,0.338414078277822,-0.046120327,-0.00580322,0.005192355,161.88155,-27.093374,37.243088,STD
54589122189000,0.244965,3.37587055100698,9.35478500737206,0.338175221124127,-0.043066,-0.002443461,0.006414085,161.70198,-27.276503,37.130424,STD
54589127146000,0.249922,3.37776611220109,9.35644363331354,0.337938275974864,-0.038789943,0.0033597588,0.016493361,161.51295,-27.456234,37.01765,STD
54589132197000,0.254973,3.37969761907852,9.35813371191559,0.337696837615185,-0.025045475,0.0125227375,0.019547688,161.3201,-27.638264,36.900745,STD
54589137191000,0.259967,3.38160732910542,9.35980471815963,0.337458123861823,-0.040927973,0.010079277,0.022296581,161.12158,-27.811722,36.785202,STD
54589142296000,0.265072,3.38355948563072,9.36151286531138,0.33721410429616,-0.028710667,0.01282817,0.029626964,160.91386,-27.991259,36.666023,STD
54589147231000,0.270007,3.38544663400532,9.36316412999186,0.336978210749335,-0.029932396,0.015882496,0.031154128,160.7037,-28.164104,36.545322,STD
54589152202000,0.274978,3.38734754881184,9.36482744037215,0.336740596398521,-0.02565634,0.004886922,0.029321533,160.49101,-28.338886,36.426365,STD
54589157209000,0.279985,3.38926223005026,9.36650279645222,0.336501261243717,-0.02076942,0.019242255,0.027488936,160.26828,-28.512321,36.29961,STD
54589162198000,0.284974,3.39117002807273,9.36817212968241,0.336262786490909,-0.017104227,0.011911872,0.030848695,160.04782,-28.684824,36.179478,STD
54589167515000,0.290291,3.39320325358596,9.36995121262185,0.336008633301755,-0.017715093,0.025045475,0.03359759,159.81714,-28.85709,36.04953,STD
54589172169000,0.294945,3.39498294731147,9.37150845392336,0.335786171586067,-0.021380283,0.02687807,0.035430185,159.58617,-29.028214,35.92289,STD
54589177200000,0.299976,3.39690680617117,9.37319184046997,0.335545689228604,-0.026267206,0.02076942,0.02687807,159.35284,-29.199745,35.792408,STD
54589182198000,0.304974,3.39881804580162,9.37486418512511,0.335306784274798,-0.017104227,0.027183503,0.03848451,159.10695,-29.368698,35.661144,STD
54589187165000,0.309941,3.39715298099383,9.37533762981177,0.335307031716626,-0.028405234,0.021380283,0.03268129,158.86893,-29.536665,35.52838,STD
54589192262000,0.315038,3.39179689065427,9.37460726437171,0.33555049025287,-0.025961773,0.021991149,0.034208454,158.61966,-29.705437,35.394722,STD
54589197293000,0.320069,3.386510155222,9.37388635628285,0.335790796294826,-0.019547688,0.02107485,0.02565634,158.3874,-29.903421,35.29919,STD
54589202202000,0.324978,3.381351621285,9.37318292996439,0.336025274998853,-0.023823744,0.027488936,0.038789943,158.14352,-30.094227,35.203156,STD
54589207202000,0.329978,3.37609746164251,9.37246646396473,0.336264100323794,-0.03023783,0.020158553,0.038789943,157.90527,-30.289078,35.104008,STD
54589212206000,0.334982,3.37083909867231,9.37174942479227,0.336503116708995,-0.0290161,0.021991149,0.04184427,157.65587,-30.480743,35.001602,STD
54589217204000,0.33998,3.36558704069367,9.37103324537901,0.336741846503806,-0.031154128,0.025045475,0.040317107,157.40578,-30.670443,34.897263,STD
54589222179000,0.344955,3.3603591518494,9.37032036170934,0.336979477702122,-0.029932396,0.03145956,0.050396383,157.14735,-30.857655,34.791943,STD
54589227195000,0.349971,3.35508817889605,9.36960160301848,0.337219067268102,-0.029626964,0.027488936,0.046731193,156.89157,-31.046532,34.683216,STD
54589232201000,0.354977,3.34982771426199,9.36888427725962,0.337458179183433,-0.025350908,0.03023783,0.05131268,156.62494,-31.232567,34.572563,STD
54589237164000,0.35994,3.34461243540085,9.36817311310836,0.33769523720097,-0.026267206,0.039095376,0.056505036,156.35568,-31.417692,34.45872,STD
54589242244000,0.36502,3.33927420920408,9.3674451836527,0.33793788373111,-0.036957346,0.050396383,0.056199603,156.0826,-31.601442,34.341427,STD
54589247210000,0.369986,3.33405577784716,9.36673358962184,0.338175085043841,-0.032070424,0.049785517,0.040011674,155.81023,-31.790098,34.220806,STD
54589252200000,0.374976,3.32881212652396,9.36601855655418,0.338413432718132,-0.016493361,0.06047566,0.050701816,155.52307,-31.973593,34.09814,STD
54589257156000,0.379932,3.32360420348632,9.36530839545532,0.338650156380213,-0.02687807,0.06719518,0.047036625,155.24225,-32.158146,33.969185,STD
54589262172000,0.384948,3.31833323053297,9.36458963676446,0.338889745946194,-0.016493361,0.07238753,0.048563786,154.95244,-32.34738,33.83941,STD
54589267156000,0.389932,3.31309588420134,9.36387546345599,0.339127807030095,-0.015577064,0.07849618,0.040317107,154.66182,-32.53485,33.703903,STD
54589272166000,0.394942,3.30783121623956,9.36315756452433,0.339367110005686,-0.015882496,0.08277224,0.046731193,154.36354,-32.721214,33.569138,STD
54589277163000,0.399939,3.30258020909286,9.36244152840427,0.339605792035432,-0.007330383,0.08246681,0.04428773,154.06676,-32.912895,33.4295,STD
54589282161000,0.404937,3.29732815111423,9.36172534899101,0.339844521830243,-0.008246681,0.09468412,0.039095376,153.76268,-33.101864,33.285538,STD
54589287135000,0.409911,3.29210131310188,9.36101260861455,0.340082105263494,-0.008857546,0.09193522,0.046120327,153.45692,-33.29096,33.14545,STD
54589292278000,0.415054,3.28669688449361,9.3602756516873,0.340327760992728,0.0033597588,0.09712757,0.044898596,153.1476,-33.48527,32.99735,STD
54589297170000,0.419946,3.2815562146994,9.35957466135323,0.34056142769065,-0.01038471,0.09560041,0.048563786,152.8349,-33.67177,32.85239,STD
54589302158000,0.424934,3.27631466504005,9.35885991487197,0.340799679834811,0.004886922,0.084910266,0.04428773,152.52301,-33.869087,32.705467,STD
54589307217000,0.429993,3.27099850631378,9.35813499457351,0.341041323298587,0.007330383,0.08857546,0.03634648,152.2059,-34.06091,32.55475,STD
54589312164000,0.43494,3.2658000407635,9.35742612311345,0.341277617075083,0.0033597588,0.09254608,0.033292156,151.88858,-34.254704,32.40536,STD
54589317155000,0.439931,3.26055533860837,9.35671094675259,0.341516012514439,-0.008857546,0.08857546,0.037873644,151.5699,-34.44742,32.255928,STD
54589322159000,0.444935,3.25529697563816,9.35599390758012,0.34175502889964,-0.0012217305,0.08399397,0.033292156,151.2512,-34.646072,32.102634,STD
54589327159000,0.449935,3.25004281599567,9.35527744158046,0.341993854224581,-0.0036651916,0.07941248,0.025045475,150.93095,-34.83996,31.949554,STD
54589332163000,0.454939,3.24478445302547,9.354560402408,0.342232870609782,-0.0076358155,0.07544186,0.03756821,150.60535,-35.03242,31.799707,STD
54589337137000,0.459913,3.23955761501312,9.35384766203154,0.342470454043033,0.0027488936,0.083383106,0.022907447,150.28462,-35.23423,31.64081,STD
54589342227000,0.465003,3.23420888049706,9.35311829964389,0.342713578223823,-0.0076358155,0.07880162,0.03390302,149.95612,-35.423885,31.492096,STD
54589347254000,0.47003,3.2289263483925,9.35239796472783,0.342953693205518,-0.0067195175,0.06627888,0.027794369,149.63326,-35.62435,31.336664,STD
54589352157000,0.474933,3.22377411944708,9.35169539816856,0.343187885319155,-0.004886922,0.07666359,0.020463986,149.30177,-35.821274,31.178709,STD
54589357133000,0.479909,3.21854517977087,9.3509823712057,0.343425564282537,-0.008552114,0.062308256,0.02443461,148.97551,-36.016495,31.029015,STD
54589362170000,0.484946,3.21325213934703,9.35026060335764,0.343666156914882,0.0012217305,0.0729984,0.025350908,148.64163,-36.217262,30.869493,STD
54589367154000,0.48993,3.20801479301539,9.34954643004918,0.343904217998783,-0.0021380284,0.076052725,0.01863139,148.31169,-36.415257,30.713371,STD
54589372152000,0.494928,3.20276273503676,9.34883025063592,0.344142947793594,-0.008246681,0.06047566,0.02107485,147.9792,-36.61326,30.56049,STD
54589377254000,0.50003,3.19740139053756,9.34809916872986,0.344386645155164,-0.01160644,0.05131268,0.015882496,147.64604,-36.814026,30.402502,STD
54589382163000,0.504939,3.19224285660056,9.3473957424114,0.344621123859191,-0.016187929,0.052839845,0.009162978,147.31192,-37.013294,30.245388,STD
54589387136000,0.509912,3.18991707844614,9.34640373535235,0.349247066699565,-0.00580322,0.049785517,0.013744468,146.97766,-37.2143,30.092041,STD
54589392234000,0.51501,3.19210291993513,9.34494647556984,0.360904909615067,-0.007941248,0.046731193,0.0125227375,146.6442,-37.41403,29.935698,STD
54589397191000,0.519967,3.19422830562774,9.34352952054004,0.372240321017998,-0.019242255,0.043066,0.0106901415,146.33806,-37.655876,29.803204,STD
54589402161000,0.524937,3.19635926525903,9.34210884946921,0.383605460149038,-0.01985312,0.038179077,0.016187929,146.02904,-37.897614,29.671635,STD
54589407148000,0.529924,3.19849751388704,9.34068331896011,0.395009474001453,-0.021380283,0.042760566,0.016187929,145.71803,-38.137104,29.536343,STD
54589412167000,0.534943,3.20064948297947,9.33924864127309,0.406486663799982,-0.018020526,0.032375857,0.016798794,145.40799,-38.375652,29.405222,STD
54589417153000,0.539929,3.20278730284297,9.33782339661331,0.41788839090408,-0.026572637,0.024129177,0.012217305,145.09543,-38.611393,29.27072,STD
54589422824000,0.5456,3.20521882639811,9.33620234517615,0.43085654060471,-0.03023783,0.034513887,0.021991149,144.77531,-38.845524,29.136717,STD
54589427159000,0.549935,3.20707752056342,9.33496318841719,0.440769594555024,-0.03023783,0.025045475,0.025350908,144.46228,-39.07979,29.005207,STD
54589432158000,0.554934,3.20922091436559,9.33353422771637,0.452201049387231,-0.022296581,0.025961773,0.02321288,144.14143,-39.31364,28.869637,STD
54589437144000,0.55992,3.21135873422909,9.33210898305658,0.463602776491329,-0.036957346,0.021991149,0.018936822,143.82184,-39.541603,28.736366,STD
54589442179000,0.564955,3.21351756355374,9.3306697317806,0.475116554262916,-0.04886922,0.017715093,0.02076942,143.49934,-39.770622,28.603077,STD
54589447207000,0.569983,3.2156733915268,9.32923248144979,0.486614324796291,-0.038179077,0.014049901,0.017104227,143.17807,-40.002605,28.467787,STD
54589452160000,0.574936,3.21779706216136,9.32781666981723,0.497940589205958,-0.040317107,0.003970624,0.014966198,142.85695,-40.227955,28.334711,STD
54589457147000,0.579923,3.21993531078937,9.32639113930814,0.509344603058372,-0.044593163,0.0030543262,0.017104227,142.53271,-40.45456,28.200176,STD
54589462169000,0.584945,3.22208856617534,9.32495560407319,0.52082865310185,-0.028710667,0.010995574,0.024129177,142.20651,-40.68413,28.066008,STD
54589467155000,0.589931,3.22422638603884,9.3235303594134,0.532230380205948,-0.03848451,0.015577064,0.024740042,141.8807,-40.90722,27.931345,STD
54589472152000,0.594928,3.22636892231199,9.3221019704112,0.543657261541523,-0.03359759,0.0067195175,0.02076942,141.55414,-41.136204,27.79784,STD
54589477172000,0.599948,3.22852132016894,9.32066700687487,0.555136738088369,-0.028099801,0.011911872,0.02107485,141.22064,-41.361824,27.661488,STD
54589482163000,0.604939,3.230661283855,9.31924033296853,0.566549898934047,-0.03481932,0.006414085,0.019547688,140.89168,-41.586327,27.527355,STD
54589487147000,0.609923,3.23279824618947,9.31781566000736,0.577947052541513,-0.034208454,0.002443461,0.023518313,140.55847,-41.812187,27.39297,STD
54589493027000,0.615803,3.23531938152789,9.31613486606441,0.591393132640209,-0.03604105,0.008552114,0.020158553,140.22472,-42.03708,27.25567,STD
54589497161000,0.619937,3.23709189402603,9.31495316501676,0.600846550178985,-0.029626964,0.006414085,0.014049901,139.8924,-42.263283,27.120779,STD
54589502157000,0.624933,3.23923400153466,9.31352506186388,0.612271144766244,-0.028710667,0.01038471,0.018325957,139.55441,-42.48616,26.98507,STD
54589507137000,0.629913,3.24136924881108,9.31210153229995,0.623659151380446,-0.028099801,-0.0067195175,0.02565634,139.22156,-42.710453,26.853065,STD
54589512167000,0.634943,3.24352593431316,9.31066371027052,0.635161495410453,-0.034208454,0.00061086525,0.02687807,138.881,-42.933304,26.71543,STD
54589517163000,0.639939,3.24566804182179,9.30923560711763,0.646586089997712,-0.025961773,-0.0012217305,0.023823744,138.54512,-43.158527,26.583324,STD
54589522139000,0.644915,3.24780157404015,9.30781322095094,0.657964949618649,-0.02565634,-0.003970624,0.02687807,138.2052,-43.37888,26.451685,STD
54589527223000,0.649999,3.24998141282596,9.30635996305877,0.669590778057725,-0.027183503,-0.0027488936,0.0143553335,137.86757,-43.603497,26.315664,STD
54589532158000,0.654934,3.25209736569928,9.30494929671379,0.680875880997702,-0.0106901415,-0.007330383,0.021991149,137.52635,-43.82774,26.18644,STD
54589537160000,0.659936,3.25424204579499,9.30351947846504,0.692314196074857,-0.018936822,0.00030543262,0.025045475,137.18439,-44.048534,26.05126,STD
54589542187000,0.664963,3.25639744500353,9.30208251398354,0.703809679859916,-0.016187929,0.005497787,0.014049901,136.84447,-44.276123,25.916155,STD
54589547161000,0.669937,3.25853011969287,9.30066069951548,0.715183965984221,-0.01740966,-0.004581489,0.020463986,136.50151,-44.496902,25.787235,STD
54589552156000,0.674932,3.26067179843699,9.2992328822119,0.726606273823164,-0.02443461,-0.0125227375,0.017104227,136.16008,-44.720104,25.652773,STD
54589557159000,0.679935,3.26281690729721,9.29780277811384,0.738046875648635,-0.013133603,-0.016798794,0.010079277,135.81892,-44.946213,25.520418,STD
54589562278000,0.685054,3.26501175284098,9.29633951549582,0.749752740278775,-0.009162978,-0.013744468,0.018325957,135.47484,-45.16647,25.391249,STD
54589567161000,0.689937,3.26710540995961,9.29494371331496,0.760918932306315,-0.009162978,-0.005497787,0.013439035,135.13371,-45.39129,25.257847,STD
54589572140000,0.694916,3.26924022847151,9.29352046960034,0.7723046521722,-0.019242255,-0.00061086525,0.021380283,134.78781,-45.61046,25.129704,STD
54589577174000,0.69995,3.27139862903165,9.29208150417367,0.783816143195471,-0.024740042,0.004276057,0.018020526,134.44238,-45.832916,24.997,STD
54589582162000,0.704938,3.27353730642417,9.29065568781527,0.795222443796201,-0.035430185,-0.004886922,0.017104227,134.09674,-46.049637,24.868786,STD
54589587170000,0.709946,3.27861814391485,9.29045925682554,0.799186954409995,-0.025961773,-0.00030543262,0.016493361,133.74661,-46.269802,24.737246,STD
54589592159000,0.714935,3.29581450789758,9.29537258429739,0.772164202261299,-0.025350908,-0.0036651916,0.016798794,133.40042,-46.4851,24.60931,STD
54589597097000,0.719873,3.31283508223045,9.30023568533086,0.745417689912078,-0.032986723,-0.004276057,0.015577064,133.10158,-46.702847,24.51747,STD
54589602159000,0.724935,3.33028306669237,9.30522090554784,0.717999535697465,-0.022296581,0.004276057,0.018936822,132.79968,-46.922886,24.425335,STD
54589607127000,0.729903,3.34371195696994,9.31006235975791,0.685044321490227,-0.03023783,-0.0027488936,0.011301007,132.55534,-47.169872,24.365131,STD
54589612133000,0.734909,3.34846852615339,9.31481927661474,0.637478599855144,-0.019547688,-0.002443461,0.013744468,132.30315,-47.418633,24.303692,STD
54589617113000,0.739889,3.34935384559299,9.31317601956025,0.608396143533219,-0.02565634,-0.0061086523,0.015882496,132.10214,-47.69142,24.275026,STD
54589622133000,0.744909,3.3402018303636,9.29487136793261,0.626700154879117,-0.021380283,-0.008857546,0.009773844,131.89989,-47.96601,24.241943,STD
54589627124000,0.7499,3.3318791442256,9.28162452929474,0.644195249577241,-0.021380283,-0.00061086525,0.01282817,131.73549,-48.262344,24.245806,STD
54589632282000,0.755058,3.32696542193375,9.29145207649458,0.658936313836666,-0.02107485,-0.004276057,0.008552114,131.57483,-48.55667,24.244682,STD
54589637146000,0.759922,3.32158630914269,9.29986185360296,0.669593662745656,-0.022907447,-0.004581489,0.0125227375,131.44951,-48.863995,24.275982,STD
54589642127000,0.764903,3.31252857841071,9.30439076625843,0.665064844669135,-0.025961773,-0.00580322,0.0106901415,131.32445,-49.16642,24.300276,STD
54589647203000,0.769979,3.30593084026628,9.30749639888877,0.661572751263235,-0.020158553,-0.014660766,0.013439035,131.24492,-49.48876,24.351889,STD
54589652052000,0.774828,3.33027206793165,9.29289144878918,0.67130918132928,-0.004581489,-0.0106901415,0.0018325958,131.162,-49.807777,24.391525,STD
54589657048000,0.779824,3.35118847076036,9.28061904373361,0.680647329239643,-0.011301007,-0.014660766,-0.00030543262,131.07738,-50.11529,24.42928,STD
54589662078000,0.784854,3.34613642,9.2856712,0.68569938,-0.0070249503,-0.016798794,0.002443461,130.98904,-50.42256,24.459,STD
54589667076000,0.789852,3.3389805002346,9.2906104230694,0.701722507241447,-0.022907447,-0.022907447,0.0021380284,130.99826,-50.75976,24.560862,STD
54589672069000,0.794845,3.32495793061584,9.29528471055719,0.753138630008798,-0.014049901,-0.029321533,0.0009162979,131.00368,-51.09248,24.654696,STD
54589677082000,0.799858,3.31449091876307,9.299079,0.800826495784284,-0.009773844,-0.03176499,-0.0009162979,131.05043,-51.433308,24.765133,STD
54589682079000,0.804855,3.31925690517877,9.299079,0.83180542739269,-0.0027488936,-0.048563786,0.004886922,131.09683,-51.76406,24.870703,STD
54589687067000,0.809843,3.32401430766856,9.299079,0.862728563446868,0.004581489,-0.060170226,0.003970624,131.16536,-52.099236,24.957687,STD
54589692110000,0.814886,3.32882416748332,9.299079,0.893992672332437,0.0070249503,-0.059864793,0.0076358155,131.23073,-52.42292,25.041622,STD
54589697078000,0.819854,3.33110473715921,9.30151529513923,0.9145009572378,0.02076942,-0.061086524,0.009468411,131.31287,-52.750633,25.11594,STD
54589702174000,0.82495,3.32163478997769,9.31572051256428,0.886091090972155,0.020463986,-0.055283304,0.0009162979,131.39233,-53.068363,25.182867,STD
54589707169000,0.829945,3.313879307555,9.32902605244114,0.863736665963914,-0.004886922,-0.044593163,0.00061086525,131.46648,-53.36592,25.246254,STD
54589712168000,0.834944,3.31618893334137,9.3382647244066,0.877594577443555,-0.0067195175,-0.0421497,0.0027488936,131.54012,-53.66107,25.304255,STD
54589717298000,0.840074,3.31855908342821,9.34774549799788,0.891815638833944,-0.025045475,-0.03359759,0.004276057,131.60606,-53.945232,25.354,STD
54589722138000,0.844914,3.32079524842242,9.35669032142513,0.905232780574585,-0.013439035,-0.030543262,-0.0061086523,131.67186,-54.229126,25.3978,STD
54589727613000,0.850389,3.323503670162,9.36435916755032,0.916560116244477,-0.0106901415,-0.029626964,-0.0015271631,131.73764,-54.50108,25.437597,STD
54589732200000,0.854976,3.32781680126657,9.34279373721158,0.882055405184094,-0.01282817,-0.03268129,-0.009468411,131.80554,-54.772198,25.468954,STD
54589737634000,0.86041,3.33437976929953,9.31786662249179,0.843125860269975,-0.011301007,-0.023518313,-0.008552114,131.86517,-55.033432,25.497786,STD
54589742208000,0.864984,3.37033727489967,9.30987568095586,0.851116426340752,-0.008552114,-0.023518313,-0.003970624,131.92729,-55.288666,25.52461,STD
54589747855000,0.870631,3.41472993649216,9.30001017005655,0.860981473695732,-0.007941248,-0.0143553335,-0.007330383,131.98515,-55.540123,25.546223,STD
54589752156000,0.874932,3.42012921461028,9.29182368708532,0.857075736508277,-0.01160644,-0.010995574,-0.005497787,132.0413,-55.78267,25.56868,STD
54589757125000,0.879901,3.42172385033175,9.28225583945446,0.850697186962,-0.01740966,-0.015577064,-0.004581489,132.09549,-56.019535,25.587585,STD
54589762200000,0.884976,3.42335250323705,9.27248388801019,0.844182568538302,-0.012217305,-0.015271631,-0.0015271631,132.14842,-56.243343,25.614653,STD
54589767093000,0.889869,3.42492274927954,9.26306237896254,0.837901577809798,-0.0036651916,-0.013439035,-0.005497787,132.20062,-56.462063,25.638052,STD
54589772214000,0.89499,3.42656616435896,9.25320185416527,0.831327910627974,-0.0027488936,-0.005497787,0.005497787,132.24448,-56.67071,25.659973,STD
54589777175000,0.899951,3.42815823274579,9.24364941059581,0.824959630430936,-0.022602014,-0.013133603,-0.0012217305,132.29242,-56.87642,25.675459,STD
54589782195000,0.904971,3.43208617631156,9.26315433282919,0.848731031660838,-0.021380283,-0.019547688,-0.005192355,132.3335,-57.07737,25.691486,STD
54589787152000,0.909928,3.43657357564987,9.29007882257302,0.880142873886001,-0.013439035,-0.010079277,0.004276057,132.36885,-57.269165,25.706491,STD
54589792220000,0.914996,3.44502095533815,9.28171061165462,0.873274649891536,-0.02443461,-0.0070249503,0.0067195175,132.40695,-57.452484,25.72272,STD
54589797103000,0.919879,3.4549664071459,9.25684698213526,0.848410989217354,-0.02687807,0.0018325958,0.003970624,132.43735,-57.632664,25.736479,STD
54589802153000,0.924929,3.45176504134337,9.25483651515151,0.84457971955221,-0.0106901415,-0.002443461,0.00580322,132.46783,-57.8074,25.749868,STD
54589807173000,0.929949,3.44480564122756,9.25947621212121,0.846899519590813,-0.010995574,0.006414085,0.01038471,132.48927,-57.974335,25.759375,STD
54589812161000,0.934937,3.43789060382166,9.26408633333333,0.849204532059448,-0.01985312,0.009468411,0.014660766,132.51382,-58.135925,25.774008,STD
54589817510000,0.940286,3.43047509959467,9.26903010606061,0.851676366801776,-0.023823744,0.008857546,0.01038471,132.53471,-58.294815,25.785257,STD
54589822142000,0.944918,3.42191512443444,9.27363956288196,0.865499171748687,-0.019242255,0.007330383,0.014966198,132.54665,-58.44586,25.794727,STD
54589827162000,0.949938,3.4116062285408,9.27879358025089,0.886116995829313,-0.022907447,0.012217305,0.018020526,132.55504,-58.59236,25.800539,STD
54589832156000,0.954932,3.41291477010349,9.28349664469145,0.894214630103488,-0.025961773,0.015271631,0.013439035,132.56136,-58.74046,25.798206,STD
54589837187000,0.959963,3.41753156588731,9.28811353689153,0.898831425887313,-0.01740966,0.014660766,0.009773844,132.56447,-58.885056,25.795513,STD
54589842192000,0.964968,3.41397829195153,9.28291309033593,0.901867096016156,-0.016493361,0.010995574,0.00580322,132.56721,-59.025787,25.790146,STD
54589847189000,0.969965,3.40690678132204,9.27348445872328,0.904224266225988,-0.018936822,0.01863139,0.0125227375,132.56377,-59.16201,25.78468,STD
54589852154000,0.97493,3.39988055553147,9.26411620658063,0.906566341489508,-0.020158553,0.012217305,0.013439035,132.56444,-59.296837,25.777388,STD
54589857150000,0.979926,3.3928104600532,9.25468946182642,0.908923039982268,-0.021380283,0.017104227,0.010079277,132.55696,-59.427345,25.768145,STD
54589862166000,0.984942,3.39630051967329,9.24813947635374,0.900630261347181,-0.02107485,0.026267206,0.008857546,132.54771,-59.553905,25.758984,STD
54589867162000,0.989938,3.40594974681859,9.24331476202481,0.88615639040234,-0.021685716,0.021685716,0.01038471,132.53911,-59.677143,25.749512,STD
54589872139000,0.994915,3.3978152388785,9.24738210093458,0.889712188897196,-0.024740042,0.027794369,0.0070249503,132.51686,-59.797276,25.73275,STD
54589877183000,0.999959,3.37975715319626,9.25641133233645,0.903255781442991,-0.024740042,0.028710667,0.009468411,132.49495,-59.91314,25.718088,STD
54589882156000,1.004932,3.37351828394973,9.27070098028198,0.902349870357581,-0.012217305,0.03634648,0.008857546,132.46866,-60.028515,25.702099,STD
54589887766000,1.010542,3.37900729181651,9.2926566678586,0.885882984313445,-0.012217305,0.030543262,0.0070249503,132.44418,-60.13918,25.68674,STD
54589892167000,1.014943,3.37510509254011,9.3045870662638,0.875558392540112,-0.021380283,0.024740042,0.009773844,132.41805,-60.249393,25.670006,STD
54589897162000,1.019938,3.36513715838716,9.31455546879558,0.865590458387164,-0.017715093,0.025350908,0.010995574,132.3902,-60.359627,25.651718,STD
54589902191000,1.024967,3.34081530721052,9.31528415580901,0.870760004364972,-0.021991149,0.039095376,0.01038471,132.35811,-60.466785,25.632063,STD
54589907203000,1.029979,3.30833957216315,9.3106444467427,0.884678143309492,-0.02107485,0.019242255,0.005497787,132.33466,-60.573444,25.613491,STD
54589912204000,1.03498,3.290420236708,9.30465475314849,0.889309330546715,-0.022602014,0.027488936,0.024129177,132.29121,-60.672024,25.59684,STD
54589917195000,1.039971,3.2834206552182,9.29765502548081,0.886976122098994,-0.028405234,0.023518313,0.0015271631,132.25977,-60.779446,25.569366,STD
54589922136000,1.044912,3.27649119576296,9.29072542131211,0.884666287809236,-0.022907447,0.022296581,0.0027488936,132.2164,-60.878384,25.54636,STD
54589927218000,1.049994,3.26936399217026,9.28359806887631,0.882290538394025,-0.02687807,0.030848695,0.0143553335,132.17097,-60.976147,25.519466,STD
54589932166000,1.054942,3.27011427559742,9.28434836797224,0.892124400540407,-0.03390302,0.021380283,0.006414085,132.13051,-61.074608,25.491703,STD
54589937191000,1.059967,3.2796578393059,9.29389213098661,0.915983334724839,-0.024129177,0.028099801,0.0143553335,132.07924,-61.165787,25.46963,STD
54589942204000,1.06498,3.28272509097081,9.3054376598778,0.927890495485404,-0.031154128,0.013439035,0.009773844,132.04132,-61.25854,25.44448,STD
54589947164000,1.06994,3.27811827029386,9.31925841053244,0.925587085146931,-0.01985312,0.025045475,0.016798794,131.99069,-61.348003,25.42228,STD
54589952123000,1.074899,3.27351237841141,9.33307637474542,0.923284139205703,-0.03634648,0.025350908,0.016493361,131.94817,-61.43207,25.398973,STD
54589957402000,1.080178,3.26860927229173,9.34778600029095,0.920832586145864,-0.039095376,0.01282817,0.016798794,131.90448,-61.515614,25.37765,STD
54589962092000,1.084868,3.25958395666323,9.35043389289392,0.914793157134912,-0.035124753,0.019547688,0.02107485,131.85176,-61.5952,25.355015,STD
54589967194000,1.08997,3.23945596240989,9.3303056884655,0.899697127291452,-0.040317107,0.012217305,0.014966198,131.8071,-61.6743,25.331184,STD
54589972130000,1.094906,3.23540015882563,9.31182026191326,0.892246315113332,-0.032986723,0.01985312,0.025350908,131.75227,-61.752605,25.30804,STD
54589977196000,1.099972,3.25704747610209,9.29450178422274,0.896575787610209,-0.04337143,0.013744468,0.02107485,131.70465,-61.831833,25.280462,STD
54589982099000,1.104875,3.27495321740606,9.28086876749088,0.899590692841207,-0.03726278,0.013744468,0.025350908,131.65785,-61.911175,25.257275,STD
54589987223000,1.109999,3.27243064900015,9.28843663075104,0.894545540225158,-0.040011674,0.01740966,0.027488936,131.61143,-61.98822,25.232397,STD
54589992172000,1.114948,3.2699942338868,9.29574602873593,0.889672694733974,-0.03726278,0.011911872,0.02443461,131.56863,-62.058342,25.215475,STD
54589997289000,1.120065,3.2674751116126,9.30330355338508,0.88463443440292,-0.028099801,0.0015271631,0.023518313,131.52518,-62.126465,25.199512,STD
54590002154000,1.12493,3.26847239088696,9.30921231535221,0.881622478177393,-0.029932396,0.011301007,0.024740042,131.47652,-62.192535,25.182127,STD
54590007189000,1.129965,3.27975708316405,9.31146940463375,0.883879416632811,-0.03481932,-0.0018325958,0.01985312,131.43779,-62.259834,25.164537,STD
54590012096000,1.134872,3.29075489547859,9.31366911408846,0.886078979095717,-0.032070424,-0.0027488936,0.016798794,131.39273,-62.330658,25.141678,STD
54590017190000,1.139966,3.30217182148842,9.31595265188392,0.888362364297683,-0.03359759,0.010995574,0.020463986,131.34627,-62.398525,25.119198,STD
54590022480000,1.145256,3.31385677932874,9.31832732350373,0.890830712885828,-0.040317107,-0.0021380284,0.016798794,131.30835,-62.46746,25.0954,STD
54590027260000,1.150036,3.32051752780095,9.32054750344359,0.8952712118673,-0.030543262,-0.006414085,0.016187929,131.26227,-62.535038,25.072115,STD
54590032155000,1.154931,3.32733852440586,9.32282109775439,0.899818542937239,-0.028405234,-0.008552114,0.01863139,131.22472,-62.598953,25.051067,STD
54590037148000,1.159924,3.33429608028907,9.32514021039868,0.904456913526045,-0.034208454,-0.0018325958,0.017715093,131.18518,-62.66281,25.028608,STD
54590042242000,1.165018,3.34139437583665,9.32750623479484,0.909189110557765,-0.03023783,-0.0027488936,0.017104227,131.14774,-62.726013,25.00743,STD
54590047161000,1.169937,3.33629229488639,9.31578314791186,0.907792191628797,-0.03848451,-0.008246681,0.015271631,131.10905,-62.78658,24.985493,STD
54590052091000,1.174867,3.32934127795554,9.30188106566226,0.905475185985179,-0.03573562,-0.021685716,0.016187929,131.07233,-62.847042,24.964624,STD
54590057159000,1.179935,3.32219568894832,9.28758983790548,0.903093322982775,-0.0421497,-0.022602014,0.01740966,131.03929,-62.90633,24.941793,STD
54590062154000,1.18493,3.31515302574962,9.27350446248221,0.900745768583207,-0.03573562,-0.02107485,0.015577064,131.009,-62.966652,24.919008,STD
54590067155000,1.189931,3.31022710996037,9.2636526898415,0.896871774841498,-0.03023783,-0.014966198,0.019547688,130.97452,-63.020744,24.90077,STD
54590073021000,1.195797,3.30516773778818,9.25353405115274,0.891812561152738,-0.03604105,-0.026572637,0.018020526,130.94476,-63.075176,24.881304,STD
54590077217000,1.199993,3.30098288824834,9.26024080931264,0.896673683503326,-0.034513887,-0.027183503,0.01863139,130.90869,-63.128426,24.862446,STD
54590082183000,1.204959,3.29571033960089,9.27605823503326,0.907218780798226,-0.035430185,-0.01985312,0.020463986,130.8731,-63.17989,24.843662,STD
54590087162000,1.209938,3.29614363213603,9.28336953620558,0.906352195727933,-0.02687807,-0.024740042,0.02443461,130.84502,-63.231953,24.826628,STD
54590092294000,1.21507,3.29849117405426,9.28806471809324,0.901657111891479,-0.025350908,-0.037873644,0.020463986,130.8169,-63.28386,24.807846,STD
54590097194000,1.21997,3.30073259170806,9.29254764701949,0.897174276583875,-0.03268129,-0.029932396,0.019242255,130.78188,-63.3348,24.787392,STD
54590102157000,1.224933,3.30300282758884,9.29708821360336,0.892633804822316,-0.02443461,-0.0290161,0.023518313,130.75227,-63.38606,24.768393,STD
54590107148000,1.229924,3.30115475605949,9.28486178029744,0.893486503940513,-0.022907447,-0.022296581,0.02321288,130.7144,-63.437347,24.74446,STD
54590112168000,1.234944,3.29608403187427,9.25950815937138,0.898557228125725,-0.03145956,-0.023823744,0.02321288,130.67804,-63.4863,24.722271,STD
54590117156000,1.239932,3.29762998803008,9.25440365503759,0.903428448030075,-0.02443461,-0.03604105,0.02107485,130.64243,-63.53734,24.699696,STD
54590122146000,1.244922,3.30242078823058,9.25919455528822,0.908219248230576,-0.03176499,-0.01985312,0.018325957,130.59802,-63.585384,24.675737,STD
54590127200000,1.249976,3.31687051627426,9.24789985173874,0.922668872106196,-0.028099801,-0.02687807,0.0125227375,130.56476,-63.634346,24.653048,STD
54590132160000,1.254936,3.33558839628608,9.22918221603783,0.941386600645257,-0.023518313,-0.026267206,0.01282817,130.52354,-63.680973,24.63027,STD
54590137146000,1.259922,3.33941489679879,9.23113728886169,0.94232224359759,-0.029932396,-0.020463986,0.010079277,130.4875,-63.7309,24.602982,STD
54590143249000,1.266025,3.33391191116656,9.24764601591187,0.931316272333114,-0.032375857,-0.022907447,0.017104227,130.45282,-63.778027,24.579128,STD
54590147158000,1.269934,3.32891644136733,9.251195,0.918783793168464,-0.026572637,-0.028405234,0.018020526,130.41878,-63.82169,24.556936,STD
54590152156000,1.274932,3.32157925682898,9.251195,0.899218159266261,-0.02687807,-0.01985312,0.0061086523,130.38104,-63.865417,24.532665,STD
54590157139000,1.279915,3.31426409265239,9.251195,0.879711245753922,-0.025961773,-0.018325957,0.005192355,130.34691,-63.907963,24.511553,STD
54590162166000,1.284942,3.30688433541464,9.251195,0.860032085764652,-0.02076942,-0.016493361,0.0027488936,130.31038,-63.953728,24.486444,STD
54590167121000,1.289897,3.3039982,9.24840864160218,0.857908409146834,-0.023518313,-0.015271631,0.009468411,130.27228,-63.995758,24.463762,STD
54590172128000,1.294904,3.3039982,9.24374109509904,0.867243321826057,-0.027794369,-0.011301007,0.009468411,130.252620643977,-64.0194774080175,24.4500178396507,STD
54590177199000,1.299975,3.3039982,9.23901388752616,0.876697554339806,-0.0125227375,-0.009468411,0.0012217305,130.23271,-64.0435,24.436098,STD
54590182161000,1.304937,3.3039982,9.23438829021268,0.885948570260379,-0.01985312,-0.017104227,-0.002443461,130.19499,-64.08964,24.410166,STD
54590187199000,1.309975,3.31108733776559,9.2344040705963,0.874101886593557,-0.018020526,-0.008552114,-0.0018325958,130.14622,-64.134476,24.385677,STD
54590192221000,1.314997,3.32521497659845,9.23911333271321,0.841137691019289,-0.015577064,-0.007941248,-0.005192355,130.1024,-64.180016,24.359928,STD
54590197192000,1.319968,3.33050103816122,9.24384588510165,0.830288885032871,-0.010079277,-0.0018325958,-0.0030543262,130.05061,-64.21821,24.34003,STD
54590202195000,1.324971,3.32565495434409,9.24869201952058,0.844827004919591,-0.01863139,-0.00580322,-0.0021380284,130.00188,-64.25602,24.319345,STD
54590207177000,1.329953,3.323152,9.25683643814484,0.8523358,-0.0030543262,-0.004581489,-0.002443461,129.94247,-64.29407,24.300262,STD
54590212503000,1.335279,3.323152,9.26936617107203,0.8523358,-0.014049901,-0.010079277,-0.009162978,129.88669,-64.33002,24.280073,STD
54590217173000,1.339949,3.323152,9.28035262484033,0.8523358,-0.006414085,-0.0009162979,0.0033597588,129.82516,-64.36376,24.263613,STD
54590222177000,1.344953,3.323152,9.29212483354623,0.8523358,-0.014660766,-0.002443461,-0.0033597588,129.76993,-64.40167,24.240595,STD
54590227105000,1.349881,3.31793306639646,9.30081866875461,0.859294340596905,-0.003970624,-0.005192355,0.0021380284,129.70993,-64.433784,24.22527,STD
54590232198000,1.354974,3.30445434994473,9.30531163679071,0.87726586557664,0.0021380284,-0.005497787,0.003970624,129.65027,-64.46719,24.207003,STD
54590237133000,1.359909,3.29272859110012,9.31034884425216,0.892335868310672,0.00030543262,-0.004886922,-0.009162978,129.58871,-64.50436,24.184364,STD
54590242273000,1.365049,3.28512278887515,9.3179548053152,0.89994166788834,-0.01038471,-0.004581489,-0.0009162979,129.52647,-64.53457,24.168358,STD
54590247089000,1.369865,3.27799641854141,9.32508132447466,0.907068035741656,-0.004276057,-0.0009162979,-0.0027488936,129.46727,-64.57433,24.14317,STD
54590252200000,1.374976,3.27043352843016,9.33264437252781,0.91463092322054,-0.013439035,-0.0033597588,-0.0036651916,129.40962,-64.608894,24.120966,STD
54590257110000,1.379886,3.26728169108622,9.33897772430589,0.914601378402338,-0.004886922,-0.015271631,-0.002443461,129.35417,-64.64463,24.099773,STD
54590262208000,1.384984,3.27203790408183,9.34373403662932,0.90033274438188,-0.0106901415,-0.004886922,0.0009162979,129.2927,-64.67755,24.0783,STD
54590267090000,1.389866,3.27328725880868,9.34762419418418,0.88998287546677,-0.018325957,-0.00061086525,0.005192355,129.2364,-64.71232,24.055452,STD
54590272176000,1.394952,3.26619357395019,9.34998880518472,0.887618299032963,-0.005497787,0.0015271631,0.013133603,129.17747,-64.74595,24.034485,STD
54590277139000,1.399915,3.2592714430118,9.35229623035099,0.885310907597456,-0.016493361,-0.004581489,0.0076358155,129.11584,-64.774376,24.016857,STD
54590282126000,1.404902,3.25231583813777,9.35461481372882,0.882992358113501,-0.029321533,-0.01160644,0.007330383,129.05359,-64.799934,24.002848,STD
54590287195000,1.409971,3.25093452257041,9.35478211424038,0.8819456300238,-0.022907447,-0.0106901415,0.0106901415,128.99118,-64.82646,23.988234,STD
54590292209000,1.414985,3.27474356422055,9.345258298691,0.886707468187227,-0.028099801,-0.012217305,0.0143553335,128.932,-64.8507,23.974005,STD
54590297149000,1.419925,3.293301778028,9.33626735464604,0.88877702104181,-0.027794369,-0.016493361,0.011301007,128.87328,-64.87929,23.956495,STD
54590302193000,1.424969,3.28620708804465,9.32917251649858,0.876952522919808,-0.02687807,-0.013439035,0.018020526,128.81247,-64.903564,23.94259,STD
54590307181000,1.429957,3.27919116543621,9.322156447371,0.865259303920494,-0.021991149,-0.015882496,0.021991149,128.75623,-64.92521,23.931496,STD
54590312198000,1.434974,3.27213445258004,9.31509958714384,0.853498101089788,-0.017715093,-0.0033597588,0.018020526,128.69478,-64.94712,23.91925,STD
54590317230000,1.440006,3.26589271571082,9.30784914136932,0.842557284289184,-0.01863139,-0.01038471,0.021380283,128.64,-64.96584,23.9109,STD
54590322221000,1.444997,3.2681250064263,9.2989200251261,0.840324993573697,-0.023823744,-0.007330383,0.018020526,128.57901,-64.98741,23.898535,STD
54590327491000,1.450267,3.2704820835793,9.28949176573884,0.837967916420699,-0.021380283,-0.01740966,0.01740966,128.52367,-65.01,23.88729,STD
54590332179000,1.454955,3.27257885354007,9.28110472968429,0.835871146459929,-0.01740966,-0.017104227,0.016187929,128.46461,-65.03326,23.874327,STD
54590337282000,1.460058,3.27486123773585,9.27197524056604,0.833588762264151,-0.008552114,-0.008552114,0.01863139,128.4063,-65.056114,23.862225,STD
54590342195000,1.464971,3.27713485167008,9.27781716768916,0.823846935800954,-0.022907447,-0.009162978,0.014049901,128.35135,-65.07951,23.84805,STD
54590347157000,1.469933,3.27944861550297,9.28707217470055,0.812278109388451,-0.014049901,-0.021380283,0.02321288,128.29697,-65.100914,23.838491,STD
54590352187000,1.474963,3.28179408750609,9.29645401373065,0.800550742025514,-0.01985312,-0.018325957,0.018325957,128.23947,-65.123184,23.824913,STD
54590357180000,1.479956,3.28412230653423,9.30576684122115,0.788909639591489,-0.009162978,-0.016798794,0.018325957,128.18593,-65.143555,23.815666,STD
54590362221000,1.484997,3.29481256864382,9.30533330909091,0.805233909529061,-0.0143553335,-0.009162978,0.015271631,128.1261,-65.16127,23.806492,STD
54590367238000,1.490014,3.30913367365127,9.30055955757576,0.833875835421759,-0.014966198,-0.007330383,0.01160644,128.06795,-65.180374,23.79708,STD
54590372176000,1.494952,3.31679802630846,9.30552482278607,0.849204519920398,-0.0125227375,-0.01160644,0.015882496,128.01875,-65.20272,23.78699,STD
54590377216000,1.499992,3.32160066989055,9.31513066159204,0.858809907383085,-0.01985312,-0.009468411,0.02107485,127.967285,-65.22484,23.775707,STD
54590382193000,1.504969,3.32154645493092,9.31502222544553,0.866729295561674,-0.01160644,-0.013133603,0.016187929,127.92052,-65.246086,23.765472,STD
54590387221000,1.509997,3.31913597998098,9.31020099867341,0.873960811024229,-0.008246681,-0.010995574,0.021991149,127.87091,-65.261986,23.75926,STD
54590392212000,1.514988,3.31674324321185,9.30541525030036,0.881139111277533,-0.022602014,-0.015577064,0.022602014,127.8253,-65.27937,23.750517,STD
54590398072000,1.520848,3.31393389889868,9.29979623898678,0.889567249823789,-0.007330383,-0.0018325958,0.019242255,127.7735,-65.29878,23.741365,STD
54590402189000,1.524965,3.31994282303138,9.30544682223209,0.900194341222617,-0.00580322,-0.0061086523,0.015882496,127.72267,-65.31629,23.730858,STD
54590407196000,1.529972,3.32940622101835,9.31491066489047,0.914389433262285,-0.011301007,-0.021380283,0.016798794,127.671364,-65.334175,23.720394,STD
54590412199000,1.534975,3.32958694868062,9.30252374340309,0.913089616257204,-0.013439035,-0.01740966,0.010995574,127.616585,-65.3545,23.70649,STD
54590417194000,1.53997,3.32475057060965,9.27834185304823,0.903416966166212,-0.015577064,-0.022296581,0.018020526,127.56911,-65.37054,23.697277,STD
54590422184000,1.54496,3.31365665471642,9.2766789878254,0.893889654047313,-0.014660766,-0.019547688,0.007941248,127.519714,-65.3915,23.681963,STD
54590427195000,1.549971,3.29940652736811,9.28617870899733,0.884389605521132,-0.008246681,-0.024129177,0.008246681,127.47382,-65.40788,23.671959,STD
54590432193000,1.554969,3.30057220838694,9.28796427783276,0.888754658300347,-0.00580322,-0.02321288,0.013439035,127.428406,-65.42432,23.662254,STD
54590437201000,1.559977,3.31006473485898,9.28559111523998,0.900620235856012,-0.00580322,-0.024129177,0.018325957,127.38525,-65.44096,23.652702,STD
54590442237000,1.565013,3.3196103345621,9.28320468416625,0.912552154500247,-0.008246681,-0.017715093,0.014966198,127.335594,-65.46048,23.63971,STD
54590447286000,1.570062,3.32918057540821,9.28081209272637,0.924514874364176,0.0021380284,-0.013133603,0.025350908,127.28643,-65.47575,23.632013,STD
54590452191000,1.574967,3.3383233596302,9.28551957646379,0.940139183864599,-0.004581489,-0.02321288,0.026267206,127.24068,-65.493065,23.620892,STD
54590457202000,1.579978,3.34756629969183,9.29476270955316,0.958625088116333,0.004276057,-0.017104227,0.022907447,127.18861,-65.510635,23.610655,STD
54590462192000,1.584968,3.35437891156797,9.29658253629746,0.964761088432028,0.021685716,-0.04337143,0.024740042,127.15111,-65.522575,23.606503,STD
54590468033000,1.590809,3.35988137948062,9.29107995347236,0.959258620519378,0.034208454,-0.04184427,0.02565634,127.103615,-65.536064,23.599812,STD
54590472180000,1.594956,3.37359473169982,9.27736654295674,0.94069105000205,0.046731193,-0.036957346,0.023823744,127.064064,-65.54951,23.594296,STD
54590477190000,1.599966,3.39818959934386,9.25277162394915,0.906258142846012,0.03481932,-0.0290161,0.02076942,127.023285,-65.56222,23.5883,STD
54590482196000,1.604972,3.39634145378886,9.24941922693415,0.888042689035654,0.029932396,-0.029321533,0.027488936,126.9835,-65.57342,23.585358,STD
54590487213000,1.609989,3.37248272637799,9.26373479223359,0.883270903692522,0.03145956,-0.020158553,0.0290161,126.93886,-65.58654,23.579292,STD
54590492230000,1.615006,3.36644392697908,9.27782583637065,0.883558529104233,0.024740042,-0.016493361,0.03604105,126.89603,-65.59216,23.581024,STD
54590497200000,1.619976,3.37562273249446,9.29159385295536,0.888147960615177,0.013133603,-0.01282817,0.041233405,126.85067,-65.59786,23.58197,STD
54590502174000,1.62495,3.38678433250449,9.30525058286849,0.884471593126596,0.0143553335,-0.010079277,0.032070424,126.79441,-65.614365,23.569586,STD
54590507188000,1.629964,3.40040385828685,9.31887044048407,0.870851991496644,0.0027488936,-0.0015271631,0.034208454,126.7353,-65.6247,23.561443,STD
54590512139000,1.634915,3.39775612690546,9.32118866722199,0.853636099958351,0.008552114,-0.0015271631,0.030848695,126.67703,-65.64006,23.549025,STD
54590517200000,1.639976,3.36242951429613,9.30100157975843,0.828402746518118,0.0070249503,0.0067195175,0.032375857,126.6141,-65.65224,23.538021,STD
54590522116000,1.644892,3.34806990604954,9.29526644680746,0.821714202842199,0.0061086523,-0.003970624,0.036651913,126.55745,-65.66481,23.52828,STD
54590527153000,1.649929,3.36235141410244,9.30954855136682,0.840756299741439,0.004581489,-0.0009162979,0.036957346,126.49486,-65.67803,23.517076,STD
54590532092000,1.654868,3.37635717982032,9.31291211644782,0.857656979820318,0.004581489,-0.008857546,0.029932396,126.469006956078,-65.6859001123596,23.5107716547497,STD
54590537922000,1.660698,3.39289368214039,9.29637498099516,0.874193482140389,0.00061086525,-0.009162978,0.034208454,126.43849,-65.69519,23.50333,STD
54590542131000,1.664907,3.3915011399826,9.28123672272156,0.879413144544312,0.00580322,-0.016493361,0.03359759,126.38145,-65.71223,23.490152,STD
54590547199000,1.669975,3.36804742342708,9.25778295718566,0.874722391437132,0.013439035,-0.015882496,0.031154128,126.323784,-65.72866,23.476263,STD
54590552089000,1.674865,3.35388351549506,9.24361905728388,0.876825444802573,0.009162978,-0.021991149,0.038179077,126.271805,-65.73868,23.468178,STD
54590557201000,1.679977,3.36120577119354,9.25094146589889,0.896351472741549,0.010079277,-0.019242255,0.039095376,126.217804,-65.75202,23.457335,STD
54590562117000,1.684893,3.36824728312893,9.25798312488783,0.915128850157044,0.014660766,-0.013133603,0.033292156,126.16489,-65.76722,23.44484,STD
54590567194000,1.68997,3.37551940601256,9.26525539964104,0.934521190502543,0.01740966,-0.0125227375,0.029932396,126.11328,-65.78146,23.433357,STD
54590572135000,1.694911,3.37809770743339,9.27160649122973,0.941815869896653,0.0106901415,-0.015577064,0.031154128,126.07366,-65.795815,23.42396,STD
54590577186000,1.699962,3.36892497266521,9.27619247549066,0.918884037765241,0.005192355,-0.008857546,0.031154128,126.03124,-65.811646,23.412916,STD
54590582217000,1.704993,3.36491784092247,9.27646646810599,0.902813771560353,0.007941248,-0.007330383,0.03359759,125.9928,-65.82364,23.404638,STD
54590587184000,1.70996,3.38359020262022,9.25779415515211,0.916818074517174,0.01863139,-0.014049901,0.03848451,125.95512,-65.83513,23.397072,STD
54590592182000,1.714958,3.40009981060963,9.24195141757251,0.926949784601513,0.012217305,-0.0061086523,0.038789943,125.90469,-65.84362,23.391495,STD
54590597254000,1.72003,3.40253298846867,9.24438464624556,0.912350704743776,0.009162978,-0.0076358155,0.03176499,125.85977,-65.85393,23.385496,STD
54590602166000,1.724942,3.40488940992837,9.2467411169163,0.898212163682813,0.009162978,0.0015271631,0.031154128,125.810616,-65.857895,23.38436,STD
54590607530000,1.730306,3.4074626682162,9.24931442894355,0.882772600520964,0.008857546,0.00061086525,0.03268129,125.76569,-65.863205,23.381945,STD
54590612121000,1.734897,3.41094203379777,9.25215428692277,0.872128935522492,0.01038471,0.0030543262,0.03268129,125.71699,-65.87208,23.375032,STD
54590617138000,1.739914,3.4228963544586,9.2593267794586,0.876910678765924,0.0070249503,0.008246681,0.03145956,125.66825,-65.88065,23.368021,STD
54590622127000,1.744903,3.43478395776274,9.26645924213774,0.881665734983081,0.0027488936,0.004581489,0.030848695,125.621216,-65.89029,23.36125,STD
54590627131000,1.749907,3.44670730250796,9.27361314938296,0.886435087821457,0.014660766,0.0061086523,0.032986723,125.57144,-65.90051,23.354473,STD
54590632139000,1.754915,3.45610867276577,9.27880647860554,0.891481955133685,0.005497787,0.011911872,0.027183503,125.52609,-65.91336,23.343662,STD
54590637175000,1.759951,3.4466096792555,9.26930753468906,0.898606197786696,0.009468411,0.011911872,0.029932396,125.48213,-65.924995,23.335953,STD
54590642136000,1.764912,3.43725215209021,9.25995005637895,0.905624340717908,0.004276057,0.018020526,0.02443461,125.443275,-65.934875,23.32977,STD
54590647183000,1.769959,3.42773241018268,9.25043036417352,0.91276414466345,0.006414085,0.007330383,0.02565634,125.4096,-65.94299,23.326607,STD
54590652258000,1.775034,3.41856083100833,9.241618,0.91811635759155,0.029626964,0.0027488936,0.022296581,125.372826,-65.955086,23.320059,STD
54590657191000,1.779967,3.41416435300358,9.241618,0.902728673098041,0.025961773,0.002443461,0.02565634,125.338036,-65.96334,23.315826,STD
54590662116000,1.784892,3.40977500490438,9.241618,0.887365943292541,0.024129177,-0.002443461,0.02076942,125.31118,-65.98062,23.303982,STD
54590667206000,1.789982,3.40523860250337,9.241618,0.871488523046857,0.028405234,0.006414085,0.022296581,125.27994,-65.99524,23.29452,STD
54590672209000,1.794985,3.40077973782514,9.241618,0.85588248503327,0.02076942,0.01160644,0.016493361,125.25181,-66.01218,23.28188,STD
54590677460000,1.800236,3.40375657168321,9.24959851002633,0.844355456633583,0.02076942,0.01038471,0.025045475,125.2206,-66.02662,23.27182,STD
54590682126000,1.804902,3.40828212858011,9.25864981284181,0.835304342839781,0.015577064,0.0036651916,0.022907447,125.190216,-66.0446,23.257217,STD
54590687271000,1.810047,3.41318093041844,9.27996065209219,0.840857660836878,0.019242255,0.0018325958,0.025045475,125.16293,-66.06145,23.246775,STD
54590692156000,1.814932,3.41780875394203,9.30309976971016,0.850113307884064,0.020463986,0.0027488936,0.03023783,125.13689,-66.07735,23.236753,STD
54590697196000,1.819972,3.42452321044987,9.30678822417793,0.857939010449869,0.015577064,0.01160644,0.027183503,125.108894,-66.09505,23.22479,STD
54590702133000,1.824909,3.4316768308251,9.30440363425459,0.865092630825096,0.014049901,0.008857546,0.028710667,125.08392,-66.11019,23.215906,STD
54590707194000,1.82997,3.43901012487392,9.30195915185596,0.872425924873916,0.011301007,-0.0009162979,0.02107485,125.05879,-66.12854,23.202915,STD
54590712149000,1.834925,3.44618982691144,9.29956586786363,0.879605626911438,-0.009162978,0.005192355,0.018936822,125.02944,-66.143524,23.191582,STD
54590717191000,1.839967,3.44386472521313,9.28015062606566,0.873494850426262,-0.0015271631,0.007941248,0.016187929,125.004456,-66.16225,23.178377,STD
54590722184000,1.84496,3.43917908460559,9.25672242302793,0.864123569211171,-0.00061086525,0.013439035,0.018325957,124.97675,-66.17822,23.165842,STD
54590727236000,1.850012,3.43452975405483,9.2582828399083,0.87608800598338,-0.0018325958,0.010079277,0.023823744,124.942375,-66.18686,23.159534,STD
54590732182000,1.854958,3.43000526720795,9.26733200257904,0.894185981717451,-0.003970624,0.01038471,0.022907447,124.905685,-66.196724,23.151701,STD
54590737277000,1.860053,3.42205084994384,9.26551443649592,0.884104968032619,0.0061086523,-0.00061086525,0.026267206,124.87363,-66.2043,23.147566,STD
54590742288000,1.865064,3.41267747335319,9.25848425723912,0.860671502087016,0.01160644,-0.008857546,0.025045475,124.841156,-66.21305,23.141687,STD
54590747277000,1.870053,3.40334524908443,9.2514849428683,0.837340917053567,0.017104227,-0.0030543262,0.024129177,124.805145,-66.21972,23.13763,STD
54590752203000,1.874979,3.39413087010108,9.24457401430734,0.814304945541286,0.022602014,-0.0030543262,0.020158553,124.790456500353,-66.222852512365,23.136126891289,STD
54590757184000,1.87996,3.39561139123412,9.2497508566926,0.812584458173939,0.019242255,-0.009162978,0.026572637,124.775604,-66.22602,23.134607,STD
54590762198000,1.884974,3.40507028519649,9.26393949394268,0.82677281887127,0.022907447,0.003970624,0.018936822,124.73892,-66.23594,23.127605,STD
54590767186000,1.889962,3.414655948579,9.26503614047061,0.803962055077926,0.025961773,0.014660766,0.016493361,124.70313,-66.247795,23.120617,STD
54590772177000,1.894953,3.42439371139859,9.2552981742895,0.750404308729755,0.017104227,0.0125227375,0.02443461,124.66741,-66.258316,23.114347,STD
54590777250000,1.900026,3.42573747753201,9.25671376018626,0.736115267403958,0.014660766,0.022602014,0.02107485,124.63461,-66.27349,23.104212,STD
54590782199000,1.904975,3.42113953581684,9.26590983566162,0.749909092549476,0.006414085,0.011911872,0.025045475,124.60859,-66.28345,23.098974,STD
54590787236000,1.910012,3.42012152404056,9.26674435260116,0.757769224040557,0.009468411,0.02076942,0.027794369,124.57289,-66.29593,23.092585,STD
54590792340000,1.915116,3.42243745255378,9.25979642196532,0.760085152553776,0.007330383,0.02443461,0.022602014,124.542336,-66.30867,23.085365,STD
54590797271000,1.920047,3.42467488270634,9.25308399132948,0.762322582706339,-0.0012217305,0.020158553,0.023823744,124.51139,-66.31917,23.079647,STD
54590802182000,1.924958,3.42690323790391,9.24639878612717,0.764550937903914,0.013439035,0.022296581,0.022907447,124.47772,-66.33299,23.071493,STD
54590807173000,1.929949,3.426974598259,9.23705145835572,0.770711116349275,0.01160644,0.022296581,0.02565634,124.44592,-66.34538,23.063047,STD
54590812197000,1.934973,3.42180384670607,9.22153941966685,0.786223408802794,0.004276057,0.022907447,0.021991149,124.41365,-66.3603,23.052437,STD
54590817184000,1.93996,3.43131895793008,9.21908739265258,0.803140948426822,0.00580322,0.029626964,0.02443461,124.37999,-66.37143,23.045607,STD
54590822190000,1.944966,3.45972590685364,9.23329066936599,0.822078929206992,0.0012217305,0.036651913,0.022907447,124.34647,-66.38383,23.036547,STD
54590827849000,1.950625,3.47119344601312,9.23643080851064,0.835775876993438,-0.0015271631,0.027183503,0.025350908,124.315445,-66.38943,23.034725,STD
54590832195000,1.954971,3.46291729313979,9.22815491489362,0.839913953430105,0.004276057,0.03390302,0.020158553,124.27781,-66.39796,23.029505,STD
54590837116000,1.959892,3.45843440952101,9.22548302380254,0.840948183197365,0.0021380284,0.03573562,0.021685716,124.248764,-66.39905,23.031408,STD
54590842319000,1.965095,3.4616838203528,9.233606550882,0.836074060163683,0.00580322,0.026267206,0.02321288,124.22157,-66.4025,23.031694,STD
54590847089000,1.969865,3.46466281125567,9.24105402813916,0.831605567588118,0.0012217305,0.023823744,0.02565634,124.188225,-66.40515,23.031084,STD
54590852195000,1.974971,3.46785164302716,9.2490261075679,0.826822313271382,0.019547688,0.01282817,0.03176499,124.16061,-66.40814,23.03221,STD
54590857105000,1.979881,3.47091806762529,9.25669216906322,0.822222669970328,0.022602014,0.0067195175,0.026572637,124.14089,-66.4125,23.032045,STD
54590862321000,1.985097,3.47417559730021,9.26483599325051,0.817336368654994,0.029932396,0.021380283,0.027183503,124.117805,-66.415054,23.0347,STD
54590867116000,1.989892,3.47517685398578,9.27155290829977,0.811620670485852,0.018020526,0.016493361,0.028405234,124.1065,-66.420815,23.033892,STD
54590872166000,1.994942,3.4703667848625,9.27636282674424,0.802000542284549,0.013744468,0.02107485,0.025045475,124.08778,-66.42862,23.031128,STD
54590877248000,2.000024,3.46552623609329,9.28120322387985,0.79231945485504,0.009773844,0.025961773,0.020158553,124.06872,-66.43245,23.032635,STD
54590882194000,2.00497,3.46081522581929,9.28591408657815,0.782897444145408,0.0067195175,0.03359759,0.02321288,124.04727,-66.43494,23.034971,STD
54590887167000,2.009943,3.45497460439807,9.29006516066117,0.776847696036862,0.0067195175,0.032070424,0.025350908,124.025314,-66.440445,23.033648,STD
54590892224000,2.015,3.44552901902579,9.29242660631918,0.781570481325759,-0.0027488936,0.034513887,0.02321288,123.999954,-66.445694,23.031467,STD
54590897805000,2.020581,3.43510469393925,9.2950327420157,0.7867826357053,0.006414085,0.04153884,0.02565634,123.97256,-66.45291,23.02894,STD
54590902196000,2.024972,3.42690307927251,9.29708318850261,0.790883436615632,0.0027488936,0.038179077,0.026572637,123.94786,-66.45992,23.025425,STD
54590907165000,2.029941,3.41828592588359,9.30224943679147,0.796143117570734,0.002443461,0.027794369,0.018936822,123.93106,-66.471,23.01946,STD
54590912201000,2.034977,3.41369139746594,9.3252225586358,0.80533216960846,0.017715093,0.021685716,0.029932396,123.91345,-66.47728,23.018927,STD
54590917340000,2.040116,3.40916552547128,9.34589793056454,0.812429488128326,0.002443461,0.024740042,0.03023783,123.89587,-66.489105,23.01061,STD
54590922185000,2.044961,3.40685766195474,9.33205046028351,0.791658702020393,0.016493361,0.021991149,0.029932396,123.881615,-66.50051,23.005468,STD
54590927541000,2.050317,3.40430638909724,9.31674250345685,0.768697230318826,0.010079277,0.032375857,0.01985312,123.86204,-66.51402,22.995396,STD
54590932195000,2.054971,3.40208950637155,9.30344092932106,0.748745271898533,-0.00030543262,0.032986723,0.021380283,123.84598,-66.52485,22.988817,STD
54590937465000,2.060241,3.39907790411598,9.28915774307144,0.728525799478643,0.0070249503,0.028710667,0.025350908,123.82842,-66.53828,22.979998,STD
54590942198000,2.064974,3.39078617124303,9.28501176840757,0.73681757564255,0.0027488936,0.023823744,0.022907447,123.811035,-66.551704,22.96984,STD
54590947544000,2.07032,3.38142052494283,9.2803288230129,0.746183270840574,0.004276057,0.0290161,0.025350908,123.7911,-66.564186,22.962418,STD
54590952194000,2.07497,3.38456373674414,9.27597445203861,0.750941777998818,0.007941248,0.02321288,0.028710667,123.77604,-66.57684,22.954948,STD
54590957154000,2.07993,3.38924173871381,9.27129679200315,0.75561982881623,0.0067195175,0.03940081,0.023823744,123.75268,-66.59082,22.945171,STD
54590962212000,2.084988,3.39585488710713,9.26657206305342,0.762233000910285,0.003970624,0.03176499,0.021685716,123.742836,-66.607216,22.933619,STD
54590967339000,2.090115,3.40302141239661,9.2617942797509,0.769399543660601,-0.0027488936,0.026572637,0.02687807,123.72707,-66.62238,22.922468,STD
54590972186000,2.094962,3.40979655342999,9.25727742473484,0.776174701201226,-0.00030543262,0.028710667,0.026572637,123.711945,-66.63869,22.910233,STD
54590977171000,2.099947,3.41676459098959,9.25263196934903,0.783142755738056,-0.010079277,0.02076942,0.022907447,123.70142,-66.653244,22.898987,STD
54590982199000,2.104975,3.4255942752499,9.25286360365854,0.790303874695122,-0.010995574,0.022907447,0.02076942,123.687004,-66.66787,22.887907,STD
54590987118000,2.109894,3.43501216393443,9.255218125,0.79736728875,-0.005192355,0.025350908,0.023823744,123.67481,-66.68167,22.877588,STD
54590992224000,2.115,3.44478808172731,9.2576621554878,0.804699224542683,-0.0036651916,0.021380283,0.019242255,123.66532,-66.69472,22.867252,STD
54590997137000,2.119913,3.45419448284686,9.26001380487805,0.811754022926829,-0.00580322,0.03176499,0.024129177,123.65026,-66.704216,22.86017,STD
54591002198000,2.124974,3.44732772514122,9.26407189386582,0.807428913539788,0.0021380284,0.019242255,0.023518313,123.6361,-66.718056,22.848595,STD
54591007175000,2.129951,3.43315755362204,9.26879538301457,0.797982137459122,-0.009773844,0.012217305,0.02687807,123.616974,-66.72809,22.839312,STD
54591012180000,2.134956,3.430107921998,9.27679345434565,0.793263848001998,0.009162978,0.009468411,0.026267206,123.601685,-66.738556,22.831362,STD
54591017165000,2.139941,3.43249255476523,9.28633193561438,0.790879215234765,0.0030543262,0.016187929,0.020463986,123.585785,-66.7475,22.82289,STD
54591022183000,2.144959,3.43489297346653,9.29593356028971,0.788478796533467,-0.002443461,0.025961773,0.015882496,123.56537,-66.76332,22.807854,STD
54591027257000,2.150033,3.43732018041958,9.30564233741259,0.78605158958042,-0.010079277,0.0143553335,0.02321288,123.54951,-66.7767,22.795189,STD
54591032194000,2.15497,3.45081865753587,9.31821499277585,0.788484434383968,-0.0018325958,0.016493361,0.014966198,123.52708,-66.796,22.776567,STD
54591037229000,2.160005,3.46990591651658,9.33253073597229,0.793256249129144,-0.00580322,0.014966198,0.01985312,123.509056,-66.808235,22.7644,STD
54591042204000,2.16498,3.47481955221557,9.32958059805389,0.799558711723054,-0.00580322,0.025045475,0.02076942,123.48401,-66.82284,22.750198,STD
54591047202000,2.169978,3.47243108682635,9.31763802170659,0.806724105396706,-0.006414085,0.02443461,0.021685716,123.46285,-66.83562,22.737885,STD
54591052173000,2.174949,3.47005552431138,9.30575996107785,0.813850790461078,-0.0125227375,0.010995574,0.027488936,123.443306,-66.84451,22.729137,STD
54591057160000,2.179936,3.4676723156487,9.29384366891218,0.821000413960579,-0.008552114,0.024740042,0.027488936,123.41594,-66.85517,22.718536,STD
54591062170000,2.184946,3.47290206010569,9.27425684973577,0.817507299894306,-0.01863139,0.023518313,0.028099801,123.39743,-66.86286,22.710522,STD
54591067156000,2.189932,3.48242443019244,9.2504509245189,0.807984929807558,-0.020463986,0.019547688,0.025961773,123.375885,-66.8719,22.701572,STD
54591072129000,2.194905,3.48298726070116,9.24557843172112,0.799501188298739,-0.008857546,0.021991149,0.025350908,123.346436,-66.87435,22.698385,STD
54591077163000,2.199939,3.47819933625981,9.25196229764624,0.791521304230807,-0.009468411,0.03023783,0.031154128,123.31678,-66.874954,22.696331,STD
54591082156000,2.204932,3.47345040762737,9.25829416943093,0.783606413259178,0.00030543262,0.017104227,0.03390302,123.29107,-66.87364,22.697842,STD
54591087181000,2.209957,3.46867104324163,9.26466662200814,0.775640795968484,0.0027488936,0.016798794,0.03604105,123.25926,-66.87075,22.700108,STD
54591092196000,2.214972,3.4639011900288,9.27102639308769,0.767691030652498,-0.0021380284,0.01740966,0.03756821,123.228004,-66.86753,22.70263,STD
54591097207000,2.219983,3.45913514128513,9.27738109156818,0.759747606126394,-0.00061086525,0.028710667,0.036957346,123.194016,-66.8651,22.704649,STD
54591102175000,2.224951,3.46843039178515,9.29392928218799,0.748165306161137,0.00580322,0.025350908,0.03390302,123.16489,-66.86323,22.706463,STD
54591107193000,2.229969,3.4874100056872,9.3176542950237,0.733930595734597,-0.0027488936,0.02107485,0.035124753,123.13298,-66.85992,22.70883,STD
54591112202000,2.234978,3.49684800747914,9.32255546035094,0.731778122437434,-0.004276057,0.027183503,0.040927973,123.09752,-66.86104,22.70814,STD
54591117200000,2.239976,3.49914280306837,9.31337608629782,0.738662509205101,-0.006414085,0.030543262,0.036957346,123.064896,-66.86425,22.70502,STD
54591122210000,2.244986,3.50144310837089,9.30417467293125,0.745563425112667,-0.0033597588,0.025961773,0.03359759,123.03299,-66.865715,22.704393,STD
54591127201000,2.249977,3.50373468996069,9.29500815514431,0.75243816988206,-0.005192355,0.040011674,0.036651913,122.99471,-66.86634,22.703775,STD
54591132095000,2.254871,3.50156617602499,9.28418453807107,0.765430271042561,-0.007330383,0.035124753,0.03390302,122.95683,-66.86495,22.70536,STD
54591137165000,2.259941,3.49208660242093,9.26996537563452,0.789129234748145,-0.007330383,0.03634648,0.036957346,122.9132,-66.86149,22.708675,STD
54591142105000,2.264881,3.48360989732042,9.25998941609715,0.807582033508039,-0.0036651916,0.028405234,0.032070424,122.880264,-66.85899,22.711613,STD
54591147166000,2.269942,3.47646084601996,9.25760634923054,0.81711411186194,-0.003970624,0.032986723,0.026267206,122.84358,-66.85611,22.714472,STD
54591152661000,2.275437,3.46869873637839,9.25501892531589,0.827463602190865,0.00580322,0.028099801,0.026572637,122.81344,-66.85328,22.71772,STD
54591157141000,2.279917,3.46237039221201,9.25290943320714,0.835901403223364,-0.002443461,0.026267206,0.030848695,122.7815,-66.85027,22.720032,STD
54591162092000,2.284868,3.46226357414693,9.25245411983139,0.83646352837214,-0.004581489,0.014966198,0.030543262,122.74961,-66.847275,22.723082,STD
54591167154000,2.28993,3.48172473898033,9.25731951264552,0.812137057089522,-0.0015271631,0.034513887,0.030848695,122.709175,-66.843124,22.726528,STD
54591172149000,2.294925,3.49304551412429,9.2632608079096,0.798608297514124,-0.009468411,0.028405234,0.024129177,122.68111,-66.84136,22.72721,STD
54591177256000,2.300032,3.48398582761878,9.27232021061406,0.812197822542373,-0.004581489,0.027183503,0.0125227375,122.6462,-66.84207,22.725756,STD
54591182132000,2.304908,3.47522075162982,9.27818495167095,0.821865288050386,-0.0076358155,0.026572637,0.015271631,122.61537,-66.83745,22.730188,STD
54591187210000,2.309986,3.46521951967095,9.2631833125964,0.806863445333676,-0.009162978,0.03176499,0.028099801,122.58362,-66.83384,22.733873,STD
54591192194000,2.31497,3.45766558631667,9.25075660452815,0.795313355858915,-0.014966198,0.025350908,0.024740042,122.556496,-66.83235,22.735296,STD
54591197179000,2.319955,3.46002558176875,9.2483965597904,0.797673348846705,-0.0067195175,0.030848695,0.02321288,122.52422,-66.827805,22.740149,STD
54591202214000,2.32499,3.46240924818824,9.24601284359088,0.800057012777201,-0.008857546,0.025350908,0.019547688,122.49738,-66.82532,22.742868,STD
54591207184000,2.32996,3.46476214235009,9.24365990029166,0.802409904482179,-0.0106901415,0.02321288,0.022907447,122.4681,-66.82207,22.746653,STD
54591212202000,2.334978,3.46803023392663,9.24039180448602,0.806291113450781,0.0012217305,0.025350908,0.020158553,122.43984,-66.82246,22.747416,STD
54591217190000,2.339966,3.47670605637486,9.23171625381402,0.819304865241555,0.005192355,0.01282817,0.02321288,122.41694,-66.82002,22.75091,STD
54591222901000,2.345677,3.48559818347535,9.22102730387745,0.831744532775491,0.013133603,0.01740966,0.024740042,122.38894,-66.81881,22.753408,STD
54591227236000,2.350012,3.48162351348971,9.20512829191,0.815845840382001,0.012217305,0.013439035,0.025045475,122.36769,-66.8171,22.756609,STD
54591232149000,2.354925,3.47711888750598,9.18710941168023,0.797827322336046,0.022907447,0.017104227,0.025045475,122.34388,-66.81399,22.761482,STD
54591237212000,2.359988,3.47035656977397,9.19821362106663,0.798891121387206,0.01863139,0.017715093,0.028710667,122.3224,-66.80924,22.767303,STD
54591242158000,2.364934,3.46335895523711,9.21454148574383,0.803556195309499,0.019547688,0.025961773,0.030848695,122.29771,-66.806076,22.772095,STD
54591247180000,2.369956,3.45625381568917,9.23112024361058,0.808292952535086,0.009468411,0.027488936,0.026267206,122.27415,-66.80026,22.77966,STD
54591252093000,2.374869,3.44930288964397,9.2473391678239,0.812926900812528,0.00030543262,0.022602014,0.028710667,122.25009,-66.79243,22.789303,STD
54591257184000,2.37996,3.45134239944969,9.25857915310535,0.82879657321934,0.011301007,0.022296581,0.022907447,122.22476,-66.78914,22.794716,STD
54591262104000,2.38488,3.45597269190252,9.26783993140723,0.847317762370283,0.010079277,0.029932396,0.024740042,122.19857,-66.782295,22.802513,STD
54591267177000,2.389953,3.45369719142561,9.26328883541123,0.847040779766422,0.012217305,0.023518313,0.018936822,122.17652,-66.783615,22.803001,STD
54591272178000,2.394954,3.44897698477307,9.25384822495442,0.839960459930025,0.0027488936,0.015882496,0.02443461,122.1525,-66.78083,22.806822,STD
54591277303000,2.400079,3.4441397404031,9.24417353417435,0.83270458327305,0.003970624,0.01985312,0.02565634,122.126564,-66.78026,22.808264,STD
54591282174000,2.40495,3.43954223458335,9.23497833050806,0.825808314942098,0.0061086523,0.017715093,0.02107485,122.105194,-66.779594,22.80966,STD
54591287207000,2.409983,3.42895903788321,9.21685006313869,0.826643560062044,0.0070249503,0.01985312,0.017104227,122.081535,-66.77869,22.811127,STD
54591292681000,2.415457,3.41460956620438,9.1929342770073,0.831426737266423,0.0027488936,0.015271631,0.021380283,122.06082,-66.77681,22.813614,STD
54591297252000,2.420028,3.41430543310749,9.20152491950652,0.845587782768733,0.007941248,0.003970624,0.01038471,122.04481,-66.78398,22.808151,STD
54591302069000,2.424845,3.4236352835676,9.23417959095965,0.868912408919001,0.004276057,0.011911872,0.025961773,122.023705,-66.781906,22.811035,STD
54591307096000,2.429872,3.43225945241688,9.25495760003122,0.869778238820438,0.016187929,0.030543262,0.0106901415,122.003914,-66.79293,22.80153,STD
54591312087000,2.434863,3.43972047673656,9.26241852047453,0.847395158070659,0.017104227,0.029626964,0.0143553335,121.98708,-66.7936,22.801998,STD
54591317069000,2.439845,3.44716804699516,9.26986598704407,0.825052439518185,0.02107485,0.016187929,0.01985312,121.965645,-66.795555,22.80099,STD
54591322108000,2.444884,3.4547008263073,9.27739866148083,0.802454093716114,0.016493361,0.015577064,0.01038471,121.94112,-66.80045,22.796343,STD
54591327113000,2.449889,3.46351811290994,9.28307052214406,0.798020423170514,0.016187929,0.015271631,0.01740966,121.9249,-66.79294,22.80638,STD
54591332081000,2.454857,3.47294594257406,9.28778453542059,0.802734333080353,0.025350908,0.014660766,0.009468411,121.909676,-66.79283,22.809118,STD
54591337077000,2.459853,3.47785522180342,9.28065543838794,0.80445176,0.021991149,0.019547688,0.014966198,121.89157,-66.78738,22.81772,STD
54591342163000,2.464939,3.4802089284237,9.26653314951194,0.80445176,0.028099801,0.0125227375,0.013744468,121.877716,-66.787254,22.822058,STD
54591347077000,2.469853,3.48248303662897,9.25288845278825,0.80445176,0.03145956,0.008857546,0.009162978,121.861755,-66.78537,22.82744,STD
54591352050000,2.474826,3.48478444894172,9.23907993084952,0.80445176,0.025350908,0.016187929,0.01282817,121.844406,-66.78163,22.834341,STD
54591357117000,2.479893,3.49063019998073,9.23905004634358,0.802115462449176,0.02443461,0.017104227,0.02107485,121.82669,-66.7765,22.842947,STD
54591362062000,2.484838,3.49975579512477,9.25273872492533,0.797552669641584,0.013133603,0.015577064,0.01985312,121.80773,-66.77253,22.849344,STD
54591367039000,2.489815,3.50124846115269,9.26270340975799,0.792943600576344,0.009773844,0.013744468,0.018020526,121.78925,-66.764915,22.859596,STD
54591372080000,2.494856,3.49186433270483,9.26739557197006,0.788251536352415,0.01160644,0.01863139,0.017104227,121.76937,-66.75756,22.86912,STD
54591377064000,2.49984,3.48764144318447,9.27203270252427,0.781930471323301,0.014966198,0.023518313,0.017715093,121.75165,-66.745575,22.88408,STD
54591382060000,2.504836,3.49228665607767,9.27667752737864,0.772640011583495,0.018936822,0.008246681,0.02321288,121.73871,-66.73314,22.899857,STD
54591387060000,2.509836,3.49849455538919,9.28436532581274,0.764664422305405,0.0143553335,0.01863139,0.021685716,121.718216,-66.722916,22.913063,STD
54591392189000,2.514965,3.50856929791816,9.29947775520459,0.759627051040919,0.0009162979,0.015271631,0.016493361,121.70669,-66.7125,22.926718,STD
54591397068000,2.519844,3.5130027812659,9.30444295316475,0.76078075211432,-0.010079277,0.026267206,0.016798794,121.68731,-66.70143,22.940596,STD
54591402068000,2.524844,3.50822608417377,9.29250121043443,0.77272250980797,0.00061086525,0.023518313,0.017715093,121.67344,-66.69255,22.952936,STD
54591407036000,2.529812,3.50347995794304,9.2806358948576,0.784587840252382,0.006414085,0.014660766,0.02687807,121.668,-66.68232,22.967018,STD
54591412064000,2.53484,3.4986765113472,9.268627278368,0.796596471789117,0.0009162979,0.021685716,0.029932396,121.6585,-66.67395,22.978798,STD
54591417038000,2.539814,3.49712455648404,9.25441140727237,0.806041916484036,-0.0021380284,0.014660766,0.03176499,121.65579,-66.66421,22.992697,STD
54591422056000,2.544832,3.50186010855341,9.23546929789121,0.810777468553409,-0.013744468,0.014049901,0.023823744,121.64898,-66.6562,23.003769,STD
54591427054000,2.54983,3.50071963393701,9.21953722814961,0.812564704645669,-0.00580322,0.01038471,0.025045475,121.64515,-66.64153,23.022047,STD
54591432064000,2.55484,3.4865523796063,9.21009219468504,0.807842286535433,-0.014966198,-0.0030543262,0.035430185,121.64448,-66.625694,23.040266,STD
54591437059000,2.559835,3.48536283611271,9.19946160954571,0.794186567832087,-0.01740966,-0.0076358155,0.033292156,121.64308,-66.61236,23.056255,STD
54591442239000,2.565015,3.51864391412689,9.18519848897834,0.756151020314357,-0.02076942,-0.0021380284,0.035430185,121.642296,-66.59504,23.075773,STD
54591447064000,2.56984,3.54250159312389,9.17824820835803,0.726920493123889,-0.01740966,-0.0015271631,0.03390302,121.643005,-66.58095,23.092424,STD
54591452059000,2.574835,3.53777563817427,9.19715192946058,0.722194538174274,-0.019547688,0.0027488936,0.03023783,121.64081,-66.56702,23.108238,STD
54591457067000,2.579843,3.53303738344201,9.21610484943687,0.717456283442008,-0.027488936,-0.00580322,0.025961773,121.64328,-66.550385,23.127756,STD
54591462064000,2.58484,3.52830953621814,9.23501613959692,0.712728436218139,-0.012217305,-0.007941248,0.01863139,121.64247,-66.53727,23.144396,STD
54591467062000,2.589838,3.52218904510842,9.24842734126112,0.712835209783152,-0.012217305,0.0033597588,0.025045475,121.6398,-66.520996,23.162962,STD
54591472052000,2.594828,3.50786260401719,9.22932551953632,0.741488091965624,-0.0061086523,-0.009162978,0.016798794,121.64547,-66.512405,23.175146,STD
54591477286000,2.600062,3.49732820133506,9.21468174514297,0.772422814038059,-0.009773844,-0.011911872,0.017715093,121.65036,-66.50947,23.18142,STD
54591482060000,2.604836,3.50643842215802,9.22379168058185,0.804308634482415,-0.0143553335,0.0018325958,0.02076942,121.65375,-66.5086,23.185629,STD
54591487060000,2.609836,3.514688,9.23077642817437,0.831601475974742,-0.0033597588,0.0009162979,0.0290161,121.65804,-66.50786,23.189,STD
54591492093000,2.614869,3.514688,9.2213752612639,0.819849948620051,0.005192355,0.011911872,0.022602014,121.65448,-66.51021,23.188393,STD
54591497061000,2.619837,3.514688,9.21209550819193,0.808250189450946,0.008246681,0.0070249503,0.0290161,121.6558,-66.50693,23.192856,STD
54591502144000,2.62492,3.514688,9.20260094602106,0.796381917338112,0.006414085,0.01282817,0.015577064,121.65088,-66.51134,23.189264,STD
54591507275000,2.630051,3.5145141890916,9.19564592362227,0.785819602543719,-0.013439035,0.018936822,0.026267206,121.646675,-66.5066,23.19429,STD
54591512230000,2.635006,3.51227139468759,9.22031670890443,0.792547983413839,-0.008552114,0.015882496,0.017104227,121.64417,-66.51232,23.18981,STD
54591517112000,2.639888,3.51006164246148,9.24462402953965,0.799177237784762,-0.0125227375,0.026267206,0.01038471,121.63663,-66.516525,23.185623,STD
54591522138000,2.644914,3.50778671114472,9.26964832153323,0.80600202935958,-0.012217305,0.015271631,0.01863139,121.63651,-66.51944,23.1836,STD
54591527146000,2.649922,3.50551992721429,9.294582992107,0.812802378783911,-0.0067195175,0.01985312,0.01160644,121.62883,-66.52853,23.174894,STD
54591532135000,2.654911,3.50322091427467,9.30285974909425,0.81402856,-0.015577064,0.0125227375,0.015577064,121.624596,-66.53694,23.165798,STD
54591537110000,2.659886,3.50091935492971,9.30746308407807,0.81402856,-0.003970624,0.015271631,0.01985312,121.61601,-66.54813,23.154799,STD
54591542190000,2.664966,3.49856921996039,9.31216357487561,0.81402856,-0.017715093,0.014660766,0.013133603,121.61002,-66.56229,23.139313,STD
54591547661000,2.670437,3.49603819861842,9.31722585541761,0.81402856,-0.0125227375,0.009162978,0.01282817,121.60453,-66.574486,23.127213,STD
54591552201000,2.674977,3.49874278139986,9.30860798728279,0.830070480399961,-0.007941248,0.01160644,0.02076942,121.59281,-66.59126,23.10873,STD
54591557114000,2.67989,3.50331037856519,9.29490467114843,0.852908485304339,-0.005192355,0.016187929,0.01985312,121.58249,-66.61023,23.088293,STD
54591562169000,2.684945,3.5020438695018,9.27109795295326,0.858845269501798,0.009773844,0.016493361,0.028405234,121.57298,-66.62345,23.07484,STD
54591567155000,2.689931,3.49713889520288,9.24166800472522,0.853940295202876,-0.00030543262,0.014049901,0.02076942,121.56341,-66.64014,23.05687,STD
54591572175000,2.694951,3.4939613205506,9.24147950954828,0.83660498908007,-0.005192355,0.0067195175,0.03268129,121.55589,-66.64709,23.049088,STD
54591577316000,2.700092,3.49157501147732,9.25579741382319,0.812741873429624,0.00030543262,0.004276057,0.026572637,121.548294,-66.661,23.034271,STD
54591582214000,2.70499,3.48930149623885,9.26943855273362,0.790006697305157,0.0036651916,0.003970624,0.03023783,121.53136,-66.66947,23.02333,STD
54591587186000,2.709962,3.48699363226057,9.28328578480031,0.766928033423808,0.0076358155,0.0015271631,0.03268129,121.51639,-66.68,23.010744,STD
54591592166000,2.714942,3.48061240930233,9.29217465116279,0.753895104651163,-0.007941248,0.0018325958,0.03604105,121.50091,-66.688255,22.999731,STD
54591597145000,2.719921,3.47092765512339,9.29701712937951,0.749052727561694,0.0027488936,-0.0012217305,0.039095376,121.4875,-66.69706,22.989721,STD
54591602159000,2.724935,3.46957331047162,9.27969371103118,0.730375037170264,-0.009162978,0.0018325958,0.040011674,121.46487,-66.7087,22.975607,STD
54591607181000,2.729957,3.47437893493205,9.24605413908873,0.701541290407674,-0.0076358155,-0.0009162979,0.046120327,121.445206,-66.71886,22.964346,STD
54591612135000,2.734911,3.46257701192587,9.21823721192587,0.678487069540693,-0.01985312,-0.03481932,0.05955936,121.43395,-66.726814,22.954918,STD
54591617546000,2.740322,3.4364790743755,9.1921392743755,0.657608719500403,-0.027183503,-0.02443461,0.057726767,121.410385,-66.73744,22.942335,STD
54591622125000,2.744901,3.43115069406246,9.19079173515614,0.664492370312278,-0.029626964,-0.012217305,0.039095376,121.39608,-66.74662,22.93211,STD
54591627130000,2.749906,3.43569335472682,9.20214838681704,0.687205673634081,-0.009773844,-0.011911872,0.018936822,121.382614,-66.75739,22.921057,STD
54591632115000,2.754891,3.44021786290101,9.21345965725252,0.709828214505047,-0.008552114,-0.00580322,0.03634648,121.362465,-66.764015,22.913418,STD
54591637134000,2.75991,3.44477323030849,9.22484807577122,0.732605051542435,-0.022296581,-0.0033597588,0.04337143,121.34423,-66.77905,22.897598,STD
54591642129000,2.764905,3.45656939367218,9.23025725714431,0.750558503988059,-0.021380283,-0.0036651916,0.032070424,121.31823,-66.791855,22.884148,STD
54591647135000,2.769911,3.48103431549296,9.22536442605634,0.760344490598592,-0.005192355,-0.0036651916,0.026572637,121.304312175657,-66.7959751377582,22.879769883096,STD
54591652103000,2.774879,3.50531352676056,9.22050873591549,0.770056192852113,-0.003970624,-0.00030543262,0.03023783,121.2905,-66.800064,22.875425,STD
54591657070000,2.779846,3.52958785090835,9.21565402316799,0.779765940254133,-0.005192355,-0.0027488936,0.02687807,121.26947,-66.81336,22.859652,STD
54591662079000,2.784855,3.55641482090513,9.20855578430558,0.772301778498028,-0.0125227375,0.00030543262,0.028099801,121.24605,-66.82611,22.844858,STD
54591667078000,2.789854,3.58623084114594,9.19861693792817,0.7424858257131,-0.01038471,0.0076358155,0.032375857,121.222466,-66.83901,22.830324,STD
54591672061000,2.794837,3.60567349144216,9.18654296295563,0.711057979952456,-0.013744468,0.003970624,0.028405234,121.2031,-66.8411,22.82592,STD
54591677083000,2.799859,3.61520096561014,9.17225195067353,0.677711820364501,-0.007941248,0.0067195175,0.018020526,121.18003,-66.84443,22.820599,STD
54591682071000,2.804847,3.62350981852164,9.16732180640524,0.668912276550493,-0.024740042,0.010079277,0.021380283,121.15571,-66.84169,22.820524,STD
54591687077000,2.809853,3.63064007395766,9.1720751611224,0.685549539234545,-0.0290161,0.0030543262,0.02076942,121.13457,-66.843925,22.81652,STD
54591692078000,2.814854,3.6377632076843,9.17682376818204,0.702170184596698,-0.01863139,0.011301007,0.020158553,121.107506,-66.8449,22.814163,STD
54591697078000,2.819854,3.64488491706906,9.18157142571018,0.718787506494472,-0.022296581,0.008552114,0.015577064,121.08665,-66.84641,22.810835,STD
54591702065000,2.824841,3.64982686258583,9.18522048479498,0.732091150343339,-0.02107485,0.0076358155,0.011301007,121.06317,-66.84884,22.80717,STD
54591707123000,2.829899,3.6522027432215,9.18759641504807,0.741594672886011,-0.0070249503,0.008857546,0.017715093,121.04023,-66.850044,22.805279,STD
54591712069000,2.834845,3.65452601440063,9.18991973474593,0.750887757602511,-0.023518313,0.005497787,0.016798794,121.02995,-66.84895,22.804827,STD
54591717129000,2.839905,3.65690283449088,9.19229660447322,0.760395037963508,-0.009773844,0.0021380284,0.02565634,121.01916,-66.84556,22.808838,STD
54591722085000,2.844861,3.65485036475111,9.18500941187776,0.764399582375553,-0.0027488936,-0.0018325958,0.032375857,121.00987,-66.842064,22.811947,STD
54591727200000,2.849976,3.64543554022679,9.16147235056698,0.759692170113396,-0.0009162979,-0.0012217305,0.023518313,121.000534,-66.84108,22.812916,STD
54591732086000,2.854862,3.63775755588471,9.14156292734187,0.768000067844275,-0.017104227,-0.0012217305,0.028710667,120.993,-66.83276,22.820349,STD
54591737141000,2.859917,3.63291260752602,9.1270282846277,0.806759705304243,-0.014049901,-0.004581489,0.030543262,120.9867,-66.82909,22.824171,STD
54591742200000,2.864976,3.63709617123195,9.12161176020161,0.837674022739168,-0.016493361,0.0061086523,0.034513887,120.9754,-66.82598,22.825783,STD
54591747156000,2.869932,3.66009831371523,9.1354128535427,0.851475308229136,-0.011301007,0.0067195175,0.029932396,120.96858,-66.8254,22.825663,STD
54591752154000,2.87493,3.67637123810953,9.14809517066767,0.864157723780945,-0.016493361,-0.0009162979,0.031154128,120.96236,-66.81956,22.829182,STD
54591757134000,2.87991,3.67189895153788,9.15703993060765,0.873102296924231,-0.012217305,0.00580322,0.028099801,120.951965,-66.81706,22.829767,STD
54591762170000,2.884946,3.66842073382263,9.16752266911315,0.881569936978593,-0.011301007,0.023823744,0.03726278,120.94669,-66.811424,22.832987,STD
54591767154000,2.88993,3.6725911812844,9.18837490642202,0.885740410568807,-0.01985312,0.01740966,0.037873644,120.94734,-66.80886,22.83326,STD
54591772114000,2.89489,3.67674154633464,9.20912673167322,0.889890801621669,-0.015882496,0.021380283,0.038789943,120.93912,-66.80496,22.834797,STD
54591777170000,2.899946,3.66542017759806,9.21691262484836,0.882593953184391,-0.02565634,0.016798794,0.043066,120.9357,-66.79898,22.837719,STD
54591782113000,2.904889,3.65106369082087,9.22169822038011,0.873022932017792,-0.02076942,0.02107485,0.03573562,120.9288,-66.79706,22.837248,STD
54591787167000,2.909943,3.65256415627153,9.21866416435422,0.867688643728466,-0.01282817,0.027794369,0.032986723,120.92883,-66.79274,22.83978,STD
54591792158000,2.914934,3.65701501843747,9.21421320923736,0.863237781562529,-0.01160644,0.025961773,0.032986723,120.93039,-66.789696,22.841055,STD
54591797156000,2.919932,3.65250303901423,9.20121373897952,0.844401104852482,-0.014966198,0.021991149,0.038179077,120.93816,-66.786804,22.843922,STD
54591802804000,2.92558,3.64311571405762,9.18243918708782,0.816239110378341,-0.01160644,0.02107485,0.032986723,120.9457,-66.787285,22.843737,STD
54591807130000,2.929906,3.63322729724072,9.17060804852521,0.79650601054234,-0.020463986,0.023823744,0.03359759,120.950134,-66.78119,22.849337,STD
54591812191000,2.934967,3.61785521198858,9.16035977767206,0.77600986477006,-0.015882496,0.017715093,0.026572637,120.95781,-66.77968,22.851326,STD
54591817152000,2.939928,3.59840285536836,9.1698910639019,0.761323162147343,-0.01282817,0.020158553,0.021380283,120.96111,-66.7786,22.852884,STD
54591822138000,2.944914,3.57460167662247,9.19845257780879,0.751802690648988,-0.007941248,0.01985312,0.027488936,120.96693,-66.77668,22.855778,STD
54591827193000,2.949969,3.56142783539948,9.21059927079896,0.760723000377092,-0.021380283,0.015577064,0.024740042,120.96408,-66.77895,22.853205,STD
54591832160000,2.954936,3.55918560306387,9.20611480612774,0.787629249912798,-0.014049901,0.015271631,0.01740966,120.96007,-66.782135,22.850912,STD
54591837151000,2.959927,3.55693253650719,9.20160867301438,0.814665507499411,-0.014049901,0.024129177,0.01985312,120.952446,-66.787025,22.846199,STD
54591842178000,2.964954,3.5546632186189,9.1970700372378,0.841896777162385,-0.021991149,0.01740966,0.022907447,120.94988,-66.79363,22.840036,STD
54591847098000,2.969874,3.55882776885751,9.19490053326041,0.856080050631401,-0.023823744,0.012217305,0.021685716,120.95178,-66.80359,22.831312,STD
54591852160000,2.974936,3.58292937176096,9.19972093437407,0.831978528260913,-0.0143553335,0.0143553335,0.015882496,120.953354,-66.813934,22.822313,STD
54591857101000,2.979877,3.59858793436861,9.20216524325705,0.818611496048222,-0.01160644,0.009162978,0.008246681,120.95698,-66.82121,22.814213,STD
54591862164000,2.98494,3.58868042754393,9.1972113863915,0.83842653038823,-0.020463986,0.007941248,0.01282817,120.958534,-66.82639,22.80802,STD
54591867106000,2.989882,3.58043211645742,9.19114671396594,0.848454743968856,-0.02565634,0.007330383,0.01863139,120.958206,-66.83148,22.802505,STD
54591872893000,2.995669,3.57503835085158,9.18035952068126,0.832273424622871,-0.01985312,0.0106901415,0.014966198,120.957146,-66.83791,22.795687,STD
54591877217000,2.999993,3.57103864637681,9.17680163768116,0.821384652753623,-0.015882496,0.015577064,0.015271631,120.956955,-66.83401,22.799313,STD
54591882159000,3.004935,3.56655550290802,9.18576764374349,0.812418365816046,-0.017715093,0.010995574,0.017104227,120.95871,-66.830826,22.802319,STD
54591887158000,3.009934,3.56204381931034,9.19294144827586,0.802866632827586,-0.019242255,0.009468411,0.012217305,120.957756,-66.83053,22.802832,STD
54591892182000,3.014958,3.55767772624319,9.18639246823956,0.789768476718693,-0.016187929,0.017104227,0.01740966,120.955086,-66.82713,22.80651,STD
54591897099000,3.019875,3.55340462122505,9.1799829668784,0.776949282135209,-0.016493361,0.017715093,0.022602014,120.961525,-66.82899,22.805815,STD
54591902153000,3.024929,3.54901245674229,9.17339488067151,0.763772912514519,-0.02076942,0.011301007,0.020158553,120.96767,-66.83148,22.804361,STD
54591907131000,3.029907,3.54468633984574,9.16690586343013,0.750794683790381,-0.008857546,0.007941248,0.011911872,120.97254,-66.83498,22.802567,STD
54591912169000,3.034945,3.5500079847544,9.15841434643853,0.756875208324522,-0.015271631,0.002443461,0.013744468,120.97972,-66.83523,22.803072,STD
54591917090000,3.039866,3.55906843364414,9.14935380294146,0.770465787051812,-0.013133603,0.0018325958,0.009773844,120.98653,-66.840385,22.79954,STD
54591922334000,3.04511,3.55650595241255,9.13675085031757,0.784820663698929,0.008246681,0.0027488936,0.016493361,120.992645,-66.843346,22.799688,STD
54591927429000,3.050205,3.54725497023415,9.12287471513888,0.79869697275192,-0.0015271631,-0.0143553335,0.016493361,120.99802616037,-66.8485589829372,22.7952527730043,STD
54591932180000,3.054956,3.5410294072435,9.124286878487,0.794895774006619,-0.007330383,-0.008246681,-0.004276057,121.003044,-66.85342,22.791117,STD
54591937245000,3.060021,3.53644250492671,9.13804739385343,0.776548136001891,-0.0036651916,-0.0106901415,0.0061086523,121.0104,-66.85244,22.79495,STD
54591942763000,3.065539,3.53512542879724,9.16125599918938,0.775131314986321,-0.011301007,-0.015271631,-0.0018325958,121.01805,-66.85755,22.790802,STD
54591947189000,3.069965,3.53727290659641,9.18702582247441,0.790163682004256,-0.016187929,-0.019242255,-0.004581489,121.02573,-66.858604,22.791052,STD
54591952206000,3.074982,3.53970713527206,9.21623666825413,0.807203308151788,-0.016187929,-0.022907447,-0.00580322,121.033424,-66.860596,22.791103,STD
54591957379000,3.080155,3.5422170545344,9.24635580423548,0.824772769196474,-0.010079277,-0.01985312,-0.0027488936,121.039986,-66.862206,22.791475,STD
54591962183000,3.084959,3.54108288874921,9.27011399622879,0.819169132495286,-0.01740966,-0.01985312,-0.007941248,121.04857,-66.86581,22.789246,STD
54591967159000,3.089935,3.53609083377331,9.29008211187932,0.789216802639849,-0.008552114,-0.018936822,-0.015271631,121.055626,-66.870224,22.787123,STD
54591972140000,3.094916,3.52461269501275,9.29677172556953,0.780335845266074,-0.007941248,-0.02443461,-0.008857546,121.064224,-66.87246,22.785795,STD
54591977291000,3.100067,3.50725669297212,9.29243263444454,0.789013832694168,-0.017104227,-0.03604105,-0.016493361,121.0747,-66.88053,22.778566,STD
54591982156000,3.104932,3.49293329382716,9.28690097530864,0.790973301234568,-0.02076942,-0.027488936,-0.01038471,121.08782,-66.8881,22.773668,STD
54591987191000,3.109967,3.48348410942583,9.27745208690966,0.776799490098961,-0.02107485,-0.021991149,-0.010995574,121.10527,-66.89908,22.76522,STD
54591992136000,3.114912,3.47741218872899,9.26622335892675,0.763050333813016,-0.020463986,-0.029321533,-0.01282817,121.12625,-66.907326,22.759836,STD
54591997163000,3.119939,3.48188183626404,9.24834439541361,0.749641391207873,-0.02321288,-0.031154128,-0.016187929,121.143425,-66.91581,22.753714,STD
54592002145000,3.124921,3.48696046784775,9.23103814611472,0.738082678565164,-0.027488936,-0.03481932,-0.009468411,121.16216,-66.92298,22.749344,STD
54592007208000,3.129984,3.4997180555692,9.21828073601123,0.746587737046132,-0.029321533,-0.03726278,-0.009162978,121.180824,-66.93263,22.742346,STD
54592012301000,3.135077,3.5125512363445,9.20544773390633,0.755143190896334,-0.028099801,-0.03573562,-0.01160644,121.20041,-66.93611,22.742256,STD
54592017174000,3.13995,3.52236431584188,9.21482531345216,0.771920359738126,-0.025045475,-0.037873644,-0.016493361,121.22142,-66.94013,22.74161,STD
54592022107000,3.144883,3.53177233225132,9.22893714159116,0.790736426940157,-0.026267206,-0.04642576,-0.01740966,121.243385,-66.94351,22.741434,STD
54592027180000,3.149956,3.54123071299637,9.2264992713422,0.787485882079323,-0.027794369,-0.040927973,-0.016187929,121.26247,-66.944725,22.74289,STD
54592032156000,3.154932,3.550450428711,9.21958461692866,0.778266197652721,-0.027794369,-0.033292156,-0.01160644,121.28291,-66.945206,22.745102,STD
54592037197000,3.159973,3.55979057881499,9.21257963845224,0.768926079245466,-0.022296581,-0.029932396,-0.01282817,121.3032,-66.94594,22.746622,STD
54592042134000,3.16491,3.56893803389601,9.20571917847642,0.759778655207255,-0.01863139,-0.037873644,-0.013439035,121.3241,-66.94515,22.749578,STD
54592047204000,3.16998,3.58066993896814,9.20224586038528,0.758697945863885,-0.019242255,-0.03481932,-0.009773844,121.34514,-66.94862,22.7481,STD
54592052152000,3.174928,3.5933045227303,9.20066650443274,0.761856608295561,-0.013133603,-0.03145956,-0.015271631,121.36817,-66.95516,22.74403,STD
54592057158000,3.179934,3.60608720791894,9.19906863541528,0.765052296277163,-0.016187929,-0.02076942,-0.0030543262,121.386734,-66.952225,22.749128,STD
54592062180000,3.184956,3.61891074867351,9.19746565934542,0.768258198203573,-0.024129177,-0.03268129,-0.0018325958,121.41104,-66.95396,22.749825,STD
54592067189000,3.189965,3.63170109428076,9.19586683275563,0.771455801299827,-0.02565634,-0.037873644,-0.0009162979,121.42926,-66.952515,22.75344,STD
54592072199000,3.194975,3.64449399336088,9.19426768697507,0.774654042767631,-0.018325957,-0.03481932,0.004581489,121.44801,-66.949524,22.758636,STD
54592077238000,3.200014,3.65198855359072,9.18728389487898,0.769271059141828,-0.025961773,-0.037873644,-0.0061086523,121.47245,-66.94694,22.763372,STD
54592082199000,3.204975,3.65674055447089,9.17778019083817,0.759767007761552,-0.013744468,-0.0421497,-0.0021380284,121.49537,-66.940056,22.773506,STD
54592087204000,3.20998,3.6457199775363,9.17773579205769,0.769187945525042,-0.020463986,-0.040011674,-0.00061086525,121.519226,-66.93045,22.784702,STD
54592092220000,3.214996,3.62673855748296,9.1824807506668,0.788169400263756,-0.020463986,-0.032375857,0.008857546,121.54188,-66.91857,22.798891,STD
54592097190000,3.219966,3.61720035049945,9.19548783462819,0.800540266043285,-0.030848695,-0.026572637,0.006414085,121.571304,-66.910995,22.808676,STD
54592102214000,3.22499,3.61275030950795,9.21328837032926,0.809440343379578,-0.02107485,-0.028099801,0.0018325958,121.59984,-66.9025,22.820148,STD
54592107236000,3.230012,3.60798266796941,9.22493832540357,0.816502092030586,-0.017104227,-0.020158553,0.0036651916,121.622345,-66.8942,22.82988,STD
54592112221000,3.234997,3.6029125375531,9.23000803228547,0.821572222446899,-0.025961773,-0.022907447,0.0021380284,121.648254,-66.88818,22.837328,STD
54592117135000,3.239911,3.60894305453495,9.21860157577508,0.826293256071635,-0.021380283,-0.021991149,0.0027488936,121.66955,-66.883156,22.844034,STD
54592122246000,3.245022,3.62308142102831,9.19503763161949,0.831006064586944,-0.022907447,-0.0290161,-0.00030543262,121.69383,-66.87909,22.849266,STD
54592127242000,3.250018,3.62458302883313,9.1766169482278,0.828155418335325,-0.018020526,-0.024740042,0.012217305,121.71283,-66.86924,22.860554,STD
54592132225000,3.255001,3.6150806006372,9.16236350438072,0.818652970294703,-0.015577064,-0.028405234,-0.003970624,121.736626,-66.86837,22.862806,STD
54592137202000,3.259978,3.6035987382716,9.1462837654321,0.811742739423868,-0.009468411,-0.02443461,0.00030543262,121.75704,-66.85552,22.877005,STD
54592142206000,3.264982,3.59015252413019,9.12835557351291,0.807260668043397,-0.01740966,-0.030848695,-0.005497787,121.78187,-66.849815,22.88369,STD
54592147202000,3.269978,3.58727843341646,9.12267255610973,0.797048237182045,-0.008857546,-0.020463986,-0.007941248,121.79928,-66.84391,22.8913,STD
54592152179000,3.274955,3.60213620573566,9.13753012157107,0.777237843061097,-0.009773844,-0.021380283,-0.010079277,121.82181,-66.83897,22.89745,STD
54592157035000,3.279811,3.61632597363484,9.15563295605806,0.764187908788387,-0.0027488936,-0.01985312,-0.009468411,121.83193,-66.84117,22.895561,STD
54592162103000,3.284879,3.63070394017972,9.17959623363286,0.759395253273428,-0.0061086523,-0.014660766,-0.010995574,121.841064,-66.84402,22.892473,STD
54592167074000,3.28985,3.63822974113078,9.19564775770414,0.760395142470873,-0.011911872,-0.0106901415,-0.009162978,121.84679,-66.84788,22.888487,STD
54592172076000,3.294852,3.63581368456146,9.20047997175569,0.770059386407929,0.0033597588,-0.010995574,-0.0018325958,121.85203,-66.85121,22.885746,STD
54592177051000,3.299827,3.63341066948101,9.20528610228476,0.779671464294144,0.013133603,0.0030543262,-0.0076358155,121.848076,-66.85639,22.880106,STD
54592182090000,3.304866,3.63097674124174,9.21015406042266,0.78940719504161,0.0015271631,0.003970624,-0.0021380284,121.847916,-66.856026,22.880043,STD
54592187049000,3.309825,3.6245265272002,9.21898794859137,0.79589162349838,0.005497787,0.0061086523,-0.004276057,121.843285,-66.8605,22.875887,STD
54592192127000,3.314903,3.61240212171528,9.23353728581401,0.798316502063326,0.0027488936,0.004276057,-0.011301007,121.839676,-66.86404,22.871962,STD
54592197170000,3.319946,3.60036128342059,9.24798634205934,0.800724667207679,0.004276057,0.010079277,-0.01160644,121.83322,-66.866844,22.868546,STD
54592202096000,3.324872,3.58859979830466,9.26210017332336,0.80307696177462,-0.0012217305,0.016493361,-0.014660766,121.82742,-66.87192,22.862473,STD
54592207072000,3.329848,3.57974780831281,9.26243686801931,0.808407743374372,-0.007941248,0.014049901,-0.014049901,121.82261,-66.87598,22.857512,STD
54592212106000,3.334882,3.57499949636561,9.24344322357924,0.817904367268788,-0.002443461,0.00061086525,-0.00580322,121.819305,-66.87892,22.85407,STD
54592217025000,3.339801,3.57923794336162,9.23381327285143,0.820060888319188,-0.004276057,-0.0021380284,-0.002443461,121.812256,-66.88648,22.845314,STD
54592222081000,3.344857,3.59813182719735,9.2385368424544,0.810613946401327,0.0015271631,0.0070249503,-0.0036651916,121.80569,-66.89343,22.837782,STD
54592227141000,3.349917,3.6104562,9.245717291031,0.803631902649888,-0.00061086525,0.008552114,-0.005192355,121.8028,-66.89812,22.832048,STD
54592232244000,3.35502,3.6104562,9.25758941482849,0.801257480369741,-0.003970624,0.006414085,-0.00061086525,121.79822,-66.90151,22.827726,STD
54592237141000,3.359917,3.6104562,9.26898227985619,0.798978909743465,0.0033597588,0.007941248,-0.003970624,121.78786,-66.905235,22.82309,STD
54592242170000,3.364946,3.6104562,9.28068224273637,0.796638919610825,0.0021380284,0.01160644,-0.011911872,121.77775,-66.908485,22.818449,STD
54592247133000,3.369909,3.61265677045388,9.28510088207039,0.795975254078031,-0.010079277,0.009162978,-0.002443461,121.768974,-66.9076,22.817932,STD
54592252156000,3.374932,3.62208805491618,9.26623841162631,0.800690891385158,-0.013439035,0.003970624,-0.0021380284,121.76047,-66.911835,22.812603,STD
54592257136000,3.379912,3.6287052857503,9.24848144780606,0.806713047513212,-0.0125227375,0.01863139,-0.00061086525,121.74252,-66.91354,22.809038,STD
54592262129000,3.384905,3.62406848939636,9.23457101032727,0.818305048081454,-0.003970624,0.0106901415,0.007330383,121.73337,-66.91354,22.807945,STD
54592267687000,3.390463,3.61890700048485,9.21908648969697,0.831208781139394,-0.013133603,0.013744468,0.003970624,121.71771,-66.91329,22.80576,STD
54592272160000,3.394936,3.61475310701576,9.20662476591515,0.84159352348703,-0.015882496,0.01038471,0.008857546,121.706505,-66.90926,22.808336,STD
54592277163000,3.399939,3.61009225449768,9.19191427248838,0.851243961972913,-0.014966198,0.008857546,0.0061086523,121.69436,-66.90823,22.807615,STD
54592282158000,3.404934,3.60525739336972,9.1677399668486,0.836739358394987,-0.017715093,0.006414085,-0.002443461,121.68391,-66.907364,22.806583,STD
54592287163000,3.409939,3.60072748235643,9.14736917643574,0.822541935543196,-0.010995574,0.009468411,0.0012217305,121.66335,-66.905304,22.80517,STD
54592292232000,3.415008,3.59912982564423,9.16334574355768,0.811358328548297,-0.022296581,0.0067195175,-0.0018325958,121.64626,-66.90664,22.799652,STD
54592297273000,3.420049,3.59754099402337,9.17923405976633,0.800236497247984,-0.009468411,0.0018325958,-0.0018325958,121.62905,-66.907425,22.796425,STD
54592302195000,3.424971,3.59598966904065,9.19474730959355,0.789377212649663,-0.015882496,0.0106901415,0.0036651916,121.608955,-66.90618,22.793772,STD
54592307313000,3.430089,3.59437656841863,9.21087831581372,0.778085498189238,-0.01985312,0.00061086525,-0.0070249503,121.599884,-66.90988,22.78772,STD
54592312187000,3.434963,3.5928403721639,9.22624027836103,0.767332114781636,-0.014049901,0.0033597588,-0.009468411,121.58425,-66.90991,22.785185,STD
54592317441000,3.440217,3.59000504106223,9.24259118444585,0.755918923918345,-0.014966198,0.0012217305,-0.007941248,121.57375,-66.91133,22.781128,STD
54592322191000,3.444967,3.57356929451721,9.25491818742661,0.747701093550718,-0.022296581,-0.00030543262,-0.002443461,121.56253,-66.91223,22.777561,STD
54592327148000,3.449924,3.55641729543853,9.26778238822148,0.739125138786017,-0.019242255,0.005192355,-0.004581489,121.55221,-66.91682,22.772497,STD
54592332202000,3.454978,3.56244740574953,9.26089683372991,0.752537577875977,-0.022296581,0.0070249503,0.0015271631,121.54337,-66.91692,22.77147,STD
54592337366000,3.460142,3.57445507868693,9.24888921094547,0.771749789376973,-0.01985312,0.004886922,-0.0061086523,121.5346,-66.92191,22.765892,STD
54592342225000,3.465001,3.58575354553489,9.2375907912883,0.789827274985675,-0.014049901,-0.0030543262,-0.00580322,121.525566,-66.92956,22.757835,STD
54592347098000,3.469874,3.59708456610499,9.22625981804497,0.807956846373039,-0.02443461,0.004581489,0.0021380284,121.51252,-66.93636,22.74975,STD
54592352197000,3.474973,3.59599903268986,9.22409165320921,0.81402856,-0.028405234,0.0061086523,0.0018325958,121.504105,-66.945755,22.739904,STD
54592357141000,3.479917,3.58903954726115,9.22641128789809,0.81402856,-0.02565634,-0.0027488936,-0.0018325958,121.49662,-66.95357,22.731573,STD
54592362192000,3.484968,3.58192944190103,9.22878112503675,0.81402856,-0.025350908,0.004581489,-0.008246681,121.483955,-66.956406,22.726141,STD
54592367194000,3.48997,3.57488831202352,9.2311279722685,0.81402856,-0.014049901,0.0015271631,-0.0012217305,121.47728,-66.95707,22.72398,STD
54592372181000,3.494957,3.56898207429317,9.23520799184428,0.810861634293171,-0.015882496,0.0021380284,-0.0027488936,121.46345,-66.96438,22.713507,STD
54592377289000,3.500065,3.56366255554589,9.24052762168334,0.80554211554589,-0.013133603,0.0061086523,-0.0076358155,121.44979,-66.971245,22.704288,STD
54592382181000,3.504957,3.55721508070414,9.23804672387372,0.797308972807332,-0.02321288,0.005497787,-0.0076358155,121.442139938576,-66.9737449395831,22.7003807052663,STD
54592387220000,3.509996,3.55019439822511,9.2333664480869,0.78794811333689,-0.02107485,0.014049901,-0.00061086525,121.43426,-66.97632,22.696356,STD
54592392217000,3.514993,3.54323223304398,9.22872518233839,0.778665276509384,-0.021380283,0.002443461,-0.004581489,121.42425,-66.986145,22.6845,STD
54592397227000,3.520003,3.53625195536589,9.22407184205422,0.769358289816207,-0.021685716,0.010079277,-0.00061086525,121.40857,-66.99007,22.678534,STD
54592402193000,3.524969,3.51205235998393,9.2162393728405,0.778595513796706,-0.03176499,0.003970624,0.0012217305,121.40127,-66.99963,22.666534,STD
54592407143000,3.529919,3.4787220948172,9.20671624106067,0.797641409437525,-0.03268129,-0.0027488936,-0.004581489,121.39216,-67.0104,22.65366,STD
54592412130000,3.534906,3.47294728327019,9.20638270578265,0.807523401635095,-0.032986723,0.0030543262,-0.007330383,121.38019,-67.02117,22.640797,STD
54592417160000,3.539936,3.48255272773679,9.21118552831505,0.812326123868395,-0.03634648,-0.005192355,-0.002443461,121.374794,-67.03091,22.629251,STD
54592422139000,3.544915,3.49517763799578,9.21596141018174,0.820175264833819,-0.02321288,-0.005192355,-0.0067195175,121.36169,-67.04313,22.615282,STD
54592427200000,3.549976,3.50977795473441,9.22082828406466,0.82990882965358,-0.021685716,-0.011301007,-0.010079277,121.35316,-67.05277,22.603546,STD
54592432200000,3.554976,3.52096905526499,9.22560526528786,0.830041659250273,-0.03634648,-0.0143553335,-0.0076358155,121.34665,-67.058815,22.595612,STD
54592437234000,3.56001,3.53055633003878,9.23039850223725,0.825248001841503,-0.03573562,-0.009468411,-0.009162978,121.339836,-67.06752,22.585785,STD
54592442222000,3.564998,3.51554587494145,9.23509035119048,0.814457500654762,-0.030543262,-0.007330383,-0.010995574,121.3357,-67.07308,22.578512,STD
54592447205000,3.569981,3.48760606557377,9.23974708333333,0.800487600833333,-0.028099801,-0.013439035,-0.014049901,121.33284,-67.079185,22.570705,STD
54592452172000,3.574948,3.47068752441103,9.24446469724311,0.792028332205514,-0.02565634,-0.013439035,-0.012217305,121.322136,-67.079994,22.56814,STD
54592457185000,3.579961,3.4610617603208,9.2492776797995,0.787215450160401,-0.028099801,-0.020463986,-0.010079277,121.31578,-67.08145,22.56511,STD
54592462202000,3.584978,3.45436505888174,9.24833279910935,0.791022449247897,-0.027794369,-0.010995574,-0.011911872,121.30589,-67.086136,22.559895,STD
54592467197000,3.589973,3.44963115329045,9.24359879465611,0.800490255487383,-0.032070424,-0.002443461,-0.0106901415,121.29841,-67.08898,22.556364,STD
54592472181000,3.594957,3.45588510115876,9.25259754422106,0.790727240871546,-0.030848695,-0.011911872,-0.019242255,121.28753,-67.09574,22.548878,STD
54592477228000,3.600004,3.4702460329999,9.27174535337229,0.766792324478558,-0.04062254,-0.0033597588,-0.019242255,121.26857,-67.09901,22.54368,STD
54592482190000,3.604966,3.47460539693446,9.279925,0.761893914758192,-0.036651913,-0.008857546,-0.02076942,121.25762,-67.10567,22.53605,STD
54592487234000,3.61001,3.47141397389006,9.279925,0.771468193888742,-0.04520403,-0.017104227,-0.01863139,121.245155,-67.11011,22.529497,STD
54592492189000,3.614965,3.46827886263214,9.279925,0.780873537483483,-0.03756821,-0.016798794,-0.022296581,121.23146,-67.11788,22.521236,STD
54592497182000,3.619958,3.46511970813954,9.279925,0.790351010857558,-0.046731193,-0.021685716,-0.0143553335,121.22185,-67.12045,22.517292,STD
54592502184000,3.62496,3.46195485919662,9.279925,0.799845567600423,-0.046731193,-0.028099801,-0.015882496,121.20484,-67.12854,22.507418,STD
54592507198000,3.629974,3.45878241765328,9.279925,0.80936290216834,-0.044898596,-0.023518313,-0.017104227,121.1862,-67.13389,22.4999,STD
54592512204000,3.63498,3.47177365985097,9.26295428206657,0.823726210026826,-0.050396383,-0.03145956,-0.020158553,121.173874,-67.13975,22.49196,STD
54592517195000,3.639971,3.50026713752608,9.22971218897168,0.842721881645305,-0.04917465,-0.04917465,-0.026572637,121.163635,-67.147255,22.482964,STD
54592522160000,3.644936,3.49261275645024,9.2305481026368,0.839090646954919,-0.055283304,-0.058643065,-0.02107485,121.15757,-67.155,22.472483,STD
54592527202000,3.649978,3.4469779151309,9.26705578508648,0.811709727867876,-0.04795292,-0.059864793,0.00061086525,121.15435,-67.16037,22.465399,STD
54592532130000,3.654906,3.42410093826576,9.29122901548782,0.800055906462464,-0.06078109,-0.04917465,-0.0018325958,121.147736,-67.159546,22.462067,STD
54592537183000,3.659959,3.43842220799053,9.29600287175693,0.814377171202525,-0.06047566,-0.054061573,-0.003970624,121.14607,-67.153755,22.465225,STD
54592542168000,3.664944,3.44603069079527,9.29745925696958,0.825225075969872,-0.059253927,-0.06047566,0.00030543262,121.14112,-67.15175,22.465788,STD
54592547167000,3.669943,3.44134767962438,9.29277614799961,0.829908106700577,-0.049785517,-0.05467244,0.00030543262,121.13423,-67.15205,22.464338,STD
54592552107000,3.674883,3.44201618575499,9.2855594691358,0.834496395251662,-0.057421334,-0.05222898,-0.0036651916,121.12583,-67.15335,22.459621,STD
54592557187000,3.679963,3.45587662564103,9.27169922222222,0.839116541880342,-0.057421334,-0.05131268,-0.002443461,121.11629,-67.15408,22.456345,STD
54592562117000,3.684893,3.46724624152564,9.26165645534422,0.841874515101593,-0.06414085,-0.05467244,0.0012217305,121.10776,-67.15452,22.45261,STD
54592567157000,3.689933,3.46965586021666,9.26647554176027,0.837055267655135,-0.06627888,-0.052839845,0.0015271631,121.0977,-67.15578,22.448223,STD
54592572132000,3.694908,3.47203440247616,9.27123247726025,0.832298173201538,-0.06078109,-0.054367006,0.0061086523,121.08604,-67.14908,22.451551,STD
54592577181000,3.699957,3.47444832405771,9.27606016918776,0.827470319956068,-0.054367006,-0.053450707,-0.0021380284,121.07382,-67.14607,22.451078,STD
54592582138000,3.704914,3.47907289585253,9.28530930414747,0.820913265084485,-0.055588737,-0.049480084,0.007330383,121.061035,-67.13691,22.456795,STD
54592587150000,3.709926,3.49381910832565,9.31480234500768,0.806167057743984,-0.06261369,-0.044898596,0.0106901415,121.04853,-67.13199,22.458277,STD
54592592961000,3.715737,3.49600516318072,9.32463847238554,0.798517382826024,-0.06566802,-0.055588737,0.0009162979,121.0475,-67.13647,22.451342,STD
54592597136000,3.719912,3.47673618004819,9.29766173503614,0.80622497205494,-0.092240654,-0.046120327,0.007330383,121.03861,-67.13382,22.449522,STD
54592602141000,3.724917,3.45869706593016,9.26814415506017,0.816968294929966,-0.08155051,-0.040317107,0.011301007,121.03417,-67.13693,22.444546,STD
54592607144000,3.72992,3.46814917293352,9.25396569846123,0.835872528676267,-0.070249505,-0.048563786,0.0021380284,121.03162,-67.14051,22.4379,STD
54592612122000,3.734898,3.47744166207635,9.24108755788441,0.854457527475919,-0.061086524,-0.04550946,0.0061086523,121.02274,-67.14907,22.424925,STD
54592617126000,3.739902,3.48599005793792,9.23681327069212,0.871554345977524,-0.058948494,-0.052839845,0.0027488936,121.02026,-67.162056,22.408207,STD
54592622118000,3.744894,3.49451795404923,9.23254923358901,0.888610164914378,-0.056199603,-0.06261369,0.0036651916,121.01896,-67.170074,22.39646,STD
54592627199000,3.749975,3.50002077477026,9.24325693692565,0.89064306,-0.059253927,-0.06291912,0.0018325958,121.01737,-67.17925,22.383366,STD
54592632132000,3.754908,3.50495418688388,9.25559046720969,0.89064306,-0.055588737,-0.06872234,-0.0070249503,121.02073,-67.190315,22.369295,STD
54592637119000,3.759895,3.50994160350877,9.26805900877193,0.89064306,-0.050396383,-0.07574729,-0.008552114,121.024734,-67.20255,22.352646,STD
54592642239000,3.765015,3.51364050832521,9.27922667586274,0.890817641945798,-0.051923547,-0.065973446,-0.00061086525,121.025444,-67.21386,22.336601,STD
54592647124000,3.7699,3.49995869861571,9.27010551701111,0.893097943564048,-0.059864793,-0.05467244,-0.00061086525,121.026493883662,-67.2197225982243,22.3282901687927,STD
54592652038000,3.774814,3.48619566628973,9.26093021003119,0.895391782285046,-0.064446285,-0.053145275,0.003970624,121.02755,-67.22562,22.31993,STD
54592657058000,3.779834,3.47213575129655,9.25155698230649,0.897735101450575,-0.06047566,-0.051923547,0.0033597588,121.03554,-67.2363,22.306314,STD
54592662037000,3.784813,3.45819066827842,9.24226030883213,0.900059281953597,-0.06414085,-0.061086524,-0.00061086525,121.04284,-67.24512,22.293474,STD
54592667075000,3.789851,3.46178083646678,9.23251077461507,0.911603948789506,-0.06414085,-0.05497787,0.004581489,121.050995,-67.25726,22.277662,STD
54592672072000,3.794848,3.4666284123987,9.22281567336912,0.923722886088432,-0.058643065,-0.06078109,-0.004276057,121.06599,-67.27395,22.257895,STD
54592677082000,3.799858,3.47148859959481,9.2130953497265,0.935873351541228,-0.058948494,-0.062308256,-0.0027488936,121.07666,-67.28729,22.240904,STD
54592682351000,3.805127,3.47724197847409,9.2046027722073,0.946812082513677,-0.063224554,-0.07147124,-0.022602014,121.09212,-67.30855,22.216328,STD
54592687076000,3.809852,3.49524670542127,9.23160995662986,0.919804996792997,-0.05681047,-0.08582657,-0.026572637,121.10459,-67.31685,22.205975,STD
54592692394000,3.81517,3.51287450894214,9.25774951490356,0.890240060724723,-0.044593163,-0.0729984,0.00580322,121.120995,-67.32054,22.200022,STD
54592697080000,3.819856,3.47353182793688,9.1921783798948,0.881497215336061,-0.07422013,-0.04795292,0.0027488936,121.13866,-67.33264,22.183502,STD
54592702065000,3.824841,3.43167880514319,9.12242334190532,0.872196514469121,-0.08399397,-0.055283304,-0.0030543262,121.15754,-67.34116,22.17313,STD
54592707125000,3.829901,3.44179851627516,9.1259877645517,0.869272447287473,-0.0571159,-0.06383542,-0.0076358155,121.16912,-67.35027,22.162077,STD
54592712076000,3.834852,3.45586747531774,9.1353670216112,0.866927620780377,-0.03573562,-0.064446285,-0.0061086523,121.18046,-67.358025,22.151571,STD
54592717129000,3.839905,3.47022628162801,9.14493950917363,0.864534486395332,-0.02687807,-0.05955936,-0.0106901415,121.194176,-67.367546,22.141117,STD
54592722088000,3.844864,3.48431797378962,9.15433392156669,0.862185871035063,-0.02076942,-0.055588737,-0.0106901415,121.20787,-67.37608,22.132778,STD
54592727143000,3.849919,3.49218634515614,9.16788453367223,0.866065096770758,-0.026267206,-0.058948494,-0.01038471,121.22213,-67.38528,22.123623,STD
54592732073000,3.854849,3.49904380688453,9.18159950486565,0.870636737923021,-0.030848695,-0.05100725,-0.01740966,121.23158,-67.39656,22.112345,STD
54592737124000,3.8599,3.50606957548293,9.19565109097071,0.875320583655289,-0.020463986,-0.038789943,-0.011301007,121.24441,-67.40319,22.106905,STD
54592742127000,3.864903,3.51302857771968,9.20956914388768,0.879959918479787,-0.03145956,-0.043676864,-0.014049901,121.26014,-67.41243,22.097456,STD
54592747134000,3.86991,3.51821792657164,9.20406318357091,0.875771310142547,-0.023823744,-0.03756821,-0.02321288,121.268456,-67.423164,22.087593,STD
54592752123000,3.874899,3.52283533707659,9.19251965730853,0.868845194385117,-0.022296581,-0.04337143,-0.014049901,121.28129,-67.42825,22.082838,STD
54592757144000,3.87992,3.52748236416526,9.18090208958686,0.861874653752114,-0.013439035,-0.03573562,-0.017715093,121.28877,-67.439354,22.07211,STD
54592762169000,3.884945,3.53213309332689,9.16927526668277,0.854898560009664,-0.022907447,-0.035430185,-0.014049901,121.29961,-67.44461,22.066614,STD
54592767157000,3.889933,3.5322943814891,9.1711928417318,0.8523358,-0.025350908,-0.035430185,-0.016798794,121.30747,-67.44956,22.062492,STD
54592772165000,3.894941,3.52982828654875,9.18105716999177,0.8523358,-0.021380283,-0.04062254,-0.014966198,121.316444,-67.45195,22.060883,STD
54592777217000,3.899993,3.52734052464007,9.19100816567256,0.8523358,-0.016798794,-0.032986723,-0.010995574,121.328804,-67.450806,22.064133,STD
54592782163000,3.904939,3.52490496042781,9.20075037165775,0.8523358,-0.020158553,-0.028405234,-0.01282817,121.343376,-67.45055,22.06633,STD
54592787150000,3.909926,3.52764922074188,9.1965420171571,0.855720220741877,-0.026572637,-0.03604105,-0.0061086523,121.36249,-67.4488,22.07053,STD
54592792211000,3.914987,3.53229488208569,9.18725050043132,0.86036588208569,-0.01863139,-0.03481932,-0.01863139,121.37759,-67.45357,22.068321,STD
54592797150000,3.919926,3.53182653972195,9.18818720472034,0.866950257007436,-0.023518313,-0.034208454,-0.016798794,121.393684,-67.45283,22.07081,STD
54592802182000,3.924958,3.52871044159069,9.19441953113482,0.874740512096993,-0.020463986,-0.035430185,-0.02076942,121.40997,-67.45801,22.0681,STD
54592807137000,3.929913,3.5256420262011,9.20055649007436,0.882411560182994,-0.022296581,-0.029932396,-0.013439035,121.42348,-67.45926,22.06807,STD
54592812245000,3.935021,3.52247886458455,9.20688294542515,0.890319474133204,-0.021991149,-0.030543262,-0.01282817,121.43911,-67.463646,22.06525,STD
54592817154000,3.93993,3.51943893498868,9.21296293158746,0.897919307645652,-0.02565634,-0.031154128,-0.014049901,121.45258,-67.466064,22.063883,STD
54592822140000,3.944916,3.51635132265115,9.2191382852247,0.905638348161655,-0.03268129,-0.025045475,-0.012217305,121.463356,-67.46701,22.06364,STD
54592827228000,3.950004,3.52226240684886,9.22751444638349,0.897172632766985,-0.027488936,-0.0290161,-0.015577064,121.48075,-67.46842,22.064323,STD
54592832155000,3.954931,3.53779908567665,9.23787190780375,0.871278135607507,-0.03176499,-0.03176499,-0.011301007,121.49496,-67.466064,22.06766,STD
54592837157000,3.959933,3.54047225535493,9.24603730925767,0.864858744645075,-0.027794369,-0.034208454,-0.01038471,121.51013,-67.466995,22.06782,STD
54592842162000,3.964938,3.53589292183052,9.25290645299513,0.869438078169485,-0.03145956,-0.029932396,-0.010995574,121.523705,-67.46647,22.068638,STD
54592847820000,3.970596,3.53071612481131,9.26067181069074,0.874614875188688,-0.02565634,-0.020158553,-0.012217305,121.53822,-67.47616,22.059721,STD
54592852156000,3.974932,3.52674889400975,9.26662278116939,0.878582105990255,-0.03176499,-0.027794369,-0.008857546,121.55633,-67.48351,22.052547,STD
54592857132000,3.979908,3.52194821234621,9.25876606173104,0.885699389821333,-0.021991149,-0.021380283,-0.0067195175,121.56686,-67.49244,22.04442,STD
54592862167000,3.984943,3.51678942471381,9.23297212356906,0.896016997406655,-0.035430185,-0.026267206,-0.01038471,121.58295,-67.5001,22.0363,STD
54592867155000,3.989931,3.50910335558423,9.21688023895562,0.894635198089943,-0.040317107,-0.02687807,-0.011911872,121.59516,-67.50654,22.03028,STD
54592872144000,3.99492,3.49961687584632,9.20739356110394,0.885148688634965,-0.03756821,-0.014966198,-0.01282817,121.604805,-67.513245,22.02344,STD
54592877175000,3.999951,3.49826332907815,9.21695564539077,0.886524075253433,-0.030543262,-0.010995574,-0.0076358155,121.622795,-67.52319,22.013206,STD
54592882167000,4.004943,3.5029869122814,9.24057356140698,0.895971271253829,-0.036957346,-0.01740966,-0.007941248,121.64017,-67.53389,22.00155,STD
54592887152000,4.009928,3.50992198595655,9.25360044321203,0.912246822379686,-0.031154128,-0.025350908,-0.0061086523,121.655754,-67.54436,21.991463,STD
54592892164000,4.01494,3.51872186158218,9.25800047291227,0.93424650684939,-0.040011674,-0.019242255,-0.0125227375,121.66889,-67.55562,21.979143,STD
54592897158000,4.019934,3.5170030151179,9.26167974206697,0.947196126889737,-0.02443461,-0.0076358155,-0.010079277,121.6822,-67.565346,21.969933,STD
54592902155000,4.024931,3.49724953713431,9.26414897838089,0.944726942141788,-0.03359759,-0.013133603,-0.008857546,121.69876,-67.57489,21.959223,STD
54592907131000,4.029907,3.4775790735669,9.26660783767607,0.942268134195862,-0.02321288,-0.02107485,-0.014660766,121.713066,-67.589905,21.943308,STD
54592912166000,4.034942,3.45767537902069,9.26909585145245,0.939780172377586,-0.025045475,-0.027488936,-0.012217305,121.72816,-67.60056,21.930716,STD
54592917756000,4.040532,3.44908459542,9.26317802290001,0.939961245419997,-0.031154128,-0.0290161,-0.017104227,121.74421,-67.6147,21.914997,STD
54592922137000,4.044913,3.45114196612563,9.25289116937184,0.942018616125631,-0.021685716,-0.02107485,-0.0125227375,121.75871,-67.62576,21.903122,STD
54592927198000,4.049974,3.45351867307409,9.24100763462953,0.944395323074094,-0.021380283,-0.022907447,-0.012217305,121.77345,-67.64032,21.887556,STD
54592932201000,4.054977,3.45586814251949,9.22926028740254,0.946744792519492,-0.025350908,-0.020158553,-0.0018325958,121.78371,-67.65056,21.876373,STD
