timestamp,rel_time,acc_x,acc_y,acc_z,gyro_x,gyro_y,gyro_z,azimuth,pitch,roll,label
15431225437000,0,-0.132433393972116,9.97431781821789,1.38406963355497,0.19914207,-0.24709499,0.053145275,332.64255,-72.2121,14.882547,STD
15431230479000,0.005042,-0.126357975142734,9.97595350428033,1.38897669906215,0.18661933,-0.28221974,0.058948494,333.00143,-72.4261,14.741134,STD
15431235460000,0.010023,-0.120356059000498,9.97756940120159,1.39382439705724,0.19028452,-0.301462,0.061391957,333.35077,-72.640434,14.597439,STD
15431240498000,0.015061,-0.114391756641631,9.97852781275607,1.39513509782556,0.1863139,-0.30818152,0.06688975,333.70197,-72.847725,14.456501,STD
15431245434000,0.019997,-0.109437776155063,9.97380975170299,1.36635483204334,0.18753563,-0.31306845,0.0729984,334.0537,-73.053894,14.316398,STD
15431250549000,0.025112,-0.104304143620866,9.96892059402744,1.33653087347849,0.19364429,-0.3222314,0.07269296,334.33362,-73.266205,14.174545,STD
15431255545000,0.030108,-0.0992899445708468,9.96414518215118,1.30740076654008,0.18906279,-0.31398472,0.07880162,334.60648,-73.471565,14.035624,STD
15431260433000,0.034996,-0.0943841389350394,9.95947300175664,1.2789003736828,0.18142697,-0.31856623,0.076052725,334.88327,-73.67717,13.895049,STD
15431265523000,0.040086,-0.089275597468947,9.95460774025741,1.24922218226636,0.19120082,-0.32406402,0.07971791,335.15454,-73.87921,13.757717,STD
15431270474000,0.045037,-0.084306562341516,9.94987534149853,1.22035445619509,0.18661933,-0.31245756,0.07666359,335.41977,-74.07797,13.617287,STD
15431276208000,0.050771,-0.0785516749610496,9.94439451449724,1.18692130303559,0.183565,-0.29749137,0.081855945,335.6822,-74.27313,13.480427,STD
15431280419000,0.054982,-0.0743253354495142,9.9403694425575,1.16236828455727,0.1731803,-0.29168814,0.079107046,335.9416,-74.46692,13.340585,STD
15431285426000,0.059989,-0.069300096329529,9.93558351636366,1.13317404007356,0.1740966,-0.27885997,0.08674286,336.19122,-74.655754,13.204606,STD
15431290485000,0.065048,-0.0642226677878862,9.93074788612307,1.10367659992115,0.16462818,-0.25992316,0.086437434,336.43515,-74.841934,13.065581,STD
15431295433000,0.069996,-0.0592566435886278,9.92601835490536,1.07482636590769,0.16798794,-0.25992316,0.089186326,336.67783,-75.02519,12.930308,STD
15431300635000,0.075198,-0.0540356941374268,9.9210460385362,1.04449513766637,0.16920967,-0.23823744,0.08093964,336.90662,-75.20735,12.790899,STD
15431305457000,0.08002,-0.0491961289214155,9.91643694404715,1.0163795700809,0.17440203,-0.20586158,0.076358154,337.12955,-75.38676,12.653578,STD
15431310444000,0.085007,-0.0441909626559139,9.91167013479437,0.98730193931591,0.17531833,-0.19425514,0.06994407,337.35028,-75.565926,12.514183,STD
15431315508000,0.090071,-0.0391085159006502,9.90682972531851,0.95777534573382,0.16829337,-0.1740966,0.064751714,337.557,-75.74312,12.373358,STD
15431320437000,0.095,-0.0341615609131513,9.9021183551948,0.929035894753148,0.17012598,-0.15332718,0.06169739,337.7583,-75.92033,12.232012,STD
15431325455000,0.100018,-0.0291252817232001,9.89732191468338,0.899777512724133,0.16310102,-0.1469131,0.045814894,337.95654,-76.097305,12.086599,STD
15431330448000,0.105011,-0.0241140936013534,9.89254937034828,0.87066489784353,0.16401732,-0.14202617,0.042455133,338.147,-76.27078,11.944588,STD
15431335452000,0.110015,-0.0190918654095407,9.8877663116956,0.841488145417625,0.1704314,-0.14508049,0.035430185,338.3368,-76.446365,11.79858,STD
15431340428000,0.114991,-0.0140977392140052,9.88301001676041,0.812474652197941,0.16737708,-0.13622294,0.030543262,338.52002,-76.618484,11.653209,STD
15431346151000,0.120714,-0.00835389190350478,9.87753970407669,0.779105636583742,0.16554448,-0.14385876,0.026267206,338.7074,-76.79071,11.5082245,STD
15431350515000,0.125078,-0.00397399505516935,9.87336838753787,0.753660523157154,0.15302174,-0.14721853,0.026267206,338.88928,-76.958595,11.364261,STD
15431355467000,0.13003,0.000996043714985816,9.86863503293194,0.724786966399944,0.15790866,-0.13469578,0.020158553,339.06738,-77.12872,11.218689,STD
15431360429000,0.134992,0.0059761189123828,9.86389211985548,0.69585510278337,0.15302174,-0.1337795,0.02321288,339.24783,-77.29102,11.077811,STD
15431365493000,0.140056,0.0110585656676465,9.85905171037962,0.66632850920128,0.15393804,-0.1432479,0.01863139,339.42648,-77.45577,10.934614,STD
15431370414000,0.144977,0.0159974915133519,9.85434798703233,0.637635703708099,0.15057829,-0.1414153,0.01740966,339.59973,-77.615234,10.794503,STD
15431375441000,0.150004,0.0210428034878208,9.84954294389744,0.608324845505657,0.1554652,-0.124311075,0.015882496,339.76984,-77.77483,10.654446,STD
15431380456000,0.155019,0.0260760717495995,9.84474937092718,0.579083955534451,0.1600467,-0.109650314,0.015882496,339.93842,-77.93151,10.516121,STD
15431385461000,0.160024,0.0310993035841364,9.83996535642744,0.549901372422611,0.17165314,-0.096516706,0.01282817,340.1011,-78.08864,10.377699,STD
15431390476000,0.165039,0.0361325718459151,9.83517178345718,0.520660482451406,0.18142697,-0.07269296,0.011911872,340.25494,-78.243225,10.240853,STD
15431395431000,0.169994,0.0411056215442428,9.83043556131009,0.491769433636386,0.17348573,-0.058337633,0.0036651916,340.40665,-78.39712,10.102689,STD
15431400650000,0.175213,0.0463436329217548,9.82544699554104,0.461339083734149,0.17654006,-0.054061573,0.00030543262,340.55298,-78.55042,9.967068,STD
15431405468000,0.180031,0.0511791835668695,9.8208417244402,0.433246838892421,0.18661933,-0.033292156,0.002443461,340.68933,-78.70177,9.831693,STD
15431410434000,0.184997,0.0561632733351632,9.81609498797553,0.404291652532101,0.19333886,-0.03756821,0.0036651916,340.83066,-78.851616,9.6975975,STD
15431415887000,0.19045,0.0616361371101341,9.8108827539961,0.372496922120739,0.19975294,-0.02076942,-0.0021380284,340.95898,-79.00151,9.562874,STD
15431420441000,0.195004,0.0662067260760643,9.80652982651722,0.345943978366229,0.19120082,-0.027488936,0.0027488936,341.094,-79.144775,9.43418,STD
15431425447000,0.20001,0.0712309615533254,9.80174485617043,0.316755564568451,0.20433442,-0.038789943,0.003970624,341.22476,-79.291794,9.304379,STD
15431430413000,0.204976,0.0762150513216191,9.79699811970576,0.287800378208131,0.21410827,-0.0421497,0.0021380284,341.35413,-79.43425,9.176915,STD
15431435482000,0.210045,0.0813025162905037,9.79215293099464,0.258244631196359,0.20922135,-0.05375614,0.0106901415,341.48776,-79.571205,9.055026,STD
15431440734000,0.215297,0.0860636872357724,9.78738765161081,0.228640531068178,0.22785273,-0.055283304,0.00580322,341.61877,-79.71429,8.93031,STD
15431445445000,0.220008,0.084486271770481,9.78603557743369,0.21376775653324,0.22204952,-0.06627888,0.01160644,341.75424,-79.84619,8.8132105,STD
15431450595000,0.225158,0.0827618630151741,9.78455750865591,0.197509045250087,0.22907446,-0.06963864,0.008246681,341.84766,-80.042145,8.674462,STD
15431455465000,0.230028,0.0811312085222916,9.78315980089906,0.182134302735727,0.22785273,-0.065973446,0.020463986,341.94095,-80.22618,8.544244,STD
15431460445000,0.235008,0.0794637219977424,9.78173052274112,0.166412286776485,0.22235495,-0.067500606,0.027488936,342.03616,-80.40823,8.414077,STD
15431465442000,0.240005,0.0777905432501174,9.7802963655212,0.150636601284851,0.22357668,-0.08246681,0.026572637,342.1333,-80.58563,8.287527,STD
15431470412000,0.244975,0.0761264050920833,9.77886995739973,0.134946155638779,0.22082779,-0.0888809,0.022602014,342.2275,-80.7566,8.164033,STD
15431475443000,0.250006,0.0744418418983068,9.77742604205584,0.119063131082364,0.22113322,-0.089491755,0.032986723,342.32324,-80.92072,8.0465975,STD
15431480451000,0.255014,0.0727649799475151,9.77598872779581,0.103252718246241,0.23762658,-0.073303826,0.02565634,342.41553,-81.08822,7.9247413,STD
15431485659000,0.260222,0.0710211506664203,9.77449401280655,0.086810899146696,0.22388211,-0.06658431,0.028710667,342.5094,-81.24278,7.8109236,STD
15431490484000,0.265047,0.069405563822856,9.77310922021378,0.0715782230416063,0.22327125,-0.051923547,0.025350908,342.5958,-81.40092,7.694648,STD
15431495434000,0.269997,0.0677481223978523,9.77168855216523,0.055950918021877,0.22571471,-0.050396383,0.029932396,342.68307,-81.55121,7.5835905,STD
15431500560000,0.275123,0.0660317497221817,9.77021737147495,0.0397679754903351,0.2302962,-0.03756821,0.026572637,342.7624,-81.70102,7.4708095,STD
15431505507000,0.28007,0.0643753128071325,9.76879756443734,0.0241501415645572,0.22907446,-0.03023783,0.023823744,342.84204,-81.845604,7.361521,STD
15431510445000,0.285008,0.062721889421947,9.76738034043255,0.00856072092063334,0.22876903,-0.023518313,0.028710667,342.91754,-81.986305,7.255204,STD
15431515460000,0.290023,0.0610426836145947,9.76594101714699,-0.00727179113470855,0.22143865,-0.019242255,0.030848695,342.99115,-82.12405,7.1492095,STD
15431520436000,0.294999,0.0593765364366515,9.76451288700365,-0.0229811789686828,0.22327125,-0.010995574,0.03268129,343.06107,-82.258385,7.0462766,STD
15431525439000,0.300002,0.0577013486691174,9.76307700776185,-0.0387758066482194,0.2134974,-0.014049901,0.035124753,343.13248,-82.38663,6.9461346,STD
15431530446000,0.305009,0.0560248215549773,9.76163998050547,-0.0545830624530243,0.20280726,-0.018020526,0.038789943,343.20123,-82.51112,6.848617,STD
15431535461000,0.310024,0.054345615747625,9.76020065721992,-0.0704155745083662,0.18845193,-0.0106901415,0.03359759,343.2672,-82.63286,6.750951,STD
15431540429000,0.314992,0.052682147262894,9.75877482310574,-0.0860997060918036,0.17745635,-0.01160644,0.041233405,343.33597,-82.74671,6.6599245,STD
15431545428000,0.319991,0.0510082988419659,9.75734009187853,-0.101881705646072,0.16523905,-0.021685716,0.04795292,343.40485,-82.85777,6.568951,STD
15431550539000,0.325102,0.0492969487160681,9.75587321624294,-0.118017292707857,0.1572978,-0.022907447,0.042455133,343.471,-82.96685,6.478236,STD
15431555565000,0.330128,0.0476140597055492,9.75443073591729,-0.133884532107687,0.15149458,-0.048258353,0.03573562,343.5464,-83.0711,6.391138,STD
15431560429000,0.334992,0.0459854142325758,9.75303475018231,-0.149240332434144,0.15851954,-0.05467244,0.040317107,343.616,-83.17216,6.3070307,STD
15431565503000,0.340066,0.0442864530627841,9.75157849368163,-0.165259109337196,0.15241088,-0.0580322,0.038179077,343.69156,-83.27261,6.2208934,STD
15431570476000,0.345039,0.0426213103947955,9.75015122454922,-0.180959026077219,0.14721853,-0.058643065,0.03145956,343.76743,-83.37194,6.1362157,STD
15431575452000,0.350015,0.0409551632168523,9.74872309440588,-0.196668413911193,0.13988814,-0.04520403,0.030848695,343.83945,-83.46741,6.0539374,STD
15431580439000,0.355002,0.0392853328357425,9.74729180722242,-0.212412529089656,0.12675454,-0.025961773,0.038179077,343.90927,-83.55947,5.973375,STD
15431585438000,0.360001,0.0376114844148144,9.74585707599521,-0.228194528643924,0.13225232,-0.004276057,0.027794369,343.9741,-83.655754,5.888824,STD
15431590474000,0.365037,0.0359252470377803,9.74441172563309,-0.244093338356925,0.13530666,-0.0067195175,0.018325957,344.03967,-83.746414,5.80813,STD
15431595435000,0.369998,0.0342641224096099,9.74298790054443,-0.259755370721143,0.14110987,-0.016798794,0.013133603,344.10086,-83.83769,5.727063,STD
15431601167000,0.37573,0.0323448387231207,9.74134279564457,-0.277851474230858,0.14263703,-0.025045475,0.006414085,344.162,-83.92987,5.6444235,STD
15431605447000,0.38001,0.0309117378546326,9.74011442003896,-0.291363568268118,0.1423316,-0.017715093,0.0033597588,344.22107,-84.02102,5.5628195,STD
15431610440000,0.385003,0.0292398984536137,9.73868141083362,-0.307126625634484,0.13500121,-0.012217305,0.0009162979,344.28262,-84.111374,5.481101,STD
15431615501000,0.390064,0.0275452901602917,9.73722888538035,-0.323104361130413,0.13622294,-0.0061086523,-0.005497787,344.34155,-84.20264,5.3988137,STD
15431620435000,0.394998,0.0258932061217122,9.73581280939014,-0.338681153649068,0.14263703,0.0021380284,0.004581489,344.39774,-84.28812,5.3220015,STD
15431625447000,0.40001,0.0242150048243145,9.73437434711553,-0.354504194610459,0.13194689,0.016187929,-0.0009162979,344.45038,-84.376015,5.240336,STD
15431630441000,0.405004,0.022542830586644,9.73294105090655,-0.370270409008141,0.1282817,0.037873644,0.00580322,344.4979,-84.45762,5.166368,STD
15431635434000,0.409997,0.0208709911856251,9.73150804170121,-0.386033466374507,0.124311075,0.05131268,0.00580322,344.520269065801,-84.4985743095261,5.1282104285299,STD
15431640760000,0.415323,0.0191066681677342,9.73016744804093,-0.402441830822148,0.124005646,0.049785517,-0.004276057,344.54413,-84.54226,5.087508,STD
15431645431000,0.419994,0.017993551505228,9.7332841678337,-0.407562167320902,0.12492194,0.05009095,-0.0067195175,344.58716,-84.62153,5.014172,STD
15431650498000,0.425061,0.016786066570756,9.7366651182062,-0.413116597858085,0.121256754,0.04886922,-0.0012217305,344.5884,-84.76013,4.9037595,STD
15431655456000,0.430019,0.0156045567414463,9.73997333844439,-0.418551542914993,0.10873401,0.047647487,-0.0015271631,344.59024,-84.8959,4.7938743,STD
15431660435000,0.434998,0.0144180425340778,9.74329557091029,-0.424009508110303,0.1133155,0.040927973,-0.009773844,344.59457,-85.02953,4.6861167,STD
15431665451000,0.440014,0.0132227110891772,9.74664249158691,-0.429508032597083,0.12003502,0.032986723,-0.007330383,344.6001,-85.155396,4.5840564,STD
15431670944000,0.445507,0.0119137087712268,9.75030769000732,-0.435529443084698,0.1255328,0.028710667,-0.0061086523,344.6071,-85.28023,4.481976,STD
15431675450000,0.450013,0.0108399122220397,9.7533143137252,-0.440468907067439,0.112704635,0.006414085,-0.0015271631,344.622,-85.39867,4.3842983,STD
15431680454000,0.455017,0.00964744042174413,9.75665322741456,-0.445954277189418,0.12644911,-0.0033597588,-0.0012217305,344.635,-85.51702,4.288125,STD
15431685527000,0.46009,0.00843852566496962,9.7600381812807,-0.451515284909001,0.13927728,0.0009162979,0.0018325958,344.65067,-85.62865,4.196398,STD
15431690479000,0.465042,0.00725844565796244,9.76334239802525,-0.456943652783509,0.13500121,-0.0027488936,-0.0021380284,344.67172,-85.73844,4.1050315,STD
15431695441000,0.470004,0.00607598261378442,9.76665328725919,-0.462382982628685,0.1414153,-0.01282817,-0.00030543262,344.69366,-85.84419,4.0183005,STD
15431700618000,0.475181,0.00484228427043302,9.77010763501496,-0.46805799484321,0.12858713,-0.021685716,-0.00030543262,344.704419474207,-85.8975345572011,3.97327969021966,STD
15431705502000,0.480065,0.00367840891618766,9.77336647883167,-0.473411821317179,0.13225232,-0.014660766,-0.004276057,344.71457,-85.94786,3.9308069,STD
15431710431000,0.484994,0.00250380989467346,9.77665534885064,-0.478814976659152,0.14263703,-0.013744468,-0.008246681,344.73782,-86.04958,3.8458319,STD
15431715471000,0.490034,0.00130275916056276,9.78001828350179,-0.484339809875533,0.14080444,-0.010995574,-0.003970624,344.7612,-86.14552,3.7640197,STD
15431720433000,0.494996,0.000120296116384739,9.78332917273573,-0.489779139720708,0.13255776,-0.0061086523,-0.0036651916,344.78397,-86.240845,3.6818311,STD
15431725444000,0.500007,-0.00107384380993047,9.78667275716767,-0.495272183222154,0.13500121,0.0033597588,0.002443461,344.8048,-86.33083,3.6043444,STD
15431730447000,0.50501,-0.00226607730650901,9.7900110036081,-0.500756457147066,0.12095132,0.007941248,-0.00580322,344.82587,-86.420555,3.5246484,STD
15431735453000,0.510016,-0.00345902571423879,9.79335125179534,-0.506244019663178,0.12889257,0.02565634,-0.010079277,344.84067,-86.50587,3.449517,STD
15431740532000,0.515095,-0.00466937029331582,9.79674020915511,-0.511811604565162,0.1301143,0.041233405,-0.011301007,344.85504,-86.588905,3.3746881,STD
15431745427000,0.51999,-0.00583586698844912,9.80000639271015,-0.517177489206866,0.12797627,0.04795292,-0.007330383,344.8672,-86.669136,3.3019285,STD
15431750501000,0.525064,-0.00704502004894071,9.80339201382523,-0.522739593123516,0.124005646,0.0580322,-0.008552114,344.87436,-86.74843,3.2291212,STD
15431755466000,0.530029,-0.00822819800426999,9.80670490480598,-0.528182211559892,0.11453723,0.049480084,-0.004581489,344.8853,-86.82224,3.1607373,STD
15431760429000,0.534992,-0.00941089935216511,9.81001646128886,-0.533622637602134,0.118507855,0.052839845,-0.004886922,344.89047,-86.89532,3.092506,STD
15431765493000,0.540056,-0.0106176693754858,9.81339540991455,-0.539173779548117,0.109650314,0.046120327,-0.004276057,344.90134,-86.96402,3.027368,STD
15431770417000,0.54498,-0.0117910768784146,9.81668094368882,-0.544571453904756,0.10598512,0.052839845,0.0067195175,344.90778,-87.02773,2.966729,STD
15431775446000,0.550009,-0.0129895062716374,9.82003653860165,-0.550084228953403,0.10995574,0.04062254,0.00030543262,344.92194,-87.09397,2.9028664,STD
15431780410000,0.554973,-0.0141724459232496,9.82334876233347,-0.555525751192712,0.099265605,0.040317107,0.01038471,344.93106,-87.15005,2.8483198,STD
15431785440000,0.560003,-0.0153711136201894,9.82670502449524,-0.561039622438426,0.09315695,0.023823744,0.011301007,344.9486,-87.208694,2.7907515,STD
15431790482000,0.565045,-0.0165726409617343,9.83006929364428,-0.566566648048941,0.0888809,0.013439035,0.018020526,344.96472,-87.260895,2.7390447,STD
15431795444000,0.570007,-0.0177551040059123,9.83338018287822,-0.572005977894116,0.09468412,0.015577064,0.020158553,344.98212,-92.687584,2.687517,STD
15431800814000,0.575377,-0.0190347949666612,9.83696330967915,-0.577892556142522,0.09040806,0.008857546,0.021685716,345.00507,-92.63934,2.6388524,STD
15431805564000,0.580127,-0.0201667376228171,9.84013274213808,-0.583099492209548,0.08002335,0.0015271631,0.02321288,345.02765,-92.59318,2.5918655,STD
15431810549000,0.585112,-0.0213546816524881,9.84345897809761,-0.588564034587259,0.08093964,-0.00061086525,0.025045475,345.05066,-92.54901,2.5464146,STD
15431815485000,0.590048,-0.0225309488000219,9.84675251885914,-0.593974863308699,0.084910266,0.004886922,0.030848695,345.07355,-92.507675,2.5034966,STD
15431820416000,0.594979,-0.0237060244289703,9.85004272337598,-0.599380211044805,0.076358154,-0.006414085,0.03023783,345.1018,-92.46607,2.4601645,STD
15431825434000,0.599997,-0.0249018324813051,9.85339097855049,-0.604880927925718,0.080634214,-0.009773844,0.025045475,345.12616,-92.42633,2.418047,STD
15431830471000,0.605034,-0.0261021683042645,9.85675191145483,-0.610402472550899,0.07544186,-0.00580322,0.027488936,345.15152,-92.38931,2.3787503,STD
15431835546000,0.610109,-0.0273115596684732,9.86013819981885,-0.615965672664616,0.07666359,0.007330383,0.023518313,345.17508,-92.35037,2.3369553,STD
15431840413000,0.614976,-0.0284713838595281,9.86338570040361,-0.621300863788451,0.079107046,0.015271631,0.022296581,345.19888,-92.31389,2.2974417,STD
15431845446000,0.620009,-0.0283514904217049,9.8643004686173,-0.621355641443168,0.06658431,0.0125227375,0.021380283,345.22192,-92.27697,2.2577188,STD
15431850608000,0.625171,-0.027855789843104,9.86454832391443,-0.619868539940288,0.05589417,0.008857546,0.014966198,345.24295,-92.23935,2.2169306,STD
15431855358000,0.629921,-0.0273996531231594,9.86477639688253,-0.618500129994786,0.06078109,0.01160644,0.019242255,345.21463,-92.18355,2.1479642,STD
15431860357000,0.63492,-0.0269196052362113,9.86501642567571,-0.617059986559509,0.0571159,0.018936822,0.015271631,345.18686,-92.12754,2.0769083,STD
15431865372000,0.639935,-0.0264380208887329,9.86525722271467,-0.615615233743363,0.049480084,0.022907447,0.022907447,345.16016,-92.08061,2.0124173,STD
15431870333000,0.644896,-0.0259616220955444,9.8654954269241,-0.61418603758765,0.043982297,0.009468411,0.018020526,345.1372,-92.03352,1.9451814,STD
15431875356000,0.649919,-0.0254792695178008,9.86573660808595,-0.61273898008107,0.04520403,0.0076358155,0.013133603,345.1107,-91.992805,1.8820843,STD
15431880357000,0.65492,-0.0249990295732865,9.86597673290985,-0.611298260473185,0.047647487,0.012217305,0.016187929,345.087,-91.95672,1.8217127,STD
15431885428000,0.659991,-0.0245120676139519,9.86622021880907,-0.609837374823997,0.046120327,0.0143553335,0.017104227,345.06534,-91.92251,1.7611582,STD
15431890374000,0.664937,-0.0240371092525106,9.86645770278807,-0.608412499962849,0.040317107,0.017715093,0.016798794,345.0428,-91.8924,1.7029257,STD
15431895381000,0.669944,-0.0235562931352973,9.86669811570414,-0.606970051837138,0.040317107,-0.008552114,0.013744468,345.0289,-91.866066,1.6457695,STD
15431900522000,0.675085,-0.0230626091611425,9.86694496267867,-0.605489000146648,0.055283304,-0.0030543262,0.014049901,345.00577,-91.84545,1.5913213,STD
15431905353000,0.679916,-0.022598694109763,9.86717692489108,-0.604097255210496,0.047647487,0.004886922,0.012217305,344.9901,-91.82367,1.5368623,STD
15431910347000,0.68491,-0.0221191263667307,9.86741671360744,-0.602658552206741,0.051923547,0.0018325958,0.018325957,344.9767,-91.81118,1.4862652,STD
15431915362000,0.689925,-0.0216375420192523,9.8676575106464,-0.601213799390595,0.052839845,-0.011911872,0.020463986,344.9648,-91.79868,1.435512,STD
15431920314000,0.694877,-0.0211620074851121,9.86789528271758,-0.599787196011621,0.058337633,-0.0125227375,0.013744468,344.95065,-91.790016,1.3854433,STD
15431925652000,0.700215,-0.0206494058406774,9.86815158871837,-0.598249391319182,0.06352998,-0.0076358155,0.016187929,344.93948,-91.786674,1.3398868,STD
15431930341000,0.704904,-0.0201991268765047,9.86837673274941,-0.596898554638243,0.06811147,-0.011301007,0.01863139,344.9315,-91.78534,1.2936771,STD
15431935350000,0.709913,-0.0197181187017252,9.8686172416962,-0.595455530339923,0.06383542,-0.0076358155,0.021685716,344.9206,-91.78622,1.2496908,STD
15431940331000,0.714894,-0.0192397993328738,9.86885640621287,-0.594020572458124,0.05009095,-0.025350908,0.02076942,344.91742,-91.78774,1.2063073,STD
15431945324000,0.719887,-0.0187603276186246,9.86909614691387,-0.592582157540673,0.0571159,-0.029626964,0.02321288,344.9099,-91.79586,1.1660284,STD
15431950411000,0.724974,-0.0182718291987596,9.86934040105887,-0.591116662510616,0.058337633,-0.020158553,0.022602014,344.90396,-91.8007,1.125679,STD
15431955337000,0.7299,-0.0177987914129812,9.86957692473064,-0.589697549375555,0.062308256,-0.023518313,0.019242255,344.9033,-91.80911,1.0861433,STD
15431960333000,0.734896,-0.0173190316123826,9.86981680947773,-0.588258270199191,0.052534413,-0.03390302,0.030543262,344.90247,-91.81828,1.051666,STD
15431965473000,0.740036,-0.0168254436670109,9.8700636084369,-0.586777506595005,0.04153884,-0.03176499,0.029932396,344.8993,-91.82656,1.0138841,STD
15431970327000,0.74489,-0.0163593199536191,9.87029667500263,-0.585379135673854,0.044593163,-0.029932396,0.030848695,344.8996,-91.83884,0.9805621,STD
15431975340000,0.749903,-0.015877927663707,9.87053737601087,-0.583934959030317,0.040317107,-0.02443461,0.022907447,344.89847,-91.84609,0.94543535,STD
15431980333000,0.754896,-0.0153984559494578,9.87077711671187,-0.582496544112866,0.034513887,-0.02107485,0.024129177,344.89783,-91.855865,0.9140231,STD
15431985340000,0.759903,-0.0149176398322445,9.87101752962794,-0.581054095987155,0.027794369,-0.026267206,0.027183503,344.89835,-91.8641,0.88172036,STD
15431990370000,0.764933,-0.0144346150530189,9.87125904689733,-0.579605021876444,0.025961773,-0.023823744,0.02687807,344.89603,-91.87244,0.84975916,STD
15431995614000,0.770177,-0.0139310401142001,9.87151083945412,-0.57809429729661,0.028710667,-0.027183503,0.02687807,344.89716,-91.88123,0.8194725,STD
15432000571000,0.775134,-0.0134550254361441,9.8717488516021,-0.576666253486115,0.025961773,-0.009773844,0.025350908,344.89194,-91.88842,0.78965116,STD
15432005384000,0.779947,-0.0129928389028613,9.87197994953799,-0.575279694103441,0.036651913,-0.01863139,0.02321288,344.89545,-91.90019,0.7601567,STD
15432010382000,0.784945,-0.0125128870446964,9.87221993031581,-0.573839838754468,0.027488936,-0.015271631,0.027488936,344.89084,-91.90698,0.7331119,STD
15432015439000,0.790002,-0.0120272694883258,9.87246274399996,-0.572382986313541,0.02076942,-0.019242255,0.026267206,344.8911,-91.91665,0.7044957,STD
15432020391000,0.794954,-0.0115517349541856,9.87270051607113,-0.570956382934567,0.031154128,-0.020463986,0.023518313,344.88995,-91.929054,0.6774343,STD
15432025380000,0.799943,-0.011072647355069,9.87294006471069,-0.569519120362334,0.025350908,-0.016798794,0.025350908,344.8888,-91.93595,0.6520435,STD
15432030363000,0.804926,-0.0105941359286513,9.87317932525808,-0.568083586307926,0.006414085,-0.021991149,0.026572637,344.89075,-91.9419,0.6262857,STD
15432035391000,0.809954,-0.010111303206992,9.87342074649674,-0.566635088369824,0.01038471,-0.015882496,0.018936822,344.8886,-91.95207,0.5993189,STD
15432040342000,0.814905,-0.00963586470163494,9.87365847055255,-0.565208773077154,0.013133603,-0.0143553335,0.019547688,344.8896,-91.95791,0.57561266,STD
15432045373000,0.819936,-0.009576807,9.87563667216514,-0.563082968529696,0.00580322,-0.017104227,0.017715093,344.89017,-91.961494,0.5497242,STD
15432050562000,0.825125,-0.009576807,9.87792645021426,-0.560793238298853,0.01282817,-0.012217305,0.01740966,344.8884,-91.97019,0.5252011,STD
15432055426000,0.829989,-0.009576807,9.88007281375847,-0.558646919577939,0.021685716,-0.021685716,0.02076942,344.83456,-92.016914,0.4816877,STD
15432060393000,0.834956,-0.009576807,9.88226462866885,-0.556455150440031,0.0125227375,-0.021685716,0.02107485,344.77783,-92.060425,0.43898565,STD
15432065790000,0.840353,-0.00802984896160396,9.88171801078598,-0.547720005769727,0.011301007,-0.014966198,0.015882496,344.6875,-92.13194,0.3820085,STD
15432070434000,0.844997,-0.00573461792955566,9.87942273349848,-0.536243844617846,0.021685716,-0.0015271631,0.018325957,344.59573,-92.2053,0.32898557,STD
15432075426000,0.849989,-0.00326739284084224,9.87695545868814,-0.523907712733653,0.025350908,-0.009468411,0.013744468,344.4907,-92.29218,0.26757878,STD
15432080411000,0.854974,-0.000803627402693915,9.87449164359808,-0.511588879111318,0.021685716,-0.0076358155,0.012217305,344.37848,-92.38101,0.20936115,STD
15432085443000,0.860006,0.00951812182861589,9.87210161433713,-0.5091570925338,0.019547688,-0.007941248,0.013439035,344.2598,-92.4798,0.14864129,STD
15432090484000,0.865047,0.0236052774768991,9.86975370766462,-0.511504950174108,0.024129177,-0.015577064,0.008857546,344.14127,-92.58019,0.08688858,STD
15432095433000,0.869996,0.037435337644198,9.86744865110398,-0.513809958597413,0.023823744,-0.01863139,0.01038471,344.0159,-92.681725,0.029088922,STD
15432100595000,0.875158,0.0518606297402976,9.86504438721914,-0.516214172273125,0.022602014,-0.015271631,0.0125227375,343.88895,-92.78483,-0.028943779,STD
15432105473000,0.880036,0.0795367406541306,9.89354548810266,-0.495071644468407,0.02321288,-0.01282817,0.015271631,343.7573,-92.89389,-0.08656072,STD
15432110426000,0.884989,0.117581951489172,9.94427235642991,-0.457026442461456,0.025350908,-0.006414085,0.012217305,343.62125,-93.00343,-0.14431863,STD
15432115441000,0.890004,0.141957525957865,9.96886510883092,-0.442818327142233,0.025350908,-0.00030543262,0.0143553335,343.47858,-93.11707,-0.19383429,STD
15432120435000,0.894998,0.136736857995852,9.93754126459993,-0.479363030133173,0.014049901,-0.009773844,0.012217305,343.336,-93.228226,-0.24493818,STD
15432125449000,0.900012,0.131836871448054,9.92492959257505,-0.491278665512833,0.01038471,-0.0021380284,0.008552114,343.17288,-93.34042,-0.28877988,STD
15432130411000,0.904974,0.127336432844019,9.93168014944597,-0.477777352050384,0.025350908,0.033292156,0.007330383,343.00198,-93.45452,-0.3316084,STD
15432135610000,0.910173,0.122621039796382,9.93875313315655,-0.463631175369353,0.005497787,0.028099801,-0.0036651916,342.83377,-93.56919,-0.38093954,STD
15432140435000,0.914998,0.118244857558481,9.94531730826783,-0.45050263094043,0.004276057,0.014660766,0.0012217305,342.65533,-93.69267,-0.42495948,STD
15432145459000,0.920022,0.110636379363896,9.94173137486291,-0.449103702763764,0.025350908,-0.0036651916,-0.003970624,342.46323,-93.827644,-0.4794703,STD
15432150580000,0.925143,0.0945003318951524,9.90945919006361,-0.481375803317614,0.021685716,-0.011301007,-0.002443461,342.26917,-93.95452,-0.5299414,STD
15432155472000,0.930035,0.0820214018661904,9.88867127466693,-0.495909022021626,0.01863139,-0.004276057,0.008857546,342.0647,-94.091064,-0.58229375,STD
15432160430000,0.934993,0.0728532614549141,9.87950342624059,-0.491324954209307,0.01282817,-0.002443461,0.008246681,341.8605,-94.22567,-0.63700163,STD
15432165454000,0.940017,0.0597662806525912,9.87732356793616,-0.492052829928276,0.0143553335,-0.003970624,-0.003970624,341.64352,-94.37595,-0.6970286,STD
15432170478000,0.945041,0.0403243649520154,9.88704421365795,-0.501773775090413,0.0015271631,-0.0076358155,0.0033597588,341.4237,-94.519,-0.75073016,STD
15432175418000,0.949981,0.0232232446691865,9.89651246044371,-0.508794559721939,-0.00580322,-0.006414085,0.012217305,341.20477,-94.66229,-0.8056287,STD
15432180409000,0.954972,0.0090841952473295,9.90593851963846,-0.511936578359901,-0.006414085,0.00580322,0.009162978,340.9805,-94.803246,-0.8606688,STD
15432185422000,0.959985,-0.00511717817518488,9.91540612828266,-0.515092446809532,-0.007941248,-0.007941248,0.014966198,340.77,-94.93938,-0.91003025,STD
15432190485000,0.965048,-0.0194601970537387,9.92496816749384,-0.518279792103862,-0.01985312,-0.014049901,0.02443461,340.5509,-95.07137,-0.95777035,STD
15432195433000,0.969996,-0.0334774313834018,9.93431301640099,-0.521394740655382,-0.016187929,-0.017104227,0.027488936,340.33197,-95.20626,-1.0049918,STD
15432200639000,0.975202,-0.0482255562662284,9.94414512703369,-0.524672109725555,-0.020158553,-0.0143553335,0.030848695,340.11053,-95.33399,-1.048506,STD
15432205895000,0.980458,-0.0610122207286577,9.94497500696702,-0.530275778132838,-0.015882496,-0.017104227,0.042455133,339.88556,-95.46495,-1.0896047,STD
15432210426000,0.984989,-0.0690739973226196,9.93288251927543,-0.538337548834185,-0.018325957,-0.025045475,0.044593163,339.65842,-95.59194,-1.131562,STD
15432215461000,0.990024,-0.0802339130944613,9.91940028082322,-0.548773568122155,-0.022296581,-0.021991149,0.047036625,339.4354,-95.71566,-1.1751326,STD
15432220435000,0.994998,-0.102822607618741,9.90584679125569,-0.566844529025038,-0.025045475,-0.03268129,0.05589417,339.21628,-95.83712,-1.215882,STD
15432225427000,0.99999,-0.125946790781183,9.8926599776435,-0.585090427208459,-0.024740042,-0.03176499,0.051923547,338.98984,-95.95812,-1.2614285,STD
15432230447000,1.00501,-0.159145283573587,9.88851051540786,-0.605839467329305,-0.027488936,-0.02687807,0.055283304,338.7634,-96.07504,-1.3015573,STD
15432235432000,1.009995,-0.192112312770824,9.8843899836858,-0.626443842827795,-0.040927973,-0.04184427,0.04642576,338.54764,-96.18833,-1.3486693,STD
15432240565000,1.015128,-0.208068501463368,9.8693535938192,-0.628591451084047,-0.044593163,-0.040011674,0.04734206,338.32388,-96.30126,-1.3903754,STD
15432245474000,1.020037,-0.217120688956388,9.85124885019736,-0.624065359700587,-0.032986723,-0.043982297,0.043066,338.10336,-96.41412,-1.4356408,STD
15432251477000,1.02604,-0.223958596704647,9.83388102565943,-0.629876504133321,-0.03848451,-0.048563786,0.03756821,337.89163,-96.52195,-1.4835573,STD
15432255660000,1.030223,-0.227552692903284,9.8230988984389,-0.637064677766015,-0.036651913,-0.04734206,0.029321533,337.67706,-96.63396,-1.5322881,STD
15432260483000,1.035046,-0.219407151054626,9.8070952686454,-0.649473165222608,-0.043982297,-0.049785517,0.016798794,337.4638,-96.74052,-1.5844395,STD
15432265527000,1.04009,-0.19500277556994,9.78574132661825,-0.667776466744553,-0.04550946,-0.061391957,0.02107485,337.25113,-96.84707,-1.633187,STD
15432270483000,1.045046,-0.171024170315756,9.76475993552258,-0.68576044024629,-0.035124753,-0.062308256,0.009162978,337.03387,-96.95727,-1.6895255,STD
15432275442000,1.050005,-0.152058421152562,9.75035951206946,-0.704959338126133,-0.04062254,-0.065973446,0.008552114,336.81934,-97.05999,-1.7406213,STD
15432280446000,1.055009,-0.147486113430016,9.75493191050472,-0.727820852867093,-0.041233405,-0.064446285,0.004886922,336.60126,-97.16636,-1.7944626,STD
15432285532000,1.060095,-0.141150135831703,9.75960000489237,-0.745322925048924,-0.051618114,-0.07452556,0.0021380284,336.38034,-97.27326,-1.8418188,STD
15432290467000,1.06503,-0.127276885078278,9.76422451516634,-0.736074097651663,-0.036651913,-0.071776666,0.00580322,336.15384,-97.384995,-1.8865583,STD
15432295450000,1.070013,-0.113783324064891,9.76891218946783,-0.724706821223025,-0.031154128,-0.06536258,0.0030543262,335.92645,-97.49429,-1.9323595,STD
15432300533000,1.075096,-0.10394274036054,9.77383258073483,-0.697645216421388,-0.017715093,-0.06963864,-0.0027488936,335.69986,-97.60793,-1.9769543,STD
15432305417000,1.07998,-0.0944874165730025,9.77856033815131,-0.671643076375903,-0.0143553335,-0.074830994,-0.0036651916,335.4712,-97.71338,-2.0168145,STD
15432310429000,1.084992,-0.0847842874118361,9.78341200075807,-0.644959471562642,-0.009773844,-0.079107046,-0.006414085,335.24185,-97.821434,-2.05769,STD
15432315440000,1.090003,-0.075897032656691,9.78821436111374,-0.618187901490671,-0.00030543262,-0.07452556,-0.0018325958,335.01273,-97.9285,-2.0944011,STD
15432321223000,1.095786,-0.0706519661227389,9.7934589873094,-0.586717499000852,0.015882496,-0.081855945,-0.006414085,334.78644,-98.03757,-2.1338608,STD
15432325456000,1.100019,-0.0647075723624056,9.79800504983812,-0.564798592406553,0.017104227,-0.087964594,-0.0018325958,334.55734,-98.13198,-2.1630046,STD
15432330414000,1.104977,-0.0181248105592073,9.81663853006966,-0.560140319631119,0.015271631,-0.077579886,-0.005497787,334.324,-98.22899,-2.1942463,STD
15432335766000,1.110329,0.0307422383788969,9.83571627482014,-0.554448891510791,0.020158553,-0.0842994,-0.013744468,334.09555,-98.32081,-2.2240446,STD
15432340429000,1.114992,0.0564439071482014,9.83999952546763,-0.541598066071943,0.026267206,-0.07544186,-0.0018325958,333.8593,-98.40923,-2.2469687,STD
15432345438000,1.120001,0.0840526695040767,9.84460059827338,-0.527793694503597,0.013744468,-0.080634214,-0.013439035,333.61993,-98.49295,-2.2705522,STD
15432350511000,1.125074,0.105375586301443,9.85454935595938,-0.507540063682523,0.009468411,-0.08124508,-0.009468411,333.37695,-98.5765,-2.2847955,STD
15432355549000,1.130112,0.125330233747758,9.86527544746531,-0.488749847116964,0.010995574,-0.0729984,-0.0106901415,333.13135,-98.65755,-2.3025806,STD
15432360429000,1.134992,0.136359879098461,9.88071703341829,-0.493161700189748,0.0070249503,-0.06658431,-0.01740966,332.8741,-98.73406,-2.3175437,STD
15432365594000,1.140157,0.148033673819031,9.89706043330501,-0.497831212714529,0.007941248,-0.04886922,-0.013744468,332.61063,-98.805244,-2.3236701,STD
15432370433000,1.144996,0.158970652067403,9.91237228462192,-0.502205998988955,0.00061086525,-0.047647487,-0.011911872,332.349,-98.87184,-2.3316276,STD
15432375386000,1.149949,0.170165290063721,9.92804486151232,-0.50668384904418,-0.004581489,-0.043066,-0.0143553335,332.08398,-98.934906,-2.3376465,STD
15432380422000,1.154985,0.180630145416799,9.935272466072,-0.536437439723904,-0.0143553335,-0.031154128,-0.01160644,331.8163,-98.99238,-2.340373,STD
15432385413000,1.159976,0.190781538377403,9.94034773590315,-0.571967328335988,-0.008552114,-0.026572637,-0.011911872,331.54868,-99.05141,-2.343837,STD
15432390657000,1.16522,0.170658808136495,9.93144624410975,-0.572288698916393,-0.014049901,-0.02076942,0.00061086525,331.2701,-99.10616,-2.337207,STD
15432395430000,1.169993,0.150209914794711,9.92235789979123,-0.570016600974252,-0.0143553335,-0.02443461,-0.0021380284,330.99188,-99.16331,-2.334347,STD
15432400584000,1.175147,0.128128708785168,9.91254408738443,-0.567563135063128,-0.005497787,-0.013439035,0.0076358155,330.70877,-99.22505,-2.3199139,STD
15432405387000,1.17995,0.107551286886867,9.90339861959439,-0.565276756178547,-0.016493361,-0.0067195175,0.012217305,330.42728,-99.27993,-2.3073661,STD
15432410439000,1.185002,0.101179809621166,9.8940881341066,-0.531711070892446,-0.019242255,-0.007941248,0.012217305,330.14493,-99.3373,-2.2925675,STD
15432415405000,1.189968,0.0966209073726994,9.88497063046396,-0.495239890035468,-0.021991149,-0.0143553335,0.016187929,329.8624,-99.38923,-2.2746975,STD
15432420463000,1.195026,0.0629696125692068,9.82586740497667,-0.48431734624676,-0.026572637,-0.012217305,0.0067195175,329.56903,-99.44628,-2.2695544,STD
15432425374000,1.199937,0.0239593933934681,9.75759915863141,-0.479441072032141,-0.016798794,-0.018325957,0.011911872,329.28067,-99.503296,-2.2590067,STD
15432430444000,1.205007,-0.000151326118284426,9.73760620541761,-0.459535403431151,-0.023823744,-0.01985312,0.0070249503,328.99045,-99.546875,-2.2532744,STD
15432435387000,1.20995,-0.0215229541148533,9.72478341625282,-0.438163768293454,-0.028710667,-0.017715093,0.0033597588,328.70123,-99.59151,-2.245028,STD
15432440429000,1.214992,-0.0255340473486946,9.72365543740111,-0.424563552027294,-0.021380283,-0.023518313,0.0033597588,328.42386,-99.63595,-2.242528,STD
15432445414000,1.219977,-0.0208128865585443,9.72837669382911,-0.415121226503165,-0.017715093,-0.018936822,0.004276057,328.1429,-99.67652,-2.239278,STD
15432450617000,1.22518,-0.015786020668331,9.74182246255349,-0.426956851223252,-0.016187929,-0.015577064,0.004276057,327.86768,-99.71273,-2.2395482,STD
15432455505000,1.230068,-0.0110161579603627,9.75851682040962,-0.448421235152333,-0.015882496,-0.008857546,-0.015882496,327.58936,-99.7493,-2.2439148,STD
15432460600000,1.235163,-0.00604429820236397,9.77591816109639,-0.470794605880375,-0.01160644,-0.009162978,-0.005497787,327.31293,-99.78189,-2.2379286,STD
15432465454000,1.240017,-0.00130761375382107,9.79249639616874,-0.492109687629916,-0.016798794,0.004581489,0.0009162979,327.02966,-99.81198,-2.2367334,STD
15432470443000,1.245006,0.00342253256383135,9.8193195526174,-0.504839019058812,-0.01740966,0.013133603,0.00030543262,326.74835,-99.84277,-2.2338924,STD
15432475401000,1.249964,0.00807282482238872,9.84954657587777,-0.514139608917291,-0.022907447,0.024740042,0.00030543262,326.606002452414,-99.8568860448808,-2.22945851156081,STD
15432480425000,1.254988,0.0127850209311003,9.88017597580922,-0.523564006547182,-0.0125227375,0.029932396,0.007941248,326.46176,-99.87119,-2.2249656,STD
15432485475000,1.260038,0.0175216034050242,9.9109638877626,-0.533037176935508,-0.021685716,0.031154128,0.013439035,326.17587,-99.90132,-2.2148254,STD
15432490496000,1.265059,0.00999104486110031,9.92768018361198,-0.521030246651439,-0.028099801,0.032986723,0.014966198,325.88782,-99.93135,-2.2011874,STD
15432495414000,1.269977,-0.00374303469547045,9.93683594313764,-0.498140106886664,-0.027488936,0.035430185,0.01038471,325.59958,-99.95928,-2.1869907,STD
15432500632000,1.275195,-0.000967585844186937,9.94646459643746,-0.499896118133499,-0.025045475,0.035124753,0.024129177,325.30838,-99.985725,-2.1655793,STD
15432505452000,1.280015,0.0122943016505459,9.95530603294388,-0.517578644948286,-0.039095376,0.03726278,0.02107485,325.01526,-100.00752,-2.1493344,STD
15432510424000,1.284987,0.0203489066227973,9.96824603063639,-0.536286739983889,-0.03359759,0.046120327,0.024129177,324.72375,-100.02783,-2.1287816,STD
15432515468000,1.290031,0.0227809582522405,9.98527035598127,-0.555743150987816,-0.042760566,0.036957346,0.024129177,324.43695,-100.03919,-2.110155,STD
15432520431000,1.294994,0.0251739543341053,10.0020212930722,-0.574887117643742,-0.03481932,0.03268129,0.022602014,324.1511,-100.05608,-2.0865083,STD
15432525427000,1.29999,0.0275828619353539,10.0188836105629,-0.594158376441446,-0.043982297,0.02443461,0.03359759,323.87006,-100.063675,-2.0595624,STD
15432530411000,1.304974,0.0122867469792766,10.0034256776564,-0.60568793449887,-0.043066,0.017104227,0.032986723,323.59805,-100.074066,-2.0332563,STD
15432535474000,1.310037,-0.0196849567472683,9.95775208567257,-0.610255317543331,-0.0421497,0.012217305,0.02687807,323.32843,-100.08051,-2.005449,STD
15432540377000,1.31494,-0.0493615221164714,9.9090403470513,-0.596334200307177,-0.0290161,0.009468411,0.0290161,323.0563,-100.09643,-1.9761077,STD
15432545415000,1.319978,-0.077862821398346,9.85203758678744,-0.553582259072561,-0.027794369,-0.00061086525,0.027488936,322.7878,-100.1086,-1.9498181,STD
15432550440000,1.325003,-0.10613744146774,9.81277047142718,-0.531909084583293,-0.032986723,0.0021380284,0.029321533,322.5225,-100.12341,-1.9274007,STD
15432555496000,1.330059,-0.134324308390802,9.80337466042495,-0.546002506762394,-0.035124753,-0.00061086525,0.028099801,322.26196,-100.138405,-1.9067022,STD
15432560381000,1.334944,-0.151842499715116,9.79291383139535,-0.542977108883721,-0.0290161,-0.0021380284,0.02565634,322.01038,-100.144325,-1.8895298,STD
15432565456000,1.340019,-0.147132973479651,9.77878546414729,-0.500591377682171,-0.02565634,0.00580322,0.02107485,321.7574,-100.14806,-1.8725395,STD
15432570398000,1.344961,-0.1384472184744,9.75897424203706,-0.47655035735329,-0.029626964,0.0106901415,0.021380283,321.5136,-100.1516,-1.8598367,STD
15432576246000,1.350809,-0.112890419849959,9.71297214584284,-0.512329891225701,-0.02443461,0.02443461,0.02076942,321.26547,-100.157974,-1.847326,STD
15432580447000,1.35501,-0.0951647972477407,9.6832378769087,-0.536180546730179,-0.0290161,0.027794369,0.018020526,321.02155,-100.15019,-1.8339336,STD
15432585553000,1.360116,-0.0842804154914304,9.70282970551574,-0.534003671833682,-0.045814894,0.02687807,0.014049901,320.77548,-100.13975,-1.8201213,STD
15432590501000,1.365064,-0.0737328399077594,9.72181528482393,-0.531894158126697,-0.03573562,0.02687807,0.009468411,320.52618,-100.1428,-1.8029929,STD
15432595431000,1.369994,-0.0632236346475538,9.74073179775631,-0.529792318479277,-0.027794369,0.02321288,0.005497787,320.27872,-100.139915,-1.7866229,STD
15432600563000,1.375126,-0.0522838290906825,9.7604233889062,-0.527604358830076,-0.0290161,0.035430185,0.004886922,320.02884,-100.13494,-1.7701763,STD
15432605419000,1.379982,-0.0504020137248328,9.75323506968641,-0.536796318485733,-0.027794369,0.038789943,-0.0033597588,319.78275,-100.13265,-1.7571723,STD
15432610454000,1.385017,-0.0549428582751672,9.72598993031359,-0.554959681514267,-0.024129177,0.04917465,0.008857546,319.53305,-100.12892,-1.7371662,STD
15432615478000,1.390041,-0.0679369404979416,9.6878345544011,-0.556650726602627,-0.02076942,0.06811147,0.0033597588,319.27603,-100.12359,-1.7188239,STD
15432620519000,1.395082,-0.0915973448931582,9.63578160939032,-0.537722418898255,-0.022602014,0.06047566,-0.01863139,319.0243,-100.117226,-1.7022258,STD
15432625406000,1.399969,-0.0898462631304887,9.68303002365947,-0.53253637677446,-0.013744468,0.063224554,-0.01282817,318.76743,-100.11756,-1.6788154,STD
15432630476000,1.405039,-0.0497145023907428,9.88368867021386,-0.54758577526604,-0.016798794,0.044593163,-0.011301007,318.5185,-100.1144,-1.6637949,STD
15432635414000,1.409977,-0.0341573879249715,9.98318203592844,-0.564137945914565,-0.015577064,0.021991149,-0.015271631,318.27423,-100.11206,-1.6527799,STD
15432640451000,1.415014,-0.0461100059564894,9.97122942638386,-0.583262128674364,-0.00580322,0.009468411,-0.02076942,318.0334,-100.11047,-1.6417035,STD
15432645708000,1.420271,-0.058584675996531,9.95875476520145,-0.603221594381783,-0.0076358155,0.005192355,-0.013133603,317.78595,-100.10245,-1.6220468,STD
15432650605000,1.425168,-0.0702050791135339,9.9471343703355,-0.621814233447644,-0.0036651916,0.010079277,-0.012217305,317.54004,-100.098564,-1.6055726,STD
15432655479000,1.430042,-0.0786969514747323,9.93343632787952,-0.623739241188332,-0.009162978,-0.002443461,-0.00580322,317.29556,-100.090866,-1.5887262,STD
15432660421000,1.434984,-0.0834331238263785,9.91685988166717,-0.604794554254478,0.006414085,0.007330383,-0.008552114,317.04437,-100.089775,-1.5724233,STD
15432665407000,1.43997,-0.0882114636372461,9.90013585074552,-0.585681197505754,-0.004581489,0.00580322,-0.005192355,316.80887,-100.08576,-1.5572528,STD
15432670433000,1.444996,-0.0930281375019514,9.88327765190633,-0.566414504561693,-0.015271631,-0.0009162979,-0.009162978,316.5729,-100.085686,-1.5443015,STD
15432675387000,1.44995,-0.0977275746475242,9.86193091483543,-0.543697745526907,-0.004581489,0.0027488936,-0.008857546,316.3322,-100.08852,-1.5291294,STD
15432680412000,1.454975,-0.102427594219748,9.83373074636195,-0.515497650669011,-0.005497787,0.0015271631,0.003970624,316.0966,-100.08383,-1.5117269,STD
15432685392000,1.459955,-0.0966271928115828,9.81797057239288,-0.485789189028566,0.0015271631,0.004886922,0.004886922,315.86026,-100.07775,-1.4983559,STD
15432690464000,1.465027,-0.0728678648053219,9.82272253326159,-0.452526132796909,-0.007941248,0.00061086525,0.01038471,315.62857,-100.065285,-1.4802206,STD
15432695404000,1.469967,-0.0559085810162969,9.82425170989594,-0.427851781384253,-0.002443461,0.01038471,0.00580322,315.38254,-100.05742,-1.4661149,STD
15432700611000,1.475174,-0.0510129949907717,9.81935602572158,-0.418060607288435,-0.003970624,0.004276057,0.004276057,315.144,-100.0438,-1.4502636,STD
15432705509000,1.480072,-0.0471439097332021,9.82214794412995,-0.414023047186808,-0.008552114,0.00580322,-0.0018325958,314.8976,-100.02395,-1.4311655,STD
15432710455000,1.485018,-0.0448122888850603,9.8408008037903,-0.42101791094856,-0.014660766,0.0033597588,0.0106901415,314.65634,-100.00195,-1.4074781,STD
15432715741000,1.490304,-0.0423203867816884,9.86073590612848,-0.428493618559685,-0.02107485,0.003970624,0.01740966,314.42035,-99.974365,-1.3851726,STD
15432720434000,1.494997,-0.0401080340440561,9.87843462638445,-0.43513067792764,-0.015577064,0.00580322,0.01038471,314.18588,-99.94814,-1.3631476,STD
15432725436000,1.499999,-0.0388694492861826,9.89396546746796,-0.44559310380451,-0.022296581,0.014966198,0.009773844,313.951,-99.915825,-1.3369718,STD
15432730406000,1.504969,-0.0412334465470349,9.89869355825966,-0.466869092728718,-0.025961773,0.015577064,0.007330383,313.7188,-99.885994,-1.3135277,STD
15432735419000,1.509982,-0.0436178969029006,9.9034625560743,-0.488329159625509,-0.03604105,0.020158553,0.0125227375,313.47507,-99.85481,-1.2895529,STD
15432740426000,1.514989,-0.0459994933385318,9.90822584593225,-0.509763541223801,-0.041233405,0.016798794,0.004581489,313.23407,-99.82424,-1.2701863,STD
15432745446000,1.520009,-0.0468845982172026,9.91099554586703,-0.523726094999014,-0.032070424,0.021991149,0.01038471,312.99167,-99.79394,-1.2447342,STD
15432750499000,1.525062,-0.0421113100277175,9.9062221604853,-0.509406212985796,-0.03634648,0.022296581,0.013439035,312.75253,-99.75854,-1.2225721,STD
15432755434000,1.529997,-0.0409001326837293,9.90328231925256,-0.500586858120465,-0.04520403,0.025961773,0.013744468,312.51364,-99.73229,-1.2002801,STD
15432760422000,1.534985,-0.0551439802062419,9.90803036378094,-0.514830719028924,-0.048258353,0.014966198,0.0067195175,312.28018,-99.706245,-1.1798072,STD
15432765427000,1.53999,-0.0678264053054221,9.91120622855182,-0.525146885106383,-0.04520403,0.017715093,0.009773844,312.04288,-99.676094,-1.1545304,STD
15432770435000,1.544998,-0.0725288893167958,9.90650364829885,-0.515741891550152,-0.044593163,0.015577064,0.01282817,311.81125,-99.64437,-1.1319145,STD
15432775438000,1.550001,-0.0749861303609179,9.90078970027816,-0.503228544687065,-0.03145956,0.021991149,0.011911872,311.5948,-99.61604,-1.1080862,STD
15432780444000,1.555007,-0.062484001316064,9.88828775486787,-0.469889542023644,-0.031154128,0.022907447,0.0070249503,311.3816,-99.58413,-1.0849396,STD
15432785404000,1.559967,-0.0500967540003477,9.8759006894993,-0.436856890563282,-0.035430185,0.022907447,0.013439035,311.16895,-99.55244,-1.0594345,STD
15432790507000,1.56507,-0.0436396403357856,9.84822157467157,-0.422467512239622,-0.029321533,0.023518313,0.008552114,310.95633,-99.52416,-1.0384299,STD
15432795417000,1.56998,-0.0386977472669469,9.81857012853389,-0.412583720941671,-0.031154128,0.03268129,0.009468411,310.7431,-99.491905,-1.0136205,STD
15432800592000,1.575155,-0.0112152299678913,9.81171157608588,-0.393741352102827,-0.03359759,0.03481932,0.016187929,310.52353,-99.45589,-0.9872536,STD
15432805449000,1.580012,0.0162729316333103,9.8071301234118,-0.375415914543485,-0.032986723,0.028099801,0.014966198,310.30496,-99.42034,-0.96288687,STD
15432810455000,1.585018,0.0233356781466304,9.81919644659157,-0.386041653313265,-0.028405234,0.028710667,0.018936822,310.085,-99.38384,-0.9339691,STD
15432815390000,1.589953,0.0279250680873956,9.83296489531948,-0.399809824093999,-0.023823744,0.021991149,0.013133603,309.86984,-99.347786,-0.90890235,STD
15432820437000,1.595,0.0246932526390401,9.84345507672918,-0.414337382925993,-0.01740966,0.033292156,0.014966198,309.64722,-99.30971,-0.87447405,STD
15432825376000,1.599939,0.0199241616091954,9.85299295402299,-0.428644657011494,-0.028405234,0.03176499,0.014966198,309.43115,-99.26816,-0.84329927,STD
15432830408000,1.604971,0.0153462711983099,9.86595625859155,-0.438570991964319,-0.02565634,0.0421497,0.020158553,309.21005,-99.23446,-0.80850255,STD
15432835392000,1.609955,0.0108645053684507,9.87940182704225,-0.447534531111737,-0.026267206,0.05131268,0.024129177,308.99115,-99.19668,-0.77441335,STD
15432840449000,1.615012,0.0130452779136777,9.91794950269757,-0.422362157620142,-0.026572637,0.05497787,0.020158553,308.77325,-99.16225,-0.74212927,STD
15432845433000,1.619996,0.0178140666126486,9.96563710585473,-0.384211841057049,-0.024740042,0.052534413,0.013133603,308.55603,-99.12813,-0.70973617,STD
15432850500000,1.625063,0.0104991336077678,9.97383979737789,-0.399458897200453,-0.02687807,0.051923547,0.021380283,308.3404,-99.09172,-0.67783856,STD
15432855441000,1.630004,-0.00116211199300113,9.96684303063236,-0.434442628645079,-0.032986723,0.058643065,0.019242255,308.12424,-99.05501,-0.65079087,STD
15432860437000,1.635,-0.0129531629991621,9.95976838042782,-0.469815776246242,-0.031154128,0.0580322,0.0143553335,307.90982,-99.01101,-0.62129635,STD
15432865458000,1.640021,-0.0248032164623195,9.95265832865099,-0.505365931191286,-0.02565634,0.06688975,0.01863139,307.6927,-98.966354,-0.5892731,STD
15432870462000,1.645025,-0.0347616318487791,9.95934884359385,-0.50810073104365,-0.032070424,0.059253927,0.03023783,307.486,-98.92001,-0.5538891,STD
15432875454000,1.650017,-0.0437759460850382,9.97287035354012,-0.494579272866975,-0.03848451,0.055283304,0.025045475,307.27664,-98.8756,-0.52177906,STD
15432880445000,1.655008,-0.056054903848377,9.95996717539267,-0.496588012747644,-0.041233405,0.047647487,0.03726278,307.07922,-98.84381,-0.48782995,STD
15432885511000,1.660074,-0.0712955654035602,9.92440571204188,-0.511828657327749,-0.03634648,0.042455133,0.040011674,306.88306,-98.81256,-0.45833784,STD
15432890477000,1.66504,-0.0858802771492537,9.89964064481646,-0.529501979035902,-0.050701816,0.042760566,0.04337143,306.69156,-98.769615,-0.42903718,STD
15432895459000,1.670022,-0.100315027283582,9.88039442920532,-0.548748325276321,-0.051618114,0.046120327,0.04062254,306.50192,-98.732056,-0.40101045,STD
15432901512000,1.676075,-0.109383864525205,9.88176571600235,-0.54737683094959,-0.048258353,0.044898596,0.054367006,306.31824,-98.69518,-0.37063083,STD
15432905471000,1.680034,-0.11308790430637,9.88917356350137,-0.539968751387261,-0.06078109,0.04886922,0.05222898,306.1327,-98.65383,-0.34538424,STD
15432910456000,1.685019,-0.141101874949292,9.88702336519731,-0.559572480349433,-0.06963864,0.040927973,0.058337633,305.9557,-98.61847,-0.3176156,STD
15432915451000,1.690014,-0.184331651402751,9.8774170558289,-0.597998941620645,-0.070554934,0.04734206,0.06047566,305.7746,-98.58194,-0.29103562,STD
15432920461000,1.695024,-0.192335470857541,9.88831710505372,-0.607063997978512,-0.08093964,0.04550946,0.060170226,305.5942,-98.540535,-0.26455975,STD
15432925461000,1.700024,-0.178044573523677,9.91213525069638,-0.597536739721448,-0.07574729,0.054367006,0.061391957,305.41028,-98.50348,-0.23663257,STD
15432930432000,1.704995,-0.171440808157332,9.91968853698162,-0.598470595280034,-0.08582657,0.056505036,0.06505715,305.23572,-98.46715,-0.21648334,STD
15432935464000,1.710027,-0.169855960668267,9.9165187758082,-0.606394826105831,-0.10140363,0.054367006,0.06261369,305.06088,-98.430786,-0.19768485,STD
15432940444000,1.715007,-0.168287490776466,9.91338177051337,-0.614237169013714,-0.101098195,0.062308256,0.07391469,304.88226,-98.39367,-0.1709001,STD
15432945465000,1.720028,-0.16670610777913,9.91021893846812,-0.622144077395337,-0.11484267,0.06169739,0.07391469,304.70724,-98.348404,-0.14868483,STD
15432950564000,1.725127,-0.165100158385898,9.90700697260499,-0.63017381765383,-0.11453723,0.063224554,0.076052725,304.5311,-98.30741,-0.122547336,STD
15432955576000,1.730139,-0.163521609972704,9.90384980984642,-0.638066553126583,-0.10629055,0.061086524,0.07788532,304.3573,-98.265076,-0.096975066,STD
15432960454000,1.735017,-0.155413844039506,9.89995399160494,-0.653965810419753,-0.11026118,0.06383542,0.080634214,304.17795,-98.22162,-0.07036633,STD
15432965461000,1.740024,-0.141206119304691,9.89521798775309,-0.677645384612346,-0.12614368,0.056505036,0.06780604,304.00272,-98.17732,-0.048470438,STD
15432971074000,1.745637,-0.128128162379808,9.89581462780449,-0.692503665705128,-0.12644911,0.06352998,0.077579886,303.82568,-98.14145,-0.018429557,STD
15432975443000,1.750006,-0.119746535198317,9.90000552453926,-0.696694474919872,-0.12705997,0.06566802,0.07849618,303.6525,-98.10118,0.00469917,STD
15432980429000,1.754992,-0.106716309076283,9.94110038626907,-0.68621274757975,-0.12492194,0.08368854,0.074830994,303.47772,-98.06626,0.033466224,STD
15432985449000,1.760012,-0.0900465551155142,10.0196862134932,-0.660017423763622,-0.13713925,0.077579886,0.0870483,303.3111,-98.027245,0.0656979,STD
15432990551000,1.765114,-0.073104506368932,10.0995557135922,-0.633394208203883,-0.14905111,0.12003502,0.086132,303.1254,-97.98996,0.0970946,STD
15432995433000,1.769996,-0.0568930046086784,10.175981213295,-0.607918994883099,-0.15210545,0.12675454,0.07391469,302.95288,-97.9519,0.1265618,STD
15433000556000,1.775119,-0.0292126972523005,10.1647720465163,-0.598429870518758,-0.14019357,0.0852157,0.07086037,302.7837,-97.91497,0.1576307,STD
15433005559000,1.780122,0.0095477540932349,10.0533360268986,-0.608119976778238,-0.12950343,0.058643065,0.08368854,302.6099,-97.877106,0.19017331,STD
15433010333000,1.784896,0.0112572152862247,9.9828970930925,-0.623836399217944,-0.11636983,0.04428773,0.086132,302.43774,-97.829765,0.22405468,STD
15433015362000,1.789925,-0.0269815777971417,9.94943847131798,-0.647735658620484,-0.12156218,0.05131268,0.089186326,302.2688,-97.78088,0.26101148,STD
15433020334000,1.794897,-0.0648967120653281,9.92051608300869,-0.669306033593048,-0.12675454,0.045814894,0.09315695,302.1074,-97.74055,0.30293223,STD
15433025357000,1.79992,-0.103337869046049,9.89649037808411,-0.688526597532714,-0.129198,0.046120327,0.083383106,301.9433,-97.69978,0.34161732,STD
15433030322000,1.804885,-0.130753504745176,9.86658484166254,-0.694936893072736,-0.124311075,0.038179077,0.089186326,301.78726,-97.666306,0.37778565,STD
15433035366000,1.809929,-0.145094547642751,9.82834178772885,-0.685376204463137,-0.118507855,0.04734206,0.09162979,301.62708,-97.63247,0.4104176,STD
15433040361000,1.814924,-0.159083079414685,9.79299040313186,-0.676050523107037,-0.1151481,0.043676864,0.09101892,301.47906,-97.60312,0.4355516,STD
15433045353000,1.819916,-0.172777556321016,9.76103693192018,-0.66692087819154,-0.10842858,0.03848451,0.083383106,301.33,-97.576355,0.45926854,STD
15433050374000,1.824937,-0.191624872883163,9.74012166992448,-0.658256134713461,-0.10873401,0.029626964,0.08032878,301.19037,-97.547005,0.4828215,STD
15433055391000,1.829954,-0.220592631930253,9.74164616037317,-0.650633036121724,-0.106901415,0.02687807,0.0870483,301.05167,-97.52034,0.5067435,STD
15433060350000,1.834913,-0.249225503589516,9.74315302665482,-0.643098065837406,-0.1020145,0.025961773,0.087964594,300.91675,-97.493065,0.5251635,STD
15433065381000,1.839944,-0.278274097523323,9.74468177121279,-0.635453694895602,-0.09193522,0.014966198,0.08002335,300.7864,-97.46788,0.5422927,STD
15433070374000,1.844937,-0.307103282478898,9.74619896890271,-0.627867063189693,-0.087659165,0.010079277,0.08002335,300.6601,-97.44175,0.56263393,STD
15433075758000,1.850321,-0.33819007034207,9.74783497778765,-0.619686325135495,-0.08552113,0.0012217305,0.0729984,300.5385,-97.41764,0.5780111,STD
15433080586000,1.855149,-0.36356535278326,9.75007226711955,-0.612385679728269,-0.089186326,0.002443461,0.070249505,300.41357,-97.394455,0.5948416,STD
15433085429000,1.859992,-0.358965710711559,9.76157136029157,-0.605486223825061,-0.089491755,0.0018325958,0.065973446,300.29242,-97.37264,0.6087349,STD
15433090431000,1.864994,-0.354215058297218,9.77344797892597,-0.598360252644419,-0.08979719,-0.0067195175,0.06352998,300.1804,-97.34308,0.60608643,STD
15433095413000,1.869976,-0.349483400894531,9.78527711008082,-0.591262773951505,-0.082161374,-0.02076942,0.06352998,300.07092,-97.315865,0.6029938,STD
15433100575000,1.875138,-0.345102104793179,9.79741007148041,-0.584016707075472,-0.08032878,-0.024740042,0.057726767,299.96155,-97.286934,0.5979256,STD
15433105423000,1.879986,-0.353525249727866,9.80583338352685,-0.579805121415094,-0.07880162,-0.025045475,0.04734206,299.85577,-97.2602,0.59148604,STD
15433110384000,1.884947,-0.362144726217344,9.81445303102322,-0.575495369669811,-0.07849618,-0.029626964,0.038789943,299.7511,-97.23059,0.5858082,STD
15433115442000,1.890005,-0.343666397813864,9.80947610965601,-0.55773152659333,-0.07880162,-0.029932396,0.028710667,299.64563,-97.20122,0.5772,STD
15433120409000,1.894972,-0.318748640499389,9.8011700228741,-0.536966743286188,-0.076052725,-0.040317107,0.029626964,299.54526,-97.1731,0.5691297,STD
15433125424000,1.899987,-0.295855962069486,9.79442275830816,-0.518772996865559,-0.07360926,-0.03634648,0.022602014,299.44873,-97.141365,0.5559981,STD
15433130427000,1.90499,-0.275177172507553,9.78925349546828,-0.503263885800604,-0.070249505,-0.040317107,0.024129177,299.3584,-97.11124,0.5453254,STD
15433135425000,1.909988,-0.249116260576537,9.79066912213741,-0.478959610576537,-0.0720821,-0.05467244,0.018325957,299.2663,-97.0761,0.53554577,STD
15433140436000,1.914999,-0.220195376752712,9.79548886259542,-0.450038726752712,-0.057421334,-0.062002823,0.016493361,299.1742,-97.047165,0.52778476,STD
15433145743000,1.920306,-0.193436791760189,9.8143259474306,-0.447434289781453,-0.054061573,-0.058948494,0.017104227,299.08133,-97.01248,0.5228462,STD
15433150599000,1.925162,-0.170545981592833,9.83721674325655,-0.456590622453239,-0.05955936,-0.06352998,0.021685716,298.99347,-96.97987,0.51831937,STD
15433155457000,1.93002,-0.154318806183522,9.85344408514742,-0.442712899413061,-0.04337143,-0.06658431,0.01985312,298.90057,-96.949486,0.5180223,STD
15433160432000,1.934995,-0.141189951632222,9.8665732047396,-0.416455185740792,-0.03481932,-0.06780604,0.025961773,298.80957,-96.91606,0.5213368,STD
15433165412000,1.939975,-0.135199665744834,9.87706105027244,-0.396604048927727,-0.034208454,-0.0693332,0.025961773,298.71844,-96.88694,0.5266304,STD
15433170445000,1.945008,-0.137677307073096,9.88449387077208,-0.384215837112162,-0.03145956,-0.09040806,0.01740966,298.63382,-96.86106,0.53052884,STD
15433175422000,1.949985,-0.140127380764881,9.89184398951372,-0.371965463536548,-0.027794369,-0.0852157,0.020463986,298.54004,-96.83105,0.54222596,STD
15433180417000,1.95498,-0.142586315482677,9.8992206909633,-0.359670784812378,-0.033292156,-0.09132435,0.02443461,298.4558,-96.79939,0.55064297,STD
15433185419000,1.959982,-0.140980577718781,9.89440354473943,-0.343655759716814,-0.024129177,-0.09285152,0.02107485,298.3693,-96.77319,0.55815643,STD
15433190477000,1.96504,-0.136217602851524,9.88011481907571,-0.324603840353982,-0.032986723,-0.101098195,0.01740966,298.28717,-96.74072,0.56622505,STD
15433195473000,1.970036,-0.131585713680138,9.86870872857552,-0.313545036279736,-0.02443461,-0.1151481,0.015271631,298.2049,-96.7106,0.5714299,STD
15433200667000,1.97523,-0.126833449312124,9.85920401127353,-0.308792776873985,-0.018325957,-0.115453534,0.015271631,298.12158,-96.6777,0.57644874,STD
15433205445000,1.980008,-0.114097449393443,9.84829346721311,-0.304377613442623,-0.018936822,-0.118507855,0.014966198,298.0403,-96.64593,0.58603364,STD
15433210436000,1.984999,-0.090776877215847,9.83430132923497,-0.299713502513661,-0.02107485,-0.11789699,0.018936822,297.95877,-96.61594,0.59687877,STD
15433215396000,1.989959,-0.0659045683703078,9.82758892376443,-0.294203548615875,-0.029626964,-0.11881329,0.013744468,297.88263,-96.581696,0.605318,STD
15433220435000,1.994998,-0.0379278375833615,9.83225156287743,-0.287209365979999,-0.01863139,-0.12095132,0.017715093,297.80753,-96.55319,0.61736363,STD
15433225374000,1.999937,-0.0105063108207643,9.83682167095029,-0.280353984349002,-0.01863139,-0.12064589,0.01863139,297.73053,-96.52061,0.63366324,STD
15433230415000,2.004978,0.0174815240466689,9.84148616068409,-0.273357025693029,-0.023518313,-0.13164146,0.009773844,297.65768,-96.48996,0.64763355,STD
15433235394000,2.009957,0.041875646080004,9.84852549074543,-0.265771652125013,-0.02321288,-0.12217305,0.016493361,297.57993,-96.46165,0.6667304,STD
15433240434000,2.014997,0.0565212748774148,9.86317141367452,-0.256007892116921,-0.024740042,-0.12370021,0.018936822,297.50845,-96.431465,0.68120956,STD
15433245465000,2.020028,0.0737061824351514,9.87502173350429,-0.255665505220436,-0.03176499,-0.12003502,0.018325957,297.42484,-96.40004,0.7078613,STD
15433250599000,2.025162,0.097952815241148,9.87987115829963,-0.279912148153664,-0.035124753,-0.11881329,0.019547688,297.34305,-96.36979,0.7351261,STD
15433255515000,2.030078,0.117387883334307,9.88079874773723,-0.291948612043796,-0.030543262,-0.11301007,0.022296581,297.2576,-96.33858,0.76513195,STD
15433260435000,2.034998,0.126559251743066,9.87162719737226,-0.273605870437956,-0.03145956,-0.11148291,0.029321533,297.17377,-96.30561,0.7960807,STD
15433265413000,2.039976,0.133189529344936,9.86056793957763,-0.255030689229566,-0.03359759,-0.121256754,0.032986723,297.09186,-96.27932,0.8302658,STD
15433270450000,2.045013,0.128473221956394,9.84170282821666,-0.236165469524834,-0.028099801,-0.105068825,0.030543262,297.00278,-96.25538,0.86485773,STD
15433275412000,2.049975,0.126310568742083,9.82761605225194,-0.221474603545918,-0.040317107,-0.09987647,0.037873644,296.91382,-96.22765,0.90757036,STD
15433280428000,2.054991,0.138987538017241,9.8402928362069,-0.22992592375,-0.041233405,-0.0983493,0.036957346,296.8217,-96.20461,0.94680303,STD
15433285484000,2.060047,0.151765599551372,9.853070710943,-0.238444638852041,-0.04886922,-0.090713486,0.04153884,296.72522,-96.17376,0.9878888,STD
15433290488000,2.065051,0.148764373100506,9.86792787642225,-0.234955638438685,-0.044593163,-0.08979719,0.032986723,296.63055,-96.14584,1.0240296,STD
15433295797000,2.07036,0.143188860581651,9.88303337557466,-0.229959170035978,-0.04428773,-0.077579886,0.04337143,296.53195,-96.116295,1.0666451,STD
15433300663000,2.075226,0.133874302690386,9.87837600179892,-0.232287813156106,-0.048258353,-0.07849618,0.03940081,296.43973,-96.08861,1.1063168,STD
15433305641000,2.080204,0.124345353002199,9.87361142994203,-0.234670054309414,-0.047036625,-0.08399397,0.036957346,296.34637,-96.06213,1.1478387,STD
15433310446000,2.085009,0.115147562071757,9.8690124408355,-0.236969505643614,-0.041233405,-0.08032878,0.036957346,296.25134,-96.03624,1.1883264,STD
15433315780000,2.090343,0.104581173523961,9.86296543719581,-0.239038326462935,-0.04550946,-0.084910266,0.03970624,296.15085,-96.01234,1.228654,STD
15433320461000,2.095024,0.0877975584331711,9.8377899466492,-0.230646512345563,-0.039095376,-0.083383106,0.035430185,296.04828,-95.992905,1.2664527,STD
15433325456000,2.100019,0.069888103748596,9.81092569215649,-0.221691777990453,-0.04428773,-0.093767814,0.032070424,295.95343,-95.969696,1.3005009,STD
15433330939000,2.105502,0.0604388443058155,9.8044503539268,-0.209268542423693,-0.035124753,-0.092240654,0.034513887,295.85565,-95.9526,1.3346969,STD
15433335397000,2.10996,0.0541637854780266,9.80235862564304,-0.198810112864142,-0.038179077,-0.090713486,0.0290161,295.76138,-95.93018,1.3647343,STD
15433340451000,2.115014,0.0470497999877517,9.79998724952232,-0.18695347244378,-0.027183503,-0.090713486,0.030848695,295.6722,-95.912224,1.394104,STD
15433345452000,2.120015,0.040010417036255,9.79764074141394,-0.17522116956641,-0.032375857,-0.098043874,0.019547688,295.58487,-95.8879,1.4174924,STD
15433350549000,2.125112,0.0346896325524295,9.79888183377065,-0.17419131788484,-0.03176499,-0.108123146,0.018936822,295.49945,-95.869286,1.4438602,STD
15433355393000,2.129956,0.0301813671796404,9.80113601200194,-0.176445451395044,-0.021380283,-0.1001819,0.022602014,295.4115,-95.851685,1.4681048,STD
15433360439000,2.135002,0.0254851023012148,9.80348419188532,-0.17879358469242,-0.018020526,-0.10873401,0.01863139,295.3308,-95.8268,1.4864962,STD
15433365518000,2.140081,0.0207581246322643,9.80584772847425,-0.181157074390671,-0.014966198,-0.10354166,0.019547688,295.24487,-95.80559,1.507583,STD
15433370466000,2.145029,0.0221486302522068,9.80964507692308,-0.172974280617907,-0.005192355,-0.110872045,0.016798794,295.16568,-95.78433,1.5223072,STD
15433375452000,2.150015,0.0267805009201668,9.81427704142012,-0.159078667646716,-0.012217305,-0.12980886,0.01740966,295.0891,-95.759865,1.537829,STD
15433380427000,2.15499,0.0343445452282919,9.80920934896046,-0.151825378326539,-0.004276057,-0.121256754,0.018936822,295.00854,-95.74255,1.5513939,STD
15433385475000,2.160038,0.0441985452812882,9.79689185854056,-0.1493618776702,-0.0067195175,-0.12492194,0.01863139,294.9374,-95.7206,1.5635644,STD
15433390501000,2.165064,0.0540096000091724,9.78462804973502,-0.146909113347941,-0.0143553335,-0.13652839,0.016798794,294.8683,-95.69589,1.5762718,STD
15433395501000,2.170064,0.0637699011710151,9.77242768283734,-0.144469037420505,-0.007330383,-0.13469578,0.013439035,294.7969,-95.67471,1.5885282,STD
15433400639000,2.175202,0.077045410559103,9.77501480089497,-0.146988021347479,-0.009162978,-0.13958271,0.01282817,294.7313,-95.649414,1.6003696,STD
15433405459000,2.180022,0.0909707586811806,9.78429831137815,-0.151629805670471,0.006414085,-0.1255328,0.01740966,294.6603,-95.63128,1.6131364,STD
15433410434000,2.184997,0.105343913641209,9.79388035798683,-0.156420858991402,0.008552114,-0.13713925,0.009773844,294.59656,-95.608826,1.6248275,STD
15433415463000,2.190026,0.119873078725426,9.80356641072955,-0.161263915705164,0.009162978,-0.13194689,0.011911872,294.52502,-95.5916,1.6411827,STD
15433420451000,2.195014,0.140650587361817,9.82280208724231,-0.153114460908276,0.01160644,-0.14049901,0.011301007,294.45813,-95.57157,1.6481743,STD
15433425453000,2.200016,0.164504378623643,9.84665586355941,-0.138802185154865,0.020158553,-0.13500121,0.01160644,294.38644,-95.553856,1.6564628,STD
15433430442000,2.205005,0.181752478125489,9.85765738242768,-0.143445258125489,0.020463986,-0.13347405,0.01038471,294.31738,-95.537636,1.6686273,STD
15433435480000,2.210043,0.195898672023065,9.8623728755864,-0.157591452023065,0.014049901,-0.12980886,0.014049901,294.24698,-95.52248,1.682273,STD
15433440446000,2.215009,0.228443852494951,9.86957729208739,-0.171004989753075,0.01282817,-0.12339478,0.018325957,294.1801,-95.50639,1.7019048,STD
15433445464000,2.220027,0.272556595788507,9.87840001762438,-0.184238806292455,0.01160644,-0.12614368,0.012217305,294.1152,-95.48822,1.7191159,STD
15433450520000,2.225083,0.301323477522545,9.88659679501469,-0.203752892245922,0.0070249503,-0.10934488,0.015577064,294.0439,-95.47368,1.7429057,STD
15433455462000,2.230025,0.3109148384122,9.89379021177424,-0.230129143455771,0.0106901415,-0.102319926,0.0061086523,293.97632,-95.459496,1.7605599,STD
15433460443000,2.235006,0.320581889928058,9.90104039568345,-0.256713543956835,0.004886922,-0.0983493,0.010995574,293.9035,-95.44872,1.7914951,STD
15433465467000,2.24003,0.330332395211268,9.90835316901408,-0.283527442394366,-0.0036651916,-0.08002335,0.013439035,293.825,-95.43719,1.8190038,STD
15433470778000,2.245341,0.339789892290455,9.90739325641464,-0.303783496033185,-0.013744468,-0.058643065,0.011911872,293.73917,-95.422874,1.8425033,STD
15433475449000,2.250012,0.347441838836812,9.89974115805679,-0.31526141185768,-0.015577064,-0.05131268,0.0036651916,293.6529,-95.408165,1.8643863,STD
15433480390000,2.254953,0.351562326013735,9.89075638071066,-0.329780738077038,-0.015882496,-0.051618114,0.007941248,293.57382,-95.40021,1.89143,STD
15433485467000,2.26003,0.332204721009256,9.87623839424704,-0.358817125370757,-0.018020526,-0.042455133,0.007941248,293.49054,-95.390076,1.9148313,STD
15433490442000,2.265005,0.315690700473604,9.86307925578551,-0.382384420947209,-0.014966198,-0.03481932,0.0070249503,293.4093,-95.38498,1.9402059,STD
15433495471000,2.270034,0.31333433630706,9.85601026170556,-0.37767169261412,-0.01740966,-0.0143553335,0.009773844,293.32285,-95.378174,1.9666198,STD
15433500505000,2.275068,0.31097562936445,9.84893423939527,-0.372954278728901,-0.02321288,-0.009468411,0.015271631,293.24484,-95.37572,1.9900664,STD
15433505457000,2.28002,0.308655343949313,9.84197348006263,-0.368313707898625,-0.0143553335,-0.01740966,0.012217305,293.16547,-95.37572,2.011564,STD
15433510441000,2.285004,0.305333274550175,9.83481871582626,-0.363356386981528,-0.021380283,-0.018936822,0.019242255,293.08936,-95.37094,2.0386267,STD
15433515438000,2.290001,0.286219826887669,9.82526179740389,-0.353799658160759,-0.018020526,-0.014049901,0.0143553335,293.01413,-95.36951,2.060861,STD
15433520463000,2.295026,0.268015639288824,9.81663187522824,-0.344360158852943,-0.01038471,-0.0036651916,0.014966198,292.9385,-95.36684,2.0855496,STD
15433525422000,2.299985,0.265792150362845,9.82330222824102,-0.337689708327169,-0.005192355,-0.0076358155,0.015271631,292.86627,-95.36375,2.1080294,STD
15433530415000,2.304978,0.26355341670537,9.83001831466829,-0.330973523718339,-0.008552114,-0.01038471,0.022907447,292.79227,-95.358345,2.1294055,STD
15433535404000,2.309967,0.261316476545718,9.83672902069385,-0.324262719589868,-0.004276057,-0.011301007,0.01863139,292.7194,-95.35487,2.1470258,STD
15433540377000,2.31494,0.259086710377358,9.8434182051126,-0.317573437382836,-0.00061086525,-0.0015271631,0.019547688,292.64536,-95.35173,2.1680644,STD
15433545452000,2.320015,0.272647209228972,9.83792051,-0.301961191792523,0.0009162979,-0.008857546,0.02107485,292.58023,-95.348175,2.1878707,STD
15433550528000,2.325091,0.290819882219626,9.82883447,-0.283788533033645,0.002443461,-0.011911872,0.02687807,292.51196,-95.34607,2.2090855,STD
15433555454000,2.330017,0.293669875106824,9.81938158950425,-0.26488284054553,0.0070249503,-0.020158553,0.015882496,292.4466,-95.340164,2.2244632,STD
15433560433000,2.334996,0.288724533188135,9.80949071976768,-0.245101503853972,-0.004886922,-0.009773844,0.022907447,292.37802,-95.33314,2.2465944,STD
15433565432000,2.339995,0.280562656416667,9.81844776242604,-0.259644808990138,0.0021380284,-0.0018325958,0.018020526,292.30057,-95.32894,2.2631536,STD
15433570471000,2.345034,0.271044405333333,9.83510478816568,-0.288199559755424,-0.005497787,-0.004276057,0.016187929,292.2242,-95.31903,2.282184,STD
15433575458000,2.350021,0.261624377916667,9.85158992159763,-0.316459639546351,0.0012217305,-0.0033597588,0.0290161,292.14935,-95.30987,2.3021455,STD
15433580450000,2.355013,0.252194905916667,9.86809158313609,-0.344748053084813,-0.003970624,0.007330383,0.022602014,292.0727,-95.2932,2.315972,STD
15433585406000,2.359969,0.242826742985487,9.87985803050647,-0.363597195689604,0.002443461,0.022907447,0.019547688,291.99713,-95.286354,2.3385355,STD
15433590500000,2.365063,0.233194154443677,9.8894903122717,-0.378046070958634,-0.0036651916,0.019242255,0.018325957,291.92465,-95.27445,2.3591475,STD
15433595461000,2.370024,0.225493490115368,9.89139116550349,-0.396121869653895,-0.011911872,0.013744468,0.018325957,291.85498,-95.2711,2.375026,STD
15433600520000,2.375083,0.218592896905474,9.88909116151545,-0.416823649283578,0.0009162979,0.030848695,0.017715093,291.78058,-95.2712,2.3905134,STD
15433605409000,2.379972,0.21192418763424,9.88686844566301,-0.43682977709728,-0.0036651916,0.02565634,0.019547688,291.71753,-95.26617,2.4037755,STD
15433610422000,2.384985,0.205086339490101,9.88458935493519,-0.457343321529697,0.005192355,0.040317107,0.020158553,291.64462,-95.26739,2.41713,STD
15433615399000,2.389962,0.193213832911734,9.88129018327589,-0.46728874554773,-0.0033597588,0.043066,0.025045475,291.5775,-95.26365,2.4315598,STD
15433620511000,2.395074,0.173649765355912,9.87639906743594,-0.462397734404316,0.004886922,0.028405234,0.02107485,291.51178,-95.2651,2.4433045,STD
15433625422000,2.399985,0.154854942240372,9.87170026659673,-0.457699034145062,0.0030543262,0.030543262,0.021991149,291.44537,-95.270775,2.4569283,STD
15433630423000,2.404986,0.13571568131575,9.86691535456316,-0.452914224534692,0.004886922,0.040011674,0.024129177,291.3817,-95.27872,2.4693537,STD
15433635399000,2.409962,0.128596108207972,9.86615985082121,-0.443963499479025,0.0076358155,0.03970624,0.022602014,291.32373,-95.28396,2.4795127,STD
15433640440000,2.415003,0.138696887370018,9.87121034323674,-0.428812322825609,-0.00061086525,0.03145956,0.021991149,291.26605,-95.28695,2.4903383,STD
15433645483000,2.420046,0.13754450297186,9.87246645600278,-0.428708617301107,-0.0070249503,0.03145956,0.016187929,291.20795,-95.2854,2.4927623,STD
15433650611000,2.425174,0.125357826878356,9.87002907171572,-0.443332630343938,-0.0067195175,0.032070424,0.02107485,291.15283,-95.28467,2.4978416,STD
15433656070000,2.430633,0.112384530311579,9.86743436016676,-0.458900588066405,-0.010995574,0.03481932,0.02565634,291.09268,-95.27674,2.499648,STD
15433660455000,2.435018,0.10196359141337,9.86535013042831,-0.47140571622413,-0.0076358155,0.04337143,0.02076942,291.03125,-95.27016,2.5003061,STD
15433665447000,2.44001,0.0867159754990588,9.8663740679679,-0.492418486059645,-0.013439035,0.04642576,0.017104227,290.97522,-95.26031,2.5032098,STD
15433670464000,2.445027,0.0676743285350243,9.87113457614188,-0.520980963464778,-0.020463986,0.048563786,0.027488936,290.91782,-95.25224,2.508893,STD
15433675449000,2.450012,0.0486661265848679,9.86929055444355,-0.551691947213771,-0.032986723,0.05222898,0.023823744,290.86316,-95.24189,2.5052712,STD
15433680442000,2.455005,0.029524014953763,9.85971930524419,-0.585190639819856,-0.021991149,0.0571159,0.021991149,290.80838,-95.237335,2.5052478,STD
15433685443000,2.460006,0.0169962014340659,9.85237665659341,-0.596866602527473,-0.021685716,0.070249505,0.020463986,290.75134,-95.2301,2.5004141,STD
15433690586000,2.465149,0.0121636348719584,9.84754424494702,-0.582368903345761,-0.021991149,0.061391957,0.019547688,290.69974,-95.22525,2.4950044,STD
15433695445000,2.470008,0.00759792596173469,9.84297868239796,-0.568671777091837,-0.014966198,0.06872234,0.02565634,290.64453,-95.22721,2.4884412,STD
15433700617000,2.47518,0.00273810985066719,9.83811902207614,-0.554092329266091,-0.013744468,0.06780604,0.02107485,290.59454,-95.22593,2.478412,STD
15433705392000,2.479955,-0.00179643562413063,9.84256669972785,-0.544081565688943,-0.015271631,0.06505715,0.020463986,290.54303,-95.2286,2.4733617,STD
15433710454000,2.485017,-0.00668281774629574,9.86211211188388,-0.539195187138393,-0.026572637,0.054061573,0.027488936,290.49475,-95.2293,2.469143,STD
15433715417000,2.48998,-0.0104504572207521,9.873688,-0.5363012,-0.016798794,0.05100725,0.01863139,290.4432,-95.22714,2.4592047,STD
15433720460000,2.495023,-0.0126926038178273,9.873688,-0.5363012,-0.013133603,0.047036625,0.02443461,290.39606,-95.22348,2.455342,STD
15433726010000,2.500573,-0.0151601655100279,9.873688,-0.5363012,-0.011301007,0.04520403,0.023518313,290.34906,-95.2182,2.446345,STD
15433730439000,2.505002,-0.0171293242009749,9.873688,-0.5363012,-0.014966198,0.043066,0.02687807,290.304,-95.21376,2.4403255,STD
15433735459000,2.510022,-0.0196119893854156,9.873688,-0.535842823489802,-0.027488936,0.028710667,0.027488936,290.26227,-95.21002,2.4365337,STD
15433740454000,2.515017,-0.0245147410988009,9.873688,-0.530940059745824,-0.02565634,0.032986723,0.028405234,290.21637,-95.20934,2.4342432,STD
15433745448000,2.520011,-0.0294165112803116,9.873688,-0.526038277536128,-0.025350908,0.036651913,0.025350908,290.17526,-95.204254,2.4298973,STD
15433750585000,2.525148,-0.0344586405198832,9.873688,-0.520996135923952,-0.01985312,0.030543262,0.027794369,290.13626,-95.20175,2.427347,STD
15433755559000,2.530122,-0.0393077603530112,9.87168689254886,-0.512144873757317,-0.021380283,0.018936822,0.020463986,290.10303,-95.19457,2.4216387,STD
15433760450000,2.535013,-0.0439550619955353,9.86239210000992,-0.488908367971029,-0.014049901,0.022907447,0.021685716,290.06763,-95.19246,2.4193537,STD
15433765450000,2.540013,-0.0462478603251037,9.85371589759036,-0.466809262316808,-0.024740042,0.014966198,0.021380283,290.03226,-95.18163,2.4097347,STD
15433770465000,2.545028,-0.0367618476666008,9.84897279518072,-0.452580242338535,-0.014049901,0.02107485,0.0125227375,289.99194,-95.177124,2.3986535,STD
15433775439000,2.550002,-0.0283960516355091,9.84696321591291,-0.439864363689991,-0.009773844,0.016187929,0.0106901415,289.9556,-95.16503,2.3887222,STD
15433780445000,2.555008,-0.0260968098324301,9.86075870610522,-0.435265882964846,-0.0125227375,0.012217305,0.021685716,289.9177,-95.15453,2.380374,STD
15433785643000,2.560206,-0.0237093829661887,9.87508330818666,-0.430491032223874,-0.0125227375,0.01160644,0.016187929,289.87827,-95.1426,2.3696787,STD
15433790493000,2.565056,-0.0214817915269292,9.88844889496907,-0.426035852136588,-0.0033597588,0.0067195175,0.008857546,289.84177,-95.133606,2.3615594,STD
15433796039000,2.570602,-0.0195703767462823,9.90075095876289,-0.420545974159292,-0.006414085,-0.0018325958,0.01160644,289.80685,-95.122246,2.3548393,STD
15433800620000,2.575183,-0.0235728718002007,9.88474107216495,-0.412540980707965,0.006414085,-0.01160644,0.01740966,289.77393,-95.11679,2.346995,STD
15433805418000,2.579981,-0.0277649633236019,9.86797280412371,-0.404156794159292,0.008552114,-0.015882496,0.006414085,289.74063,-95.10684,2.3391938,STD
15433810444000,2.585007,-0.0104789086445028,9.86046062408866,-0.405876179679207,0.008552114,-0.020158553,0.006414085,289.72547453763,-95.1036635398319,2.3387286233787,STD
15433815410000,2.589973,0.0126368795195878,9.85583737318946,-0.410499334029357,-0.00061086525,-0.01863139,0.014049901,289.7105,-95.100525,2.338269,STD
15433820461000,2.595024,0.0294799337595983,9.83732347784997,-0.401476359521559,0.00580322,-0.023518313,0.006414085,289.68185,-95.095276,2.3298388,STD
15433825447000,2.60001,0.0435821058552865,9.81381987241583,-0.387374186444182,0.004276057,-0.020463986,0.0106901415,289.65088,-95.08933,2.3296523,STD
15433830421000,2.604984,0.0641772486432795,9.80990870920378,-0.389589549107213,0.0009162979,-0.021685716,0.0067195175,289.62177,-95.085236,2.3290358,STD
15433835437000,2.61,0.0878455876767836,9.81464247270398,-0.399056888279464,0.008857546,-0.014049901,0.009468411,289.58972,-95.08503,2.3317904,STD
15433840448000,2.615011,0.113112983050847,9.81780384261501,-0.40380268968523,0.0061086523,-0.0143553335,0.0015271631,289.55844,-95.07839,2.332953,STD
15433845494000,2.620057,0.139380228408163,9.82019182215743,-0.406190619358601,0.008552114,-0.010079277,0.0036651916,289.52417,-95.076706,2.3379595,STD
15433850589000,2.625152,0.165902546104462,9.82260299056184,-0.408601737409695,0.01160644,-0.013744468,0.0015271631,289.49365,-95.07926,2.3478634,STD
15433855464000,2.630027,0.191279641054306,9.82491004570836,-0.410908744377131,0.009468411,-0.008246681,-0.0012217305,289.4596,-95.08115,2.3582573,STD
15433860442000,2.635005,0.218651058683874,9.82715311314301,-0.409104510062021,0.0070249503,-0.004581489,0.002443461,289.4318,-95.08381,2.3708084,STD
15433865513000,2.640076,0.247442188449471,9.82936785990514,-0.404675109040496,0.014660766,-0.0009162979,-0.0018325958,289.4024,-95.08691,2.380184,STD
15433870458000,2.645021,0.275517940114009,9.83152757647756,-0.400355766099963,0.02107485,-0.0033597588,-0.004581489,289.3696,-95.09442,2.3987799,STD
15433875453000,2.650016,0.30387757197738,9.83370913042685,-0.395992749317767,0.018020526,0.0012217305,-0.004581489,289.334,-95.101006,2.416754,STD
15433880408000,2.654971,0.330866093411879,9.83958469902629,-0.384241631468354,0.021380283,0.005497787,-0.004276057,289.29944,-95.110214,2.4335816,STD
15433885448000,2.660011,0.354365164570594,9.85838384995131,-0.346643103873418,0.022602014,0.012217305,-0.004581489,289.26312,-95.11775,2.4500077,STD
15433890462000,2.665025,0.377732697536668,9.87284053550267,-0.310102487979602,0.015577064,0.018936822,-0.008857546,289.23126,-95.123634,2.4757025,STD
15433895453000,2.670016,0.400946805709568,9.86819762078679,-0.277602739446333,0.002443461,0.026267206,-0.0125227375,289.1976,-95.12812,2.5010207,STD
15433900640000,2.675203,0.423224680087357,9.86349592776834,-0.251457209474238,0.0070249503,0.028710667,-0.0021380284,289.15933,-95.13188,2.533063,STD
15433905462000,2.680025,0.434430547066246,9.85976056466877,-0.266398361545741,0.008246681,0.040317107,0.002443461,289.11642,-95.1303,2.5621233,STD
15433910392000,2.684955,0.445887395719486,9.85594153935129,-0.281674155762355,0.00061086525,0.039095376,0.005192355,289.07526,-95.12292,2.5947568,STD
15433915445000,2.690008,0.453253941849447,9.85767807750837,-0.306168284228467,0.01282817,0.03390302,-0.0030543262,289.0321,-95.119995,2.624947,STD
15433920453000,2.695016,0.458119581942782,9.86254381921477,-0.335362145111089,0.00061086525,0.044898596,-0.0030543262,288.98517,-95.111015,2.6578217,STD
15433925453000,2.700016,0.46642401434313,9.85063651573372,-0.361608247340326,-0.004581489,0.050396383,-0.008857546,288.94138,-95.11108,2.6899738,STD
15433930439000,2.705002,0.47634196525392,9.83080073818673,-0.386403119439194,0.002443461,0.058643065,-0.005192355,288.8942,-95.11263,2.7243266,STD
15433935448000,2.710011,0.475420574263559,9.81554449067555,-0.396068845023787,0.002443461,0.08093964,-0.0036651916,288.85358,-95.113976,2.7586944,STD
15433940509000,2.715072,0.470808934241675,9.80170932502379,-0.400680470599429,0.004886922,0.07666359,-0.008857546,288.81836,-95.11712,2.7909641,STD
15433945593000,2.720156,0.480632208549404,9.79544903924317,-0.397353587330063,0.0021380284,0.08155051,-0.009162978,288.7766,-95.12498,2.82664,STD
15433950627000,2.72519,0.497524173767144,9.7930361058164,-0.390114177264991,0.0106901415,0.102319926,-0.006414085,288.73184,-95.13562,2.8611412,STD
15433955452000,2.730015,0.51371482378216,9.79072335178697,-0.38317533070878,-0.0036651916,0.10598512,-0.0021380284,288.68936,-95.139946,2.8924663,STD
15433960454000,2.735017,0.530499410595655,9.78832575683252,-0.375981939936931,0.010995574,0.10995574,-0.0012217305,288.64127,-95.15281,2.9233425,STD
15433965449000,2.740012,0.539442490428844,9.80006209611329,-0.386060628275585,0.01740966,0.12308934,0.004581489,288.59015,-95.16163,2.9563584,STD
15433970440000,2.745003,0.544242913126444,9.81926368665261,-0.405262329091092,0.010995574,0.124005646,0.008552114,288.5418,-95.17047,2.9882028,STD
15433975429000,2.749992,0.548928367538253,9.83800540644974,-0.417903421446833,0.0061086523,0.13744467,0.008857546,288.4842,-95.18242,3.026607,STD
15433981103000,2.755666,0.554190692078249,9.85905459471238,-0.42842808151656,0.0061086523,0.1423316,0.004581489,288.451397985007,-95.189491942029,3.04888537545227,STD
15433985434000,2.759997,0.552614677857714,9.86127081854516,-0.433796422142286,0.0067195175,0.15302174,0.011301007,288.42636,-95.19489,3.0658906,STD
15433990512000,2.765075,0.54775546618705,9.85641150539568,-0.43865563381295,0.006414085,0.1563815,0.016493361,288.37366,-95.20678,3.103771,STD
15433995430000,2.769993,0.53463755324995,9.86296449791542,-0.434912885427834,-0.0033597588,0.17745635,0.020463986,288.31262,-95.21816,3.1424034,STD
15434000612000,2.775175,0.514932548155648,9.87774353722454,-0.425060398312488,-0.00061086525,0.17654006,0.0143553335,288.25735,-95.23114,3.1783152,STD
15434005351000,2.779914,0.485983458604745,9.87786806976277,-0.434871549463209,-0.013439035,0.17837265,0.017104227,288.19675,-95.24056,3.2165942,STD
15434010341000,2.784904,0.447553014736631,9.86826026316848,-0.458890574372738,-0.0143553335,0.19272798,0.024740042,288.13342,-95.25282,3.2539163,STD
15434015454000,2.790017,0.400130262739563,9.86504514119897,-0.473934130405593,-0.020463986,0.21013765,0.026267206,288.06598,-95.25349,3.281678,STD
15434020433000,2.794996,0.348242893057442,9.86661751747675,-0.481795850895601,-0.017104227,0.2144137,0.032986723,287.9991,-95.258224,3.3124359,STD
15434025344000,2.799907,0.297064167910044,9.86816841924421,-0.489550201031458,-0.025350908,0.22602014,0.02443461,287.9291,-95.25601,3.332282,STD
15434030346000,2.804909,0.244937109635296,9.86974805895931,-0.497448237964783,-0.021685716,0.21868975,0.022602014,287.86426,-95.2594,3.3551145,STD
15434035359000,2.809922,0.192695417685814,9.87133117249225,-0.505363643631867,-0.018325957,0.22815818,0.029626964,287.78607,-95.26038,3.3758352,STD
15434040344000,2.814907,0.140745520544747,9.87290544357977,-0.513234837976654,-0.025045475,0.23060162,0.028710667,287.7126,-95.258026,3.3930883,STD
15434045364000,2.819927,0.100762562582396,9.87486795027142,-0.511247909385421,-0.023823744,0.23732115,0.020158553,287.63593,-95.257805,3.4100103,STD
15434050892000,2.825455,0.0699712167584335,9.87743394755719,-0.498418185531214,-0.026267206,0.23060162,0.021685716,287.56342,-95.25687,3.428921,STD
15434055390000,2.829953,0.0449170428227995,9.87952183753393,-0.487978949298178,-0.02321288,0.23273966,0.01863139,287.48264,-95.24266,3.4146357,STD
15434060392000,2.834955,0.0170555537107406,9.88184367516479,-0.476369998734005,-0.02076942,0.22510384,0.029321533,287.40775,-95.23079,3.404761,STD
15434065385000,2.839948,0.00190903420222979,9.87944685465056,-0.46353641759265,-0.028405234,0.23609942,0.024740042,287.32275,-95.21406,3.3890035,STD
15434070399000,2.844962,0.00686599820532673,9.86953272685042,-0.44866552610096,-0.043066,0.24098633,0.024129177,287.2429,-95.19914,3.3775225,STD
15434075362000,2.849925,0.0176843300345912,9.85803044635029,-0.444586865221079,-0.043982297,0.22632557,0.020158553,287.16602,-95.17472,3.3543727,STD
15434080370000,2.854933,0.0359654985880503,9.8443197697732,-0.453727457849247,-0.032070424,0.22999077,0.021991149,287.08344,-95.151276,3.3337264,STD
15434085412000,2.859975,0.0534029525696549,9.83459256687514,-0.465994069040537,-0.04337143,0.23609942,0.021380283,286.99716,-95.12168,3.3121247,STD
15434090417000,2.86498,0.0689472392613389,9.83237190970581,-0.483758971627982,-0.046120327,0.24129178,0.023518313,286.91107,-95.09774,3.292443,STD
15434095375000,2.869938,0.0843455556284457,9.83017210586055,-0.501357050954366,-0.051923547,0.23823744,0.025961773,286.82028,-95.07658,3.2768035,STD
15434100577000,2.87514,0.100501675382719,9.82786404220523,-0.519821191465833,-0.05497787,0.23640485,0.029932396,286.7287,-95.056305,3.2627735,STD
15434105575000,2.880138,0.115139977646719,9.82558569802234,-0.536628646128162,-0.029626964,0.25259277,0.0290161,286.63373,-95.04077,3.2487488,STD
15434110424000,2.884987,0.118121739024014,9.82260387748812,-0.541101283523822,-0.040927973,0.25442538,0.03176499,286.54446,-95.01819,3.2369635,STD
15434115603000,2.890166,0.121306424974316,9.81941912835495,-0.545878307461153,-0.04337143,0.24862215,0.03023783,286.456,-95.011345,3.2296934,STD
15434120899000,2.895462,0.124563056909593,9.81616243180943,-0.550763250263259,-0.040011674,0.24495697,0.035124753,286.36755,-95.00492,3.2253392,STD
15434125727000,2.90029,0.12753190490497,9.81319352491332,-0.555216517606267,-0.03145956,0.24923302,0.035430185,286.27167,-94.997,3.216037,STD
15434130402000,2.904965,0.130406669689226,9.8103187030949,-0.559528660279954,-0.03268129,0.25870144,0.04184427,286.17673,-94.98964,3.210196,STD
15434135440000,2.910003,0.133504651503788,9.80722065981764,-0.56417562814948,-0.034513887,0.2648101,0.039095376,286.08588,-94.98136,3.2020986,STD
15434140430000,2.914993,0.132196387605294,9.81040789934312,-0.568789428713292,-0.027183503,0.26053402,0.036957346,285.9965,-94.97601,3.1962,STD
15434145474000,2.920037,0.129863242819745,9.8150742814915,-0.573455723156878,-0.028099801,0.25900686,0.038179077,285.90567,-94.96847,3.1908557,STD
15434150594000,2.925157,0.127494943592543,9.81981097391808,-0.578192326557187,-0.03023783,0.2611449,0.036957346,285.81708,-94.96452,3.1860108,STD
15434155464000,2.930027,0.125242283976043,9.82431638253478,-0.58269765049459,-0.02076942,0.26389378,0.03756821,285.72986,-94.96332,3.1821985,STD
15434160428000,2.934991,0.118739708853252,9.83156259774234,-0.575547060763304,-0.023518313,0.269697,0.034513887,285.63818,-94.96068,3.1792843,STD
15434165474000,2.940037,0.110080945543809,9.84022108528938,-0.562558904497402,-0.023518313,0.2764165,0.03359759,285.54663,-94.960945,3.1773422,STD
15434170436000,2.944999,0.103229190446953,9.84601486576373,-0.558628335434161,-0.026267206,0.28496864,0.03145956,285.45755,-94.95567,3.1695635,STD
15434175435000,2.949998,0.0984261331918736,9.84841644203662,-0.565832923824429,-0.021380283,0.2883284,0.02687807,285.3691,-94.95134,3.1611168,STD
15434180439000,2.955002,0.0936182719187359,9.85082042036619,-0.573044718244294,-0.02687807,0.28344148,0.02076942,285.2777,-94.93943,3.1485817,STD
15434185440000,2.960003,0.0888132930564334,9.85322295746175,-0.580252189046401,-0.01985312,0.28038713,0.010079277,285.1858,-94.92968,3.133914,STD
15434190530000,2.965093,0.0852109079810094,9.85845538514568,-0.585165591404787,-0.027794369,0.28191432,0.013744468,285.0985,-94.91652,3.1225266,STD
15434195488000,2.970051,0.0831522102638744,9.8666901278616,-0.587224287832119,-0.02321288,0.28588495,0.016493361,285.0123,-94.90567,3.1083043,STD
15434200613000,2.975176,0.0810241695619147,9.8752022408949,-0.589352327200833,-0.022296581,0.29840767,0.017715093,284.92047,-94.89458,3.092727,STD
15434205479000,2.980042,0.0790036727705515,9.88328418080125,-0.591372822726327,-0.034208454,0.29535335,0.015271631,284.83313,-94.88151,3.077156,STD
15434210435000,2.984998,0.0769458055083247,9.89151560171696,-0.593430688699272,-0.033292156,0.29626966,0.016798794,284.7424,-94.872444,3.0638433,STD
15434215446000,2.990009,0.0802483442709178,9.88557345167973,-0.590128152005764,-0.028099801,0.29138273,0.013439035,284.6552,-94.86043,3.0487309,STD
15434220435000,2.994998,0.0845515672857786,9.87696728064487,-0.585824931686932,-0.03604105,0.29993483,0.013133603,284.5652,-94.84657,3.0356357,STD
15434225436000,2.999999,0.0831166850724938,9.8690760437034,-0.590334385039354,-0.030848695,0.2929099,0.014049901,284.4826,-94.836426,3.0210006,STD
15434230431000,3.004994,0.0781626522457539,9.86164484315452,-0.600242442933409,-0.035430185,0.27763826,0.0143553335,284.40103,-94.82225,3.0065808,STD
15434235482000,3.010045,0.0731530787106462,9.85413032984673,-0.610261582157208,-0.02321288,0.2687807,0.021685716,284.3203,-94.814384,2.9957721,STD
15434240447000,3.01501,0.0682287998348177,9.84674376113297,-0.620110132196044,-0.028099801,0.2666427,0.024129177,284.24298,-94.80093,2.9839013,STD
15434245487000,3.02005,0.0463267142872031,9.83460168406723,-0.629396059258286,-0.027183503,0.25442538,0.020158553,284.16943,-94.79246,2.9723473,STD
15434250551000,3.025114,0.0190070533209088,9.82094205398554,-0.638502591835508,-0.030543262,0.25625798,0.023518313,284.09363,-94.783646,2.964123,STD
15434255440000,3.030003,0.00378480723356118,9.81333094175412,-0.627166023263695,-0.032986723,0.2489276,0.021380283,284.02692,-94.775665,2.9514785,STD
15434260424000,3.034987,-0.00540568204881101,9.80873560450563,-0.604189836045056,-0.03268129,0.25137106,0.025045475,283.95798,-94.76915,2.9420135,STD
15434265434000,3.039997,-0.0235916459268293,9.82066482926829,-0.599367971707317,-0.027183503,0.25350907,0.027488936,283.89377,-94.76152,2.9270048,STD
15434270437000,3.045,-0.04910701679689,9.84618018255405,-0.609574113021621,-0.03268129,0.24465153,0.034513887,283.833,-94.75298,2.9146247,STD
15434275451000,3.050014,-0.0799198165207899,9.86415946948496,-0.606498794351493,-0.036957346,0.23457226,0.024129177,283.76935,-94.74089,2.8990347,STD
15434280413000,3.054976,-0.112929722177235,9.87830685680262,-0.597067399769773,-0.02443461,0.22815818,0.02443461,283.70828,-94.73451,2.8887253,STD
15434285503000,3.060066,-0.126049122504349,9.88791682788945,-0.592211409114805,-0.027183503,0.22693644,0.029626964,283.65063,-94.72162,2.8728404,STD
15434290489000,3.065052,-0.128356330402493,9.89483834798995,-0.589904203625821,-0.028710667,0.22693644,0.03268129,283.59518,-94.711655,2.8568034,STD
15434295488000,3.070051,-0.130669553884809,9.90177791457286,-0.587590982558949,-0.03268129,0.22174409,0.02565634,283.54187,-94.69495,2.8339984,STD
15434300593000,3.075156,-0.133031827514979,9.90886462939698,-0.585228711395439,-0.032375857,0.21563543,0.03145956,283.48984,-94.68185,2.8162441,STD
15434306209000,3.080772,-0.135704145949092,9.90385077025454,-0.576041003451242,-0.029932396,0.2012801,0.033292156,283.43414,-94.66924,2.7960756,STD
15434310464000,3.085027,-0.137766252320227,9.89354023839887,-0.565730462982643,-0.0290161,0.1957823,0.028099801,283.37833,-94.65631,2.7761006,STD
15434315442000,3.090005,-0.140178747153484,9.88147776423258,-0.553667978739942,-0.03023783,0.18753563,0.03359759,283.32788,-94.64438,2.7589889,STD
15434320460000,3.095023,-0.142610627240524,9.86931836379738,-0.541508568147361,-0.043982297,0.17379116,0.031154128,283.28094,-94.62772,2.7384353,STD
15434325454000,3.100017,-0.132845551571641,9.86140930788299,-0.541704471393158,-0.041233405,0.16798794,0.027794369,283.2333,-94.61384,2.7168925,STD
15434330444000,3.105007,-0.113891359424888,9.85667066336143,-0.551181562518592,-0.041233405,0.17104226,0.023518313,283.18753,-94.59592,2.6948626,STD
15434335493000,3.110056,-0.0924028726651217,9.84676891019699,-0.552866400695249,-0.04886922,0.16187929,0.01863139,283.14175,-94.576004,2.6744385,STD
15434340449000,3.115012,-0.069487335561993,9.83301979084589,-0.548283297103129,-0.040011674,0.1441642,0.019547688,283.09818,-94.560486,2.6548762,STD
15434345486000,3.120049,-0.0487307059803536,9.83671666011788,-0.539330390255403,-0.032375857,0.14202617,0.015577064,283.05356,-94.54495,2.6363893,STD
15434350603000,3.125166,-0.0303924072206942,9.85963951800917,-0.525576646797642,-0.03726278,0.12980886,0.019242255,283.01755,-94.53022,2.6202805,STD
15434355451000,3.130014,-0.0173900888215553,9.86839731784447,-0.511856970173174,-0.03176499,0.12156218,0.01740966,282.98035,-94.52002,2.6061647,STD
15434360507000,3.13507,-0.0121819210048403,9.85277249951597,-0.496232483581801,-0.032375857,0.124311075,0.008857546,282.94385,-94.50691,2.591477,STD
15434365416000,3.139979,-0.009576807,9.84420668296297,-0.486916388209054,-0.02565634,0.11789699,0.009162978,282.901,-94.50338,2.5862994,STD
15434370447000,3.14501,-0.009576807,9.84262061362963,-0.483743979566091,-0.031154128,0.10567969,0.01160644,282.8595,-94.495766,2.5794299,STD
15434376199000,3.150762,-0.009576807,9.84080724237037,-0.480116928380576,-0.03023783,0.09712757,0.014049901,282.8178,-94.48967,2.5738082,STD
15434380464000,3.155027,-0.009576807,9.83946266162963,-0.477427538028313,-0.025961773,0.09621128,0.010995574,282.77786,-94.4826,2.5673878,STD
15434385467000,3.16003,-0.009576807,9.83788541955555,-0.47427278540642,-0.023518313,0.08979719,0.0106901415,282.74246,-94.47618,2.56232,STD
15434390509000,3.165072,-0.009576807,9.83629588237037,-0.471093440469465,-0.021685716,0.09132435,0.005497787,282.70532,-94.46933,2.5552626,STD
15434395419000,3.169982,-0.00510733375556146,9.8366579514576,-0.46926352,-0.018936822,0.09468412,0.014966198,282.66568,-94.470505,2.5571668,STD
15434400652000,3.175215,0.00654045184610532,9.83998578361777,-0.46926352,-0.01985312,0.0842994,0.0021380284,282.6295,-94.46662,2.551056,STD
15434405303000,3.179866,0.0168928024735374,9.84294350335348,-0.46926352,-0.011911872,0.08460484,0.0027488936,282.58923,-94.46761,2.5518186,STD
15434410363000,3.184926,0.0281555189161963,9.84616131927751,-0.46926352,-0.022907447,0.074830994,-0.0030543262,282.55493,-94.46073,2.546793,STD
15434415311000,3.189874,0.0391689420304801,9.84930791081745,-0.46926352,-0.013744468,0.07941248,0.0030543262,282.5171,-94.462364,2.5456808,STD
15434420360000,3.194923,0.0504071743069593,9.85251873148948,-0.46926352,-0.011301007,0.070249505,-0.003970624,282.48602,-94.45674,2.5388439,STD
15434425322000,3.199885,0.0557834719484224,9.85621140168018,-0.464231416545863,-0.013133603,0.05955936,0.0027488936,282.4478,-94.45554,2.535309,STD
15434430347000,3.20491,0.0510825380615415,9.86091242981342,-0.450128616848686,-0.009468411,0.05009095,0.0061086523,282.4121,-94.45445,2.5288463,STD
15434435321000,3.209884,0.047884032,9.86458557727852,-0.439109396905672,-0.010995574,0.04734206,0.004581489,282.37698,-94.454994,2.528718,STD
15434440356000,3.214919,0.047884032,9.86612223103888,-0.434499528687062,-0.01160644,0.034208454,0.0067195175,282.3481,-94.45755,2.5301867,STD
15434445488000,3.220051,0.047884032,9.86768848865519,-0.429800850693435,-0.013744468,0.029321533,0.008857546,282.31668,-94.4562,2.5305266,STD
15434450573000,3.225136,0.047884032,9.86924040213512,-0.42514520424028,-0.017104227,0.03359759,0.014660766,282.28687,-94.45525,2.5324306,STD
15434455381000,3.229944,0.047884032,9.87070777676864,-0.420743169206501,-0.01160644,0.025045475,0.008552114,282.2622,-94.454216,2.531198,STD
15434460404000,3.234967,0.047884032,9.8722407681963,-0.416144287764181,-0.016187929,0.013133603,0.013744468,282.23795,-94.45269,2.534789,STD
15434465439000,3.240002,0.0467514940636699,9.873688,-0.412085814587559,-0.02107485,0.018020526,0.013744468,282.2114,-94.450455,2.5352814,STD
15434470390000,3.244953,0.0276143086617224,9.873688,-0.416870112686545,-0.021685716,0.016798794,0.017104227,282.1904,-94.44947,2.5378196,STD
15434475401000,3.249964,0.00824520422844458,9.873688,-0.421712390564553,-0.01282817,0.019242255,0.021685716,282.16254,-94.453514,2.547839,STD
15434480386000,3.254949,-0.0110234019579234,9.873688,-0.426529543871651,-0.022296581,0.0067195175,0.016798794,282.1395,-94.45194,2.5555458,STD
15434485397000,3.25996,-0.028312643132799,9.87410578533022,-0.431791854519631,-0.027488936,0.0030543262,0.01863139,282.11206,-94.4555,2.5663302,STD
15434490435000,3.264998,-0.0234178527677792,9.87900067485036,-0.44158144444963,-0.026267206,-0.004276057,0.016493361,282.08932,-94.456726,2.574037,STD
15434495446000,3.270009,-0.0197289808822563,9.88499107553366,-0.452411397288709,-0.025045475,0.0070249503,0.029626964,282.06497,-94.457115,2.5798965,STD
15434500580000,3.275143,-0.024478070228726,9.899238136289,-0.471407752691007,-0.028099801,0.005497787,0.022602014,282.04614,-94.45304,2.5789528,STD
15434505439000,3.280002,-0.0278786425686158,9.91114322761606,-0.487778316932021,-0.038789943,-0.0012217305,0.021991149,282.02985,-94.44878,2.5804691,STD
15434510424000,3.284987,-0.0116721139600272,9.89493679504371,-0.475623420581346,-0.034513887,0.0018325958,0.01863139,282.01123,-94.44566,2.57932,STD
15434515610000,3.290173,0.00518787748714249,9.87807690350505,-0.462978427106,-0.03848451,-0.008246681,0.01985312,282.00275,-94.43816,2.5748057,STD
15434520439000,3.295002,0.00621748944071385,9.88040641974188,-0.452968089269006,-0.03940081,0.00030543262,0.015882496,281.98804,-94.43104,2.56835,STD
15434525377000,3.29994,0.00144936351149425,9.88994236590038,-0.443431829444444,-0.042760566,-0.006414085,0.01985312,281.98083,-94.42406,2.5641646,STD
15434530400000,3.304963,0.0317006707686981,9.8878357041947,-0.447206929367827,-0.03940081,-0.011301007,0.016187929,281.96866,-94.416504,2.5604742,STD
15434535475000,3.310038,0.0773795191932133,9.88062336001187,-0.45682353471755,-0.03848451,-0.0021380284,0.021380283,281.9547,-94.40984,2.5606022,STD
15434540426000,3.314989,0.121942273587258,9.87358723862287,-0.466205172764147,-0.028405234,-0.004276057,0.01160644,281.94427,-94.40105,2.5543153,STD
15434545426000,3.319989,0.166946065138504,9.86648148080728,-0.475679660793431,-0.027183503,0.002443461,0.016493361,281.92908,-94.39384,2.5540624,STD
15434550552000,3.325115,0.191961322586328,9.86744506483439,-0.502178333861875,-0.032375857,-0.0021380284,0.010079277,281.9175,-94.38409,2.5476344,STD
15434555422000,3.329985,0.206047413938387,9.87214052340683,-0.535045881984295,-0.027488936,0.00580322,0.010079277,281.90076,-94.37892,2.5448377,STD
15434560427000,3.33499,0.220327029202841,9.87047550986582,-0.536240710734017,-0.022907447,0.010995574,0.01038471,281.8876,-94.38385,2.5569408,STD
15434565459000,3.340022,0.234590202423047,9.86572102446724,-0.521977522620363,-0.02321288,0.006414085,0.009773844,281.87512,-94.38841,2.5683944,STD
15434570426000,3.344989,0.24723558402461,9.86254788720488,-0.5218367902491,-0.021991149,0.008857546,0.002443461,281.8622,-94.399605,2.5801597,STD
15434575468000,3.350031,0.259311976023409,9.86013255937375,-0.529082637554022,-0.029321533,0.014966198,0.01282817,281.85,-94.41123,2.5963895,STD
15434580445000,3.355008,0.271232682683073,9.8577483692477,-0.5362350734994,-0.020463986,0.027488936,0.015882496,281.8334,-94.423386,2.6108513,STD
15434585444000,3.360007,0.283206082842137,9.85535364020608,-0.543419125597239,-0.03023783,0.025045475,0.015271631,281.81964,-94.43034,2.6265984,STD
15434590489000,3.365052,0.271561637858199,9.85138542313381,-0.542729488886698,-0.022602014,0.032375857,0.016798794,281.7998,-94.44386,2.643743,STD
15434595445000,3.370008,0.248160276737994,9.84670505512277,-0.538049218617493,-0.02565634,0.033292156,0.0143553335,281.78265,-94.45156,2.658948,STD
15434600625000,3.375188,0.230664890884534,9.84575295139184,-0.532321521996005,-0.028405234,0.046731193,0.015271631,281.75964,-94.46342,2.6753685,STD
15434605462000,3.380025,0.217943553109974,9.84690945991761,-0.526539094088129,-0.022907447,0.044898596,0.020463986,281.7411,-94.47638,2.6916184,STD
15434610455000,3.385018,0.204811934439645,9.84810326745725,-0.520570174810885,-0.02321288,0.047647487,0.01863139,281.7177,-94.48294,2.70201,STD
15434615449000,3.390012,0.191677685763575,9.84929731409312,-0.514600060076145,-0.027488936,0.058337633,0.022296581,281.69308,-94.49135,2.7152138,STD
15434620439000,3.395002,0.178553957110473,9.85049040434403,-0.508634727171389,-0.022296581,0.058948494,0.02321288,281.6727,-94.50014,2.7265768,STD
15434625432000,3.399995,0.165422338440145,9.85168421188366,-0.502665807894146,-0.027488936,0.0580322,0.021991149,281.65002,-94.505554,2.7381837,STD
15434630395000,3.404958,0.15236961994208,9.85287084653601,-0.49673275234178,-0.028405234,0.064446285,0.026572637,281.6255,-94.51398,2.7515094,STD
15434635515000,3.410078,0.138903990542504,9.85409501929846,-0.490612009962552,-0.025961773,0.07360926,0.028405234,281.6007,-94.521,2.7633944,STD
15434640447000,3.41501,0.12222367587129,9.84564541401019,-0.485454246752273,-0.03359759,0.06688975,0.025350908,281.5789,-94.5252,2.7746706,STD
15434645451000,3.420014,0.103068143849305,9.83127897851504,-0.480665368247227,-0.036957346,0.059864793,0.02443461,281.555,-94.53129,2.7868736,STD
15434650485000,3.425048,0.0898736305318374,9.82285672325558,-0.46999869825903,-0.035430185,0.0571159,0.025350908,281.5384,-94.52587,2.7903538,STD
15434655546000,3.430109,0.0803335832717252,9.81808660249975,-0.455688624878457,-0.03634648,0.06291912,0.027488936,281.52155,-94.51929,2.7938588,STD
15434660446000,3.435009,0.0655991034322625,9.81347310678849,-0.469386782782199,-0.03176499,0.061086524,0.027488936,281.50763,-94.511734,2.7936616,STD
15434665455000,3.440018,0.0467484402980646,9.80876034590824,-0.502375424936634,-0.044898596,0.069027774,0.025350908,281.48944,-94.500114,2.7937062,STD
15434670455000,3.445018,0.038307227,9.80889178884361,-0.516026668986246,-0.040317107,0.071776666,0.028710667,281.47513,-94.49144,2.794556,STD
15434675455000,3.450018,0.038307227,9.81295741968076,-0.513993896019698,-0.04428773,0.07513642,0.020158553,281.4582,-94.47564,2.791549,STD
15434680478000,3.455041,0.038307227,9.81704175241977,-0.511951772297504,-0.034208454,0.07880162,0.02321288,281.4446,-94.46997,2.7894738,STD
15434685471000,3.460034,0.038307227,9.82110169137375,-0.509921845213109,-0.04153884,0.073303826,0.019547688,281.43253,-94.45696,2.783044,STD
15434690442000,3.465005,0.038307227,9.82514374155205,-0.507900862329767,-0.043676864,0.07422013,0.027794369,281.41797,-94.45016,2.781158,STD
15434695453000,3.470016,0.0311854683010715,9.83292553077127,-0.504009866785619,-0.04734206,0.06719518,0.01985312,281.40704,-94.43799,2.773479,STD
15434701321000,3.475884,0.0212329843655362,9.84287769618348,-0.499033633391481,-0.034513887,0.07269296,0.014660766,281.39255,-94.43113,2.769222,STD
15434705459000,3.480022,0.0249268591149984,9.84207062053618,-0.515313688660594,-0.037873644,0.07941248,0.019547688,281.3793,-94.41958,2.765552,STD
15434710467000,3.48503,0.0348555718677156,9.83710668222751,-0.545099832620847,-0.04337143,0.059864793,0.018325957,281.37192,-94.40856,2.7584455,STD
15434715440000,3.490003,0.0352011316438535,9.83848683361766,-0.5523487069142,-0.032070424,0.056505036,0.018936822,281.3682,-94.39373,2.7476647,STD
15434720462000,3.495025,0.0303747668918214,9.84331279167085,-0.547522345689915,-0.03176499,0.06627888,0.017104227,281.36618,-94.37501,2.7360094,STD
15434725453000,3.500016,0.0350797915902774,9.84178241614028,-0.541115965091718,-0.026572637,0.05497787,0.009468411,281.37604,-94.36385,2.7240381,STD
15434730441000,3.505004,0.0447354822891505,9.83695472580727,-0.533874187615342,-0.026267206,0.040927973,0.0125227375,281.38397,-94.35352,2.7149487,STD
15434735554000,3.510117,0.0546331459907019,9.83200605285765,-0.526450930150083,-0.028405234,0.04520403,0.018325957,281.38922,-94.34201,2.7040696,STD
15434740447000,3.51501,0.0641049372075395,9.82727030931325,-0.519347077465258,-0.043676864,0.042760566,0.014049901,281.40018,-94.326675,2.691109,STD
15434745432000,3.519995,0.0735294478804454,9.83878752119555,-0.530131149318226,-0.029932396,0.04184427,0.0076358155,281.41257,-94.32048,2.6834967,STD
15434750535000,3.525098,0.0830763195184606,9.85788115481539,-0.549224912531745,-0.03176499,0.036957346,0.016187929,281.4268,-94.3096,2.678984,STD
15434755426000,3.529989,0.0924206760822664,9.85476701572739,-0.561684209577578,-0.022907447,0.03756821,0.013133603,281.43448,-94.29965,2.669946,STD
15434760434000,3.534997,0.102091139733844,9.84026153735256,-0.571354663131364,-0.03268129,0.03940081,0.014049901,281.44327,-94.287605,2.6645463,STD
15434765406000,3.539969,0.102237991508883,9.84159457195026,-0.559073983497829,-0.032986723,0.029321533,0.009468411,281.4568,-94.28185,2.6579955,STD
15434770553000,3.545116,0.0973730219123569,9.8513241900908,-0.534749176154757,-0.029932396,0.03573562,0.011301007,281.46506,-94.276146,2.6539414,STD
15434775424000,3.549987,0.100271875160417,9.85003025561978,-0.53122820708463,-0.03176499,0.03970624,0.01863139,281.47766,-94.272156,2.6516898,STD
15434780404000,3.554967,0.107340573420384,9.84296166217084,-0.53829689894768,-0.035124753,0.03176499,0.01740966,281.4916,-94.267426,2.6474886,STD
15434785426000,3.559989,0.114468887207845,9.83583345407835,-0.545425206284274,-0.026572637,0.032986723,0.018020526,281.49466,-94.2632,2.6445565,STD
15434790470000,3.565033,0.121628428176375,9.82867401926782,-0.552584740773677,-0.02443461,0.032986723,0.01282817,281.50015,-94.2557,2.6395278,STD
15434795437000,3.57,0.13260222401973,9.83931021396418,-0.558156042792836,-0.03176499,0.025045475,0.016798794,281.50763,-94.24985,2.6372406,STD
15434800541000,3.575104,0.146646861859017,9.86271792740159,-0.562837585480318,-0.036651913,0.030848695,0.02321288,281.51105,-94.24466,2.6344798,STD
15434805461000,3.580024,0.168019766686692,9.87122280745342,-0.567496741065065,-0.03573562,0.016798794,0.019547688,281.5236,-94.24186,2.6319602,STD
15434810452000,3.585015,0.197221177178495,9.86635580745341,-0.57236363942572,-0.029626964,0.025961773,0.018325957,281.52783,-94.24075,2.6324081,STD
15434815441000,3.590004,0.209413380352165,9.86155821005902,-0.572055663369873,-0.035430185,0.029932396,0.018325957,281.53143,-94.243866,2.6384819,STD
15434820464000,3.595027,0.207027371888795,9.85678609845742,-0.567283651426021,-0.035430185,0.030848695,0.021685716,281.53326,-94.24986,2.645066,STD
15434825440000,3.600003,0.204663689206389,9.85205863930361,-0.56255629099747,-0.036957346,0.025350908,0.019242255,281.53577,-94.25665,2.6545904,STD
15434830436000,3.604999,0.202290506191657,9.84731217910818,-0.557809929924111,-0.04184427,0.02687807,0.020158553,281.53607,-94.263664,2.6658316,STD
15434835444000,3.610007,0.199551685578225,9.84651828621157,-0.558577310473796,-0.042455133,0.039095376,0.022907447,281.52933,-94.27187,2.6758046,STD
15434840764000,3.615327,0.196267433492877,9.84980260516986,-0.565145818073874,-0.03970624,0.035124753,0.02321288,281.5268,-94.279236,2.68481,STD
15434845432000,3.619995,0.19338568749017,9.8526844098498,-0.570909313088378,-0.038789943,0.03726278,0.013133603,281.51813,-94.282684,2.690953,STD
15434850507000,3.62507,0.190252683856121,9.85581747727712,-0.577175323627925,-0.04642576,0.03573562,0.014966198,281.51193,-94.28683,2.7001877,STD
15434855400000,3.629963,0.187232036214465,9.85883818642429,-0.583216622065365,-0.04337143,0.04184427,0.0143553335,281.49887,-94.29497,2.7092311,STD
15434860422000,3.634985,0.184131751633146,9.86193853413266,-0.589417194465287,-0.038789943,0.039095376,0.015577064,281.48898,-94.30217,2.718853,STD
15434865409000,3.639972,0.180495333636364,9.85971907664272,-0.592298045165053,-0.047036625,0.037873644,0.015577064,281.47705,-94.30662,2.7278001,STD
15434870450000,3.645013,0.175468081818182,9.84463754691242,-0.587270798596272,-0.041233405,0.038789943,0.009773844,281.46533,-94.31411,2.7351513,STD
15434875379000,3.649942,0.175887044314488,9.83362870216373,-0.578928448954033,-0.03176499,0.042455133,0.0061086523,281.4555,-94.32241,2.7410712,STD
15434880441000,3.655004,0.185554565883937,9.82879484295543,-0.564427153981454,-0.04734206,0.04917465,0.015882496,281.44482,-94.327614,2.7490754,STD
15434885459000,3.660022,0.186121906053157,9.83121814668265,-0.55004057793765,-0.03359759,0.042760566,0.008246681,281.43634,-94.33628,2.750075,STD
15434890470000,3.665033,0.171736605842326,9.84560324160671,-0.535655282733813,-0.038179077,0.03726278,0.01282817,281.4262,-94.34123,2.757296,STD
15434895384000,3.669947,0.16781936007259,9.85286275232288,-0.521710752947155,-0.03390302,0.043982297,0.008246681,281.4206,-94.3478,2.7654512,STD
15434900546000,3.675109,0.182173442188347,9.8480779600271,-0.507356650846884,-0.03359759,0.046731193,0.00580322,281.4178,-94.35349,2.775043,STD
15434905382000,3.679945,0.193553094730227,9.84361239990442,-0.495976984567742,-0.030543262,0.04642576,0.0067195175,281.4126,-94.35655,2.781601,STD
15434910455000,3.685018,0.200518419492951,9.83896899875747,-0.489011657380645,-0.03023783,0.044593163,0.003970624,281.40704,-94.35786,2.7862525,STD
15434915434000,3.689997,0.207354680481243,9.83441163737156,-0.482175394012903,-0.03634648,0.044593163,0.0030543262,281.40164,-94.35668,2.7928708,STD
15434920431000,3.694994,0.214215655809319,9.82983780028674,-0.475314416296774,-0.031154128,0.04184427,0.015882496,281.39777,-94.36005,2.802372,STD
15434925416000,3.699979,0.220781710453234,9.82657672871103,-0.471581740560261,-0.029321533,0.034513887,0.003970624,281.39813,-94.3599,2.809616,STD
15434930403000,3.704966,0.225226529104235,9.83324385342019,-0.491583411726384,-0.041233405,0.03848451,0.008246681,281.39645,-94.36308,2.824864,STD
15434935500000,3.710063,0.22976938867194,9.84005803722662,-0.512026266736156,-0.04886922,0.041233405,0.01160644,281.39526,-94.36472,2.8385596,STD
15434940421000,3.714984,0.234155382772918,9.84663692647743,-0.531763227596091,-0.03634648,0.032070424,0.008552114,281.39624,-94.3677,2.851093,STD
15434945698000,3.720261,0.238858672931596,9.853691752443,-0.55292801980456,-0.04062254,0.030848695,0.009468411,281.39905,-94.36712,2.8676581,STD
15434950516000,3.725079,0.231580519870993,9.8466945977326,-0.547615152150117,-0.040011674,0.043066,0.015577064,281.40045,-94.370674,2.8844354,STD
15434956418000,3.730981,0.220532364646208,9.83564680590305,-0.536567014229867,-0.039095376,0.041233405,0.014660766,281.40594,-94.372185,2.8987443,STD
15434960426000,3.734989,0.208733811580314,9.83922492233413,-0.532456956536185,-0.038789943,0.03634648,0.016493361,281.42383,-94.38159,2.9194784,STD
15434965389000,3.739952,0.193928591513861,9.84415958000208,-0.527521886616135,-0.037873644,0.043676864,0.0125227375,281.4383,-94.38985,2.9378314,STD
15434970404000,3.744967,0.17485689086606,9.8407875407193,-0.497535716276354,-0.040927973,0.04734206,0.01863139,281.4541,-94.39716,2.9573011,STD
15434975377000,3.74994,0.155168816758991,9.83586593592394,-0.463081568600661,-0.041233405,0.046120327,0.010079277,281.46863,-94.40155,2.9709656,STD
15434980407000,3.75497,0.151080752025692,9.82893639822134,-0.448945940128458,-0.043676864,0.046731193,0.0033597588,281.48245,-94.39986,2.979529,STD
15434985380000,3.759943,0.14872771466749,9.82187714609684,-0.437180753337451,-0.04153884,0.04184427,0.00580322,281.49792,-94.39924,2.9878867,STD
15434990477000,3.76504,0.146316005153162,9.81464187401186,-0.42512220576581,-0.047036625,0.043676864,0.0143553335,281.50494,-94.39077,2.9931102,STD
15434995387000,3.76995,0.143992777035573,9.8076720513834,-0.413506065177866,-0.045814894,0.04184427,0.008246681,281.51398,-94.38197,2.9945583,STD
15435000541000,3.775104,0.1436521,9.81369368032379,-0.414620155071493,-0.04520403,0.03604105,0.0070249503,281.52887,-94.374954,3.001658,STD
15435005314000,3.779877,0.1436521,9.82127588289155,-0.417653039265501,-0.053450707,0.038789943,0.005192355,281.5414,-94.36526,3.0067265,STD
15435010341000,3.784904,0.1436521,9.82926158000199,-0.420847321445112,-0.055283304,0.032375857,0.004886922,281.55542,-94.35376,3.0108829,STD
15435015329000,3.789892,0.1436521,9.83718532322596,-0.424016822044256,-0.04550946,0.032375857,0.00030543262,281.56635,-94.3421,3.013292,STD
15435020360000,3.794923,0.1436521,9.84517737458116,-0.427213645924427,-0.047036625,0.0421497,0.0009162979,281.576,-94.32908,3.0170162,STD
15435025561000,3.800124,0.1436521,9.85343948133895,-0.430518492078426,-0.052534413,0.043982297,0.00030543262,281.58755,-94.31642,3.0188498,STD
15435030342000,3.804905,0.151514920282905,9.85649974458266,-0.442750531450642,-0.04734206,0.03481932,0.005497787,281.59924,-94.307236,3.0223973,STD
15435035311000,3.809874,0.161062905127909,9.85888678877408,-0.457072509964386,-0.040927973,0.042760566,0.008857546,281.60522,-94.297005,3.0254374,STD
15435040338000,3.814901,0.170722337572231,9.86130169542536,-0.471561659891653,-0.04917465,0.04184427,0.0033597588,281.60535,-94.286804,3.0248442,STD
15435045309000,3.819872,0.180274165437901,9.86368970039125,-0.485889402936898,-0.043676864,0.043066,0.0012217305,281.60263,-94.282135,3.0262344,STD
15435050385000,3.824948,0.186019606978998,9.87629166134895,-0.512778833072496,-0.040927973,0.03726278,0.0015271631,281.5965,-94.27369,3.0235481,STD
15435055315000,3.829878,0.190786733796446,9.89059284268982,-0.541381618866115,-0.043066,0.04795292,0.003970624,281.5854,-94.26552,3.0211916,STD
15435060573000,3.835136,0.185216595726412,9.88652155590992,-0.533238924854031,-0.036651913,0.053450707,0.0027488936,281.57736,-94.26574,3.0208087,STD
15435065429000,3.839992,0.178371255902066,9.87967631377263,-0.519548238057505,-0.04153884,0.04642576,0.008552114,281.57013,-94.265114,3.0230591,STD
15435070411000,3.844974,0.171348298116874,9.87265345620921,-0.50550231515382,-0.032070424,0.040317107,0.007330383,281.56396,-94.27106,3.023509,STD
15435075412000,3.849975,0.164298556670919,9.86560381536725,-0.491402824900643,-0.03604105,0.049480084,0.011301007,281.55573,-94.27535,3.0271237,STD
15435080394000,3.854957,0.159240713060682,9.85876356962566,-0.463462110731129,-0.035124753,0.051923547,0.015882496,281.55127,-94.28223,3.0302749,STD
15435085493000,3.860056,0.154607021910139,9.85181313692651,-0.43102628477345,-0.035124753,0.04917465,0.0125227375,281.54572,-94.287094,3.032225,STD
15435090440000,3.865003,0.150111460011387,9.84506989500403,-0.399557363217726,-0.03145956,0.035124753,0.009773844,281.54254,-94.28782,3.0332026,STD
15435096065000,3.870628,0.14499976895004,9.8374024731698,-0.363775539132229,-0.05222898,0.04428773,0.0143553335,281.53366,-94.28433,3.035562,STD
15435100651000,3.875214,0.13780463327135,9.8470758662928,-0.360189323675718,-0.043676864,0.04917465,0.021380283,281.53006,-94.28743,3.037529,STD
15435105483000,3.880046,0.128698942252066,9.86528714374262,-0.369295009940968,-0.040011674,0.05375614,0.018325957,281.52383,-94.28424,3.037985,STD
15435110448000,3.885011,0.117982812748496,9.87108167663003,-0.37870800060377,-0.04153884,0.052839845,0.018020526,281.51108,-94.27404,3.0400562,STD
15435115445000,3.890008,0.106082652212762,9.86632151658626,-0.388228126845377,-0.04428773,0.055588737,0.0143553335,281.4959,-94.26321,3.040359,STD
15435120451000,3.895014,0.0941610585281743,9.86155278311036,-0.397765399602129,-0.042760566,0.04550946,0.0125227375,281.4859,-94.25334,3.039069,STD
15435125452000,3.900015,0.0822513721485055,9.85678881265231,-0.407293146517133,-0.04917465,0.051618114,0.010079277,281.47046,-94.24067,3.03686,STD
15435130426000,3.904989,0.0741498214207305,9.84960489131293,-0.404408780203356,-0.04550946,0.04917465,0.009773844,281.44913,-94.232124,3.0327682,STD
15435135459000,3.910022,0.069391671911155,9.84008889437315,-0.390134327699901,-0.047647487,0.04734206,0.013744468,281.42612,-94.221695,3.0294168,STD
15435140445000,3.915008,0.0662956441716592,9.83463897945057,-0.386040283313363,-0.03756821,0.049480084,0.013133603,281.40546,-94.21345,3.02085,STD
15435145446000,3.920009,0.0648089570131926,9.83315226279683,-0.39198703194723,-0.0421497,0.051618114,0.008246681,281.3855,-94.201935,3.0123413,STD
15435150462000,3.925025,0.0633178106850846,9.83166108688499,-0.397951617259662,-0.042455133,0.046731193,0.009773844,281.3618,-94.19179,3.0030587,STD
15435155434000,3.929997,0.0618397445879249,9.83018299146361,-0.403863881648301,-0.04153884,0.054367006,0.01160644,281.33405,-94.18022,2.992951,STD
15435160550000,3.935113,0.060318870462207,9.82866208716436,-0.409947378151172,-0.04337143,0.047647487,0.013439035,281.3121,-94.168564,2.983253,STD
15435165787000,3.94035,0.0587620257013813,9.82710521151637,-0.416174757194475,-0.042455133,0.032986723,0.01038471,281.2905,-94.15719,2.972908,STD
15435170472000,3.945035,0.0577524233807829,9.8269703262159,-0.420504750162119,-0.03726278,0.047036625,0.012217305,281.26035,-94.14951,2.9661515,STD
15435175446000,3.950009,0.0624613056405694,9.84580573724792,-0.406378108299723,-0.043676864,0.04062254,0.013439035,281.24045,-94.1391,2.958045,STD
15435180666000,3.955229,0.0665025502037153,9.86393262981906,-0.394076012392762,-0.040317107,0.03634648,0.004886922,281.21826,-94.132164,2.9472234,STD
15435185477000,3.96004,0.0598332105147889,9.8617094719421,-0.411860913277684,-0.0571159,0.040011674,0.00030543262,281.19595,-94.12103,2.9380877,STD
15435190806000,3.965369,0.0524457835344753,9.8592469468275,-0.4315607130731,-0.054367006,0.03756821,0.004886922,281.1752,-94.1132,2.9299662,STD
15435195458000,3.970021,0.0459968606010133,9.85709726267793,-0.448757836107117,-0.048563786,0.04642576,0.008552114,281.1503,-94.10173,2.9207628,STD
15435200464000,3.975027,0.0390571984761399,9.85478399551267,-0.467263596620507,-0.040927973,0.045814894,0.0018325958,281.1407,-94.08667,2.9095309,STD
15435205426000,3.979989,0.0362011202623489,9.86085244754514,-0.471369631795752,-0.038789943,0.04734206,0.007330383,281.12823,-94.07518,2.9031987,STD
15435210375000,3.984938,0.0338434812113117,9.86792550723773,-0.473727276508979,-0.04550946,0.042455133,0.005192355,281.11774,-94.06076,2.8928897,STD
15435215408000,3.989971,0.0314458256558723,9.87511861886286,-0.476124937822713,-0.04795292,0.044898596,0.007330383,281.1121,-94.05429,2.8852324,STD
15435220384000,3.994947,0.0290753241569915,9.88223026667661,-0.478495445014674,-0.047036625,0.04153884,0.0106901415,281.10956,-94.04713,2.8773625,STD
15435225478000,4.000041,0.0455092708669941,9.87487540593365,-0.466256212944773,-0.027183503,0.043982297,0.005497787,281.10175,-94.041145,2.8658664,STD
15435230446000,4.005009,0.0645841750105242,9.86533776215295,-0.451950036081989,-0.03176499,0.034513887,0.0070249503,281.0986,-94.03265,2.857257,STD
