timestamp,rel_time,acc_x,acc_y,acc_z,gyro_x,gyro_y,gyro_z,azimuth,pitch,roll,label
999162742000,0,-0.0159514418321518,9.8766495016561,0.394081703286823,-0.016798794,0.084910266,0.03940081,183.08278,-37.74228,-3.293645,STD
999168321000,0.005579,0.00246600277970115,9.87771717323861,0.391145589433329,-0.02443461,0.086132,0.040317107,183.07567,-37.905186,-3.2414477,STD
999172674000,0.009932,0.0168361652452677,9.87855022116811,0.388854694361764,-0.026572637,0.0852157,0.048563786,183.06801,-38.066757,-3.1918411,STD
999177691000,0.014949,0.0333983304393288,9.87951034096189,0.386214349639954,-0.020158553,0.09315695,0.04062254,183.06302,-38.22314,-3.1482556,STD
999182675000,0.019933,0.0498515557387508,9.8804641454371,0.383591372144738,-0.016798794,0.09987647,0.03726278,183.05652,-38.373333,-3.1029737,STD
999187661000,0.024919,0.0663113834560296,9.8814183326589,0.380967342090334,-0.019242255,0.09987647,0.03970624,183.05121,-38.518806,-3.059296,STD
999192648000,0.029906,0.082774512382237,9.88237271125399,0.378342785756336,-0.023518313,0.10293079,0.042455133,183.0457,-38.65996,-3.0192266,STD
999197677000,0.034935,0.0993762920834395,9.88333512752724,0.375696125679401,-0.025350908,0.10415252,0.035124753,183.04306,-38.79642,-2.9809778,STD
999202673000,0.039931,0.115869131890003,9.88429122848193,0.373066832829059,-0.014049901,0.099571034,0.036651913,183.03912,-38.931255,-2.9408734,STD
999207726000,0.044984,0.132550140605488,9.88525823771413,0.370407542041875,-0.013439035,0.103847094,0.040317107,183.03531,-39.05817,-2.9047072,STD
999212715000,0.049973,0.149019871949553,9.8862129990558,0.367781933148689,-0.02076942,0.11636983,0.03756821,183.03267,-39.18178,-2.8709886,STD
999217681000,0.054939,0.165413675488262,9.8871633588118,0.36516842868616,-0.018325957,0.10415252,0.035124753,183.0336,-39.30437,-2.832754,STD
999222676000,0.059934,0.181903214085897,9.88811926839321,0.362539662115412,-0.013744468,0.109650314,0.037873644,183.02916,-39.421623,-2.8014429,STD
999227681000,0.064939,0.198425764772817,9.88907709170751,0.359905632748727,-0.006414085,0.10781772,0.03756821,183.03018,-39.536465,-2.7674646,STD
999232668000,0.069926,0.214888893699024,9.89003147030259,0.35728107641473,-0.0033597588,0.098043874,0.03848451,183.03145,-39.647728,-2.7328687,STD
999238371000,0.075629,0.233715688218006,9.89112287217301,0.354279703891612,-0.0030543262,0.09254608,0.04795292,183.0311,-39.75679,-2.697923,STD
999242683000,0.079941,0.247950501117506,9.89194807379764,0.352010386283391,0.002443461,0.07880162,0.048258353,183.03656,-39.864475,-2.6611557,STD
999247674000,0.084932,0.264426834879427,9.89290321788589,0.349383724831018,0.0061086523,0.074830994,0.043982297,183.04088,-39.96831,-2.6251214,STD
999252672000,0.08993,0.280926277103847,9.89385970158716,0.346753379421489,0.005497787,0.06811147,0.03756821,183.0494,-40.069023,-2.5865076,STD
999257747000,0.095005,0.297679912415759,9.89483092103173,0.344082510483242,0.0125227375,0.06536258,0.044898596,183.05658,-40.169773,-2.5468102,STD
999262713000,0.099971,0.314073715954468,9.89578128078773,0.341469006020713,0.010079277,0.050701816,0.034513887,183.07324,-40.263973,-2.5081253,STD
999267700000,0.104958,0.330536844880676,9.89673565938282,0.338844449686715,-0.007941248,0.05375614,0.039095376,183.08301,-40.352867,-2.4692388,STD
999272677000,0.109935,0.346966961717599,9.89768812424501,0.336225156148654,0.007941248,0.061391957,0.034208454,183.09976,-40.447315,-2.4324396,STD
999277685000,0.114943,0.363499416031304,9.89864652167918,0.333589547943188,-0.005192355,0.061086524,0.033292156,183.1163,-40.52551,-2.393599,STD
999282670000,0.119928,0.379955942539654,9.89960051752769,0.330966044168378,-0.0106901415,0.059253927,0.03023783,183.13396,-40.607357,-2.3579383,STD
999287667000,0.124925,0.396452083555146,9.90055680985567,0.328336225038443,-0.008857546,0.059864793,0.035124753,183.15038,-40.68485,-2.321949,STD
999292686000,0.129944,0.413020851167064,9.90151731239602,0.325694827757445,-0.01038471,0.06872234,0.021991149,183.17084,-40.756786,-2.2917771,STD
999297672000,0.13493,0.429480678884343,9.90247149961782,0.323070797703041,-0.007330383,0.06291912,0.030848695,183.18878,-40.82833,-2.254027,STD
999302660000,0.139918,0.445947109019479,9.9034260695862,0.320445715089449,-0.01160644,0.058337633,0.03634648,183.20903,-40.89452,-2.2219284,STD
999308114000,0.145372,0.463951902515275,9.90446981950751,0.317575386185174,-0.014966198,0.05100725,0.034208454,183.23126,-40.959343,-2.1881847,STD
999312734000,0.149992,0.479203487764739,9.90535396410533,0.31514397446208,-0.008246681,0.054061573,0.034208454,183.2514,-41.02349,-2.1547241,STD
999317673000,0.154931,0.49550815866238,9.90629915678252,0.312544679548581,-0.015882496,0.052534413,0.03390302,183.27498,-41.08018,-2.1195996,STD
999322669000,0.159927,0.512000998468944,9.90725525773721,0.30991538669824,-0.014049901,0.05100725,0.036957346,183.29791,-41.139206,-2.0849295,STD
999327688000,0.164946,0.528569766080862,9.90821576027757,0.307273989417242,-0.017715093,0.042760566,0.034513887,183.32431,-41.192154,-2.049991,STD
999332683000,0.169941,0.545059304678497,9.90917166985897,0.304645222846495,-0.012217305,0.03634648,0.031154128,183.35083,-41.246075,-2.0151393,STD
999337658000,0.174916,0.561482819097563,9.91012375197458,0.302026981867622,-0.01160644,0.031154128,0.035430185,183.37825,-41.295498,-1.978206,STD
999342676000,0.179934,0.578048285500552,9.91108406314165,0.299386110866218,-0.007941248,0.017715093,0.034208454,183.41103,-41.345158,-1.940188,STD
999347812000,0.18507,0.592880089111267,9.91186900635809,0.296719029009697,-0.004581489,0.010079277,0.0290161,183.44432,-41.392853,-1.9026638,STD
999352687000,0.189945,0.581445220540588,9.91023544517645,0.294618746888084,-0.0106901415,0.0027488936,0.026267206,183.48058,-41.43688,-1.8625147,STD
999357707000,0.194965,0.569670237930371,9.90855329602119,0.292455994836699,-0.015577064,-0.005192355,0.021685716,183.54056,-41.373173,-1.7513427,STD
999362682000,0.19994,0.558000807953114,9.90688622589223,0.290312630004899,-0.010995574,-0.004581489,0.02076942,183.60219,-41.311996,-1.6426419,STD
999367685000,0.204943,0.546265700782015,9.90520977325802,0.288157202014246,-0.004886922,-0.017104227,0.01740966,183.67134,-41.251366,-1.5329545,STD
999372655000,0.209913,0.534607998875087,9.90354437857643,0.286015991317955,-0.0076358155,-0.027488936,0.01282817,183.74239,-41.19096,-1.4263302,STD
999377718000,0.214976,0.522732154860042,9.90184782057383,0.28383471370119,-0.004581489,-0.0290161,0.0125227375,183.81589,-41.135303,-1.3206936,STD
999382670000,0.219928,0.511116674006298,9.90018845750275,0.281701257892732,-0.010079277,-0.042760566,-0.0012217305,183.89948,-41.07722,-1.2153697,STD
999387660000,0.224918,0.499412059818055,9.89851636103169,0.279551430654404,-0.004276057,-0.048563786,0.004276057,183.97968,-41.024307,-1.1095488,STD
999392670000,0.229928,0.487660533348495,9.89683756277117,0.277392986874038,-0.004886922,-0.04917465,-0.0027488936,184.06905,-40.968704,-1.0083318,STD
999397667000,0.234925,0.475939499861791,9.8951631206738,0.275240143845996,-0.007941248,-0.055588737,-0.00061086525,184.15932,-40.915016,-0.9033213,STD
999402695000,0.239953,0.464145752339048,9.89347829080276,0.273073945177797,-0.0015271631,-0.06047566,-0.0021380284,184.25356,-40.864605,-0.8018443,STD
999407696000,0.244954,0.452415336396081,9.8918025083475,0.270919378841348,-0.012217305,-0.06994407,-0.0018325958,184.35083,-40.80928,-0.6985157,STD
999412683000,0.249941,0.440717759050035,9.89013141714486,0.268770844084325,-0.0061086523,-0.07086037,-0.0036651916,184.45003,-40.761337,-0.5978686,STD
999417673000,0.254931,0.429013144861791,9.8884593206738,0.266621016845996,0.004581489,-0.08307768,-0.0015271631,184.55402,-40.71247,-0.49306062,STD
999422684000,0.259942,0.417259272778167,9.8867801873238,0.264462142238528,0.0018325958,-0.09010262,-0.0015271631,184.607172732448,-40.6871047213622,-0.441682270991711,STD
999427686000,0.264944,0.405526511221134,9.88510406977907,0.262307145074977,0.00030543262,-0.09254608,-0.0012217305,184.66023,-40.661785,-0.3903962,STD
999432672000,0.26993,0.393831279489153,9.8834333136659,0.260159041145057,0.0030543262,-0.095294975,-0.005497787,184.76985,-40.616825,-0.28804117,STD
999437666000,0.274924,0.382117282844647,9.88175987683695,0.258007490598321,-0.0030543262,-0.10293079,-0.007941248,184.8835,-40.568768,-0.18316764,STD
999442684000,0.279942,0.370346991462561,9.88007839786064,0.25584560020114,-0.0030543262,-0.10629055,-0.005497787,184.99857,-40.52388,-0.07942851,STD
999447682000,0.28494,0.358623612361791,9.8784036206738,0.253692326345996,-0.0021380284,-0.10720685,0.0030543262,185.1156,-40.478153,0.025269458,STD
999452654000,0.289912,0.346961219226732,9.87673755581326,0.251550253995501,-0.005497787,-0.10567969,0.0030543262,185.175864411178,-40.4563074610778,0.0762371283057884,STD
999457702000,0.29496,0.335120559422673,9.87504602415275,0.249375438785264,0.002443461,-0.10751228,-0.00030543262,185.23705,-40.434128,0.12798387,STD
999462723000,0.299981,0.32334323119839,9.87336353990803,0.247212255906778,-0.0036651916,-0.10720685,-0.005192355,185.35884,-40.38793,0.23124053,STD
999467671000,0.304929,0.31173713280091,9.87170551719484,0.245080523406728,-0.0030543262,-0.11362094,-0.0015271631,185.4826,-40.345543,0.33623946,STD
999472673000,0.309931,0.300004371243877,9.87002939965011,0.242925526243177,-0.004581489,-0.112704635,-0.004276057,185.6092,-40.30142,0.43681496,STD
999477683000,0.314941,0.288252844774318,9.86835060138958,0.240767082462811,-0.00580322,-0.108123146,-0.0033597588,185.73653,-40.25814,0.5386929,STD
999482665000,0.319923,0.2765669954986,9.86668118563431,0.238620701841298,-0.0015271631,-0.11301007,-0.0027488936,185.86786,-40.216618,0.6412906,STD
999487658000,0.324916,0.26485534446816,9.86500808389483,0.236469582121664,-0.00030543262,-0.109650314,-0.008857546,185.99986,-40.17449,0.7394783,STD
999493397000,0.330655,0.251393865344647,9.86308500540838,0.233997065384035,-0.008246681,-0.10781772,-0.0012217305,186.13168,-40.13146,0.8412131,STD
999497675000,0.334933,0.241359328371239,9.86165149264221,0.232153987042237,-0.0070249503,-0.103847094,-0.008857546,186.2689,-40.092045,0.9373817,STD
999502651000,0.339909,0.229687552779916,9.85998408742377,0.230010191383335,-0.009468411,-0.099265605,-0.002443461,186.40266,-40.04977,1.0365958,STD
999507758000,0.345016,0.217708501745976,9.85827278548435,0.227809957374088,-0.017715093,-0.092240654,-0.004581489,186.5405,-40.006863,1.1311003,STD
999512691000,0.349949,0.206137587559482,9.85661978911327,0.225684687280566,-0.0070249503,-0.09773844,-0.008857546,186.68056,-39.969234,1.2278206,STD
999517672000,0.35493,0.194454083897831,9.85495070844747,0.223538737486154,-0.01038471,-0.089491755,-0.0015271631,186.81638,-39.925755,1.3214827,STD
999522673000,0.359931,0.182723667954864,9.8532749259922,0.221384171149705,-0.016187929,-0.09010262,-0.0015271631,186.888436345482,-39.9042953919121,1.36901212410384,STD
999527687000,0.364945,0.170962759029041,9.85159478737379,0.219224004060932,-0.025045475,-0.09560041,-0.004276057,186.96068,-39.88278,1.4166651,STD
999532670000,0.369928,0.159274564139258,9.84992503652904,0.217077192612316,-0.02076942,-0.089491755,-0.004886922,187.1008,-39.844734,1.5088917,STD
999537674000,0.374932,0.147537111354094,9.84824824880536,0.214921333794562,-0.028405234,-0.09132435,-0.0030543262,187.24522,-39.799747,1.6039975,STD
999542670000,0.379928,0.135818423481456,9.84657414179746,0.212768921593622,-0.02107485,-0.077579886,0.00030543262,187.38713,-39.76087,1.6943886,STD
999547855000,0.385113,0.124386995106618,9.84497415340634,0.210741209189139,-0.028710667,-0.08674286,-0.003970624,187.5365,-39.716263,1.7890705,STD
999552659000,0.389917,0.122895013302143,9.84520369369621,0.211429816277222,-0.023518313,-0.08093964,-0.0018325958,187.68007,-39.677917,1.8791581,STD
999557768000,0.395026,0.121308307423903,9.84544780721431,0.212162142175019,-0.027488936,-0.07849618,-0.00061086525,187.79675,-39.5425,1.9526645,STD
999563121000,0.400379,0.119645822286652,9.84570357931499,0.212929443120588,-0.040927973,-0.06841691,0.0015271631,187.91136,-39.41158,2.0237277,STD
999567729000,0.404987,0.118214712345973,9.84592375451393,0.213589955498166,-0.035124753,-0.058337633,0.00580322,188.02582,-39.290485,2.0948594,STD
999572704000,0.409962,0.116669622946042,9.84616146536783,0.214303073787762,-0.025045475,-0.061086524,0.00030543262,188.1435,-39.172157,2.1652737,STD
999577730000,0.414988,0.115108694438696,9.8464016130566,0.215023502435702,-0.02565634,-0.058643065,-0.0021380284,188.2578,-39.0573,2.2337077,STD
999582694000,0.419952,0.113567021316836,9.84663879831866,0.215735043981341,-0.02687807,-0.054367006,0.0015271631,188.37315,-38.949745,2.3025987,STD
999587689000,0.424947,0.112015720502233,9.84687746479407,0.21645102907813,-0.01985312,-0.045814894,-0.005192355,188.49118,-38.848934,2.3678818,STD
999592781000,0.430039,0.110434294326465,9.84712076603388,0.217180918189812,-0.03145956,-0.044898596,-0.005192355,188.550979379006,-38.7971061714744,2.40283345324519,STD
999597673000,0.434931,0.108914982297428,9.84735451105845,0.217882139229551,-0.028405234,-0.045814894,-0.003970624,188.60843,-38.747314,2.4364123,STD
999602652000,0.43991,0.107368650614563,9.84759241303665,0.218595830880585,-0.02443461,-0.051923547,0.00580322,188.72581,-38.655155,2.505031,STD
999607687000,0.444945,0.105804926970614,9.84783299075511,0.219317549591763,-0.036651913,-0.04642576,-0.0030543262,188.84602,-38.56,2.5682535,STD
999612681000,0.449939,0.104253936726744,9.84807160944945,0.220033391348193,-0.032070424,-0.039095376,-0.0009162979,188.96344,-38.474056,2.6363692,STD
999617672000,0.45493,0.102703878195076,9.84831008480056,0.220748803083543,-0.03359759,-0.03268129,0.0018325958,189.08292,-38.38655,2.7023227,STD
999622677000,0.459935,0.101149471673136,9.84854922908674,0.22146622158393,-0.035124753,-0.026572637,-0.004276057,189.20367,-38.30383,2.765857,STD
999627685000,0.464943,0.0995941334389952,9.84878851671614,0.222184070105396,-0.0290161,-0.030543262,0.0015271631,189.32283,-38.225815,2.8331816,STD
999632827000,0.470085,0.0979971787265448,9.84903420700975,0.222921126235064,-0.03390302,-0.02107485,-0.011301007,189.44507,-38.147774,2.892162,STD
999637660000,0.474918,0.0964961903707935,9.84926513295083,0.223613890193579,-0.029321533,-0.025045475,-0.013133603,189.56766,-38.07681,2.958426,STD
999642668000,0.479926,0.0949408521366528,9.84950442058024,0.224331738715045,-0.034208454,-0.028710667,-0.01038471,189.69138,-38.00474,3.0215623,STD
999647674000,0.484932,0.0933861350439793,9.84974361264749,0.225049300555791,-0.03481932,-0.020463986,-0.013439035,189.8164,-37.93805,3.0820968,STD
999652650000,0.489908,0.0918407350733155,9.84998137128246,0.225762562185746,-0.038789943,-0.021685716,-0.009773844,189.94269,-37.87147,3.1477752,STD
999657716000,0.494974,0.0902673837366229,9.85022343021429,0.226488724448075,-0.031154128,-0.007941248,-0.013439035,190.06824,-37.8108,3.2069426,STD
999662695000,0.499953,0.0887210520537581,9.85046133219248,0.227202416099109,-0.03359759,-0.0033597588,-0.0125227375,190.1948,-37.748436,3.2704403,STD
999667665000,0.504923,0.0871775155074962,9.85069880414099,0.227914817686906,-0.032375857,-0.012217305,-0.008552114,190.32245,-37.69165,3.334366,STD
999672669000,0.509927,0.0856234195562901,9.8509379006461,0.228632092846933,-0.030848695,-0.026267206,-0.012217305,190.45273,-37.636677,3.3978648,STD
999677686000,0.514944,0.0840652861855464,9.85117761830519,0.229351231431636,-0.03756821,-0.025961773,-0.016187929,190.58228,-37.58181,3.4613128,STD
999682678000,0.519936,0.0825149170831442,9.85141614143737,0.230066786507347,-0.03970624,-0.01985312,-0.010079277,190.71292,-37.53067,3.5282922,STD
999687659000,0.524917,0.0809679642588121,9.85165413897772,0.2307807648391,-0.03573562,-0.022907447,-0.01160644,190.84888,-37.481716,3.5958326,STD
999692683000,0.529941,0.0794076568929329,9.85189419110435,0.231500906806321,-0.02687807,-0.02321288,0.0030543262,190.97934,-37.43511,3.6658072,STD
999697672000,0.53493,0.0778582195027316,9.85213257089331,0.232216031860952,-0.040317107,-0.025350908,-0.0009162979,191.11638,-37.38569,3.7339294,STD
999702858000,0.540116,0.0762475996780004,9.85238036355427,0.232959394966448,-0.040317107,-0.022907447,0.00580322,191.24811,-37.343887,3.8059304,STD
999707672000,0.54493,0.0747525121661885,9.8526103816549,0.233649435458129,-0.036957346,-0.025045475,0.005497787,191.38472,-37.30135,3.878014,STD
999712688000,0.549946,0.0731946893661786,9.85285005153292,0.234368430702472,-0.038789943,-0.029321533,-0.0012217305,191.52243,-37.259182,3.950513,STD
999717674000,0.554932,0.0716461836881782,9.85308828797865,0.235083125736024,-0.046120327,-0.035124753,0.0015271631,191.65994,-37.217934,4.0258703,STD
999722688000,0.559946,0.0700889820296355,9.85332786229451,0.235801834299648,-0.036651913,-0.03756821,0.0021380284,191.80087,-37.1829,4.100377,STD
999727695000,0.564953,0.0685339543662284,9.85356710214284,0.236519539480754,-0.043066,-0.03970624,0.0036651916,191.94322,-37.1429,4.1772256,STD
999732675000,0.569933,0.06698731211263,9.85380505190211,0.237233374472148,-0.036957346,-0.031154128,0.0018325958,192.08609,-37.11088,4.252152,STD
999737659000,0.574917,0.065439427576097,9.85404319278569,0.237947782824981,-0.042455133,-0.04062254,0.004276057,192.23245,-37.075195,4.333117,STD
999742674000,0.579932,0.0638819153468207,9.85428281488263,0.238666634728964,-0.046120327,-0.044593163,0.008857546,192.37762,-37.0433,4.4114056,STD
999748032000,0.58529,0.0622178773559009,9.85453882588869,0.239434652376331,-0.051923547,-0.03726278,0.00580322,192.52504,-37.010933,4.4888124,STD
999752652000,0.58991,0.060783040566418,9.85475957446055,0.240096884838227,-0.043066,-0.04337143,0.004581489,192.6754,-36.98307,4.571704,STD
999757791000,0.595049,0.0591870175661686,9.85500512141093,0.240833510946816,-0.043982297,-0.044593163,0.0027488936,192.79364,-37.071133,4.65322,STD
999762747000,0.600005,0.0576478290101779,9.85524192442438,0.241543905769576,-0.046731193,-0.05375614,-0.0030543262,192.91724,-37.159508,4.7370405,STD
999767671000,0.604929,0.0561185787176641,9.85547719844338,0.242249713700826,-0.044593163,-0.06811147,-0.0036651916,193.0429,-37.247124,4.8229194,STD
999772688000,0.609946,0.0545604453469205,9.85571691610248,0.242968852285529,-0.04337143,-0.059253927,0.005192355,193.16698,-37.331852,4.906288,STD
999777690000,0.614948,0.0530069705371816,9.85595591704543,0.243685840764837,-0.03390302,-0.06505715,0.008246681,193.2994,-37.41804,4.9951553,STD
999782671000,0.619929,0.0514600177128496,9.85619391458578,0.24439981909659,-0.04520403,-0.070249505,0.0033597588,193.43172,-37.49698,5.082013,STD
999787662000,0.62492,0.0499099591811809,9.85643238993689,0.245115230831941,-0.04184427,-0.07941248,0.0009162979,193.56633,-37.58093,5.171999,STD
999792683000,0.629941,0.0483505835275027,9.85667229872028,0.245834942778083,-0.03848451,-0.07727446,0.005192355,193.70126,-37.660034,5.260922,STD
999797682000,0.63494,0.0467980404299648,9.85691115632,0.246551501236311,-0.046731193,-0.08093964,0.0027488936,193.84274,-37.735577,5.3516183,STD
999802654000,0.639912,0.0452538827422356,9.85714872383067,0.247264189504827,-0.036957346,-0.086132,0.0076358155,193.98334,-37.815292,5.444204,STD
999807756000,0.645014,0.0436693508591314,9.85739250288123,0.247995512020106,-0.042760566,-0.09101892,0.0012217305,194.1295,-37.887295,5.535129,STD
999812762000,0.65002,0.042114633766458,9.85763169494849,0.248713073860853,-0.03848451,-0.09468412,-0.002443461,194.2765,-37.963257,5.6282606,STD
999818440000,0.655698,0.0403512131407688,9.85790299589892,0.249526960423329,-0.04062254,-0.09193522,-0.003970624,194.42609,-38.034557,5.720312,STD
999822667000,0.659925,0.0390384306496121,9.85810496650785,0.250132860123856,-0.03634648,-0.10170906,0.0033597588,194.57927,-38.107376,5.816971,STD
999827686000,0.664944,0.0374796761374011,9.85834477972909,0.250852285389278,-0.040317107,-0.100792766,-0.00030543262,194.73473,-38.176434,5.9084654,STD
999832666000,0.669924,0.0359330338838027,9.85858272948836,0.251566120380672,-0.046120327,-0.102319926,0.0067195175,194.89024,-38.24425,6.005922,STD
999837662000,0.67492,0.0343814224984658,9.85882144374485,0.252282248817821,-0.039095376,-0.101098195,0.002443461,195.05037,-38.31398,6.099946,STD
999842649000,0.679907,0.0328326062497318,9.85905972797166,0.252997087191733,-0.036957346,-0.10995574,0.002443461,195.21198,-38.379147,6.1986065,STD
999847678000,0.684936,0.0312707460301844,9.85930001900367,0.253717945860753,-0.043676864,-0.11209377,0.007330383,195.37395,-38.442657,6.295666,STD
999852657000,0.689915,0.0297244143473196,9.85953792098186,0.254431637511787,-0.04428773,-0.111177474,0.010995574,195.53918,-38.50748,6.3938646,STD
999857690000,0.694948,0.0281613118448375,9.85977840313817,0.255153069542246,-0.03634648,-0.112399206,0.007941248,195.70758,-38.57192,6.492724,STD
999862678000,0.699936,0.0266121850253698,9.86001673514606,0.255868051256517,-0.03726278,-0.1133155,0.01282817,195.87515,-38.632267,6.593421,STD
999867670000,0.704928,0.0250618159229675,9.86025525827824,0.256583606332227,-0.03145956,-0.10781772,0.0033597588,196.04765,-38.696537,6.689886,STD
999872688000,0.709946,0.0235033719814903,9.86049502371841,0.25730288825729,-0.03756821,-0.1151481,0.0033597588,196.22144,-38.75566,6.7920327,STD
999877685000,0.714943,0.0219514500254197,9.86073378575598,0.258019160034799,-0.03023783,-0.11453723,0.0125227375,196.3948,-38.819298,6.8912725,STD
999882683000,0.719941,0.0203992174986155,9.86097259557462,0.258735575152668,-0.044593163,-0.110872045,0.011301007,196.57326,-38.874676,6.989724,STD
999888491000,0.725749,0.0185954226775513,9.86125010806496,0.259568095961908,-0.039095376,-0.100792766,0.007330383,196.751,-38.936623,7.0878515,STD
999892639000,0.729897,0.0173071752743533,9.86144830396887,0.260162671774017,-0.044593163,-0.10995574,0.006414085,196.93318,-38.99061,7.189891,STD
999897649000,0.734907,0.0157512158987452,9.86168768716043,0.260880806976202,-0.04642576,-0.11728613,0.006414085,197.1158,-39.046593,7.2889276,STD
999902683000,0.739941,0.0141878028255295,9.86192821709781,0.26160238234702,-0.043066,-0.1142318,0.012217305,197.29907,-39.101616,7.3887787,STD
999907707000,0.744965,0.0126274954596503,9.86216826922444,0.262322524314242,-0.03756821,-0.11209377,0.008246681,197.48805,-39.156597,7.48886,STD
999912677000,0.749935,0.0110839589133884,9.86240574117295,0.263034925902038,-0.038789943,-0.10934488,0.0061086523,197.67668,-39.20969,7.589685,STD
999917702000,0.75496,0.00952334097677551,9.86264584108065,0.263755211209619,-0.046731193,-0.10140363,0.009468411,197.86563,-39.26176,7.6893816,STD
999922699000,0.759957,0.00797141902070496,9.86288460311822,0.264471482987128,-0.04917465,-0.10415252,0.008552114,198.05945,-39.314785,7.789904,STD
999927691000,0.764949,0.0064210499183027,9.8631231262504,0.265187038062838,-0.051618114,-0.09407325,0.00580322,198.25107,-39.365017,7.8863974,STD
999932675000,0.769933,0.00487316538176965,9.86336126713398,0.265901446415671,-0.046731193,-0.093462385,0.008246681,198.44598,-39.415993,7.9866405,STD
999937645000,0.774903,0.00332962883550778,9.8635987390825,0.266613848003467,-0.046120327,-0.086437434,0.013439035,198.63977,-39.46467,8.083604,STD
999942669000,0.779927,0.00176932146962856,9.86383879120912,0.267333989970689,-0.0421497,-0.086437434,0.0143553335,198.83713,-39.515366,8.181966,STD
999947694000,0.784952,0.000208703533015692,9.86407889111682,0.26805427527827,-0.040011674,-0.08399397,0.014966198,199.03358,-39.565067,8.279471,STD
999972579000,0.809837,0.0104411139714226,9.86353092640261,0.275111341436226,-0.044898596,-0.0571159,0.024129177,199.88887,-40.254967,8.704435,STD
999977595000,0.814853,0.012604110199922,9.86341075751959,0.276553338670939,-0.040317107,-0.05131268,0.03176499,200.03961,-40.444736,8.779792,STD
999982600000,0.819858,0.0147623630156395,9.86329085216482,0.277992173631015,-0.05131268,-0.043982297,0.030543262,200.19304,-40.626728,8.852379,STD
999987580000,0.824838,0.0169098353477621,9.8631715457379,0.279423821603278,-0.048563786,-0.042760566,0.03726278,200.34454,-40.809227,8.927933,STD
999992600000,0.829858,0.0190745564536367,9.86305128102643,0.280866968756041,-0.05497787,-0.03726278,0.03481932,200.49747,-40.983047,8.9990425,STD
999997593000,0.834851,0.0212276346372287,9.86293166315703,0.282302353961967,-0.05009095,-0.03604105,0.032986723,200.6508,-41.15673,9.072187,STD
1000002584000,0.839842,0.0233798503821331,9.86281209320185,0.283737164208867,-0.04642576,-0.034513887,0.03573562,200.80396,-41.324585,9.1445465,STD
1000007649000,0.844907,0.0255639763584787,9.86269075042025,0.285193247939693,-0.04734206,-0.021991149,0.03756821,200.95674,-41.48911,9.213856,STD
1000012610000,0.849868,0.0277032555230691,9.8625718991785,0.286619433801219,-0.05589417,-0.01740966,0.04062254,201.11133,-41.648727,9.285361,STD
1000017608000,0.854866,0.0298584898033801,9.86245216152353,0.288056256404707,-0.0421497,-0.013744468,0.03573562,201.26636,-41.81119,9.353333,STD
1000022615000,0.859873,0.0320176050577853,9.86233220825453,0.289495666323808,-0.04642576,-0.0012217305,0.043676864,201.41673,-41.961826,9.421664,STD
1000027615000,0.864873,0.0341737017767838,9.86221242268534,0.290933063886321,-0.0571159,0.009162978,0.03970624,201.57176,-42.112103,9.486593,STD
1000032611000,0.869869,0.0363280736184072,9.8620927329446,0.292369311530784,-0.06352998,0.01160644,0.039095376,201.72485,-42.25828,9.552919,STD
1000037597000,0.874855,0.0384781332665926,9.86197328277499,0.293802684380122,-0.057421334,0.01863139,0.04550946,201.87567,-42.401516,9.616955,STD
1000042613000,0.879871,0.040641129495092,9.86185311389197,0.295244681614835,-0.05467244,0.038179077,0.041233405,202.0272,-42.5396,9.675929,STD
1000047606000,0.884864,0.042794207678684,9.86173349602257,0.296680066820761,-0.061391957,0.034208454,0.038789943,202.18164,-42.673084,9.740209,STD
1000052689000,0.889947,0.044986095603218,9.86161172201293,0.298141325182812,-0.054061573,0.03604105,0.041233405,202.33214,-42.80809,9.799676,STD
1000057759000,0.895017,0.0471723776762825,9.86149025944576,0.2995988463112,-0.06261369,0.04642576,0.04520403,202.48318,-42.93385,9.858384,STD
1000062697000,0.899955,0.0493017387959655,9.86137195921762,0.301018420143938,-0.060170226,0.05009095,0.04428773,202.63704,-43.061886,9.917977,STD
1000067669000,0.904927,0.0514457613733377,9.86125284444761,0.302447768280101,-0.04734206,0.05589417,0.043676864,202.78876,-43.187275,9.976201,STD
1000072655000,0.909913,0.0535958210215231,9.86113339427801,0.303881141129439,-0.052839845,0.052534413,0.044898596,202.94269,-43.305355,10.036127,STD
1000077680000,0.914938,0.0557626982241167,9.86101300978097,0.305325725679765,-0.053450707,0.056199603,0.04062254,203.09659,-43.425922,10.092602,STD
1000082671000,0.919929,0.0579149139690211,9.86089343982579,0.306760535926665,-0.046731193,0.049480084,0.04428773,203.2527,-43.543613,10.154127,STD
1000087649000,0.924907,0.0600615238624561,9.8607741813131,0.308191608939903,-0.043982297,0.047647487,0.038179077,203.4113,-43.65832,10.21152,STD
1000092667000,0.929925,0.0622253825296431,9.86065396451585,0.309634181133642,-0.040927973,0.059864793,0.045814894,203.56615,-43.771103,10.271318,STD
1000097701000,0.934959,0.0643961407063309,9.86053336440479,0.31108135299958,-0.0421497,0.04337143,0.03756821,203.73318,-43.8824,10.33335,STD
1000102762000,0.94002,0.0665785418053012,9.86041211745165,0.312536286812356,-0.03848451,0.03176499,0.035124753,203.8953,-43.992374,10.395011,STD
1000107781000,0.945039,0.068742831691832,9.86029187669728,0.313979146485606,-0.05009095,0.043982297,0.041233405,204.05727,-44.095264,10.455691,STD
1000112784000,0.950042,0.070900222068862,9.86017201925674,0.315417406486657,-0.04886922,0.04153884,0.03726278,204.22868,-44.201202,10.519576,STD
1000117717000,0.954975,0.073027427091826,9.86005383881418,0.316835542921832,-0.056199603,0.032375857,0.037873644,204.39822,-44.29848,10.584933,STD
1000122703000,0.959961,0.0751774867400114,9.85993438864457,0.31826891577117,-0.06261369,0.03145956,0.046731193,204.56715,-44.393818,10.65044,STD
1000127720000,0.964978,0.0773409141878546,9.85981419580444,0.319711200485396,-0.058948494,0.025350908,0.04062254,204.74353,-44.488888,10.7163315,STD
1000132710000,0.969968,0.0794926987134152,9.85969464980638,0.321145723252784,-0.061086524,0.024740042,0.043066,204.91695,-44.577328,10.78522,STD
1000137702000,0.97496,0.0816453456776634,9.85957505589409,0.322580820979197,-0.064446285,0.036651913,0.03970624,205.09302,-44.665405,10.850783,STD
1000142695000,0.979953,0.0837984238612554,9.85945543802469,0.324016206185123,-0.057421334,0.028405234,0.039095376,205.27397,-44.753517,10.9219475,STD
1000147649000,0.984907,0.0859346844904392,9.85933675448273,0.325440379690061,-0.06566802,0.03970624,0.03940081,205.4504,-44.83489,10.986775,STD
1000152770000,0.990028,0.0881429587500375,9.85921407010276,0.326912562273587,-0.06352998,0.032986723,0.036651913,205.63467,-44.919582,11.056506,STD
1000157805000,0.995063,0.0903141481460691,9.85909344603458,0.328360021619038,-0.062308256,0.041233405,0.04184427,205.81332,-44.999443,11.123177,STD
1000162788000,1.000046,0.0924629141362231,9.85897406773632,0.329792532029838,-0.056505036,0.05681047,0.04153884,205.9603,-45.257977,11.153746,STD
1000167705000,1.004963,0.0945832196496863,9.85885627060757,0.331206068792814,-0.06047566,0.047647487,0.040927973,206.1099,-45.51047,11.1883545,STD
1000172714000,1.009972,0.0967431973427791,9.85873626942435,0.332646053670939,-0.062002823,0.051618114,0.040011674,206.25363,-45.761837,11.217021,STD
1000177716000,1.014974,0.0989001565004653,9.85861643594092,0.334084026192477,-0.06536258,0.04428773,0.038179077,206.40218,-46.00819,11.249237,STD
1000182688000,1.019946,0.101044179077837,9.85849732117091,0.33551337432864,-0.055588737,0.050701816,0.040011674,206.54655,-46.253883,11.278492,STD
1000187706000,1.024964,0.103208037745024,9.85837710437367,0.336955946522379,-0.04550946,0.048563786,0.040011674,206.69528,-46.495373,11.309994,STD
1000192707000,1.029965,0.105364565683367,9.85825729484736,0.338393631564404,-0.05467244,0.04520403,0.038789943,206.843,-46.7304,11.340568,STD
1000197712000,1.03497,0.107522818499084,9.85813738949259,0.33983246652448,-0.059253927,0.043982297,0.03726278,206.99104,-46.965572,11.37105,STD
1000202777000,1.040035,0.10970694447543,9.85801604671099,0.341288550255306,-0.05009095,0.05467244,0.03634648,207.13763,-47.198154,11.399786,STD
1000207810000,1.045068,0.111877271432774,9.85789547055704,0.342735434641731,-0.05131268,0.04550946,0.029626964,207.29059,-47.42334,11.430989,STD
1000213053000,1.050311,0.114138154452316,9.85776986340918,0.344242689725783,-0.05131268,0.047647487,0.03359759,207.43716,-47.64656,11.460213,STD
1000217722000,1.05498,0.116151517568517,9.85765800764466,0.345584931569658,-0.052534413,0.05131268,0.03756821,207.58705,-47.865658,11.489573,STD
1000222705000,1.059963,0.118300283558671,9.8575386293464,0.347017441980458,-0.044898596,0.049480084,0.041233405,207.7374,-48.082867,11.520486,STD
1000227712000,1.06497,0.120459398813076,9.85741867607741,0.348456851899559,-0.04642576,0.053450707,0.039095376,207.88641,-48.2934,11.549376,STD
1000232695000,1.069953,0.12260816480323,9.85729929777914,0.349889362310359,-0.044593163,0.052839845,0.040927973,208.03589,-48.502243,11.581261,STD
1000237717000,1.074975,0.124773748347792,9.85717898515344,0.351333084422148,-0.05497787,0.04886922,0.04062254,208.18654,-48.70369,11.6122675,STD
1000242713000,1.079971,0.126928120189416,9.8570592954127,0.352769332066611,-0.05131268,0.054061573,0.0421497,208.33511,-48.90515,11.642689,STD
1000247787000,1.085045,0.129116127139855,9.85693773701708,0.354228003113049,-0.047036625,0.050396383,0.046731193,208.48662,-49.099785,11.6762705,STD
1000252772000,1.09003,0.131265755568697,9.85681831080459,0.355661088482875,-0.047647487,0.059253927,0.04337143,208.63593,-49.290768,11.705424,STD
1000257764000,1.095022,0.133418402532945,9.8566987168923,0.357096186209288,-0.047647487,0.05467244,0.03756821,208.78934,-49.479015,11.738347,STD
1000262827000,1.100085,0.135601666070603,9.85657742202493,0.358551694981088,-0.05375614,0.055588737,0.043066,208.93866,-49.660862,11.770687,STD
1000267696000,1.104954,0.137701273055564,9.85646077483765,0.359951432727464,-0.04795292,0.060170226,0.041233405,209.09126,-49.843315,11.800562,STD
1000272703000,1.109961,0.139860388309969,9.85634082156866,0.361390842646564,-0.046731193,0.059864793,0.046120327,209.24324,-50.018032,11.834152,STD
1000277714000,1.114972,0.142021228441749,9.85622077247121,0.362831402483715,-0.05467244,0.061086524,0.044898596,209.39595,-50.18884,11.865178,STD
1000282917000,1.120175,0.144264862687539,9.8560961236079,0.364327158387266,-0.050701816,0.06719518,0.040317107,209.54808,-50.359413,11.896019,STD
1000287700000,1.124958,0.146327384808933,9.85598153673241,0.365702172895566,-0.06078109,0.06688975,0.04428773,209.71764,-50.525703,11.932666,STD
1000292689000,1.129947,0.14847873811515,9.85586201469146,0.367136408183442,-0.067500606,0.061391957,0.04153884,209.87299,-50.685577,11.963978,STD
1000297706000,1.134964,0.150642165562993,9.85574182185133,0.368578692897668,-0.05467244,0.06261369,0.046731193,210.04236,-50.849316,12.000146,STD
1000302768000,1.140026,0.152824997881308,9.85562055094107,0.370033914189956,-0.058643065,0.059864793,0.04642576,210.21632,-51.004066,12.036481,STD
1000307752000,1.14501,0.154974195090805,9.8555011486857,0.371466712080269,-0.06169739,0.0711658,0.050701816,210.3859,-51.15819,12.072733,STD
1000312716000,1.149974,0.157114767913427,9.8553822255726,0.372893760380332,-0.062002823,0.07849618,0.043982297,210.55998,-51.309734,12.107939,STD
1000317712000,1.15497,0.159269139755051,9.85526253583186,0.374330008024795,-0.06994407,0.07727446,0.046731193,210.73198,-51.45384,12.146171,STD
1000322703000,1.159961,0.161421355499955,9.85514296587668,0.375764818271696,-0.06047566,0.0842994,0.04337143,210.9035,-51.60059,12.179221,STD
1000327724000,1.164982,0.163586507825173,9.8550226772081,0.377208252903971,-0.057726767,0.09101892,0.043982297,211.0752,-51.73967,12.214506,STD
1000332713000,1.169971,0.16573786113139,9.85490315516715,0.378642488191847,-0.052534413,0.08857546,0.049480084,211.24808,-51.87871,12.250975,STD
1000337703000,1.174961,0.167889645656951,9.85478360916909,0.380077010959235,-0.058337633,0.093462385,0.03970624,211.42117,-52.01393,12.282144,STD
1000342697000,1.179955,0.170043155059887,9.85466396734258,0.381512683644673,-0.05497787,0.087659165,0.0421497,211.59532,-52.148254,12.32006,STD
1000347689000,1.184947,0.172195802024135,9.85454437343029,0.382947781371086,-0.05955936,0.08674286,0.03970624,211.77069,-52.27742,12.353442,STD
1000353182000,1.19044,0.181823126526398,9.86397479875317,0.397233172254042,-0.056505036,0.083383106,0.038789943,211.94836,-52.406265,12.389617,STD
1000357645000,1.194903,0.190149890741282,9.8723017325151,0.409723320750049,-0.05467244,0.07941248,0.038789943,212.12773,-52.53094,12.42619,STD
1000362725000,1.199983,0.204030873699173,9.86952300135372,0.401390396483329,-0.053450707,0.07880162,0.03573562,212.275,-52.781433,12.4373045,STD
1000367607000,1.204865,0.218095743134119,9.86483461689646,0.389669675217849,-0.056199603,0.07819075,0.028710667,212.42337,-53.027782,12.447944,STD
1000372694000,1.209952,0.232751210322888,9.859949362547,0.37745678929456,-0.057726767,0.074830994,0.03023783,212.54408,-53.343464,12.443679,STD
1000377613000,1.214871,0.246922675449987,9.85522544547506,0.365647238310353,-0.05497787,0.061086524,0.032986723,212.66658,-53.656185,12.439199,STD
1000382691000,1.219949,0.247051342718288,9.86037100983637,0.36391866,-0.05681047,0.070249505,0.032070424,212.76306,-54.01608,12.417952,STD
1000387703000,1.224961,0.244813737409445,9.86708397296163,0.36391866,-0.038789943,0.08032878,0.027794369,212.85992,-54.378098,12.397696,STD
1000392689000,1.229947,0.242587739789753,9.87376211225584,0.36391866,-0.04734206,0.08307768,0.032375857,212.93692,-54.771442,12.377673,STD
1000397770000,1.235028,0.240319329459699,9.88056749247121,0.36391866,-0.03726278,0.07849618,0.0290161,213.01149,-55.17148,12.353102,STD
1000402743000,1.240001,0.240865171158533,9.88037495431136,0.365363652667381,-0.033292156,0.07819075,0.03176499,213.0453,-55.60369,12.330305,STD
1000407726000,1.244984,0.243298557756361,9.87550807439702,0.367797041806129,-0.04642576,0.07788532,0.026267206,213.0776,-56.029976,12.304106,STD
1000412698000,1.249956,0.245726572639845,9.87065193814696,0.370225059224925,-0.04917465,0.06780604,0.02076942,213.05963,-56.50537,12.28418,STD
1000417707000,1.254965,0.248172656017031,9.86575966411708,0.37267114515629,-0.03726278,0.069027774,0.019547688,213.03412,-56.974224,12.260906,STD
1000422814000,1.260072,0.252257583343955,9.86737168143796,0.389798540338578,-0.040927973,0.06414085,0.013744468,212.92831,-57.505825,12.252636,STD
1000427724000,1.264982,0.256940125467038,9.87205432135033,0.41321127051185,-0.021991149,0.058643065,0.008857546,212.81773,-58.03594,12.24257,STD
1000432694000,1.269952,0.28355208119019,9.87056564874875,0.412012635341341,-0.02687807,0.058643065,0.015271631,212.56764,-58.668335,12.261259,STD
1000437703000,1.274961,0.321966683815816,9.86576372752753,0.397607162490491,-0.038179077,0.05497787,0.01160644,212.32101,-59.287395,12.275698,STD
1000442755000,1.280013,0.353668108140703,9.85795091959799,0.417288899899497,-0.043676864,0.047036625,0.0061086523,211.89998,-60.053318,12.325018,STD
1000447714000,1.284972,0.38120466646695,9.848771881523,0.454004304611519,-0.03176499,0.05497787,0.011301007,211.48347,-60.789444,12.372799,STD
1000452716000,1.289974,0.401039960359484,9.84775401658391,0.466466564747766,-0.029932396,0.043982297,0.006414085,211.08238,-61.49846,12.428395,STD
1000457690000,1.294948,0.41523113305859,9.85248450297915,0.461736182080437,-0.022907447,0.054367006,0.009468411,210.67995,-62.180878,12.481439,STD
1000462677000,1.299935,0.429180514166826,9.86233516893576,0.46228706262512,-0.02687807,0.04886922,0.0070249503,210.29048,-62.827686,12.538449,STD
1000467675000,1.304933,0.442947981965484,9.87610290987536,0.466876208974113,-0.024740042,0.050396383,0.007330383,209.90309,-63.44948,12.592303,STD
1000472654000,1.309912,0.452423531960396,9.88095134851485,0.466949918039604,-0.029626964,0.048563786,0.0036651916,209.52542,-64.04428,12.646416,STD
1000477716000,1.314974,0.457346379006855,9.87602839609038,0.462027070993145,-0.02565634,0.04642576,0.0030543262,209.15372,-64.6156,12.6985035,STD
1000482668000,1.319926,0.462162249922315,9.87121242208682,0.457211200077685,-0.021380283,0.051618114,0.006414085,208.78798,-65.16023,12.749305,STD
1000487700000,1.324958,0.46705592166032,9.86631864559533,0.45231752833968,-0.029932396,0.044593163,0.0030543262,208.43277,-65.68002,12.796845,STD
1000492632000,1.32989,0.466816226216121,9.86003217986624,0.460714868310454,-0.020463986,0.04184427,0.009773844,208.0779,-66.181435,12.844518,STD
1000497715000,1.334973,0.462143200557422,9.8522438091901,0.480964643453969,-0.018020526,0.04062254,0.009468411,207.73102,-66.658554,12.887134,STD
1000502675000,1.339933,0.457583254213305,9.84464390390707,0.500724408299894,-0.020463986,0.032375857,0.007330383,207.39005,-67.11484,12.933316,STD
1000507753000,1.345011,0.452914825274711,9.83686319442578,0.520954264325622,-0.02565634,0.03145956,0.0070249503,207.05244,-67.54997,12.976346,STD
1000512631000,1.349889,0.448430265140316,9.82938893273815,0.54038735563982,-0.018936822,0.025350908,0.0067195175,206.71495,-67.9745,13.0204315,STD
1000517709000,1.354967,0.443761836201722,9.82160822325686,0.560617211665547,-0.021380283,0.018936822,0.0036651916,206.3835,-68.37627,13.060633,STD
1000522685000,1.359943,0.437914660332431,9.81884549435055,0.571989960332431,-0.027183503,0.013439035,0.0015271631,206.05116,-68.755875,13.104629,STD
1000527707000,1.364965,0.428932553767859,9.82782778849566,0.563007853767859,-0.025961773,0.006414085,-0.0015271631,205.72655,-69.11888,13.144861,STD
1000532681000,1.369939,0.421145979696743,9.83608154969317,0.554754240553265,-0.028405234,0.0061086523,0.0027488936,205.41292,-69.45151,13.173131,STD
1000538390000,1.375648,0.419370790067859,9.84140703331277,0.549428682788402,-0.026267206,0.0015271631,0.0027488936,205.10687,-69.771675,13.1976385,STD
1000542691000,1.379949,0.418033412139355,9.84541910286048,0.545416557381733,-0.016493361,0.0018325958,-0.00061086525,204.80153,-70.08118,13.218391,STD
1000547710000,1.384968,0.416472775119322,9.85010093895906,0.540734656099224,-0.01863139,-0.002443461,0.0030543262,204.50179,-70.373405,13.239228,STD
1000552746000,1.390004,0.41490685202052,9.85479863304003,0.536036896613526,-0.025045475,-0.0009162979,-0.00030543262,204.20053,-70.65093,13.258409,STD
1000557825000,1.395083,0.413327558251891,9.85953643848826,0.531299025202117,-0.023518313,-0.0036651916,0.0106901415,203.90373,-70.91361,13.280606,STD
1000563099000,1.400357,0.411471859721781,9.864441827187,0.525401117159929,-0.032375857,-0.0106901415,0.005497787,203.61302,-71.160095,13.296213,STD
1000567708000,1.404966,0.407350911985809,9.86856286098404,0.508917304700775,-0.020463986,-0.0061086523,0.006414085,203.32172,-71.39663,13.313372,STD
1000572693000,1.409951,0.402893779318458,9.87302008673326,0.4910887507609,-0.022907447,-0.009468411,0.009773844,203.03615,-71.62136,13.328502,STD
1000577714000,1.414972,0.394023217486974,9.88189039699399,0.496619799665331,-0.027794369,-0.0070249503,0.008857546,202.75075,-71.8386,13.339527,STD
1000582647000,1.419905,0.38455580190982,9.89135750611223,0.506087200413828,-0.02687807,-0.020158553,0.008857546,202.47336,-72.046074,13.3504505,STD
1000587694000,1.424952,0.386872401925541,9.88524097010491,0.49997047598923,-0.02565634,-0.023823744,0.008246681,202.19771,-72.24999,13.355031,STD
1000592701000,1.429959,0.391324276193483,9.87633751907901,0.491066750696314,-0.026267206,-0.018020526,0.0067195175,201.9257,-72.445206,13.357402,STD
1000597712000,1.43497,0.382624324394015,9.87702965266079,0.475050811518185,-0.026267206,-0.029932396,0.0021380284,201.6626,-72.634254,13.354598,STD
1000602726000,1.439984,0.368348799086315,9.88178825715985,0.456016781087107,-0.025961773,-0.026267206,0.005192355,201.3952,-72.814186,13.350375,STD
1000608776000,1.446034,0.372267474587779,9.87909050552861,0.454284337293889,-0.03023783,-0.027488936,-0.0021380284,201.13109,-72.98607,13.346824,STD
1000612751000,1.450009,0.379652106983511,9.87539811222114,0.457976653491756,-0.027488936,-0.027794369,-0.007330383,200.86775,-73.15113,13.34236,STD
1000617705000,1.454963,0.385813649382069,9.86820525558621,0.454203952667126,-0.02321288,-0.03634648,-0.003970624,200.6071,-73.311966,13.335807,STD
1000622738000,1.459996,0.390245841081379,9.85934092772414,0.445339571582529,-0.022602014,-0.037873644,0.0033597588,200.34682,-73.46654,13.326642,STD
1000627724000,1.464982,0.394636643348966,9.8505593782069,0.43655796933977,-0.025961773,-0.035124753,0.0009162979,200.09294,-73.61637,13.313999,STD
1000632700000,1.469958,0.399018639354483,9.84179544110345,0.427793979616552,-0.034513887,-0.03726278,-0.010079277,199.84293,-73.760216,13.299562,STD
1000637704000,1.474962,0.400002739993182,9.83760413907827,0.422268755631306,-0.02565634,-0.046120327,-0.0106901415,199.59555,-73.899254,13.285867,STD
1000642717000,1.479975,0.39182021366853,9.84578666198527,0.42554176479411,-0.021991149,-0.044898596,-0.0067195175,199.34795,-74.0327,13.268437,STD
1000647671000,1.484929,0.383733990765612,9.85387288151077,0.428776252604309,-0.016187929,-0.043676864,-0.014660766,199.1048,-74.16464,13.250799,STD
1000652716000,1.489974,0.375499232076629,9.86210763676029,0.432070154704118,-0.025961773,-0.050701816,-0.01038471,198.86478,-74.28637,13.236403,STD
1000657800000,1.495058,0.367200815193619,9.87040605017726,0.435389520070903,-0.0125227375,-0.04428773,-0.009468411,198.63176,-74.40884,13.211914,STD
1000662810000,1.500068,0.359023185653122,9.87858367630215,0.438660570520862,-0.014049901,-0.055588737,-0.009773844,198.4071,-74.52318,13.188073,STD
1000667641000,1.504899,0.35616278777993,9.87416036110035,0.44599588714258,-0.010079277,-0.064446285,-0.015882496,198.18138,-74.63806,13.161249,STD
1000672708000,1.509966,0.360863063409531,9.85065898295234,0.460096723847346,-0.015271631,-0.062308256,-0.016187929,197.95674,-74.74671,13.134837,STD
1000677645000,1.514903,0.356299690629479,9.84147613858222,0.464692139014139,-0.020158553,-0.06811147,-0.014049901,197.7313,-74.85121,13.105997,STD
1000682692000,1.51995,0.332895589343405,9.86019930621731,0.45064968019756,-0.018325957,-0.05955936,-0.0067195175,197.50206,-74.95194,13.076827,STD
1000687660000,1.524918,0.315189356268761,9.87284271861644,0.443068893400258,-0.015271631,-0.06688975,-0.02107485,197.27788,-75.05402,13.044638,STD
1000692698000,1.529956,0.311992330234238,9.86964562581586,0.452659979849584,-0.01740966,-0.06536258,-0.02076942,197.04913,-75.14772,13.016901,STD
1000697671000,1.534929,0.308836552054468,9.86648978173144,0.462127322626975,-0.02076942,-0.06658431,-0.019242255,196.82985,-75.255165,12.974394,STD
1000702719000,1.539977,0.305633180196137,9.86328634297452,0.471737446564291,-0.0106901415,-0.053450707,-0.023823744,196.60718,-75.36293,12.929115,STD
1000707710000,1.544968,0.302465979533512,9.8601190761687,0.481239056820064,-0.016798794,-0.05009095,-0.023823744,196.39352,-75.47012,12.880867,STD
1000712724000,1.549982,0.299284183476129,9.85693721366332,0.490784453298214,-0.014966198,-0.06352998,-0.02321288,196.18198,-75.578064,12.831308,STD
1000717713000,1.554971,0.291226571812555,9.85340308792612,0.493470393811769,-0.017715093,-0.06658431,-0.01740966,195.96458,-75.680145,12.784136,STD
1000722707000,1.559965,0.267733797895668,9.84870443992534,0.474676184490618,-0.018936822,-0.06291912,-0.021685716,195.75053,-75.7827,12.734086,STD
1000727703000,1.564961,0.244295814505718,9.84307659788719,0.452164879049234,-0.009162978,-0.05589417,-0.021991149,195.53802,-75.882614,12.682586,STD
1000732698000,1.569956,0.221114894768366,9.83380452626478,0.415075396819151,-0.008857546,-0.06169739,-0.027488936,195.32951,-75.981544,12.628462,STD
1000737654000,1.574912,0.199522549998286,9.82527385929734,0.381481871105398,-0.0125227375,-0.06169739,-0.015882496,195.11539,-76.07853,12.575709,STD
1000742715000,1.579973,0.18706285371551,9.82112054335904,0.369022183496144,-0.018325957,-0.06414085,-0.01282817,194.90512,-76.176865,12.51909,STD
1000747620000,1.584878,0.174987214461011,9.81709524901457,0.356946552647815,-0.0125227375,-0.0571159,-0.020158553,194.68999,-76.27747,12.461173,STD
1000752729000,1.589987,0.165000608277994,9.83099073865474,0.369105683444011,-0.013744468,-0.053450707,-0.016798794,194.47725,-76.371124,12.407074,STD
1000757725000,1.594983,0.155896675677861,9.84919849928646,0.387313548644277,-0.01863139,-0.057726767,-0.005497787,194.26587,-76.46307,12.352963,STD
1000762751000,1.600009,0.146363139765523,9.84080253839187,0.389216189505887,-0.020158553,-0.05497787,-0.0009162979,194.05377,-76.56091,12.293366,STD
1000767652000,1.60491,0.136916441304217,9.82190924997484,0.384492832877126,-0.01985312,-0.046731193,-0.004276057,193.8423,-76.655754,12.234565,STD
1000772640000,1.609898,0.139142490116443,9.81453790252961,0.394895707720337,-0.015577064,-0.047036625,0.008857546,193.63284,-76.746025,12.17793,STD
1000777689000,1.614947,0.146423151157398,9.81211096652278,0.41188392272887,-0.020158553,-0.034513887,0.00030543262,193.419,-76.84035,12.113604,STD
1000782677000,1.619935,0.153615850161614,9.80971335178679,0.428666892913572,-0.02076942,-0.033292156,0.0027488936,193.2099,-76.929825,12.054525,STD
1000787647000,1.624905,0.160782593154989,9.80732438922907,0.445389299051897,-0.024740042,-0.035430185,0.003970624,192.99945,-77.01955,11.99246,STD
1000792679000,1.629937,0.149117561505514,9.79980614050807,0.429577690471642,-0.023518313,-0.022296581,0.008857546,192.78514,-77.106804,11.93175,STD
1000797679000,1.634937,0.130258153273927,9.79037673916896,0.401288575662662,-0.021991149,-0.02107485,0.0021380284,192.5763,-77.19513,11.868442,STD
1000802737000,1.639995,0.122828165667572,9.79918915346999,0.389308431335144,-0.021685716,-0.016493361,0.010079277,192.36664,-77.27524,11.81015,STD
1000807775000,1.645033,0.120444961479872,9.81587141605335,0.384542022959743,-0.022296581,-0.012217305,0.008857546,192.15823,-77.35852,11.747388,STD
1000812718000,1.649976,0.118106696632749,9.83223910639664,0.379865493265498,-0.025045475,-0.00580322,0.010079277,191.95119,-77.44519,11.682521,STD
1000817716000,1.654974,0.11574241427266,9.8487889175105,0.37513692854532,-0.016187929,-0.0018325958,0.008552114,191.74478,-77.532845,11.616653,STD
1000822692000,1.65995,0.108739956293965,9.84835247510456,0.382768044268074,-0.01863139,-0.005497787,0.01038471,191.53973,-77.61669,11.552279,STD
1000827731000,1.664989,0.0991288159808803,9.83874164389564,0.397184752730532,-0.017104227,-0.016187929,0.004581489,191.33688,-77.70318,11.485522,STD
1000832695000,1.669953,0.0929072629543801,9.83824156087322,0.393643474473365,-0.013133603,-0.01160644,-0.00061086525,191.13603,-77.79605,11.413622,STD
1000837671000,1.674929,0.0884614959328296,9.84268695465995,0.380306169694934,-0.01863139,-0.012217305,0.0076358155,190.94055,-77.88466,11.34472,STD
1000842692000,1.67995,0.0987205298037561,9.8474629041992,0.381013020835619,-0.013133603,-0.0030543262,0.004276057,190.74208,-77.97921,11.268871,STD
1000847719000,1.684977,0.124117561780966,9.85254241242878,0.396251237900401,-0.022907447,-0.0076358155,0.0076358155,190.54842,-78.066376,11.198096,STD
1000852701000,1.689959,0.136922292136545,9.85738105010614,0.389414413155946,-0.021685716,-0.01282817,0.0070249503,190.35681,-78.16061,11.122179,STD
1000857743000,1.695001,0.141689656584391,9.86214851162561,0.367961269407118,-0.024129177,-0.0070249503,0.004276057,190.16425,-78.25183,11.047054,STD
1000863508000,1.700766,0.147140639535963,9.86759960556844,0.343431841856148,-0.010079277,-0.0021380284,0.0027488936,189.9765,-78.33941,10.976225,STD
1000867714000,1.704972,0.151117540541048,9.87157658754998,0.325535784218789,-0.025045475,-0.0009162979,0.0009162979,189.78914,-78.42359,10.904996,STD
1000872698000,1.709956,0.148069644249486,9.86594894379712,0.323773519972584,-0.019547688,-0.0009162979,0.0027488936,189.59508,-78.50372,10.839522,STD
1000877726000,1.714984,0.138640059300891,9.8518042783707,0.337917899857045,-0.0125227375,-0.0018325958,0.011301007,189.40198,-78.58037,10.775698,STD
1000882684000,1.719942,0.138931524172777,9.84252909201406,0.356905604235058,-0.013744468,0.0018325958,0.009468411,189.2079,-78.656494,10.713637,STD
1000887684000,1.724942,0.14855161960221,9.83771944861878,0.380955850342541,-0.013439035,-0.00061086525,0.0027488936,189.01704,-78.73169,10.652754,STD
1000892687000,1.729945,0.155670820907108,9.83293904064638,0.395090988357292,-0.01160644,0.002443461,0.0030543262,188.82117,-78.803925,10.593417,STD
1000897629000,1.734887,0.160362859671855,9.8282469087935,0.399783022222663,-0.0076358155,-0.005192355,0.0018325958,188.63051,-78.877914,10.532053,STD
1000902716000,1.739974,0.167244526742257,9.82136510287611,0.393348266515487,-0.017104227,0.004276057,0.0106901415,188.43771,-78.94412,10.473443,STD
1000907690000,1.744948,0.176026795929204,9.81258265486726,0.375783728141593,-0.018936822,-0.0018325958,0.00061086525,188.25319,-79.01628,10.409632,STD
1000912679000,1.749937,0.183557589947239,9.80984650153673,0.365516919112796,-0.0076358155,0.005192355,0.00061086525,188.06361,-79.08225,10.351636,STD
1000917678000,1.754936,0.188462256292388,9.81965577789161,0.370421582897244,-0.013439035,0.00030543262,0.009468411,187.88048,-79.14633,10.293755,STD
1000922654000,1.759912,0.193344356659154,9.82941992254892,0.375303680715091,-0.014966198,-0.0036651916,0.006414085,187.69598,-79.20968,10.236198,STD
1000927686000,1.764944,0.198281400277635,9.83929395307858,0.380240721755968,-0.008857546,0.00580322,0.0061086523,187.5102,-79.26988,10.181641,STD
1000932729000,1.769987,0.20410543195712,9.84296206924526,0.38606475195712,-0.019547688,0.006414085,0.00061086525,187.32361,-79.32675,10.128867,STD
1000937700000,1.774958,0.211001898122555,9.83836457235984,0.392961218122555,-0.014660766,0.007330383,0.0030543262,187.13559,-79.38348,10.0778,STD
1000942612000,1.77987,0.217816511239558,9.833821642426,0.399775831239558,-0.014966198,0.009773844,0.0067195175,186.953168160712,-79.437299161413,10.0271517894526,STD
1000947693000,1.784951,0.224865584783428,9.82912241054614,0.406824904783427,-0.025045475,0.011301007,0.011301007,186.76447,-79.49297,9.974761,STD
1000952571000,1.789829,0.233826832581685,9.82978741573517,0.407819206031814,-0.016493361,0.010995574,0.011301007,186.58096,-79.548904,9.923091,STD
1000957628000,1.794886,0.24944266269454,9.84540302300086,0.392203370483663,-0.028405234,0.008857546,0.01038471,186.39902,-79.601166,9.872213,STD
1000962537000,1.799795,0.259500177262996,9.8526812493186,0.379366640621438,-0.020158553,0.004886922,0.016493361,186.22093,-79.65151,9.825242,STD
1000967895000,1.805153,0.262043051297388,9.84759567649537,0.369195171036226,-0.01740966,0.0070249503,0.0143553335,186.04333,-79.70286,9.775359,STD
1000972559000,1.809817,0.264256557175777,9.8431688172853,0.36034117063581,-0.03176499,0.0012217305,0.010079277,185.87363,-79.75262,9.727772,STD
1000977595000,1.814853,0.266646611979285,9.83838887239209,0.350780976378413,-0.024740042,0.0030543262,0.01038471,185.70247,-79.80388,9.68049,STD
1000982548000,1.819806,0.27138731709766,9.83861761570522,0.338291602424931,-0.029321533,0.0067195175,0.020158553,185.53378,-79.85139,9.634586,STD
1000987582000,1.82484,0.280520519939377,9.84775053244293,0.320025187204698,-0.0290161,0.0027488936,0.017715093,185.36835,-79.903175,9.5852165,STD
1000992565000,1.829823,0.286516293568334,9.85374611825006,0.309215494156278,-0.02565634,0.002443461,0.0125227375,185.20552,-79.95188,9.53714,STD
1000997591000,1.834849,0.283332999576734,9.85056292397738,0.320357029774809,-0.01038471,0.014660766,0.016187929,185.04132,-79.99994,9.490658,STD
1001002680000,1.839938,0.28010980357131,9.84733982894084,0.331638222525049,-0.01863139,0.018325957,0.013439035,184.88228,-80.046684,9.442412,STD
1001007768000,1.845026,0.276887240931186,9.84411736724976,0.34291719849542,-0.02107485,0.013133603,0.015882496,184.72327,-80.09293,9.3965435,STD
1001012687000,1.849945,0.273771717026553,9.84100194094111,0.353821538668033,-0.021991149,0.014660766,0.0106901415,184.55934,-80.140205,9.349649,STD
1001017675000,1.854933,0.270612490916306,9.83784281379584,0.364878836651566,-0.013133603,0.0125227375,0.01160644,184.39908,-80.1859,9.305174,STD
1001022648000,1.859906,0.265250182472694,9.83586436211945,0.372528654998838,-0.02321288,0.006414085,0.011911872,184.2408,-80.23139,9.258965,STD
1001027681000,1.864939,0.251808376381594,9.83810447404137,0.368048056867302,-0.019242255,0.008857546,0.013133603,184.08182,-80.27846,9.21308,STD
1001032669000,1.869927,0.238486753337207,9.84032455714618,0.363607519716477,-0.014966198,0.016798794,0.014660766,183.91998,-80.32289,9.1674,STD
1001037759000,1.875017,0.224892715386939,9.84259003890309,0.35907617767604,-0.02565634,0.0125227375,0.013439035,183.7623,-80.366806,9.121302,STD
1001042690000,1.879948,0.21172332420172,9.8447847521729,0.354686384434116,-0.017104227,0.005497787,0.02076942,183.60869,-80.41073,9.074669,STD
1001047674000,1.884932,0.202092875254833,9.82776335823081,0.345744985254833,-0.018325957,0.015882496,0.017715093,183.45262,-80.45592,9.024549,STD
1001053682000,1.89094,0.191173591841694,9.80810014506205,0.33446316292627,-0.021991149,0.011301007,0.019242255,183.30388,-80.49845,8.978177,STD
1001057744000,1.895002,0.187116759888414,9.82432738815309,0.326349490547502,-0.026572637,0.01282817,0.02076942,183.14879,-80.546715,8.925726,STD
1001063110000,1.900368,0.182144185575729,9.84458730043001,0.316404331537506,-0.031154128,0.013439035,0.023823744,182.99112,-80.59332,8.8765955,STD
1001067673000,1.904931,0.186319908308648,9.83623611657907,0.324755785723841,-0.029626964,0.017104227,0.023518313,182.83344,-80.64061,8.826826,STD
1001072700000,1.909958,0.190920249789775,9.82703572183469,0.333956478293359,-0.032986723,0.018936822,0.022602014,182.67426,-80.68895,8.778558,STD
1001077683000,1.914941,0.183685991249525,9.81795370140738,0.35481358482693,-0.030848695,0.026572637,0.0290161,182.51353,-80.73603,8.73208,STD
1001082606000,1.919864,0.174719347846139,9.80898687542792,0.377230190994675,-0.034208454,0.019242255,0.028710667,182.35805,-80.7843,8.683575,STD
1001087658000,1.924916,0.174174190648764,9.81560834388961,0.37590558114663,-0.030848695,0.020463986,0.028099801,182.19902,-80.830055,8.637827,STD
1001092649000,1.929907,0.176546763800258,9.82747119726,0.366415293495483,-0.029932396,0.030848695,0.029626964,182.04079,-80.8748,8.592463,STD
1001097673000,1.934931,0.178935024171548,9.83941248664747,0.356862256997915,-0.040011674,0.03023783,0.030848695,181.89163,-80.92445,8.541561,STD
1001102669000,1.939927,0.181309974174526,9.85128722426288,0.347362461945796,-0.04734206,0.03023783,0.038179077,181.74034,-80.972176,8.492832,STD
1001107824000,1.945082,0.176380507605699,9.85267435499411,0.34662465005381,-0.039095376,0.021991149,0.029626964,181.59325,-81.02715,8.440694,STD
1001112657000,1.949915,0.169264527497053,9.85030231373956,0.348996646725773,-0.030848695,0.028405234,0.035430185,181.44278,-81.07534,8.394662,STD
1001117668000,1.954926,0.161886464942859,9.84784290990622,0.351456004334546,-0.040011674,0.03481932,0.035430185,181.29547,-81.12609,8.345888,STD
1001122655000,1.959913,0.154543739347614,9.84539528529698,0.353903582940604,-0.040927973,0.034513887,0.03726278,181.14928,-81.17609,8.299415,STD
1001127682000,1.96494,0.148102596105788,9.844957,0.360749750025897,-0.028710667,0.040011674,0.03145956,181.00131,-81.23043,8.250896,STD
1001132628000,1.969886,0.141969371983685,9.844957,0.368416277376667,-0.028710667,0.0421497,0.03145956,180.85541,-81.2811,8.204761,STD
1001137650000,1.974908,0.135741905032371,9.844957,0.376200608220899,-0.03726278,0.040317107,0.036651913,180.70227,-81.32819,8.159944,STD
1001142691000,1.979949,0.129490877373754,9.844957,0.384014389938495,-0.03481932,0.04153884,0.036957346,180.54897,-81.377464,8.11371,STD
1001147673000,1.984931,0.123313011911498,9.844957,0.391736718944063,-0.035124753,0.03756821,0.040011674,180.4032,-81.42638,8.067122,STD
1001152686000,1.989944,0.117096705295222,9.844957,0.399507099374595,-0.031154128,0.029321533,0.03268129,180.25964,-81.4784,8.017815,STD
1001157706000,1.994964,0.118069137756981,9.84180964412579,0.40379960723522,-0.040011674,0.050701816,0.03176499,180.10973,-81.52635,7.9709563,STD
1001162733000,1.999991,0.122913678523774,9.8369652601761,0.406221875089308,-0.036957346,0.042760566,0.033292156,179.97185,-81.576836,7.923431,STD
1001167671000,2.004929,0.127672449621132,9.8322066431195,0.408601258153459,-0.0421497,0.04337143,0.030543262,179.82565,-81.62978,7.869886,STD
1001172662000,2.00992,0.132482297038491,9.82739695139623,0.411006179350943,-0.036957346,0.04520403,0.02687807,179.68251,-81.683495,7.816915,STD
1001177678000,2.014936,0.147522813659708,9.83925143643006,0.405078926680585,-0.037873644,0.04153884,0.020463986,179.54198,-81.737206,7.7627654,STD
1001182694000,2.019952,0.167580122169102,9.85930862974948,0.395050277661795,-0.03940081,0.046120327,0.03176499,179.39946,-81.78716,7.712842,STD
1001187774000,2.025032,0.174193667481351,9.86048863317244,0.394460225590171,-0.04062254,0.05100725,0.03268129,179.2562,-81.83623,7.662921,STD
1001192719000,2.029977,0.176502542009653,9.85587079250158,0.396769097707572,-0.043676864,0.054367006,0.026572637,179.11325,-81.883644,7.6143003,STD
1001197674000,2.034932,0.178816085647214,9.85124361342694,0.399082638929355,-0.035430185,0.06414085,0.028099801,178.96567,-81.92453,7.5737796,STD
1001202697000,2.039955,0.181161379227731,9.84655293320657,0.401427930060943,-0.036651913,0.05222898,0.0290161,178.82487,-81.96601,7.5315304,STD
1001207723000,2.044981,0.178947738969947,9.84345133105802,0.40222588,-0.03481932,0.06658431,0.028099801,178.67511,-82.00871,7.4886074,STD
1001212730000,2.049988,0.174401752751232,9.84117852901024,0.40222588,-0.034513887,0.0580322,0.034208454,178.53664,-82.049,7.4483953,STD
1001217670000,2.054928,0.169916597584376,9.83893613993174,0.40222588,-0.02321288,0.06261369,0.025961773,178.3825,-82.08649,7.4104934,STD
1001223320000,2.060578,0.164786814853053,9.83637146416382,0.40222588,-0.03726278,0.065973446,0.03390302,178.23244,-82.11578,7.3787766,STD
1001227682000,2.06494,0.171175528208469,9.835381,0.403272105206715,-0.03573562,0.061086524,0.025961773,178.0843,-82.15594,7.3415737,STD
1001232669000,2.069927,0.190322424325733,9.835381,0.405665465347031,-0.038179077,0.052839845,0.024129177,177.93745,-82.19069,7.3081193,STD
1001237656000,2.074914,0.209469320442997,9.835381,0.408058825487347,-0.03726278,0.06047566,0.022602014,177.78816,-82.22961,7.270502,STD
1001242713000,2.079971,0.228884971869707,9.835381,0.410485780015034,-0.03268129,0.059253927,0.033292156,177.64502,-82.26589,7.2359953,STD
1001247675000,2.084933,0.250058941530602,9.83750857367525,0.416058187278373,-0.03268129,0.05497787,0.029932396,177.5021,-82.30599,7.196879,STD
1001252706000,2.089964,0.274190415498347,9.84233446328759,0.425710782912952,-0.03940081,0.05100725,0.02687807,177.36066,-82.343,7.1607614,STD
1001257826000,2.095084,0.291827214382423,9.84269568408551,0.426433285617577,-0.03268129,0.0571159,0.027183503,177.22246,-82.374794,7.1312265,STD
1001262678000,2.099936,0.301024894928741,9.8380972327791,0.417235605071259,-0.029932396,0.053450707,0.02687807,177.08957,-82.40667,7.1006007,STD
1001267643000,2.104901,0.310328747053726,9.8431228056037,0.405996291440401,-0.030543262,0.04917465,0.027183503,176.96132,-82.43413,7.071008,STD
1001272660000,2.109918,0.319580981941075,9.86162715944541,0.392117943939919,-0.030848695,0.054061573,0.02687807,176.83275,-82.46236,7.0408754,STD
1001277623000,2.114881,0.331657880747716,9.87519964096588,0.378537431806825,-0.032070424,0.054061573,0.02076942,176.7087,-82.49054,7.0112033,STD
1001282674000,2.119932,0.349697202789484,9.87970956330412,0.365007947339176,-0.038179077,0.052839845,0.022907447,176.5847,-82.51632,6.983509,STD
1001287645000,2.124903,0.367984973253193,9.88428149286251,0.356375015565096,-0.037873644,0.052534413,0.02443461,176.46208,-82.54226,6.954329,STD
1001293422000,2.13068,0.391737340961683,9.89021908564989,0.368251193218847,-0.032986723,0.0421497,0.027183503,176.34393,-82.56748,6.926019,STD
1001297606000,2.134864,0.403775361264243,9.88819262092539,0.381242872793025,-0.034513887,0.04153884,0.025045475,176.22769,-82.590706,6.897991,STD
1001302715000,2.139973,0.4086230647419,9.87364971296939,0.40548141042901,-0.03756821,0.03848451,0.025961773,176.11624,-82.61308,6.871535,STD
1001307644000,2.144902,0.410410877605452,9.85854381948793,0.418595892304292,-0.032375857,0.034208454,0.02076942,176.00317,-82.63176,6.849026,STD
1001312679000,2.149937,0.405969987202063,9.84078035061706,0.409714102223246,-0.040011674,0.025045475,0.01985312,175.89357,-82.64789,6.827705,STD
1001317637000,2.154895,0.401556901305966,9.82480051205055,0.40222588,-0.029321533,0.018325957,0.017715093,175.78644,-82.66651,6.805306,STD
1001322660000,2.159918,0.396844026158519,9.8177310590771,0.40222588,-0.029932396,0.019547688,0.01740966,175.6808,-82.68331,6.7828946,STD
1001327643000,2.164901,0.392168681372587,9.81071790276281,0.40222588,-0.036957346,0.017104227,0.021380283,175.57774,-82.701645,6.7622333,STD
1001332678000,2.169936,0.387444547116685,9.80363156079161,0.40222588,-0.036651913,0.021685716,0.024129177,175.4734,-82.72141,6.740747,STD
1001337686000,2.174944,0.383587205723115,9.79672971384425,0.402397528454883,-0.033292156,0.02107485,0.017104227,175.37277,-82.741196,6.7161202,STD
1001342709000,2.179967,0.391019884939225,9.79177475303873,0.404875086468892,-0.038179077,0.019242255,0.019547688,175.27214,-82.757286,6.6946597,STD
1001347675000,2.184933,0.398368219597239,9.78687602013803,0.407324529649773,-0.034513887,0.02443461,0.017104227,175.17018,-82.77946,6.6680727,STD
1001352709000,2.189967,0.405817175833333,9.78191020833333,0.409807513333333,-0.037873644,0.021991149,0.018020526,175.07193,-82.79907,6.6431103,STD
1001357697000,2.194955,0.409979540320985,9.78156626032099,0.409067968577773,-0.029321533,0.021380283,0.015882496,174.97119,-82.82319,6.6187673,STD
1001363174000,2.200432,0.399390636798224,9.80274395679822,0.393184602236802,-0.028710667,0.021991149,0.024129177,174.8716,-82.84324,6.597527,STD
1001367674000,2.204932,0.389804956530832,9.81907108189192,0.384968342972735,-0.032375857,0.015577064,0.016798794,174.77705,-82.86587,6.5738163,STD
1001372655000,2.209913,0.375820179630607,9.83305565435356,0.394291530817942,-0.025350908,0.020463986,0.0143553335,174.67982,-82.886505,6.553461,STD
1001377657000,2.214915,0.363267113107445,9.84691168149799,0.401574333107445,-0.040011674,0.019242255,0.026267206,174.59724,-82.9117,6.525168,STD
1001382670000,2.219928,0.358986373169862,9.85975416950513,0.397293593169862,-0.03145956,0.0143553335,0.023518313,174.51518,-82.94456,6.4921846,STD
1001387629000,2.224887,0.354751745332144,9.87245831832367,0.393058965332144,-0.032070424,0.018020526,0.018936822,174.42642,-82.97271,6.4601765,STD
1001392708000,2.229966,0.35434186,9.87591258826203,0.403771793671398,-0.02076942,0.007330383,0.020463986,174.3455,-83.00249,6.4295063,STD
1001397886000,2.235144,0.35434186,9.87841724536593,0.416294822893075,-0.033292156,0.0030543262,0.016187929,174.2608,-83.031654,6.396074,STD
1001402686000,2.239944,0.35434186,9.88073905959897,0.427903656470529,-0.02443461,0.003970624,0.014660766,174.17378,-83.06097,6.364129,STD
1001408051000,2.245309,0.354606724597234,9.88300012987138,0.44013580282758,-0.027488936,0.0143553335,0.01863139,174.09016,-83.091125,6.3309827,STD
1001412709000,2.249967,0.363234272107146,9.87437240218548,0.427194472553912,-0.032070424,0.007941248,0.0125227375,174.01189,-83.12487,6.295042,STD
1001417605000,2.254863,0.372302643212455,9.8653038416981,0.413591906426845,-0.02443461,0.0070249503,0.014049901,173.92548,-83.15099,6.263778,STD
1001422663000,2.259921,0.37764690015124,9.87448958954088,0.413878402243064,-0.01863139,0.0012217305,0.009162978,173.84325,-83.17957,6.2293243,STD
1001427616000,2.264874,0.382305278735085,9.88613552383992,0.4162075939671,-0.032070424,0.007330383,0.010995574,173.75847,-83.20452,6.1973004,STD
1001432753000,2.270011,0.387136712368279,9.89821409531058,0.418623313306163,-0.02107485,-0.00030543262,0.013744468,173.68071,-83.23262,6.166743,STD
1001437639000,2.274897,0.391732076341763,9.90970249324822,0.420920997692119,-0.03176499,0.002443461,0.003970624,173.59909,-83.25933,6.133075,STD
1001442778000,2.280036,0.390753833648591,9.90630935197947,0.406217548978661,-0.025350908,-0.0021380284,0.007941248,173.53085,-83.291115,6.099522,STD
1001447635000,2.284893,0.388543168055701,9.89967746138491,0.388532247319044,-0.023518313,-0.0076358155,0.010079277,173.46274,-83.32373,6.0630918,STD
1001452698000,2.289956,0.386238741476166,9.89276429233401,0.370096858745307,-0.026572637,-0.005192355,-0.0018325958,173.39507,-83.35749,6.025352,STD
1001457731000,2.294989,0.383947969409249,9.88589208616511,0.351770706129937,-0.013744468,-0.005192355,0.00061086525,173.32993,-83.38874,5.9928446,STD
1001462708000,2.299966,0.381660070548686,9.8804405621136,0.34052846869687,-0.027794369,-0.008246681,0.0018325958,173.26558,-83.419365,5.957079,STD
1001467699000,2.304957,0.379351443771252,9.87582321213292,0.333602583543277,-0.017104227,-0.018936822,-0.0076358155,173.204,-83.456245,5.919514,STD
1001472705000,2.309963,0.37703587862442,9.87119198512365,0.326655883267002,-0.02565634,-0.021685716,0.0015271631,173.14142,-83.48664,5.886872,STD
1001477725000,2.314983,0.374713837666151,9.86654780622102,0.31968975554289,-0.01740966,-0.018936822,-0.0015271631,173.08095,-83.52545,5.848651,STD
1001482676000,2.319934,0.375951674921408,9.85919846756697,0.311122190157184,-0.02076942,-0.029626964,-0.011301007,173.03082,-83.56559,5.8094363,STD
1001487701000,2.324959,0.381278597657737,9.84854439960151,0.300468344684525,-0.012217305,-0.022296581,-0.013744468,172.97487,-83.60641,5.7717495,STD
1001492728000,2.329986,0.378397858399844,9.83716633066641,0.304671692587569,-0.016798794,-0.02107485,-0.009468411,172.92856,-83.6496,5.7300253,STD
1001497715000,2.334973,0.371407981104498,9.82551653517416,0.316321492945653,-0.019242255,-0.020158553,-0.014660766,172.88045,-83.69627,5.685602,STD
1001502738000,2.339996,0.364367645501025,9.81378264250171,0.328055390519075,-0.013439035,-0.03268129,-0.016493361,172.83441,-83.73881,5.646365,STD
1001507786000,2.345044,0.357292269405796,9.80199034900966,0.339847688936482,-0.019547688,-0.028710667,-0.009468411,172.78343,-83.77783,5.6086383,STD
1001512697000,2.349955,0.344894909720771,9.80247136520691,0.335318092539172,-0.011911872,-0.027183503,-0.006414085,172.73962,-83.82247,5.5689783,STD
1001517671000,2.354929,0.328148961506629,9.81204066974689,0.318572149321013,-0.014049901,-0.022907447,-0.012217305,172.69397,-83.8648,5.529394,STD
1001522653000,2.359911,0.311376079720771,9.82162536520691,0.301799272539172,-0.010995574,-0.024740042,-0.005192355,172.64764,-83.90383,5.493546,STD
1001527683000,2.364941,0.29444159650462,9.83130240618722,0.284864794375251,-0.02076942,-0.015577064,-0.0076358155,172.59724,-83.94416,5.453817,STD
1001532673000,2.369931,0.289950086927224,9.83802666037736,0.269789747506739,-0.026572637,-0.028405234,0.0009162979,172.55046,-83.97615,5.420886,STD
1001537666000,2.374924,0.294553192651136,9.84262937196766,0.255980444754524,-0.02076942,-0.023823744,0.00580322,172.49634,-84.00939,5.386434,STD
1001542736000,2.379994,0.292115318711932,9.8532970161314,0.260911216377768,-0.031154128,-0.027488936,0.005497787,172.44745,-84.04702,5.345116,STD
1001548338000,2.385596,0.281625158155644,9.87165488268075,0.287136602707142,-0.027794369,-0.03268129,0.013439035,172.39767,-84.08306,5.3082004,STD
1001552665000,2.389923,0.273522529678839,9.88583454861417,0.307393162265728,-0.02321288,-0.03940081,-0.00061086525,172.3506,-84.123505,5.266091,STD
1001557762000,2.39502,0.263978019083443,9.9025375200176,0.331254425050594,-0.024129177,-0.05222898,0.013439035,172.30644,-84.153824,5.235043,STD
1001562762000,2.40002,0.264040568291629,9.91381730225022,0.353876368583258,-0.03726278,-0.047647487,0.008246681,172.26492,-84.19499,5.1922393,STD
1001567669000,2.404927,0.276730057041404,9.91804721575157,0.375025512082808,-0.03481932,-0.05955936,0.0076358155,172.23157,-84.23249,5.1558647,STD
1001572650000,2.409908,0.2873042,9.91908484879658,0.393063603757764,-0.03634648,-0.06688975,0.007330383,172.19238,-84.26813,5.1158843,STD
1001577682000,2.41494,0.2873042,9.90505419312888,0.395402038229814,-0.040011674,-0.058643065,0.008246681,172.15218,-84.30288,5.076853,STD
1001582654000,2.419912,0.2873042,9.89119083462733,0.397712589937888,-0.03573562,-0.059864793,0.013439035,172.1157,-84.331825,5.0444546,STD
1001587658000,2.424916,0.2873042,9.8772382509705,0.400038012453416,-0.03390302,-0.050396383,0.011301007,172.07402,-84.36106,5.010621,STD
1001592875000,2.430133,0.284633190007671,9.86357678706849,0.403294284666301,-0.03726278,-0.05467244,0.014049901,172.03664,-84.387085,4.980454,STD
1001597676000,2.434934,0.259439636032877,9.85853797315068,0.413371712569863,-0.03756821,-0.064446285,0.0125227375,171.99837,-84.41487,4.9489675,STD
1001602678000,2.439936,0.237325141407114,9.85034395125322,0.417189425001843,-0.036957346,-0.06505715,0.012217305,171.95573,-84.43669,4.920882,STD
1001607766000,2.445024,0.228344891735164,9.83238357381128,0.399228935035017,-0.035430185,-0.059864793,0.015577064,171.91441,-84.4577,4.893943,STD
1001612800000,2.450058,0.217644784665036,9.8157900302516,0.382198338297724,-0.053450707,-0.0693332,0.013133603,171.87221,-84.47745,4.863388,STD
1001618315000,2.455573,0.186005756607428,9.8105167519968,0.371651996529553,-0.051618114,-0.0693332,0.013744468,171.82599,-84.49815,4.8349304,STD
1001622656000,2.459914,0.161101854377496,9.80636601747204,0.363350696508586,-0.03756821,-0.065973446,0.0143553335,171.78108,-84.52101,4.804749,STD
1001627686000,2.464944,0.132245224979533,9.80155648172923,0.353731820879593,-0.047036625,-0.069027774,0.01863139,171.73822,-84.53948,4.7763777,STD
1001632732000,2.46999,0.104689286295302,9.79740080335571,0.343781649785235,-0.049480084,-0.067500606,0.016798794,171.69339,-84.561905,4.746799,STD
1001637667000,2.474925,0.0956266674362416,9.80193220268456,0.330187726228188,-0.05100725,-0.061391957,0.021991149,171.64824,-84.58003,4.72087,STD
1001643016000,2.480274,0.0861261389537222,9.80684536709636,0.316360225299388,-0.048258353,-0.061086524,0.013133603,171.59856,-84.61196,4.6811423,STD
1001647677000,2.484935,0.0846876119551402,9.81116103551402,0.323552861794393,-0.03970624,-0.069027774,0.01863139,171.5495,-84.6392,4.6476207,STD
1001652651000,2.489909,0.0831524835940703,9.81576651388978,0.331228505202707,-0.040011674,-0.062308256,0.023518313,171.49562,-84.670135,4.6098533,STD
1001657675000,2.494933,0.0816019237054463,9.82041828778601,0.338981306264905,-0.043676864,-0.05375614,0.023823744,171.4437,-84.70102,4.573067,STD
1001662616000,2.499874,0.080076980152562,9.82499321111827,0.346606025621656,-0.043676864,-0.059864793,0.019242255,171.39429,-84.731895,4.5369573,STD
1001667671000,2.504929,0.0785168527168547,9.82967368823719,0.354406664429262,-0.04428773,-0.052839845,0.021380283,171.3337,-84.75813,4.5070987,STD
1001672629000,2.509887,0.076986662444602,9.83426435204641,0.362057617388334,-0.04337143,-0.056505036,0.024129177,171.27832,-84.78521,4.476741,STD
1001677687000,2.514945,0.0729197411386649,9.83353360633983,0.382392224306675,-0.041233405,-0.055588737,0.024740042,171.22318,-84.81505,4.4451923,STD
1001682637000,2.519895,0.0681718624617157,9.8311596191597,0.406131617691422,-0.04520403,-0.044898596,0.018020526,171.16667,-84.84482,4.412667,STD
1001688185000,2.525443,0.0628504016738945,9.82849883514447,0.432738921630527,-0.05131268,-0.032375857,0.025045475,171.10973,-84.87029,4.3833523,STD
1001692684000,2.529942,0.0585351074986229,9.82634114457409,0.454315392506886,-0.055283304,-0.031154128,0.028710667,171.05345,-84.897545,4.3516407,STD
1001697676000,2.534934,0.0541928924741341,9.83233968485062,0.449882885374989,-0.054367006,-0.030543262,0.025350908,170.99207,-84.92352,4.3218055,STD
1001702658000,2.539916,0.0499881108176611,9.84074897770336,0.437268537771217,-0.049480084,-0.026572637,0.026267206,170.92973,-84.94734,4.294471,STD
1001707668000,2.544926,0.0559638612931844,9.85034366122905,0.417489916907263,-0.051618114,-0.019242255,0.028099801,170.86757,-84.9693,4.2645864,STD
1001712687000,2.549945,0.0720753683343017,9.86108488201117,0.390637403302793,-0.055283304,-0.017104227,0.019547688,170.80637,-84.99377,4.23239,STD
1001717675000,2.554933,0.0864452383488751,9.85428036141695,0.389626117145045,-0.044898596,-0.010079277,0.028710667,170.7334,-85.01229,4.2098765,STD
1001722667000,2.559925,0.100176429023073,9.84054937434179,0.398780245535663,-0.048563786,0.0015271631,0.025350908,170.6594,-85.033066,4.181481,STD
1001727685000,2.564943,0.12501869749813,9.84381251364996,0.419089156752992,-0.03940081,0.0015271631,0.021991149,170.58755,-85.05438,4.158639,STD
1001732672000,2.56993,0.1562749344727,9.85720784928945,0.44588022434368,-0.040011674,-0.0067195175,0.01740966,170.51553,-85.074715,4.1345043,STD
1001737649000,2.574907,0.179262157976522,9.86640425895344,0.468859579038997,-0.03481932,-0.0033597588,0.016493361,170.44377,-85.08926,4.1092033,STD
1001742681000,2.579939,0.193644517053323,9.87119847542778,0.488036054470752,-0.038789943,-0.008246681,0.01740966,170.37737,-85.10296,4.0835404,STD
1001747674000,2.584932,0.223579384366051,9.87487046835443,0.501541287155011,-0.034208454,-0.00061086525,0.015882496,170.31006,-85.11441,4.064331,STD
1001752673000,2.589931,0.270768357217265,9.87735414873418,0.508992185658332,-0.035430185,-0.0070249503,0.0076358155,170.24889,-85.12585,4.0437555,STD
1001758003000,2.595261,0.321081864978211,9.88000228164557,0.516936432312202,-0.029626964,-0.015882496,0.0021380284,170.18896,-85.13574,4.0257697,STD
1001762675000,2.599933,0.36518406164972,9.88232349683544,0.523899944576157,-0.021991149,-0.0036651916,0.00061086525,170.12547,-85.146866,4.006444,STD
1001767669000,2.604927,0.40337221498632,9.88616474829001,0.523824391289818,-0.028099801,-0.008246681,-0.00030543262,170.06729,-85.156136,3.987797,STD
1001772657000,2.609915,0.436046037339261,9.89083204240766,0.519156678012507,-0.017104227,-0.0061086523,-0.008246681,170.00438,-85.17151,3.9665186,STD
1001777679000,2.614937,0.465189919108245,9.89009927150966,0.519889362968532,-0.01160644,-0.0036651916,-0.01282817,169.9527,-85.17002,3.9618583,STD
1001782678000,2.619936,0.491410741908982,9.88533200169289,0.524656797062338,-0.015577064,-0.007330383,-0.015882496,169.9028,-85.17064,3.9552028,STD
1001787653000,2.624911,0.51750567958325,9.88058761934873,0.529401342894842,-0.004886922,-0.010995574,-0.017104227,169.86041,-85.17256,3.9500053,STD
1001792765000,2.630023,0.544319211521111,9.87571258768174,0.53427654255228,0.0015271631,-0.0061086523,-0.01985312,169.81721,-85.17455,3.9432516,STD
1001797676000,2.634934,0.560710992978001,9.87237392568532,0.542871439850386,-0.0009162979,-0.01160644,-0.0106901415,169.78123,-85.17648,3.9378715,STD
1001802684000,2.639942,0.570152533305773,9.8700134937743,0.554673362795413,0.0027488936,-0.019242255,-0.025045475,169.74527,-85.186775,3.9248674,STD
1001807674000,2.644932,0.579560138384763,9.86766154584379,0.566432866688321,-0.0009162979,-0.028099801,-0.021685716,169.71501,-85.18042,3.9303603,STD
1001812680000,2.649938,0.588997908129337,9.86530205659727,0.578230076405335,0.008552114,-0.02076942,-0.015271631,169.68292,-85.17979,3.932206,STD
1001817672000,2.65493,0.586706093541895,9.86175897200359,0.600649106882535,0.0106901415,-0.03145956,-0.01863139,169.65906,-85.179146,3.9323063,STD
1001822666000,2.659924,0.572411003638537,9.85699384915811,0.634004300071735,0.0143553335,-0.0290161,-0.01863139,169.62964,-85.17835,3.934568,STD
1001827615000,2.664873,0.562860797629063,9.85236326563097,0.6512229,0.0070249503,-0.027488936,-0.02443461,169.6031,-85.17048,3.9389927,STD
1001832683000,2.669941,0.558220719005736,9.84772333236138,0.6512229,0.00030543262,-0.039095376,-0.021685716,169.57994,-85.16174,3.945631,STD
1001837620000,2.674878,0.553700579273423,9.84320333422562,0.6512229,0.020463986,-0.024129177,-0.02076942,169.54309,-85.15372,3.9499357,STD
1001842730000,2.679988,0.549022046959847,9.83852494847036,0.6512229,0.013744468,-0.025045475,-0.01740966,169.51454,-85.13949,3.9557674,STD
1001847612000,2.68487,0.55000883300566,9.83675782931189,0.6581076216761,0.0061086523,-0.029932396,-0.02565634,169.49075,-85.13851,3.954868,STD
1001852667000,2.689925,0.564429662317545,9.84156437086684,0.682142337195909,0.014049901,-0.029626964,-0.015882496,169.46576,-85.134285,3.9597797,STD
1001857677000,2.694935,0.569133230766181,9.83674436049163,0.695000523074636,0.009773844,-0.026572637,-0.0143553335,169.44106,-85.1321,3.9583075,STD
1001862683000,2.699941,0.550125812469026,9.80823362999306,0.680744959351769,0.005497787,-0.02076942,-0.016798794,169.41568,-85.1301,3.9582524,STD
1001867638000,2.704896,0.531422761688312,9.7862773665439,0.671596107986044,0.0036651916,-0.027183503,-0.0125227375,169.40022,-85.12456,3.959345,STD
1001872657000,2.709915,0.512788909415584,9.78161881226982,0.676254564973832,0.0021380284,-0.01985312,-0.0070249503,169.37941,-85.11888,3.9597142,STD
1001877652000,2.71491,0.494406200352374,9.77612608864985,0.68085023694362,0.0021380284,-0.016493361,-0.010995574,169.35973,-85.11797,3.9557385,STD
1001882678000,2.719936,0.476552705571217,9.76719915949555,0.685313608308605,-0.00580322,-0.00580322,-0.0067195175,169.3359,-85.11251,3.955377,STD
1001887789000,2.725047,0.458983150998786,9.75700705525197,0.689178311050395,-0.0036651916,-0.009162978,-0.0067195175,169.323784282869,-85.1121918351594,3.95273495916335,STD
1001892718000,2.729976,0.449429594808743,9.73312320218579,0.684401540437159,-0.007941248,-0.0033597588,-0.003970624,169.3121,-85.111885,3.950187,STD
1001897704000,2.734962,0.440140348053024,9.71206028044739,0.680346051946976,-0.012217305,0.0070249503,0.011911872,169.28302,-85.10575,3.9496603,STD
1001902675000,2.739933,0.43521012096106,9.72685127060895,0.68527627903894,-0.02107485,0.010995574,0.018020526,169.25159,-85.109314,3.9494138,STD
1001907676000,2.744934,0.430291127665594,9.74293886167203,0.686869410662375,-0.021991149,0.02565634,0.021380283,169.21725,-85.116104,3.949536,STD
1001912636000,2.749894,0.425657342864111,9.76610778567944,0.668334271456443,-0.02443461,0.035124753,0.028710667,169.18352,-85.11883,3.9523077,STD
1001917654000,2.754912,0.419718901761627,9.78874243003851,0.649977449587242,-0.028710667,0.04520403,0.03176499,169.14876,-85.121216,3.9497263,STD
1001922692000,2.75995,0.400661740201442,9.8030350872914,0.635684558517824,-0.026267206,0.053145275,0.032375857,169.11227,-85.12335,3.9482074,STD
1001927704000,2.764962,0.383236431465644,9.81639117455131,0.621835745680258,-0.026572637,0.06566802,0.03970624,169.0724,-85.12436,3.9461,STD
1001932648000,2.769906,0.385478596454989,9.818633381683,0.612867106794052,-0.024129177,0.06811147,0.040317107,169.0337,-85.12783,3.9420676,STD
1001937771000,2.775029,0.387801940152484,9.82095676904863,0.60357375383814,-0.026572637,0.079107046,0.044593163,168.98686,-85.13215,3.9371796,STD
1001943359000,2.780617,0.390336167086234,9.82349104361415,0.593436869919023,-0.026267206,0.08155051,0.043982297,168.94237,-85.13848,3.930945,STD
1001947655000,2.784913,0.39228445608183,9.82543936922858,0.585643732246058,-0.027794369,0.07971791,0.048563786,168.901,-85.145134,3.9242854,STD
1001952579000,2.789837,0.378041766862704,9.82997738481066,0.592532268918976,-0.02687807,0.0842994,0.051923547,168.85759,-85.15274,3.9168606,STD
1001957758000,2.795016,0.359679806974825,9.83522349159086,0.603024808426592,-0.022907447,0.08552113,0.05100725,168.81612,-85.16062,3.909454,STD
1001962594000,2.799852,0.342533941360271,9.840122153956,0.612822437516924,-0.025045475,0.08307768,0.057421334,168.77469,-85.16612,3.9056659,STD
1001967753000,2.805011,0.324244967895758,9.84393216126051,0.622150812687367,-0.02321288,0.076358154,0.055283304,168.73477,-85.175224,3.8990242,STD
1001972611000,2.809869,0.307047243848073,9.83103406126975,0.617851390654283,-0.02565634,0.07422013,0.051618114,168.69464,-85.182205,3.8935258,STD
1001977657000,2.814915,0.289183984164125,9.81763681702246,0.613385585059606,-0.032070424,0.074830994,0.055588737,168.64633,-85.1887,3.8888252,STD
1001982602000,2.81986,0.264978218772578,9.82069228763072,0.621846024098447,-0.031154128,0.07727446,0.05589417,168.59874,-85.19776,3.881848,STD
1001987888000,2.825146,0.240046624680891,9.82549077133633,0.632486860259686,-0.032986723,0.07452556,0.05955936,168.55289,-85.203705,3.876823,STD
1001992612000,2.82987,0.25274758894067,9.81914016100505,0.640954179344469,-0.027488936,0.08277224,0.0580322,168.50186,-85.215195,3.866888,STD
1001997566000,2.834824,0.266066932069998,9.81248035499719,0.649833751475295,-0.03023783,0.0852157,0.06047566,168.45862,-85.22953,3.84987,STD
1002002689000,2.839947,0.279840649238256,9.80559335738349,0.659016239974733,-0.040927973,0.086437434,0.06078109,168.41382,-85.244125,3.8318439,STD
1002007659000,2.844917,0.293203010028074,9.79891204211117,0.667924490578327,-0.03634648,0.08674286,0.06291912,168.36893,-85.25973,3.8151362,STD
1002013162000,2.85042,0.305284217453581,9.77606500636605,0.67457809872679,-0.038179077,0.073303826,0.064751714,168.3221,-85.26836,3.8022685,STD
1002017599000,2.854857,0.314301142992042,9.75352269251989,0.679086561496021,-0.040317107,0.074830994,0.064751714,168.27141,-85.27772,3.7892323,STD
1002022669000,2.859927,0.296358859667375,9.75097774165116,0.638813069435291,-0.043066,0.06291912,0.06780604,168.22646,-85.27546,3.7862713,STD
1002027632000,2.86489,0.273202398076003,9.75308291708743,0.590395008184959,-0.053450707,0.065973446,0.07269296,168.17732,-85.27146,3.7833514,STD
1002032665000,2.869923,0.249719329127912,9.75521778470192,0.541294040570024,-0.058948494,0.079107046,0.087659165,168.13037,-85.26311,3.785873,STD
1002037685000,2.874943,0.226296915831783,9.75734713805474,0.492319898422801,-0.06078109,0.0870483,0.089186326,168.08472,-85.256035,3.7856624,STD
1002042622000,2.87988,0.199662271306055,9.76506737879727,0.442357836319488,-0.067500606,0.09040806,0.09560041,168.03697,-85.24323,3.7905614,STD
1002047681000,2.884939,0.16461954849659,9.78509167234966,0.387290704956603,-0.06291912,0.101098195,0.1020145,167.9855,-85.23234,3.7952201,STD
1002052701000,2.889959,0.126709681499162,9.78577821944965,0.35245936643456,-0.07727446,0.09590584,0.09712757,167.93025,-85.23501,3.789105,STD
1002057727000,2.894985,0.0839838433731137,9.75729474376171,0.347712044477759,-0.077579886,0.086132,0.0983493,167.87381,-85.23841,3.7860644,STD
1002062711000,2.899969,0.0442670722871925,9.73772813800021,0.324031979178545,-0.083383106,0.07788532,0.10323623,167.8232,-85.25083,3.7688813,STD
1002067707000,2.904965,0.00890437728011825,9.73267622246859,0.268462037191426,-0.09101892,0.08155051,0.11728613,167.77225,-85.260506,3.754719,STD
1002072706000,2.909964,-0.0541478736150848,9.7166646427597,0.199306217649581,-0.09865474,0.09254608,0.124311075,167.7176,-85.27573,3.7330205,STD
1002077734000,2.914992,-0.147993486236796,9.68851088053011,0.114845161243422,-0.12034045,0.10354166,0.13988814,167.66205,-85.28203,3.7178288,STD
1002082872000,2.92013,-0.221178799709297,9.67056837380017,0.0409520353112716,-0.13530666,0.105068825,0.14477506,167.60262,-85.2983,3.6953425,STD
1002087695000,2.924953,-0.263402901532133,9.66634587896517,-0.0139392908858214,-0.1441642,0.09315695,0.1441642,167.5443,-85.309685,3.6757736,STD
1002092688000,2.929946,-0.277652472521947,9.68543131078244,-0.0553243348857824,-0.1432479,0.08032878,0.13744467,167.47556,-85.34107,3.6389155,STD
1002097714000,2.934972,-0.194981232466603,9.78188111402672,-0.0461386422390267,-0.15485434,0.0720821,0.13072516,167.40935,-85.368515,3.6023207,STD
1002102702000,2.93996,-0.116434011745957,9.88360012767019,-0.0456996651831703,-0.15363261,0.043982297,0.11056661,167.34744,-85.41462,3.5520308,STD
1002107721000,2.944979,-0.0588584550503094,10.0227408556598,-0.098477257276103,-0.14446963,0.028710667,0.09254608,167.28452,-85.460464,3.5009995,STD
1002112687000,2.949945,-0.0114885540851127,10.1475732239547,-0.144926598500348,-0.12797627,0.04153884,0.08155051,167.23064,-85.49861,3.4606814,STD
1002117708000,2.954966,-0.0258152438080246,10.190553163472,-0.154477728306684,-0.11362094,0.058948494,0.0729984,167.18008,-85.54078,3.4168146,STD
1002122648000,2.959906,-0.0446039985556205,10.2238311772448,-0.159657334304377,-0.09987647,0.084910266,0.07422013,167.12488,-85.58339,3.3839104,STD
1002127708000,2.964966,-0.101297350995905,10.1860358335771,-0.131310658824218,-0.07696902,0.100792766,0.07422013,167.06784,-85.631584,3.3486526,STD
1002132700000,2.969958,-0.149439758259155,10.1485731365735,-0.103766066697714,-0.06414085,0.1160644,0.07574729,167.00179,-85.6823,3.3113148,STD
1002137714000,2.974972,-0.0962218119605634,10.108659682175,-0.0815919213261141,-0.06414085,0.124005646,0.06352998,166.93372,-85.736824,3.2704391,STD
1002142656000,2.979914,-0.0437680643323944,10.0693193767028,-0.0597361920827061,-0.05467244,0.116675265,0.04337143,166.86769,-85.80336,3.213436,STD
1002147709000,2.984967,0.00986382291267605,10.0290954666359,-0.0373895713083353,-0.06047566,0.11484267,0.02565634,166.79814,-85.86795,3.1544063,STD
1002152630000,2.989888,0.0620946792619718,9.98992232960055,-0.01562671343565,-0.0580322,0.089186326,-0.005497787,166.7381,-85.94171,3.087275,STD
1002157726000,2.994984,0.219395932545455,9.97555013636364,0.0705201228181818,-0.044898596,0.06536258,-0.0290161,166.67825,-86.017075,3.0184655,STD
1002162616000,2.999874,0.406681723877877,9.97098233642216,0.175582887520679,-0.03145956,0.040011674,-0.060170226,166.6266,-86.099625,2.940376,STD
1002167692000,3.00495,0.610048663480334,10.0087446454112,0.249978631305125,-0.028405234,-0.01282817,-0.071776666,166.59837,-86.156395,2.8860157,STD
1002172708000,3.009966,0.815213765077473,10.0659996847437,0.307234014404052,-0.0015271631,-0.04917465,-0.07238753,166.5726,-86.22303,2.8273413,STD
1002177723000,3.014981,0.932042692867611,10.1034932388862,0.370215872090865,0.017104227,-0.058948494,-0.07574729,166.57533,-86.25341,2.8024113,STD
1002182675000,3.019933,1.00617943080606,10.1312945942355,0.43508551899658,0.025045475,-0.06872234,-0.07971791,166.58797,-86.28613,2.7783024,STD
1002187711000,3.024969,1.03729399441745,10.1148482946951,0.480678793645017,0.038789943,-0.08246681,-0.07849618,166.62671,-86.28973,2.7906055,STD
1002192786000,3.030044,1.04211330701041,10.0714750349033,0.514413664765493,0.04428773,-0.1001819,-0.0729984,166.66888,-86.292656,2.8030713,STD
1002197689000,3.034947,1.00874262826871,10.0263725617674,0.547216518990081,0.054367006,-0.116980694,-0.070249505,166.72292,-86.28229,2.8288155,STD
1002202713000,3.039971,0.95089603253682,9.97816712824366,0.580960342590923,0.064751714,-0.13133603,-0.07360926,166.78082,-86.27288,2.8541317,STD
1002207729000,3.044987,0.874110286970637,9.90792551419711,0.605307282843299,0.06719518,-0.14630222,-0.071776666,166.83383,-86.252884,2.8904357,STD
1002212725000,3.049983,0.786013677551119,9.82446583089447,0.62385391732726,0.060170226,-0.15302174,-0.06963864,166.88823,-86.2336,2.9252427,STD
1002217692000,3.05495,0.710003695147751,9.75050959100471,0.613575627573876,0.049785517,-0.15027285,-0.06688975,166.93169,-86.21315,2.954984,STD
1002222702000,3.05996,0.642717603532004,9.68322312801763,0.579932581766002,0.044898596,-0.13316862,-0.06078109,166.97258,-86.191315,2.985682,STD
1002227709000,3.064967,0.586970083945259,9.64044841274597,0.571517992964612,0.042760566,-0.10751228,-0.050396383,167.00108,-86.176704,3.0035253,STD
1002232711000,3.069969,0.540420703964693,9.61717406502551,0.583155345048182,0.032070424,-0.073303826,-0.03604105,167.02193,-86.15758,3.0237374,STD
1002237692000,3.07495,0.48872263074503,9.59375354446144,0.597293971627704,0.01282817,-0.04550946,-0.008246681,167.02956,-86.142876,3.0392604,STD
1002242723000,3.079981,0.378191808063142,9.56743669892943,0.639400957454665,-0.00061086525,-0.018020526,-0.0061086523,167.02771,-86.13009,3.0508811,STD
1002247669000,3.084927,0.275938762988876,9.54575003571428,0.683174548448478,-0.00061086525,0.017104227,0.017715093,167.012638030803,-86.1138239469947,3.06296187441744,STD
1002252722000,3.08998,0.190941795376659,9.53630573809524,0.73511714990242,-0.035124753,0.029321533,0.031154128,166.99724,-86.097206,3.075304,STD
1002257722000,3.09498,0.115129583496692,9.53360744982763,0.78696408545607,-0.04886922,0.02321288,0.046731193,166.975,-86.070786,3.0938926,STD
1002262721000,3.099979,0.0705246657728501,9.55590989238796,0.840489975546446,-0.059253927,0.018325957,0.052534413,166.93143,-86.04553,3.1015346,STD
1002268438000,3.105696,0.0239719585164021,9.58346888109668,0.895401517111111,-0.06383542,0.01863139,0.0693332,166.88243,-86.02243,3.1012416,STD
1002272662000,3.10992,0.00451431930370371,9.61070971919192,0.914859138444444,-0.06780604,0.02076942,0.073303826,166.83505,-85.999825,3.0988002,STD
1002278013000,3.115271,-0.0189519072966479,9.64485353277959,0.937316809716701,-0.069027774,0.013744468,0.07422013,166.78955,-85.97667,3.0897403,STD
1002282672000,3.11993,-0.0145399282782557,9.66691341174726,0.910844934224266,-0.08368854,0.03023783,0.08032878,166.73721,-85.94884,3.0829213,STD
1002287621000,3.124879,-0.00985332510975971,9.69034641046178,0.882725313745179,-0.08460484,0.047647487,0.0842994,166.6855,-85.92594,3.0713384,STD
1002292765000,3.130023,-0.0049820608748146,9.71470271383368,0.853497726809552,-0.08399397,0.073303826,0.08735373,166.62727,-85.900024,3.0608978,STD
1002297662000,3.13492,-0.0003447006573717,9.73788949797291,0.82567356405221,-0.08827003,0.1001819,0.10781772,166.56413,-85.869064,3.0562413,STD
1002302689000,3.139947,0.0044505332909109,9.74851378124377,0.792451621851704,-0.10170906,0.112704635,0.10995574,166.49176,-85.83973,3.0531847,STD
1002307669000,3.144927,0.00920362267301176,9.75801965527207,0.75917999071756,-0.1151481,0.13652839,0.11484267,166.40918,-85.80573,3.055681,STD
1002312679000,3.149937,0.026064048173593,9.79586218235185,0.641157022544726,-0.12950343,0.15027285,0.11789699,166.32516,-85.77418,3.059211,STD
1002317608000,3.154866,0.0436578156004473,9.8354480413716,0.518000662038763,-0.11942416,0.15393804,0.11789699,166.23845,-85.745735,3.0623279,STD
1002322657000,3.159915,0.0653650732468121,9.8764231452725,0.463943690356097,-0.121256754,0.16737708,0.1151481,166.13643,-85.70884,3.0699823,STD
1002327685000,3.164943,0.0881062570473222,9.91735762869557,0.432106030565788,-0.116675265,0.172264,0.11789699,166.03723,-85.67572,3.0782762,STD
1002332668000,3.169926,0.117054687921993,9.94635355990539,0.40921571236146,-0.10781772,0.17562376,0.11209377,165.93901,-85.65946,3.0810332,STD
1002338272000,3.17553,0.153324143823132,9.9722600219637,0.388490304661131,-0.09162979,0.18173242,0.10842858,165.84,-85.64595,3.0840843,STD
1002342701000,3.179959,0.187952965299734,9.97344425568462,0.397042955399153,-0.08277224,0.19730948,0.105374254,165.74336,-85.637634,3.0861,STD
1002347705000,3.184963,0.230408031251107,9.96400985131411,0.420629109170194,-0.08277224,0.20097467,0.1020145,165.64981,-85.63256,3.0861776,STD
1002352702000,3.18996,0.269686047357328,9.94694833846598,0.441300834628044,-0.074830994,0.1966986,0.09407325,165.55984,-85.62776,3.0849826,STD
1002357737000,3.194995,0.30680989072659,9.92374595755943,0.459862749044365,-0.0693332,0.18478674,0.090713486,165.47229,-85.6232,3.083383,STD
1002362675000,3.199933,0.342564301630838,9.90775669829503,0.481978177286879,-0.061391957,0.18509217,0.09162979,165.38882,-85.614395,3.0875359,STD
1002367672000,3.20493,0.378038945504077,9.89888785674574,0.508584183343217,-0.058643065,0.1908954,0.08277224,165.30855,-85.60921,3.0872371,STD
1002372650000,3.209908,0.411428282154034,9.89207419761456,0.525190662303889,-0.053145275,0.1908954,0.07880162,165.23538,-85.59676,3.0935638,STD
1002377684000,3.214942,0.440915801214129,9.88961711091289,0.520276062964473,-0.04550946,0.17501289,0.0693332,165.16644,-85.58918,3.0951574,STD
1002382670000,3.219928,0.470122152035272,9.88718345292828,0.515408325120546,-0.043676864,0.17256944,0.06291912,165.10625,-85.57968,3.0987089,STD
1002387698000,3.224956,0.499574525065498,9.88472929481625,0.510499583468067,-0.02565634,0.16218472,0.058948494,165.05382,-85.57715,3.1000638,STD
1002392664000,3.229922,0.524640533051438,9.88139171555069,0.500077754772659,-0.028710667,0.1591304,0.05955936,165.0008,-85.571655,3.1003356,STD
1002397680000,3.234938,0.543757955811362,9.87661226753557,0.480960351974928,-0.027488936,0.15393804,0.04917465,164.95227,-85.574135,3.096114,STD
1002402685000,3.239943,0.559204559288098,9.87181308120133,0.463638877152392,-0.015271631,0.16798794,0.04734206,164.89537,-85.56612,3.1109366,STD
1002408036000,3.245294,0.56956869252705,9.8666309063606,0.448092666471837,-0.025961773,0.16157386,0.051923547,164.84673,-85.55509,3.1242096,STD
1002412638000,3.249896,0.569131764468166,9.85954714182234,0.445096962943195,-0.02107485,0.16493362,0.049480084,164.79973,-85.55901,3.1360826,STD
1002417675000,3.254933,0.555338857881243,9.84805306500191,0.456591051765631,-0.03023783,0.15118915,0.057726767,164.75993,-85.55506,3.1518762,STD
1002422633000,3.259891,0.541762278397827,9.83673926057949,0.467904868001811,-0.019547688,0.15485434,0.053450707,164.71588,-85.55943,3.1637933,STD
1002427684000,3.264942,0.527931035362181,9.82521323675181,0.479430903864849,-0.014660766,0.15393804,0.06291912,164.67737,-85.55653,3.1814678,STD
1002432606000,3.269864,0.515748415791349,9.81529423072355,0.492614526521825,-0.029321533,0.15210545,0.06658431,164.63887,-85.55406,3.1954525,STD
1002437645000,3.274903,0.508583591718796,9.81051757992675,0.514109018689993,-0.028405234,0.15057829,0.07086037,164.60098,-85.55376,3.2115164,STD
1002442704000,3.279962,0.501390330162328,9.80572197040483,0.535688823389092,-0.033292156,0.14874569,0.0729984,164.55267,-85.54687,3.230041,STD
1002447676000,3.284934,0.494320771660893,9.80100883133723,0.55689751857864,-0.044898596,0.1414153,0.07971791,164.50706,-85.53742,3.2502155,STD
1002452654000,3.289912,0.492480456482433,9.79951103225806,0.571357758208342,-0.04734206,0.14477506,0.082161374,164.45619,-85.528046,3.2712195,STD
1002457685000,3.294943,0.517229239670228,9.81436059677419,0.551558752332032,-0.043066,0.13194689,0.08124508,164.4129,-85.51759,3.2924762,STD
1002462626000,3.299884,0.541449605270817,9.82477429830234,0.541449605270817,-0.053450707,0.13408493,0.08124508,164.37074,-85.50396,3.3067842,STD
1002467674000,3.304932,0.565875497946645,9.819889021827,0.565875497946645,-0.051618114,0.12950343,0.07941248,164.3349,-85.49468,3.3198647,STD
1002472640000,3.309898,0.586939979422759,9.815125080989,0.583083341699601,-0.0580322,0.129198,0.08124508,164.29047,-85.47483,3.3427043,STD
1002477690000,3.314948,0.598709382201889,9.81041722057821,0.578375569773192,-0.0580322,0.12980886,0.0842994,164.24792,-85.45748,3.3644273,STD
1002482640000,3.319898,0.610245727500243,9.80580258512606,0.573761021053246,-0.06566802,0.11789699,0.087659165,164.21294,-85.43234,3.390322,STD
1002487651000,3.324909,0.621924237861871,9.80113108244914,0.569089606177358,-0.06291912,0.12156218,0.0842994,164.1742,-85.41091,3.413861,STD
1002492698000,3.329956,0.62947428711469,9.79772174943875,0.563085392327965,-0.06383542,0.115453534,0.08460484,164.13844,-85.38778,3.4440205,STD
1002497677000,3.334935,0.610857254512445,9.80237610600293,0.549122614231332,-0.061391957,0.10445796,0.08368854,164.10396,-85.36759,3.4717114,STD
1002502680000,3.339938,0.593031942695675,9.80774514862475,0.536118675864509,-0.0711658,0.09682214,0.0852157,164.07346,-85.34266,3.5031152,STD
1002507713000,3.344971,0.584506235659326,9.82053374033784,0.533987251331034,-0.070249505,0.0888809,0.08460484,164.047,-85.321594,3.5326674,STD
1002512622000,3.34988,0.576190579819581,9.83300725448837,0.531908339541877,-0.070249505,0.08368854,0.081855945,164.0124,-85.301125,3.5647516,STD
1002517639000,3.354897,0.567691976163439,9.8457551910321,0.529783690846378,-0.065973446,0.08368854,0.083383106,163.97934,-85.28148,3.59668,STD
1002522654000,3.359912,0.559196760429822,9.85849804567967,0.527659889130627,-0.06841691,0.064751714,0.076052725,163.95412,-85.26377,3.6244822,STD
1002527648000,3.364906,0.560732082944203,9.86938839315394,0.516169820335378,-0.071776666,0.06505715,0.07086037,163.92401,-85.24648,3.6518939,STD
1002532647000,3.369905,0.570204663711911,9.87886117174515,0.497224634072022,-0.0693332,0.062308256,0.06872234,163.9009,-85.231285,3.6774056,STD
1002537635000,3.374893,0.551264444908043,9.8902680853692,0.481413962253637,-0.074830994,0.052839845,0.06719518,163.87488,-85.21808,3.6999362,STD
1002542691000,3.379949,0.506960001610394,9.90355922637021,0.468122626951231,-0.070249505,0.052534413,0.0693332,163.8476,-85.20723,3.7218907,STD
1002547641000,3.384899,0.46879422227857,9.90864622373971,0.463035439823258,-0.06872234,0.04550946,0.06688975,163.82445,-85.19737,3.7451313,STD
1002552678000,3.389936,0.439729118698534,9.89895766198032,0.472723809369351,-0.06627888,0.03359759,0.06291912,163.80333,-85.18869,3.7676578,STD
1002557853000,3.395111,0.419518428901227,9.89098008825248,0.480701417212157,-0.063224554,0.03604105,0.05681047,163.77515,-85.1898,3.7795122,STD
1002562688000,3.399946,0.415008013481395,9.88647005902981,0.485211823212546,-0.06780604,0.040317107,0.048563786,163.75034,-85.19144,3.7891457,STD
1002567618000,3.404876,0.404753835199527,9.87762580874963,0.489826918371268,-0.05681047,0.035430185,0.04642576,163.7175,-85.192726,3.79628,STD
1002572661000,3.409919,0.380960445421224,9.85859070736033,0.494585594339344,-0.05497787,0.040317107,0.05009095,163.6812,-85.1924,3.8020294,STD
1002577657000,3.414915,0.358136814653638,9.84380072849416,0.500306684999128,-0.05375614,0.03848451,0.044898596,163.64847,-85.19674,3.8036816,STD
1002582673000,3.419931,0.337181802906997,9.83961007974176,0.508688678319665,-0.047036625,0.03726278,0.04886922,163.61446,-85.19962,3.8084795,STD
1002588120000,3.425378,0.316723148823529,9.83572523529412,0.518180334313725,-0.049785517,0.039095376,0.036651913,163.5742,-85.20531,3.8050053,STD
1002593366000,3.430624,0.326105024689076,9.84041577647059,0.532253162806723,-0.053145275,0.043982297,0.039095376,163.53369,-85.208015,3.8064423,STD
1002597660000,3.434918,0.333784356554622,9.84425511764706,0.543772172633053,-0.05955936,0.04184427,0.038179077,163.49307,-85.215866,3.7994041,STD
1002602690000,3.439948,0.338910066970613,9.84867890469651,0.564487150398242,-0.056199603,0.043066,0.03359759,163.4506,-85.22523,3.7917032,STD
1002607667000,3.444925,0.343273678945345,9.85304260780005,0.586305228497665,-0.05497787,0.036651913,0.03573562,163.41138,-85.23191,3.7856326,STD
1002612677000,3.449935,0.351074890713326,9.85295650520185,0.590607109701827,-0.055283304,0.048563786,0.03848451,163.36836,-85.2374,3.7797344,STD
1002617660000,3.454918,0.360576850853701,9.85058096679775,0.585856122190253,-0.057726767,0.056199603,0.041233405,163.32884,-85.242355,3.7744443,STD
1002622671000,3.459929,0.370132203505401,9.84819207999403,0.581078438381204,-0.07360926,0.05100725,0.040011674,163.29175,-85.241646,3.767653,STD
1002627763000,3.465021,0.379842013064861,9.84576457817711,0.576223525997312,-0.067500606,0.061086524,0.043982297,163.2485,-85.24284,3.7626402,STD
1002632671000,3.469929,0.395426208754766,9.84650127443307,0.5746084,-0.06352998,0.06688975,0.040011674,163.20113,-85.2366,3.7575476,STD
1002637668000,3.474926,0.414633639348284,9.84890225120409,0.5746084,-0.06994407,0.07574729,0.03848451,163.1506,-85.22873,3.7538028,STD
1002642731000,3.479989,0.434094760239815,9.85133493989565,0.5746084,-0.06291912,0.07513642,0.040317107,163.10371,-85.22272,3.7527997,STD
1002647679000,3.484937,0.45311384500602,9.85371237296809,0.5746084,-0.059864793,0.06841691,0.04734206,163.0567,-85.21466,3.752476,STD
1002652703000,3.489961,0.460730760463502,9.85140194894569,0.578784530575348,-0.058337633,0.07574729,0.04642576,163.0101,-85.21175,3.7477655,STD
1002657695000,3.494953,0.462303421922103,9.84668402532978,0.585075189547025,-0.058337633,0.073303826,0.046120327,162.96872,-85.207855,3.745204,STD
1002663336000,3.500594,0.464080541971775,9.84135273383993,0.592183684590941,-0.06505715,0.089186326,0.050701816,162.91669,-85.191666,3.7535155,STD
1002667673000,3.504931,0.465446854621205,9.83725384867923,0.597648946602191,-0.056199603,0.077579886,0.052839845,162.87405,-85.17966,3.7609134,STD
1002672653000,3.509911,0.467015735643607,9.83254726622586,0.603924483797493,-0.051618114,0.06658431,0.04795292,162.82756,-85.16708,3.766748,STD
1002677683000,3.514941,0.468600368483503,9.82779342892858,0.610263028394355,-0.05497787,0.076358154,0.044593163,162.77913,-85.15461,3.7728958,STD
1002682672000,3.51993,0.474761306637472,9.81893177029112,0.614290084506594,-0.04428773,0.076052725,0.052534413,162.73325,-85.14018,3.7810886,STD
1002687742000,3.525,0.484426278292112,9.80685056203036,0.61670632363573,-0.052839845,0.06994407,0.04917465,162.68723,-85.12577,3.7845116,STD
1002692694000,3.529952,0.493866305833292,9.79505053376462,0.619066326824583,-0.051923547,0.069027774,0.045814894,162.64151,-85.11143,3.7907794,STD
1002697676000,3.534934,0.50336352255586,9.78317901905947,0.62144062728639,-0.05131268,0.07666359,0.046120327,162.59584,-85.096245,3.796573,STD
1002702711000,3.539969,0.522101663015291,9.78760722131807,0.612805160633998,-0.046120327,0.08124508,0.048563786,162.55202,-85.083084,3.8016067,STD
1002707683000,3.544941,0.547648957651793,9.80463864437092,0.595773653106501,-0.04520403,0.076358154,0.04520403,162.50955,-85.071236,3.804623,STD
1002712677000,3.549935,0.570985001856068,9.81771537999228,0.585673588909898,-0.04642576,0.07238753,0.050701816,162.46811,-85.05195,3.8111305,STD
1002717672000,3.55493,0.589443873532703,9.82233018946556,0.590288302010419,-0.044593163,0.08460484,0.047647487,162.4243,-85.036835,3.8136358,STD
1002722663000,3.559921,0.60591511505354,9.82709216510053,0.601490877266171,-0.04428773,0.08552113,0.054061573,162.38773,-85.01683,3.8245182,STD
1002727687000,3.564945,0.616429498375219,9.83234946929633,0.633034076636801,-0.055588737,0.07360926,0.05497787,162.35214,-84.99776,3.8324358,STD
1002732990000,3.570248,0.630820548877745,9.8291347918135,0.669961133233939,-0.055283304,0.079107046,0.054061573,162.30962,-84.97724,3.8491077,STD
1002737670000,3.574928,0.647019882355652,9.81698506017891,0.706409566955815,-0.058337633,0.06963864,0.063224554,162.27538,-84.9526,3.8685582,STD
1002742666000,3.579924,0.661796976290141,9.80465545783318,0.73791273814507,-0.065973446,0.06536258,0.063224554,162.242,-84.92689,3.8847487,STD
1002747679000,3.584937,0.666722440371396,9.79480458110188,0.740375470185698,-0.058948494,0.06963864,0.06719518,162.2094,-84.90147,3.9039307,STD
1002752626000,3.589884,0.671583056930337,9.78508339873807,0.742805778465169,-0.06719518,0.06841691,0.0711658,162.18341,-84.866104,3.9264605,STD
1002757709000,3.594967,0.676577298686775,9.77509496737458,0.745302899343388,-0.06719518,0.06261369,0.07544186,162.15816,-84.833786,3.9493842,STD
1002762626000,3.599884,0.688117882634558,9.77242523448144,0.749712427544853,-0.0729984,0.061086524,0.07696902,162.13675,-84.80078,3.967614,STD
1002767677000,3.604935,0.715963464597525,9.78634783162237,0.758994288199175,-0.076358154,0.062308256,0.08582657,162.11662,-84.7668,3.9885452,STD
1002772640000,3.609898,0.73539356671915,9.79808328773863,0.76412396671915,-0.076358154,0.056505036,0.082161374,162.101,-84.73383,4.0077205,STD
1002777683000,3.614941,0.725888390100374,9.80283597530014,0.754618790100374,-0.089186326,0.054367006,0.080634214,162.08438,-84.69665,4.029211,STD
1002782641000,3.619899,0.716562803016151,9.80834773243822,0.743595506032302,-0.0852157,0.048563786,0.09010262,162.074,-84.65755,4.0570016,STD
1002787668000,3.624926,0.707194720976844,9.8177160101187,0.724859341953688,-0.07849618,0.05955936,0.08979719,162.06018,-84.62028,4.0805664,STD
1002792708000,3.629966,0.70019261706211,9.82688968305126,0.710312275593165,-0.083383106,0.06383542,0.09468412,162.04294,-84.58215,4.1140747,STD
1002797675000,3.634933,0.70789655512997,9.83459337978784,0.721868182694955,-0.07422013,0.059253927,0.09621128,162.0258,-84.54981,4.1454415,STD
1002802732000,3.63999,0.71574008539153,9.84243666434529,0.733633478087295,-0.089491755,0.056199603,0.09254608,162.00616,-84.51646,4.1735764,STD
1002807693000,3.644951,0.708698032235858,9.83858222119126,0.734226610745286,-0.08827003,0.05467244,0.092240654,161.98793,-84.48777,4.2021565,STD
1002812632000,3.64989,0.694540649655792,9.82914426179786,0.729507483218597,-0.087964594,0.04917465,0.09132435,161.97238,-84.45803,4.228711,STD
1002817674000,3.654932,0.683714636971149,9.82871164042769,0.720567971213937,-0.081855945,0.056199603,0.09010262,161.95282,-84.42385,4.25425,STD
1002822679000,3.659937,0.674878452253664,9.83312959438658,0.70952274031708,-0.08827003,0.042455133,0.09101892,161.94135,-84.38828,4.2797794,STD
1002827690000,3.664948,0.666031674707346,9.83755284459397,0.698464268384183,-0.080634214,0.056505036,0.079107046,161.917,-84.36469,4.302582,STD
1002832689000,3.669947,0.657206082818693,9.84196550230436,0.687432278523366,-0.080634214,0.061086524,0.08857546,161.89949,-84.33456,4.331283,STD
1002837651000,3.674909,0.651990938462323,9.84342097119405,0.681489376924646,-0.087659165,0.054367006,0.09101892,161.88206,-84.3095,4.3537283,STD
1002842694000,3.679952,0.654453251218517,9.83849649994902,0.686414002437035,-0.07788532,0.06841691,0.08582657,161.8579,-84.287994,4.375373,STD
1002847664000,3.684922,0.656879920740288,9.83364331293974,0.691267341480575,-0.073303826,0.064751714,0.08307768,161.83858,-84.26899,4.3943987,STD
1002852751000,3.690009,0.659363717089834,9.82867587585398,0.696234934179668,-0.07544186,0.06383542,0.07971791,161.81506,-84.252495,4.4107394,STD
1002857677000,3.694935,0.65706767884908,9.82393795386503,0.71216895990184,-0.07422013,0.06414085,0.077579886,161.79279,-84.238396,4.4260225,STD
1002862701000,3.699959,0.64762199912,9.819215024,0.7452288032,-0.07788532,0.06383542,0.07788532,161.77142,-84.22378,4.440457,STD
1002867652000,3.70491,0.638313567523926,9.8145607195092,0.777808278552147,-0.07147124,0.063224554,0.08368854,161.74739,-84.2087,4.460933,STD
1002872677000,3.709935,0.628866007683435,9.80983684957055,0.810874702233129,-0.07360926,0.04550946,0.07513642,161.72911,-84.19507,4.4769993,STD
1002877633000,3.714891,0.623232013233061,9.80517087986981,0.835400949699181,-0.07727446,0.05497787,0.07513642,161.7034,-84.17972,4.4959316,STD
1002882815000,3.720073,0.625679344212447,9.80027637123977,0.842742942637341,-0.07788532,0.064446285,0.08002335,161.68323,-84.1658,4.5135245,STD
1002887625000,3.724883,0.627950988753329,9.79573322447973,0.849557876259986,-0.0870483,0.052839845,0.07819075,161.667,-84.14815,4.5260067,STD
1002892689000,3.729947,0.630342591238781,9.79095016934609,0.856732683716343,-0.08307768,0.06047566,0.07391469,161.64296,-84.13285,4.538124,STD
1002897610000,3.734868,0.63083643748957,9.78626418174417,0.856981424809199,-0.093462385,0.06719518,0.064446285,161.62302,-84.11545,4.54798,STD
1002902761000,3.740019,0.625816584350259,9.78124422377124,0.836901991285234,-0.09132435,0.055588737,0.07391469,161.60625,-84.098366,4.561778,STD
1002907619000,3.744877,0.629341802211348,9.77928990104785,0.826345110601028,-0.0852157,0.06383542,0.07880162,161.58351,-84.08166,4.571725,STD
1002912686000,3.749944,0.653326438697113,9.78408692151048,0.83593897120601,-0.0888809,0.06780604,0.08002335,161.5656,-84.06288,4.583201,STD
1002918347000,3.755605,0.674106673790494,9.78656443707732,0.839961365762119,-0.08674286,0.061391957,0.077579886,161.53925,-84.04192,4.5969086,STD
1002922711000,3.759969,0.682012685651454,9.78458789283519,0.834031848611019,-0.081855945,0.054061573,0.08002335,161.51247,-84.02027,4.6117125,STD
1002927934000,3.765192,0.691474899205486,9.78222229004493,0.826935178565145,-0.080634214,0.06078109,0.076052725,161.48543,-83.99655,4.6287627,STD
1002932715000,3.769973,0.7001363663703,9.78005687803263,0.820439069147316,-0.08002335,0.05681047,0.07941248,161.46388,-83.97227,4.648262,STD
1002937806000,3.775064,0.709753632028754,9.77809832572883,0.816346747738119,-0.086132,0.05497787,0.08246681,161.4404,-83.94873,4.6657243,STD
1002942702000,3.77996,0.72379756557508,9.78043903020168,0.84677529241863,-0.07941248,0.05497787,0.08399397,161.419656512643,-83.9259280745405,4.68421628367015,STD
1002947653000,3.784911,0.737999263897764,9.78280602935304,0.877545661028355,-0.08827003,0.053145275,0.08155051,161.39868,-83.90287,4.702916,STD
1002952846000,3.790104,0.752895127236422,9.78528872508986,0.909820054926617,-0.09193522,0.041233405,0.08093964,161.3827,-83.879944,4.723149,STD
1002957769000,3.795027,0.767307993559796,9.78691524198222,0.938817922934359,-0.093462385,0.03940081,0.07696902,161.35704,-83.8511,4.743483,STD
1002962702000,3.79996,0.786187972936357,9.77747506993706,0.943537910385653,-0.09682214,0.03145956,0.07727446,161.33708,-83.82146,4.7644606,STD
1002967858000,3.805116,0.805161563358425,9.76940769021424,0.946329341974522,-0.09743301,0.03634648,0.08032878,161.31934,-83.78398,4.789232,STD
1002972685000,3.809943,0.814084013387377,9.78279117892299,0.92402322156051,-0.089491755,0.040317107,0.080634214,161.3047,-83.749115,4.8127484,STD
1002978047000,3.815305,0.823067318614538,9.79743170187272,0.899502470112719,-0.09743301,0.03970624,0.082161374,161.29256,-83.70816,4.840156,STD
1002982689000,3.819947,0.811230408134375,9.80532314307269,0.883719892592527,-0.09865474,0.03940081,0.077579886,161.27983,-83.67231,4.8650064,STD
1002988129000,3.825387,0.797358630234313,9.81457119135528,0.865224153318541,-0.09712757,0.043982297,0.079107046,161.26277,-83.63267,4.8931713,STD
1002992794000,3.830052,0.805493160596776,9.8056089535396,0.865451998097527,-0.08857546,0.034208454,0.08124508,161.25063,-83.5962,4.9196596,STD
1002997691000,3.834949,0.819580746441374,9.79152155892661,0.870147861680184,-0.0852157,0.04184427,0.08032878,161.23283,-83.5606,4.9444246,STD
1003002775000,3.840033,0.828888641171715,9.78221361584909,0.885578139370727,-0.08552113,0.032986723,0.07788532,161.2216,-83.52926,4.9636407,STD
1003007670000,3.844928,0.835906731086381,9.77519538914117,0.904293031967663,-0.08399397,0.03970624,0.06963864,161.20442,-83.50137,4.979805,STD
1003012714000,3.849972,0.843138446209891,9.76796353306053,0.923577591366835,-0.07788532,0.028405234,0.07422013,161.19693,-83.47028,5.001588,STD
1003017677000,3.854935,0.850254029508459,9.76084781106842,0.942552466128549,-0.07727446,0.032986723,0.06688975,161.18387,-83.44383,5.0165668,STD
1003022699000,3.859957,0.842282117310331,9.75206376416389,0.941401404205058,-0.06872234,0.027488936,0.06719518,161.17632,-83.41693,5.0344205,STD
1003027717000,3.864975,0.828150638392472,9.74264308645364,0.931980431376201,-0.07574729,0.027488936,0.065973446,161.1665,-83.39008,5.0490384,STD
1003032693000,3.869951,0.818694257133415,9.75107214144804,0.924039147133415,-0.08124508,0.027488936,0.05681047,161.15717,-83.35693,5.063832,STD
1003037693000,3.874951,0.811390415868416,9.76811429113281,0.916735305868416,-0.06627888,0.03481932,0.06291912,161.14594,-83.324295,5.0819783,STD
1003042748000,3.880006,0.804006232349502,9.7853439044641,0.909351122349502,-0.056505036,0.03145956,0.055283304,161.1372,-83.298355,5.091056,STD
1003047712000,3.88497,0.796754978741611,9.80226335067114,0.902099868741611,-0.0580322,0.029321533,0.05222898,161.12624,-83.27167,5.1025915,STD
1003052777000,3.890035,0.791379206676329,9.813641672657,0.907211382997101,-0.06383542,0.03023783,0.057421334,161.11594,-83.24565,5.1124825,STD
1003057801000,3.895059,0.786730526173913,9.82293922782609,0.916508739147826,-0.06352998,0.032986723,0.056199603,161.1063,-83.22328,5.1194396,STD
1003062705000,3.899963,0.795060161377949,9.83556585886403,0.935643458281867,-0.069027774,0.03634648,0.051618114,161.0894,-83.200005,5.1267323,STD
1003067706000,3.904964,0.809607157468867,9.85011265748709,0.95988848552192,-0.058337633,0.03573562,0.046731193,161.07335,-83.18094,5.133292,STD
1003072660000,3.909918,0.815638129851214,9.84970535767424,0.970476639702428,-0.062308256,0.034208454,0.04550946,161.05302,-83.15665,5.1406264,STD
1003077683000,3.914941,0.817992489013313,9.84264237852388,0.975185358026625,-0.06566802,0.036957346,0.04428773,161.03223,-83.13629,5.1461854,STD
1003082673000,3.919931,0.820331380555991,9.83562580158575,0.979863141111981,-0.06688975,0.043982297,0.043066,161.01398,-83.11009,5.148996,STD
1003087651000,3.924909,0.822664647509789,9.82862609817933,0.984529675019577,-0.06078109,0.04917465,0.040011674,160.996,-83.08618,5.150778,STD
1003092713000,3.929971,0.82360536,9.82152946970877,0.983561472650239,-0.05375614,0.0421497,0.03848451,160.97618,-83.06098,5.1554217,STD
1003097675000,3.934933,0.82360536,9.81458668106555,0.978933043547287,-0.055588737,0.036957346,0.040927973,160.95485,-83.03595,5.159938,STD
1003102691000,3.939949,0.82360536,9.80756833607675,0.974254244599201,-0.052534413,0.03390302,0.03970624,160.9364,-83.01327,5.164037,STD
1003107686000,3.944944,0.82360536,9.80057937411123,0.969595033924223,-0.048258353,0.047647487,0.03268129,160.91516,-82.992004,5.1666794,STD
1003112671000,3.949929,0.828032161562558,9.79928644238299,0.956190507649636,-0.048563786,0.03726278,0.034513887,160.89307,-82.96535,5.1788216,STD
1003117674000,3.954932,0.836966122118217,9.80375350661943,0.933855629582323,-0.043982297,0.03604105,0.029321533,160.86536,-82.94435,5.1859665,STD
1003122661000,3.959919,0.84447209137931,9.80750656357758,0.922799637230604,-0.03634648,0.043066,0.022296581,160.84242,-82.9269,5.189793,STD
1003127815000,3.965073,0.849537652463054,9.81003939701355,0.932930772621613,-0.042760566,0.042760566,0.024129177,160.82231,-82.90754,5.1946244,STD
1003132671000,3.969929,0.854310327011494,9.81242578412356,0.942476134177443,-0.03604105,0.05681047,0.026267206,160.79703,-82.895386,5.198009,STD
1003137653000,3.974911,0.859206839490969,9.8148740914922,0.952269171918617,-0.0421497,0.05497787,0.02687807,160.7768,-82.880005,5.2016373,STD
1003142757000,3.980015,0.863980478104335,9.81829492128949,0.953544932995041,-0.036651913,0.046120327,0.023518313,160.75505,-82.86916,5.2042985,STD
1003147679000,3.984937,0.868309740558413,9.82262427415503,0.944886385484019,-0.032070424,0.05131268,0.023823744,160.73013,-82.85666,5.2076197,STD
1003152697000,3.989955,0.873498012486546,9.82312586959338,0.9432138061765,-0.0290161,0.05589417,0.026267206,160.70966,-82.84185,5.2114944,STD
1003157693000,3.994951,0.880650562723739,9.81358920565079,0.959903067657465,-0.03390302,0.04795292,0.01985312,160.69188,-82.82873,5.212886,STD
1003162661000,3.999919,0.887763026610524,9.80410598978473,0.976498794446382,-0.021991149,0.041233405,0.014049901,160.67139,-82.82029,5.217883,STD
1003167673000,4.004931,0.894938483333666,9.79453878408411,0.993241504322803,-0.022907447,0.04153884,0.014049901,160.65157,-82.809,5.222451,STD
1003172632000,4.00989,0.901504318337734,9.78492802967578,1.00684915833773,-0.029932396,0.028099801,0.014660766,160.63326,-82.79656,5.227832,STD
1003177685000,4.014943,0.906614844306685,9.77470676428345,1.01195968430668,-0.020158553,0.03573562,0.011301007,160.60931,-82.788574,5.231258,STD
1003182631000,4.019889,0.913163501992188,9.7733931953125,1.010091234375,-0.03604105,0.03573562,0.01038471,160.59442,-82.768654,5.238789,STD
1003187655000,4.024913,0.922560732085937,9.7874888515625,0.995995381875,-0.03268129,0.034513887,0.0143553335,160.57797,-82.75466,5.2463174,STD
1003192729000,4.029987,0.927342317402532,9.80028893235443,0.978371428617722,-0.02687807,0.0421497,0.0106901415,160.55692,-82.737465,5.2544084,STD
1003197706000,4.034964,0.922515610202532,9.80994254835443,0.954237867417722,-0.01740966,0.03970624,0.008552114,160.53934,-82.72116,5.263965,STD
1003202601000,4.039859,0.927211260577589,9.81936218643062,0.930689249243398,-0.01282817,0.04550946,0.009468411,160.5119,-82.70079,5.2756543,STD
1003207682000,4.04494,0.951274049426367,9.82898749292849,0.90662649054594,-0.013439035,0.047036625,0.008552114,160.487,-82.682846,5.28589,STD
1003212607000,4.049865,0.966286822952428,9.83295431371587,0.897437783622691,-0.016493361,0.04184427,0.012217305,160.46161,-82.66807,5.29595,STD
1003217672000,4.05493,0.963114900858264,9.82502452918097,0.919641186944581,-0.018936822,0.036651913,0.013439035,160.43636,-82.6546,5.3045645,STD
1003222634000,4.059892,0.960007481819519,9.81725600186366,0.941393069922511,-0.014966198,0.039095376,0.013744468,160.41876,-82.64491,5.3129654,STD
1003227719000,4.064977,0.956823034860226,9.80929490524767,0.963684147097597,-0.01863139,0.02565634,0.014966198,160.4075,-82.633255,5.3221474,STD
1003232636000,4.069894,0.953743796768024,9.8015968301128,0.985238763905836,-0.022602014,0.02107485,0.008552114,160.3935,-82.62425,5.328585,STD
1003237661000,4.074919,0.95059692440412,9.79372966974007,1.00726681952133,-0.030848695,0.02107485,0.015577064,160.38193,-82.611046,5.3390965,STD
1003242705000,4.079963,0.947157036532738,9.78181609942336,1.02755875028832,-0.022907447,0.013744468,0.007330383,160.37614,-82.60982,5.346541,STD
1003247677000,4.084935,0.942728479092262,9.75524466229539,1.04084446885231,-0.025961773,0.0067195175,0.0076358155,160.37009,-82.60182,5.3580127,STD
1003252782000,4.09004,0.938273541666382,9.73105002804025,1.05104046818352,-0.024129177,0.004581489,0.008552114,160.36598,-82.5922,5.3667903,STD
1003257685000,4.094943,0.935070058780488,9.74386389268293,1.02060734731707,-0.029626964,0.007941248,0.006414085,160.36255,-82.58142,5.374556,STD
