timestamp,rel_time,acc_x,acc_y,acc_z,gyro_x,gyro_y,gyro_z,azimuth,pitch,roll,label
5820882523000,0,0.550914650755588,9.93227301679085,0.582520922499213,-0.01740966,0.12797627,-0.040011674,152.54947,-83.51733,0.7186256,STD
5820887570000,0.005047,0.583884738356596,9.9348089634799,0.557159313189212,-0.021685716,0.086437434,-0.027183503,152.66866,-83.615234,0.8002066,STD
5820892538000,0.010015,0.616338749690419,9.93730521534264,0.532194685677406,-0.029932396,0.05497787,-0.02321288,152.77539,-83.5866,0.79550266,STD
5820897561000,0.015038,0.649152054627978,9.93982910284395,0.506953678432679,-0.034208454,0.04153884,-0.016798794,152.88713,-83.55779,0.7957879,STD
5820902520000,0.019997,0.666088964724807,9.94336968759238,0.474192239407878,-0.04734206,0.0290161,-0.0106901415,153.0061,-83.5245,0.7979721,STD
5820907534000,0.025011,0.674439208216677,9.94754489653074,0.436616113177115,-0.044898596,0.0018325958,-0.014966198,153.13187,-83.4951,0.7997813,STD
5820912561000,0.030038,0.686387829678935,9.93421567580266,0.37963000976899,-0.04550946,-0.016493361,-0.013133603,153.30629,-83.45965,0.8159679,STD
5820917541000,0.035018,0.705061464761159,9.8875315880971,0.286261770986688,-0.044593163,-0.036957346,-0.015577064,153.48692,-83.426155,0.83033913,STD
5820922499000,0.039976,0.726642400405762,9.85034311543924,0.227251462142422,-0.03940081,-0.052839845,-0.019242255,153.72003,-83.38772,0.84049946,STD
5820927516000,0.044993,0.755885790068979,9.83572164962467,0.251620936564212,-0.03848451,-0.058643065,-0.015882496,153.9524,-83.34875,0.85228026,STD
5820932527000,0.050004,0.786615433431026,9.82736032299141,0.263481725279434,-0.032986723,-0.058948494,-0.011911872,154.22696,-83.31658,0.8614609,STD
5820937556000,0.055033,0.820686387488631,9.83222770378979,0.248879877661445,-0.028405234,-0.069027774,-0.0061086523,154.50136,-83.28458,0.8728688,STD
5820942508000,0.059985,0.851156929147945,9.83370138119888,0.246138518407703,-0.034513887,-0.07452556,-0.0106901415,154.84291,-83.22618,0.88175493,STD
5820947537000,0.065014,0.876087971464955,9.82871507485247,0.26608333768299,-0.039095376,-0.073303826,-0.0036651916,155.17818,-83.169655,0.8962889,STD
5820952499000,0.069976,0.900847790061361,9.83260711903927,0.282829769470547,-0.051923547,-0.07574729,0.004581489,155.59317,-83.089096,0.90991247,STD
5820957531000,0.075008,0.926193397992637,9.84950410571529,0.295502584463534,-0.043676864,-0.07269296,0.0015271631,155.99715,-83.01463,0.9232707,STD
5820962540000,0.080017,0.95083640879373,9.86301795479737,0.304818285294423,-0.053450707,-0.07422013,0.0067195175,156.47083,-82.89945,0.9375682,STD
5820967531000,0.085008,0.971531706122272,9.85473967163145,0.292401111219259,-0.05009095,-0.08246681,0.016187929,156.93312,-82.79232,0.9543537,STD
5820972529000,0.090006,0.992256029113266,9.84644977797021,0.279966521752684,-0.06291912,-0.09315695,0.02321288,157.50456,-82.642105,0.9697121,STD
5820977520000,0.094997,0.986629187809539,9.84807663587865,0.271488248767418,-0.07452556,-0.1133155,0.02076942,158.06256,-82.49637,0.98889565,STD
5820982495000,0.099972,0.975248206839717,9.85187037542798,0.263900916236962,-0.09010262,-0.12522738,0.03390302,158.60265,-82.34824,1.0174878,STD
5820987550000,0.105027,0.964128001956067,9.86548727991632,0.241361565887029,-0.09896017,-0.14110987,0.034208454,159.14519,-82.21132,1.0545851,STD
5820992551000,0.110028,0.954108399063808,9.90055600774059,0.186253862449791,-0.101098195,-0.16982053,0.03970624,159.67847,-82.0742,1.0999608,STD
5820997514000,0.114991,0.938480058920466,9.91964720118585,0.12820702987937,-0.105068825,-0.18325958,0.044898596,160.18262,-81.95025,1.1476473,STD
5821002509000,0.119986,0.914028972225516,9.91475688069924,0.0646341452392149,-0.1020145,-0.19761491,0.04520403,160.68204,-81.830246,1.198094,STD
5821007501000,0.124978,0.890621827107377,9.90815571147632,0.00569515388606777,-0.10140363,-0.20647246,0.05222898,161.1568,-81.73352,1.2546685,STD
5821012558000,0.130035,0.868264732525159,9.89921269808882,-0.0479618432296187,-0.084910266,-0.21410827,0.0571159,161.62444,-81.64405,1.3120718,STD
5821017498000,0.134975,0.855067358741333,9.88054901418667,-0.0971175035221333,-0.06536258,-0.21563543,0.062308256,162.04672,-81.57958,1.3682128,STD
5821022537000,0.140014,0.865362291050667,9.83422192629333,-0.138297265009067,-0.06078109,-0.2144137,0.057421334,162.46233,-81.51679,1.4234239,STD
5821027493000,0.14497,0.874197565061773,9.79581743024348,-0.157389402601691,-0.050701816,-0.21655174,0.05589417,162.85439,-81.482445,1.4782058,STD
5821032507000,0.149984,0.881136113666643,9.76806346766852,-0.143512337995087,-0.04428773,-0.1994475,0.05467244,163.23389,-81.448906,1.5308948,STD
5821037536000,0.155013,0.888095419796258,9.74022647568817,-0.129593758436529,-0.034208454,-0.17867808,0.06261369,163.60713,-81.43152,1.5905523,STD
5821042536000,0.160013,0.893657218732689,9.74209257198366,-0.395772967930657,-0.026572637,-0.17501289,0.051618114,163.97525,-81.416214,1.6442982,STD
5821047539000,0.165016,0.898430829413171,9.76118691501445,-0.825398233232041,-0.0143553335,-0.1685988,0.059253927,164.32982,-81.40343,1.7043163,STD
5821052513000,0.16999,0.942839148789817,9.78384083198434,-0.843055304549608,0.0015271631,-0.16065755,0.06811147,164.67346,-81.39374,1.7649995,STD
5821057516000,0.174993,1.01164337654569,9.80886040391645,-0.611622892597911,0.018325957,-0.16035213,0.06047566,165.01266,-81.38793,1.8228104,STD
5821065141000,0.182618,1.1010885940133,9.8457426962306,-0.235693500776053,0.03268129,-0.15515977,0.051618114,165.30432,-81.475204,1.8818524,STD
5821067657000,0.185134,1.040376920641,9.8505997274743,0.0241524216992542,0.03634648,-0.15332718,0.053450707,165.59369,-81.56124,1.9412787,STD
5821072544000,0.190021,0.922452458093126,9.86003387361419,0.528869044567628,0.03634648,-0.1554652,0.043676864,165.92886,-81.576195,2.0213175,STD
5821077513000,0.19499,0.933610059343929,9.87696358568856,0.616323315308855,0.0290161,-0.14385876,0.050396383,166.25482,-81.58754,2.1048782,STD
5821082905000,0.200382,1.05085002965631,9.90122019823064,0.369715119069913,0.036651913,-0.1441642,0.042455133,166.58179,-81.603516,2.181097,STD
5821087788000,0.205265,1.14373051298759,9.91913363253546,0.177435820078901,0.03176499,-0.13683382,0.04337143,166.9153,-81.51854,2.2330365,STD
5821092553000,0.21003,1.07091113244681,9.8867692287234,0.371620853159574,0.02687807,-0.13347405,0.040927973,167.24461,-81.43823,2.2815003,STD
5821097510000,0.214987,0.995157581693262,9.85310073980497,0.573630340878546,0.016493361,-0.119729586,0.036651913,167.57166,-81.40527,2.3603594,STD
5821102515000,0.219992,1.05458301284916,9.85236178659218,0.0819538990726257,0.007330383,-0.11026118,0.032070424,167.89441,-81.37151,2.4374719,STD
5821107503000,0.22498,1.1564775424581,9.86206622051803,-0.626455505095988,0.012217305,-0.10293079,0.020463986,168.20984,-81.33979,2.5099483,STD
5821112556000,0.230033,1.1779473,9.84734824912526,-0.651676938505948,0.006414085,-0.086437434,0.024740042,168.5167,-81.26243,2.5647056,STD
5821117572000,0.235049,1.1779473,9.82633826452064,-0.49620292080126,0.0018325958,-0.06963864,0.02076942,168.81717,-81.18988,2.6130154,STD
5821122515000,0.239992,1.16900736668102,9.81324696517994,-0.348370119967518,-0.008552114,-0.06841691,0.016187929,169.09206,-81.24213,2.6845872,STD
5821127507000,0.244984,1.15136080791141,9.80736466631805,-0.204256705526177,-0.005192355,-0.069027774,0.020463986,169.35974,-81.29421,2.756067,STD
5821132525000,0.250002,1.13362233998154,9.80145173048293,-0.0593927003846201,0.0033597588,-0.062308256,0.023823744,169.63158,-81.309265,2.8253229,STD
5821137567000,0.255044,1.11213190210526,9.79110550150376,0.0860760507902256,0.0015271631,-0.06352998,0.016187929,169.90302,-81.32187,2.892232,STD
5821142539000,0.260016,1.08080568526316,9.76872963233083,0.22928172003985,-0.005192355,-0.06719518,0.0070249503,170.17015,-81.33418,2.9586656,STD
5821147537000,0.265014,1.0534488,9.74981300794597,0.362453799753675,-0.004886922,-0.058948494,0.01282817,170.44154,-81.3038,3.0196252,STD
5821153013000,0.27049,1.0534488,9.7550219523242,0.43016871147795,-0.0067195175,-0.056199603,0.003970624,170.71288,-81.27359,3.0736268,STD
5821157549000,0.275026,1.05516853961841,9.75833605611672,0.470671580976431,-0.017104227,-0.053450707,0.004886922,170.97704,-81.2132,3.1234808,STD
5821162540000,0.280017,1.06947390701085,9.754759639581,0.402721037315376,-0.023518313,-0.047036625,-0.0018325958,171.23619,-81.15603,3.167982,STD
5821167531000,0.285008,1.08377927440329,9.75118322304527,0.334770493654321,-0.03023783,-0.03756821,-0.010079277,171.49057,-81.08465,3.2112558,STD
5821172525000,0.290002,1.09813188220416,9.75343967690455,0.31600867548931,-0.03634648,-0.0290161,-0.010995574,171.73956,-81.01298,3.254114,STD
5821177559000,0.295036,1.11264847696477,9.76311760885275,0.359558479981933,-0.039095376,-0.025350908,-0.017715093,171.98415,-80.943184,3.2924938,STD
5821182501000,0.299978,1.13756132213649,9.77261181410963,0.359594259334603,-0.04520403,-0.021685716,-0.015271631,172.22665,-80.8865,3.3373847,STD
5821187520000,0.304997,1.17609506053713,9.78224543731837,0.306610408012827,-0.05375614,-0.014049901,-0.015577064,172.46407,-80.83037,3.3789244,STD
5821192502000,0.309979,1.21849565950809,9.80111171218012,0.273837441325617,-0.050701816,-0.015882496,-0.024129177,172.70203,-80.76905,3.42188,STD
5821197539000,0.315016,1.26647669407722,9.83164479555114,0.265113611475721,-0.056199603,-0.018325957,-0.020463986,172.93417,-80.70312,3.4675,STD
5821202501000,0.319978,1.30551887489177,9.85299751068723,0.241671847024621,-0.06658431,-0.035430185,-0.016493361,173.17625,-80.645454,3.5201368,STD
5821207524000,0.325001,1.31853409848485,9.84649010274621,0.170088070375947,-0.06688975,-0.04337143,-0.016493361,173.41318,-80.58997,3.5718603,STD
5821215630000,0.333107,1.33953776212121,9.8359885999053,0.0545678447111742,-0.077579886,-0.03481932,-0.016493361,173.65582,-80.526726,3.635767,STD
5821217765000,0.335242,1.35046187689655,9.84023537931034,-0.0216964228551724,-0.076358154,-0.03726278,-0.0106901415,173.9003,-80.466805,3.7013936,STD
5821222563000,0.34004,1.37842297614604,9.85421575862069,-0.222084791639757,-0.070554934,-0.034208454,-0.005192355,174.1376,-80.40623,3.7655935,STD
5821227513000,0.34499,1.40214530905248,9.8588689184572,-0.380955526278619,-0.07360926,-0.032070424,-0.0033597588,174.37456,-80.36056,3.8345568,STD
5821232520000,0.349997,1.4148129837795,9.84197889124692,-0.435848440987143,-0.06688975,-0.034513887,-0.005497787,174.60904,-80.31923,3.9031713,STD
5821237511000,0.354988,1.42675655717143,9.82599174674935,-0.490857808535707,-0.06566802,-0.0290161,-0.004886922,174.83759,-80.30938,3.9786074,STD
5821242530000,0.360007,1.42194899973995,9.83079940458092,-0.553356100325065,-0.06688975,-0.023518313,0.004276057,175.06412,-80.2992,4.055049,STD
5821247748000,0.365225,1.4173675,9.83500223874898,-0.617460682467497,-0.06261369,-0.02565634,-0.0021380284,175.29868,-80.301544,4.1306944,STD
5821252500000,0.369977,1.4173675,9.83086459859987,-0.667111353284844,-0.04917465,-0.01985312,-0.00061086525,175.52634,-80.3029,4.2096004,STD
5821257491000,0.374968,1.4173675,9.82651885744159,-0.719259185365942,-0.050701816,-0.01160644,-0.004581489,175.74815,-80.31457,4.2831726,STD
5821262617000,0.380094,1.42944985515422,9.8227833402447,-0.755022688988204,-0.04337143,-0.0018325958,-0.009162978,175.96565,-80.330536,4.355727,STD
5821267522000,0.384999,1.44321616224632,9.81934168261411,-0.785996982365008,-0.032375857,0.01282817,-0.0033597588,176.177,-80.34492,4.428616,STD
5821272507000,0.389984,1.4556746,9.81517614750804,-0.81140148034164,-0.02076942,0.03390302,0.0027488936,176.38094,-80.37014,4.4989576,STD
5821277498000,0.394975,1.4556746,9.80557027793408,-0.787387277823553,-0.026267206,0.056199603,-0.00030543262,176.57855,-80.392715,4.56677,STD
5821282498000,0.399975,1.45661618453782,9.79613144495798,-0.755787065168067,-0.007330383,0.07696902,0.0018325958,176.77156,-80.426,4.640691,STD
5821287530000,0.405007,1.46471542110924,9.78803246210084,-0.666695420596639,0.006414085,0.08674286,0.0076358155,176.95958,-80.454704,4.7133617,STD
5821292516000,0.409993,1.47274061855462,9.78000751605042,-0.578418206798319,0.0061086523,0.093767814,0.006414085,177.14142,-80.47927,4.7830563,STD
5821297509000,0.414986,1.46777863760207,9.76029609400518,-0.484959124493129,0.023823744,0.10903945,0.0036651916,177.3163,-80.509384,4.852239,STD
5821302491000,0.419968,1.45827622421828,9.73654006054571,-0.389934921198964,0.024129177,0.106595986,0.009468411,177.49232,-80.532394,4.922974,STD
5821307521000,0.424998,1.42778296573982,9.7265494774578,-0.30813542424429,0.026267206,0.11026118,0.011301007,177.65965,-80.54126,4.9918566,STD
5821312534000,0.430011,1.38964309597815,9.72178190039722,-0.23185572952433,0.033292156,0.12461651,0.014966198,177.82262,-80.549095,5.061563,STD
5821317523000,0.435,1.35687458445548,9.7077816098234,-0.17582672183039,0.035124753,0.11911872,0.014660766,177.98685,-80.53983,5.1281257,STD
5821322515000,0.439992,1.32609356900294,9.69019252373069,-0.127456450395511,0.03481932,0.10995574,0.018325957,178.14604,-80.52996,5.195464,STD
5821327498000,0.444975,1.28816809170858,9.69299494802146,-0.103176286772636,0.03268129,0.109650314,0.015577064,178.29593,-80.51458,5.250828,STD
5821332491000,0.449968,1.24407125353789,9.71303894634474,-0.0991674804104628,0.03268129,0.10445796,0.014966198,178.44783,-80.4985,5.307568,STD
5821337539000,0.455016,1.19408277129823,9.73299949534309,-0.0891001602556548,0.03268129,0.10995574,0.015577064,178.5901,-80.47724,5.355155,STD
5821342544000,0.460021,1.11664097995628,9.75122098697966,-0.0481015629086676,0.048563786,0.11636983,0.01740966,178.73181,-80.45967,5.402437,STD
5821347608000,0.465085,1.04101714507638,9.76905672770438,-0.00672195367867465,0.047647487,0.12522738,0.01863139,178.86055,-80.44534,5.4361415,STD
5821352493000,0.46997,1.00238565947564,9.77871478819158,0.0319095102400908,0.05681047,0.13561209,0.018936822,178.98544,-80.436905,5.469362,STD
5821357509000,0.474986,0.966201178410838,9.79013779707917,0.0686221290196003,0.07452556,0.14446963,0.016187929,179.08853,-80.435394,5.481878,STD
5821362548000,0.480025,0.956927999860684,9.8133206829362,0.0825318673118755,0.076052725,0.14874569,0.016187929,179.18857,-80.43168,5.4949255,STD
5821367697000,0.485174,0.946408417667533,9.83470281276255,0.0988198451726345,0.06719518,0.15699236,0.022296581,179.27641,-80.42865,5.4991407,STD
5821372510000,0.489987,0.923357243045609,9.82548214842969,0.140311999929386,0.076358154,0.16707164,0.014966198,179.3619,-80.432335,5.4993644,STD
5821377713000,0.49519,0.89780884621098,9.81682976524829,0.181055200379833,0.07269296,0.17654006,0.02107485,179.44353,-80.427704,5.5021534,STD
5821382525000,0.500002,0.866621216230437,9.82462682539548,0.169359846260892,0.074830994,0.17562376,0.021685716,179.52469,-80.428665,5.501417,STD
5821387541000,0.505018,0.834111417397851,9.83275443422722,0.15716867912444,0.07360926,0.17256944,0.01740966,179.6005,-80.42334,5.4953604,STD
5821392533000,0.51001,0.814139018030495,9.84800272778809,0.150073458283648,0.061086524,0.16279559,0.0036651916,179.67783,-80.41743,5.4872384,STD
5821397523000,0.515,0.800126248398984,9.86668632958655,0.145402528570032,0.056199603,0.15424347,0.01160644,179.75398,-80.410225,5.4843016,STD
5821402500000,0.519977,0.81319286411389,9.87826732828011,0.113885513158753,0.04734206,0.13316862,0.00580322,179.827,-80.41222,5.4657736,STD
5821407925000,0.525402,0.845176956668719,9.88626309780685,0.061911347206464,0.03726278,0.115453534,0.008552114,179.89992,-80.41002,5.452489,STD
5821412734000,0.530211,0.871793592857799,9.89253683255301,0.0164158762469476,0.029932396,0.09987647,0.009773844,179.97433,-80.41191,5.4346166,STD
5821417547000,0.535024,0.876025038593592,9.88830574029193,-0.0216671636531718,0.02321288,0.089186326,0.0061086523,180.05151,-80.411835,5.417072,STD
5821422518000,0.539995,0.880395393206646,9.88393575075737,-0.0610003843769393,0.025961773,0.06688975,0.007330383,180.13431,-80.4156,5.4113784,STD
5821427507000,0.544984,0.873244097796676,9.883265,-0.117881346992656,0.027794369,0.054367006,0.010995574,180.21646,-80.41765,5.4056487,STD
5821432503000,0.54998,0.863996766370313,9.883265,-0.177989039887901,0.029626964,0.04917465,0.011911872,180.30196,-80.420456,5.400338,STD
5821437567000,0.555044,0.858577488715953,9.89660537548638,-0.238227726284047,0.027183503,0.046120327,0.015882496,180.3924,-80.42681,5.399074,STD
5821442572000,0.560049,0.85433872996109,9.91356032198444,-0.29757039753891,0.01740966,0.047036625,0.009162978,180.48253,-80.4332,5.39529,STD
5821447539000,0.565016,0.847856009689888,9.92605164997753,-0.332331130142921,0.019547688,0.041233405,0.005497787,180.57257,-80.451256,5.3922663,STD
5821452512000,0.569989,0.839294135280899,9.93461325617978,-0.345173950696629,0.019547688,0.03390302,0.00580322,180.66197,-80.46654,5.388736,STD
5821457519000,0.574996,0.8377401478223,9.940725,-0.348264589891115,0.01282817,0.029321533,-0.0009162979,180.7532,-80.49299,5.381536,STD
5821462759000,0.580236,0.854132492770035,9.940725,-0.326408107138502,0.0067195175,0.025045475,-0.0012217305,180.84523,-80.517784,5.3768163,STD
5821467538000,0.585015,0.872696747147489,9.93425460990469,-0.296623165944777,0.003970624,0.028710667,-0.005192355,180.93355,-80.54663,5.3670607,STD
5821472536000,0.590013,0.896212963309423,9.92014509433035,-0.254294000426452,0.0021380284,0.01160644,-0.014049901,181.02829,-80.57437,5.357168,STD
5821478034000,0.595511,0.918167941644627,9.91408786466354,-0.217286425513894,-0.010995574,0.01160644,-0.015577064,181.081186756215,-80.5839815797915,5.35506287664395,STD
5821482512000,0.599989,0.932525122496652,9.91767723577168,-0.195750633622364,-0.01160644,-0.016493361,-0.0106901415,181.12427,-80.59181,5.3533483,STD
5821487727000,0.605204,0.949115926014249,9.91988520957847,-0.169008936831981,-0.010079277,-0.025045475,-0.004886922,181.21886,-80.612885,5.347955,STD
5821492567000,0.610044,0.962875611151791,9.89695244092618,-0.123143367918464,-0.017715093,-0.027488936,-0.0033597588,181.32124,-80.61895,5.3488603,STD
5821497839000,0.615316,0.975228554182492,9.87272453339509,-0.075972155874201,-0.0290161,-0.0421497,-0.0036651916,181.42966,-80.6156,5.355888,STD
5821502535000,0.620012,0.954398216174155,9.86022608263085,-0.0676400232809634,-0.03848451,-0.05131268,0.00061086525,181.53584,-80.60978,5.364639,STD
5821507532000,0.625009,0.932232713825845,9.84692651736915,-0.0587738251190366,-0.037873644,-0.05681047,0.007941248,181.64603,-80.59308,5.3781366,STD
5821512556000,0.630033,0.925355173659306,9.85214730283912,-0.0394854459085173,-0.03176499,-0.065973446,0.002443461,181.75903,-80.57707,5.3897195,STD
5821517556000,0.635033,0.921159239554855,9.86053934630214,-0.0185057609277953,-0.03634648,-0.064446285,0.005497787,181.86877,-80.55636,5.405586,STD
5821522521000,0.639998,0.911132815440299,9.85861712698413,0.0151451227803053,-0.04337143,-0.080634214,0.002443461,181.97592,-80.539314,5.41393,STD
5821527519000,0.644996,0.896615123678091,9.84893846031746,0.0586982440499444,-0.03176499,-0.07788532,0.0030543262,182.0759,-80.52468,5.423455,STD
5821532545000,0.650022,0.879652665660742,9.83396668025502,0.084857244303323,-0.022907447,-0.071776666,0.006414085,182.17699,-80.50484,5.4320455,STD
5821537557000,0.655034,0.861105912654559,9.81542005312983,0.0987672998589644,-0.022907447,-0.06994407,0.0021380284,182.27771,-80.48704,5.438797,STD
5821542539000,0.660016,0.857506242662257,9.81440582596114,0.12344144011575,-0.029932396,-0.0720821,0.007941248,182.37285,-80.46251,5.4460263,STD
5821547805000,0.665282,0.867930266804465,9.83004218871434,0.159925546382803,-0.023518313,-0.07452556,0.00030543262,182.46724,-80.444336,5.4483147,STD
5821552515000,0.669992,0.878670165558321,9.84256165058793,0.17238252,-0.014660766,-0.06719518,0.00030543262,182.55096,-80.42273,5.4501557,STD
5821557519000,0.674996,0.891009640439447,9.85490092790318,0.17238252,-0.010995574,-0.06963864,0.010079277,182.63716,-80.401375,5.4532924,STD
5821562549000,0.680026,0.905623172389718,9.86276014333951,0.166979203378717,-0.0027488936,-0.06505715,0.006414085,182.718,-80.37941,5.4538684,STD
5821567560000,0.685037,0.926531279250626,9.85753300609955,0.146071080143775,-0.00580322,-0.07391469,-0.0021380284,182.80226,-80.35524,5.4565697,STD
5821572526000,0.690003,0.940462028142816,9.85840403710503,0.114725503822302,-0.009773844,-0.070249505,0.003970624,182.88623,-80.329765,5.4648414,STD
5821577511000,0.694988,0.945075067856798,9.86763030920862,0.0685950715191806,-0.024129177,-0.0711658,0.018020526,182.97308,-80.30158,5.4735975,STD
5821582512000,0.699989,0.951186989934793,9.86906320558919,0.0290578247412203,-0.014660766,-0.07727446,0.017715093,183.06747,-80.28022,5.4847646,STD
5821587613000,0.70509,0.960288319105729,9.85541096236609,0.00175388902244993,-0.021991149,-0.0888809,0.010995574,183.16238,-80.25075,5.4982963,STD
5821592512000,0.709989,0.971069409970939,9.84781599218359,-0.0296363739827638,-0.032375857,-0.092240654,0.010079277,183.25885,-80.230125,5.514425,STD
5821597568000,0.715045,0.990478288936767,9.86237295540635,-0.083010829645255,-0.025045475,-0.096516706,0.008857546,183.35811,-80.213356,5.529019,STD
5821602543000,0.72002,1.0081422470467,9.873688,-0.13394950211796,-0.018936822,-0.100792766,0.011911872,183.456,-80.19608,5.547291,STD
5821607575000,0.725052,1.02055393770604,9.873688,-0.179459064775927,-0.018936822,-0.084910266,0.009162978,183.54865,-80.18044,5.5628443,STD
5821612588000,0.730065,1.03291876387363,9.873688,-0.224796790849931,-0.013439035,-0.09621128,0.00061086525,183.65558,-80.17375,5.583206,STD
5821617612000,0.735089,1.03839738615001,9.86548334202954,-0.238047850913102,-0.008552114,-0.09865474,0.0033597588,183.75415,-80.16554,5.6048336,STD
5821622577000,0.740054,1.04295803342605,9.8563619522348,-0.247169054984654,-0.0067195175,-0.080634214,0.00580322,183.84946,-80.1593,5.6234646,STD
5821627576000,0.745053,1.07465306136865,9.86222942604856,-0.256692247395144,-0.0143553335,-0.071776666,0.0036651916,183.9507,-80.15906,5.6454678,STD
5821632561000,0.750038,1.11297563652418,9.87181026991772,-0.266272906190046,-0.022602014,-0.07269296,-0.005192355,184.04881,-80.15957,5.6657157,STD
5821637629000,0.755106,1.13104195154019,9.87720659066008,-0.275187634360126,-0.01282817,-0.06291912,0.0027488936,184.13957,-80.1599,5.6905212,STD
5821642608000,0.760085,1.14388871055231,9.88148893309385,-0.283752140368208,-0.02321288,-0.059864793,0.004581489,184.2322,-80.15591,5.7112308,STD
5821647547000,0.765024,1.15930431880154,9.87569922264981,-0.289826078383727,-0.019242255,-0.064446285,-0.0018325958,184.32649,-80.15419,5.7399836,STD
5821652645000,0.770122,1.17719790643211,9.86227878669599,-0.294299472955837,-0.01740966,-0.06841691,0.006414085,184.41821,-80.14667,5.772906,STD
5821657603000,0.77508,1.1928506115321,9.85808508184661,-0.288003491510024,-0.020158553,-0.06994407,0.006414085,184.470535326512,-80.1436262684321,5.78791403360417,STD
5821662614000,0.780091,1.20609026891668,9.86691170443259,-0.265937372827846,-0.02565634,-0.092240654,-0.002443461,184.52342,-80.14055,5.8030825,STD
5821667603000,0.78508,1.21200517290918,9.873688,-0.24899697,-0.010995574,-0.08032878,0.0015271631,184.6178,-80.13645,5.837559,STD
5821672699000,0.790176,1.19304320193298,9.873688,-0.24899697,-0.019242255,-0.077579886,-0.0009162979,184.72482,-80.12541,5.8733106,STD
5821677613000,0.79509,1.17490258463422,9.87307904548152,-0.239862837255528,-0.01282817,-0.074830994,-0.004581489,184.82736,-80.114914,5.9117613,STD
5821682625000,0.800102,1.15709615124648,9.86951769186823,-0.186443615184004,-0.0009162979,-0.06505715,-0.002443461,184.92603,-80.10318,5.9502907,STD
5821687697000,0.805174,1.13907655225553,9.86591370433299,-0.132384897237721,-0.020463986,-0.058948494,-0.01038471,185.0213,-80.0906,5.9802,STD
5821692699000,0.810176,1.1300632,9.85970500802538,-0.0943301208921239,-0.011301007,-0.05589417,0.0021380284,185.11287,-80.083244,6.015859,STD
5821697647000,0.815124,1.1300632,9.85086085050392,-0.0722201703583427,-0.017104227,-0.046731193,-0.013133603,185.20154,-80.074234,6.0405593,STD
5821702665000,0.820142,1.12874377422879,9.84231823112147,-0.048224853126205,-0.005192355,-0.035430185,-0.00580322,185.28014,-80.05786,6.0688133,STD
5821707630000,0.825107,1.12492397892031,9.83467887982005,-0.021486267220437,-0.006414085,-0.031154128,-0.0143553335,185.35858,-80.04284,6.087928,STD
5821713271000,0.830748,1.12058410674807,9.82599940737468,0.00889285928398136,-0.013439035,-0.038179077,-0.017715093,185.42989,-80.02244,6.11044,STD
5821717668000,0.835145,1.12439436406728,9.82971204568043,-0.0021470937712156,-0.0033597588,-0.037873644,-0.013133603,185.49724,-80.006,6.1321025,STD
5821722658000,0.840135,1.128961282263,9.83427905925076,-0.0158478583727064,-0.002443461,-0.035430185,-0.0036651916,185.56522,-79.98588,6.1541953,STD
5821727673000,0.84515,1.11238300675774,9.83184489119799,-0.00500946420617158,-0.0012217305,-0.02321288,0.0033597588,185.62996,-79.96257,6.1752806,STD
5821732671000,0.850148,1.08919602018602,9.82720740187957,0.0135401187561885,0.0021380284,-0.03390302,0.0012217305,185.69986,-79.94028,6.1970115,STD
5821737670000,0.855147,1.06600439436128,9.82256898469215,0.0320934131197016,0.01038471,-0.030543262,0.006414085,185.76228,-79.918816,6.222552,STD
5821742617000,0.860094,1.04305400969336,9.81797881669331,0.0504537146232621,0.010079277,-0.032375857,0.010079277,185.82874,-79.89714,6.2473903,STD
5821747682000,0.865159,1.03747439062696,9.81940632382445,0.0447438016507837,0.013439035,-0.028099801,0.01160644,185.89171,-79.8779,6.2724023,STD
5821752536000,0.870013,1.04233189037618,9.82426387429467,0.0253139923504702,-0.00061086525,-0.03390302,0.008246681,185.9575,-79.8552,6.297203,STD
5821757505000,0.874982,1.02424925139387,9.80618121724413,0.0224240684583831,0.013439035,-0.032070424,0.0106901415,186.00568,-79.83917,6.312505,STD
5821762543000,0.88002,0.995427266706491,9.77735918239745,0.0272277272226205,0.005497787,-0.02443461,0.01038471,186.05357,-79.81653,6.3259373,STD
5821767508000,0.884985,0.983171677382972,9.768343,0.0514063932025152,0.008246681,-0.03726278,0.016493361,186.1111,-79.80076,6.343544,STD
5821772496000,0.889973,0.978403828455934,9.768343,0.084781357597365,0.01038471,-0.04642576,0.02443461,186.16483,-79.78307,6.360978,STD
5821777495000,0.894972,0.973816151520841,9.77136121150958,0.0836954625197146,0.013744468,-0.040317107,0.01282817,186.21486,-79.77177,6.3684926,STD
5821782526000,0.900003,0.969292974577544,9.77588448291401,0.0656027434111904,0.015271631,-0.03634648,0.020158553,186.26648,-79.75595,6.383958,STD
5821787572000,0.905049,0.961686038864492,9.79463439795065,0.063032290663739,0.009773844,-0.03970624,0.016187929,186.31837,-79.74018,6.3914876,STD
5821792506000,0.909983,0.95180480621079,9.8242781217064,0.0729135047452949,0.015271631,-0.04428773,0.015882496,186.3685,-79.7255,6.4019513,STD
5821797495000,0.914972,0.950937125487426,9.83821402401808,0.0794477164701893,0.013439035,-0.05131268,0.015882496,186.41801,-79.712036,6.410581,STD
5821803177000,0.920654,0.956062458604126,9.84333890223227,0.0845730260389941,0.0067195175,-0.04520403,0.017715093,186.46451,-79.69859,6.4192605,STD
5821807549000,0.925026,0.952725048685267,9.84247938779607,0.0713243345162585,-0.004581489,-0.04917465,0.01038471,186.50926,-79.68704,6.4230075,STD
5821812589000,0.930066,0.943036731142112,9.83763564632678,0.0422594375270976,-0.0067195175,-0.05222898,-0.0015271631,186.5517,-79.676735,6.4256854,STD
5821817552000,0.935029,0.943609185460813,9.8455451913211,0.02873042,-0.009773844,-0.040927973,0.003970624,186.59453,-79.660995,6.4317327,STD
5821822668000,0.940145,0.953544303923756,9.8654152726351,0.02873042,-0.0125227375,-0.036651913,0.005192355,186.6404,-79.64792,6.43369,STD
5821827552000,0.945029,0.989449036591242,9.86688036221285,0.010577086023574,-0.009468411,-0.032375857,0.019242255,186.68452,-79.63872,6.438521,STD
5821832542000,0.950019,1.04701040172933,9.85454553557601,-0.0223151204188247,-0.015577064,-0.03634648,0.016798794,186.72989,-79.629684,6.439274,STD
5821837585000,0.955062,1.09531557270889,9.844957,-0.0514436074345929,-0.020158553,-0.038789943,0.020158553,186.78152,-79.61686,6.447175,STD
5821842589000,0.960066,1.11061806569452,9.844957,-0.0667461121379457,-0.019242255,-0.04550946,0.01282817,186.83546,-79.606445,6.4516993,STD
5821847535000,0.965012,1.12887795550005,9.84327883260271,-0.0799710709426037,-0.025045475,-0.040927973,0.026267206,186.90378,-79.58568,6.4782276,STD
5821852533000,0.97001,1.15327643972882,9.83839955357325,-0.0897304493481497,-0.021991149,-0.04917465,0.024129177,186.97784,-79.5714,6.498838,STD
5821857535000,0.975012,1.16473865576293,9.83901271150601,-0.0866884947435719,-0.022907447,-0.037873644,0.026572637,187.04778,-79.55345,6.526411,STD
5821862832000,0.980309,1.15466646784473,9.84908453132135,-0.0615081395858235,-0.021380283,-0.03940081,0.025045475,187.12317,-79.53802,6.552784,STD
5821867527000,0.985004,1.14748306079382,9.85106663020885,-0.0548189938936949,-0.022296581,-0.04795292,0.027488936,187.19868,-79.51922,6.5859513,STD
5821873094000,0.990571,1.14220600985846,9.84051285895279,-0.0759272130638424,-0.02076942,-0.040927973,0.017104227,187.27002,-79.50409,6.614053,STD
5821877512000,0.994989,1.13258319345392,9.83396960921619,-0.0847798978065461,-0.004886922,-0.03604105,0.018936822,187.34375,-79.48862,6.643589,STD
5821882548000,1.000025,1.11181283824289,9.82981545142119,-0.0806258241617571,-0.0076358155,-0.021991149,0.026267206,187.41223,-79.47045,6.6707616,STD
5821887825000,1.005302,1.09137965494067,9.82618035291884,-0.0758617633311818,-0.0143553335,-0.021685716,0.02321288,187.49187,-79.46099,6.6946244,STD
5821892602000,1.010079,1.08703714202183,9.83052295652586,-0.0671767311453251,-0.01160644,-0.006414085,0.01038471,187.56248,-79.45352,6.7162905,STD
5821897559000,1.015036,1.08253100081633,9.83502919183674,-0.0581644421469388,-0.014049901,0.0018325958,0.0143553335,187.63159,-79.443146,6.736616,STD
5821902576000,1.020053,1.09476165856981,9.85635176428301,-0.0658491518444949,-0.0106901415,-0.0009162979,0.014966198,187.69936,-79.43764,6.752046,STD
5821907512000,1.024989,1.10817570079455,9.87870850132425,-0.0747918531975028,-0.00061086525,0.0009162979,0.009773844,187.76279,-79.43346,6.766284,STD
5821912675000,1.030152,1.12007554572525,9.8771542419033,-0.0796697711559478,-0.009468411,0.009162978,0.01038471,187.82245,-79.42511,6.7806315,STD
5821917632000,1.035109,1.13100544540292,9.86986748994628,-0.0833130733310821,-0.010995574,0.007330383,0.008552114,187.88406,-79.42197,6.793041,STD
5821922632000,1.040109,1.14059715021206,9.864111,-0.0842769585764337,-0.002443461,0.0070249503,0.00580322,187.9462,-79.4199,6.807424,STD
5821927618000,1.045095,1.14499968799557,9.864111,-0.0754718784123179,-0.0030543262,0.0070249503,-0.0036651916,188.00839,-79.41707,6.8193064,STD
5821932778000,1.050255,1.148882361004,9.86210435903965,-0.0683754070316479,-0.02076942,-0.0009162979,-0.0070249503,188.07181,-79.40851,6.8360996,STD
5821937656000,1.055133,1.14463394063296,9.83661374809021,-0.0853691018242997,-0.009162978,-0.00061086525,-0.008552114,188.13249,-79.4076,6.850254,STD
5821942621000,1.060098,1.14030974892688,9.8106685075482,-0.102665882194434,-0.013744468,-0.004886922,-0.01160644,188.19553,-79.396805,6.864633,STD
5821947620000,1.065097,1.13964,9.80665,-0.10534488,-0.016187929,-0.024740042,-0.02321288,188.26266,-79.39094,6.876637,STD
5821953012000,1.070489,1.13856375842851,9.80647062265875,-0.10534488,-0.009773844,-0.028099801,-0.02107485,188.32518,-79.38409,6.8910666,STD
5821957609000,1.075086,1.11442969743262,9.80244819515761,-0.10534488,-0.013133603,-0.03145956,-0.025350908,188.39163,-79.38079,6.9009476,STD
5821962654000,1.080131,1.0879436548561,9.79803376253997,-0.10534488,-0.008857546,-0.03176499,-0.027794369,188.46207,-79.38134,6.9115825,STD
5821967640000,1.085117,1.09591763682317,9.80050768093349,-0.0881718196254958,-0.004276057,-0.03634648,-0.027488936,188.53394,-79.38141,6.922072,STD
5821972686000,1.090163,1.11374792288534,9.80496534554008,-0.0658839434295729,-0.01038471,-0.029932396,-0.03634648,188.60242,-79.38214,6.928833,STD
5821977670000,1.095147,1.12283855625798,9.80900220537995,-0.0457000506049649,-0.008552114,-0.03970624,-0.038789943,188.67519,-79.38743,6.932128,STD
5821982664000,1.100141,1.12665612803321,9.81281985688059,-0.0266121785741539,-0.011911872,-0.05467244,-0.03023783,188.74673,-79.38966,6.9361405,STD
5821987654000,1.105131,1.13133665556757,9.816227,-0.0108502634540541,-0.016187929,-0.05222898,-0.027794369,188.81361,-79.388245,6.9414434,STD
5821992643000,1.11012,1.14325648638669,9.816227,-0.022770102570894,-0.022907447,-0.06872234,-0.031154128,188.88924,-79.385,6.9489202,STD
5821997660000,1.115137,1.15524321543451,9.816227,-0.0347568399629938,-0.03023783,-0.07452556,-0.029626964,188.96239,-79.374214,6.9588647,STD
5822002667000,1.120144,1.16454248566192,9.8133525121473,-0.0411816563244395,-0.03634648,-0.083383106,-0.03176499,189.04054,-79.36367,6.967628,STD
5822007655000,1.125132,1.17268660428778,9.80928038905464,-0.0452536965034524,-0.043982297,-0.08368854,-0.028405234,189.11679,-79.350044,6.978293,STD
5822012916000,1.130393,1.1779473,9.80665,-0.0587490257308388,-0.044593163,-0.095294975,-0.022602014,189.19518,-79.336914,6.993253,STD
5822017698000,1.135175,1.1779473,9.80665,-0.0842303401108638,-0.03359759,-0.10170906,-0.018020526,189.27129,-79.324425,7.008563,STD
5822022591000,1.140068,1.1779473,9.80665,-0.110303127911253,-0.0421497,-0.102319926,-0.013133603,189.34618,-79.30559,7.028144,STD
5822027665000,1.145142,1.19195126359469,9.80509397154992,-0.130722478694128,-0.053145275,-0.09560041,-0.015271631,189.42007,-79.28923,7.046822,STD
5822032619000,1.150096,1.22073783440302,9.80189539688532,-0.143516520184049,-0.04184427,-0.095294975,-0.004886922,189.4945,-79.27279,7.070523,STD
5822037717000,1.155194,1.25036115656307,9.79860384790669,-0.156682451454864,-0.040011674,-0.087659165,0.009468411,189.56259,-79.25662,7.0945144,STD
5822042599000,1.160076,1.28124885420817,9.7946288715186,-0.155472716887579,-0.03756821,-0.08368854,0.013439035,189.63095,-79.24317,7.118388,STD
5822047637000,1.165114,1.31557858917463,9.78972504065867,-0.140759985035576,-0.034208454,-0.08979719,0.018936822,189.6987,-79.227486,7.1465325,STD
5822052604000,1.170081,1.34005355216338,9.787497,-0.140733318757355,-0.016493361,-0.08399397,0.022907447,189.7754,-79.21026,7.184313,STD
5822058659000,1.176136,1.36012538463136,9.787497,-0.155787203587747,-0.02107485,-0.094989546,0.035430185,189.85735,-79.186516,7.2264695,STD
5822062585000,1.180062,1.36729436043933,9.80610376769247,-0.163900239780334,-0.0021380284,-0.09987647,0.06169739,189.93564,-79.16154,7.280061,STD
5822067647000,1.185124,1.35724819701585,9.8914958420889,-0.168923321492073,0.01038471,-0.11026118,0.0720821,190.01805,-79.1351,7.332609,STD
5822072617000,1.190094,1.3227388143293,9.93059417269113,-0.173696376525839,0.019547688,-0.10781772,0.07544186,190.10118,-79.106735,7.3939366,STD
5822077608000,1.195085,1.22994460308773,9.86431265914764,-0.178115148709439,0.02565634,-0.1020145,0.07513642,190.1853,-79.079216,7.4564285,STD
5822082638000,1.200115,1.14172035088176,9.8050436416091,-0.177675645188948,0.03634648,-0.093767814,0.082161374,190.26167,-79.05871,7.516208,STD
5822087660000,1.205137,1.08700063071922,9.79331815928484,-0.14640723658269,0.043982297,-0.08674286,0.082161374,190.33633,-79.04021,7.5727754,STD
5822092631000,1.210108,1.03283660663958,9.78171175294596,-0.115456368565624,0.053145275,-0.073303826,0.0888809,190.39288,-79.033875,7.611675,STD
5822097677000,1.215154,0.983884234546085,9.78644458683777,-0.113869591457557,0.06261369,-0.061391957,0.086437434,190.44774,-79.03082,7.647183,STD
5822102668000,1.220145,0.938295394136825,9.79887772912512,-0.126302915503338,0.06261369,-0.052534413,0.08979719,190.49867,-79.025,7.685234,STD
5822107629000,1.225106,0.898810530260671,9.80665,-0.1340753,0.07819075,-0.04734206,0.092240654,190.53232,-79.02911,7.7067986,STD
5822112682000,1.230159,0.868656856402534,9.80665,-0.1340753,0.07971791,-0.03634648,0.09254608,190.56143,-79.02991,7.7278123,STD
5822117724000,1.235201,0.850172298472385,9.80448645329025,-0.129748292426557,0.07574729,-0.021991149,0.09468412,190.57945,-79.04242,7.737437,STD
5822122667000,1.240144,0.845536759655308,9.79985081766549,-0.120477205111633,0.09040806,-0.017104227,0.09254608,190.59705,-79.0594,7.74575,STD
5822128645000,1.246122,0.833135123628488,9.8139148665556,-0.105297807145689,0.08857546,-0.018325957,0.09987647,190.6026,-79.07493,7.7504816,STD
5822132633000,1.25011,0.820409653147855,9.83618454952103,-0.0925723413157851,0.09865474,-0.023823744,0.099265605,190.60835,-79.09734,7.7523084,STD
5822137937000,1.255414,0.803175244939292,9.86487689741334,-0.0758485453367939,0.09712757,-0.026267206,0.099265605,190.61209,-79.11378,7.7553506,STD
5822142681000,1.260158,0.783189147751188,9.87686837374626,-0.0638568928673236,0.09254608,-0.025350908,0.101098195,190.61636,-79.1309,7.7587805,STD
5822147582000,1.265059,0.762541621967271,9.88925670121415,-0.0514683834337498,0.09132435,-0.03359759,0.10873401,190.61218,-79.14676,7.759454,STD
5822152673000,1.27015,0.753591510271596,9.90176975564769,-0.0240744980126914,0.101098195,-0.03268129,0.10445796,190.60558,-79.165596,7.756897,STD
5822157615000,1.275092,0.749587064413233,9.91378334410695,0.00796109059751248,0.082161374,-0.039095376,0.099265605,190.60324,-79.17674,7.75681,STD
5822162758000,1.280235,0.7469909,9.92554401212121,0.0340265140442068,0.07422013,-0.042455133,0.0983493,190.59624,-79.19495,7.7505417,STD
5822167724000,1.285201,0.7469909,9.93571678787879,0.0475904145204991,0.07147124,-0.0290161,0.09315695,190.58667,-79.212,7.7413316,STD
5822172592000,1.290069,0.7469909,9.94568881212121,0.0608866423736185,0.06505715,-0.028405234,0.08735373,190.57977,-79.22169,7.730849,STD
5822177603000,1.29508,0.755713336075761,9.94157962540233,0.0692182559450359,0.053450707,-0.031154128,0.07880162,190.5704,-79.231224,7.7179227,STD
5822182595000,1.300072,0.771495286380292,9.92579778633325,0.0731637379593959,0.04550946,-0.040317107,0.07147124,190.56294,-79.24096,7.7041335,STD
5822187659000,1.305136,0.792824189052766,9.91099151039556,0.080126596678676,0.042455133,-0.043676864,0.064751714,190.5541,-79.25012,7.6873612,STD
5822192632000,1.310109,0.84644437923816,9.90384200637994,0.105149355333483,0.025961773,-0.047647487,0.06261369,190.54819,-79.25539,7.670501,STD
5822198512000,1.315989,0.909844081287248,9.89538854094423,0.134735886781356,0.026572637,-0.05955936,0.04642576,190.55307,-79.263695,7.652978,STD
5822202612000,1.320089,0.939891592941273,9.891017596761,0.149122770518567,0.027183503,-0.06169739,0.04886922,190.55562,-79.26528,7.6402,STD
5822207599000,1.325076,0.963329942274661,9.88711153492557,0.160841943145755,0.007330383,-0.07666359,0.044898596,190.566,-79.267365,7.622311,STD
5822212806000,1.330283,0.987363551171777,9.88302688223436,0.173096858876102,0.01863139,-0.089491755,0.04062254,190.58829,-79.26147,7.6204753,STD
5822217820000,1.335297,1.00349730176396,9.87899336035279,0.185197180243595,0.019547688,-0.10262536,0.03940081,190.61473,-79.24991,7.6190615,STD
5822222583000,1.34006,1.01882339950441,9.87516175590088,0.196691761550609,0.004276057,-0.12156218,0.024129177,190.655,-79.234795,7.6193833,STD
5822227594000,1.345071,1.0247183,9.87570091127273,0.180984235025455,0.0061086523,-0.13316862,0.015271631,190.69629,-79.22252,7.621438,STD
5822232601000,1.350078,1.0247183,9.87887129401653,0.149281049807603,-0.020463986,-0.14080444,0.02076942,190.7414,-79.20186,7.6239386,STD
5822237654000,1.355131,1.0247183,9.88207080350413,0.117286603051901,-0.02565634,-0.1600467,0.01740966,190.7945,-79.18618,7.626359,STD
5822242626000,1.360103,1.03335564271797,9.87174834262055,0.090949346883585,-0.024129177,-0.17104226,0.016493361,190.84654,-79.16527,7.631089,STD
5822247625000,1.365102,1.04734724227959,9.8530925518753,0.0676300759668777,-0.03848451,-0.18142697,0.0070249503,190.90375,-79.142876,7.6332564,STD
5822252602000,1.370079,1.05170546712659,9.8397270741946,0.0487441696257078,-0.05222898,-0.1908954,0.0009162979,190.96873,-79.12603,7.6371164,STD
5822257595000,1.375072,1.04859339668077,9.83039099284087,0.033183806672958,-0.06627888,-0.18997909,-0.0061086523,191.03337,-79.108536,7.6381907,STD
5822263293000,1.38077,1.04504190911813,9.81973667849008,0.015426356621933,-0.062002823,-0.19394971,-0.004276057,191.10281,-79.0924,7.6446958,STD
5822268250000,1.385727,1.05830279452055,9.8203501702544,-0.0131001711017613,-0.06963864,-0.19333886,-0.012217305,191.17058,-79.07463,7.6463823,STD
5822272705000,1.390182,1.07917590802348,9.82631404151524,-0.0459008001418088,-0.07391469,-0.19211712,-0.014966198,191.23824,-79.05726,7.650332,STD
5822277574000,1.395051,1.10198874520548,9.83283213111546,-0.081749568446184,-0.07788532,-0.18478674,-0.014049901,191.30513,-79.04197,7.6527534,STD
5822282608000,1.400085,1.12612169650681,9.83284560204686,-0.108444798558065,-0.07452556,-0.1826487,-0.0143553335,191.37254,-79.02828,7.654406,STD
5822287649000,1.405126,1.15062143404381,9.8287622342891,-0.128861226323945,-0.067500606,-0.1777618,-0.01160644,191.43619,-79.01397,7.6569767,STD
5822292694000,1.410171,1.17885520961784,9.8244933839277,-0.146273280141468,-0.062308256,-0.17073683,-0.011301007,191.50592,-79.00303,7.6663594,STD
5822297654000,1.415131,1.21618770043226,9.81982672512035,-0.155606412590628,-0.06047566,-0.16676621,-0.014660766,191.57439,-78.99315,7.6754365,STD
5822302659000,1.420136,1.2508035379026,9.81234793506828,-0.161835947691317,-0.06261369,-0.16249016,-0.016187929,191.64774,-78.98209,7.6913686,STD
5822307602000,1.425079,1.2751983870566,9.79608481551147,-0.157770142329297,-0.05375614,-0.16187929,-0.010079277,191.72005,-78.97289,7.708428,STD
5822312660000,1.430137,1.3001607878296,9.77944333084257,-0.153609745096625,-0.05222898,-0.16157386,-0.009162978,191.79851,-78.95921,7.7317405,STD
5822317653000,1.43513,1.31689472722731,9.78153230724396,-0.160453377385512,-0.050396383,-0.1600467,-0.008246681,191.8754,-78.9463,7.7564673,STD
5822322586000,1.440063,1.33262906674438,9.78546597427144,-0.168320551251457,-0.047647487,-0.16584991,-0.0061086523,191.95341,-78.93357,7.7818284,STD
5822327604000,1.445081,1.3426733337499,9.78365625229246,-0.180063861015175,-0.043982297,-0.15607607,-0.004276057,192.03694,-78.914764,7.813151,STD
5822332589000,1.450066,1.34654741863183,9.77590792071736,-0.195560212678731,-0.051618114,-0.15363261,-0.0036651916,192.1233,-78.89426,7.844898,STD
5822337857000,1.455334,1.3490944482522,9.768343,-0.214807592169204,-0.04428773,-0.14172074,0.0015271631,192.20628,-78.87488,7.881506,STD
5822342634000,1.460111,1.33437805099721,9.768343,-0.263862285541497,-0.04062254,-0.14080444,0.0030543262,192.29099,-78.85409,7.9171515,STD
5822347635000,1.465112,1.3215994,9.77062260590205,-0.311586963629134,-0.029932396,-0.13530666,0.008246681,192.38194,-78.835815,7.9553246,STD
5822352600000,1.470077,1.3215994,9.78389135537882,-0.341441826605274,-0.022296581,-0.13041973,0.0061086523,192.47215,-78.81901,7.9913917,STD
5822357568000,1.475045,1.3215994,9.79716812222687,-0.371314728773545,-0.010995574,-0.105068825,0.0027488936,192.55682,-78.81176,8.024579,STD
5822362653000,1.48013,1.31710280050405,9.80889833496258,-0.39264908,-0.007941248,-0.0870483,0.01038471,192.64096,-78.80244,8.0599785,STD
5822367672000,1.485149,1.30241936987933,9.81624016526654,-0.39264908,0.004886922,-0.06841691,0.014966198,192.71713,-78.79846,8.092163,STD
5822372667000,1.490144,1.28780615290973,9.82354688819306,-0.39264908,0.008857546,-0.048563786,0.016187929,192.79198,-78.79963,8.123843,STD
5822377603000,1.49508,1.283292,9.8178311298765,-0.363415811181811,0.01985312,-0.025350908,0.007941248,192.86,-78.80533,8.152865,STD
5822383092000,1.500569,1.283292,9.80493307974155,-0.316123912406968,0.024129177,-0.0143553335,0.0036651916,192.925,-78.80903,8.182641,STD
5822387655000,1.505132,1.28765749524701,9.79598172305389,-0.279664617505614,0.02687807,-0.023823744,0.0076358155,192.98218,-78.81455,8.208392,STD
5822392625000,1.510102,1.30547072297904,9.79152881137725,-0.248491608476796,0.035430185,-0.009468411,0.007330383,193.02924,-78.8234,8.230096,STD
5822397674000,1.515151,1.32347045451957,9.78796472455516,-0.220734314118327,0.030848695,-0.0061086523,0.014966198,193.0783,-78.82044,8.255492,STD
5822402612000,1.520089,1.34029972085409,9.79217168967972,-0.224941635095196,0.026267206,-0.0070249503,0.014049901,193.12439,-78.820786,8.277678,STD
5822407581000,1.525058,1.35723463871886,9.79640506548043,-0.229175368982206,0.038789943,0.0033597588,0.017715093,193.16609,-78.81196,8.306809,STD
5822412696000,1.530173,1.3770405512651,9.80135658845399,-0.216992854059692,0.04734206,0.003970624,0.017715093,193.21063,-78.80253,8.334618,STD
5822417599000,1.535076,1.39643740258184,9.80620591521223,-0.20244516746876,0.050701816,0.0070249503,0.02076942,193.25092,-78.7931,8.363404,STD
5822422622000,1.540099,1.37629626193335,9.80665,-0.205496441344941,0.059253927,0.011911872,0.01160644,193.29332,-78.78702,8.392166,STD
5822427616000,1.545093,1.35236629129391,9.80665,-0.210282450465326,0.049785517,0.013439035,0.02076942,193.33467,-78.773575,8.426489,STD
5822432612000,1.550089,1.34224492553329,9.80260747834518,-0.194519988403361,0.058337633,0.016493361,0.022602014,193.37999,-78.7643,8.459041,STD
5822437663000,1.55514,1.33331105965463,9.79814045211931,-0.176652242653061,0.053450707,0.015577064,0.029626964,193.4251,-78.747696,8.495194,STD
5822442631000,1.560108,1.32461309052478,9.80691786980685,-0.169100965262391,0.05467244,0.023823744,0.01863139,193.4635,-78.741875,8.520586,STD
5822447658000,1.565135,1.31584075568513,9.82007664686589,-0.164714797842566,0.058337633,0.028405234,0.016798794,193.50226,-78.73214,8.550244,STD
5822453725000,1.571202,1.30687239797588,9.825804,-0.160230616299043,0.046120327,0.024740042,0.025350908,193.54045,-78.718666,8.5771265,STD
5822457619000,1.575096,1.301702280244,9.825804,-0.157645554733814,0.04062254,0.023518313,0.025350908,193.57668,-78.70944,8.600426,STD
5822464685000,1.582162,1.29422306312907,9.82648101035604,-0.154244458053749,0.03604105,0.035124753,0.016798794,193.60576,-78.7001,8.620427,STD
5822467759000,1.585236,1.30430148942143,9.83152006564533,-0.16180328303492,0.04062254,0.034208454,0.022907447,193.63797,-78.68837,8.644727,STD
5822472689000,1.590166,1.32046500328655,9.83960156941116,-0.173925926872646,0.039095376,0.03176499,0.023518313,193.66405,-78.678734,8.662349,STD
5822477574000,1.595051,1.32871994852976,9.84372897685662,-0.183187455735119,0.030543262,0.034208454,0.024740042,193.68855,-78.66733,8.681423,STD
5822482621000,1.600098,1.321058204914,9.83989842506142,-0.187018327542998,0.035124753,0.040317107,0.023823744,193.71252,-78.65853,8.699706,STD
5822487598000,1.605075,1.31350272681303,9.83612100158516,-0.190796066593485,0.030543262,0.05100725,0.018020526,193.73947,-78.64702,8.720129,STD
5822492624000,1.610101,1.30241886531892,9.835381,-0.178731232878125,0.037873644,0.050701816,0.022907447,193.76723,-78.63651,8.743142,STD
5822497706000,1.615183,1.29037093156201,9.835381,-0.162667424639822,0.04795292,0.04886922,0.018325957,193.79271,-78.62918,8.761158,STD
5822502656000,1.620133,1.28477631407828,9.83389668592172,-0.15322891,0.04642576,0.050701816,0.01740966,193.8176,-78.62152,8.779097,STD
5822507617000,1.625094,1.28852564307134,9.83014735692866,-0.15322891,0.049785517,0.050701816,0.016798794,193.84349,-78.61755,8.79568,STD
5822512608000,1.630085,1.29229764488636,9.82637535511364,-0.15322891,0.052534413,0.056199603,0.014966198,193.86093,-78.61457,8.807755,STD
5822517629000,1.635106,1.28535791775469,9.83707040768665,-0.164495482388746,0.04062254,0.049785517,0.009773844,193.88176,-78.61044,8.818928,STD
5822522978000,1.640455,1.27593780546157,9.85120030562707,-0.17862558689224,0.042760566,0.03848451,0.006414085,193.90227,-78.60937,8.82988,STD
5822527671000,1.645148,1.25008373669989,9.84440632816192,-0.185335267614302,0.054367006,0.046731193,0.004581489,193.92007,-78.607834,8.840296,STD
5822532622000,1.650099,1.21598292938457,9.82979189992808,-0.19020681151649,0.045814894,0.0580322,0.00580322,193.94005,-78.60314,8.85077,STD
5822537683000,1.65516,1.19364756229027,9.82906160245714,-0.185021057743651,0.05131268,0.062308256,0.0027488936,193.95251,-78.6084,8.857225,STD
5822542681000,1.660158,1.17609375413037,9.83345014614468,-0.176244149081324,0.044898596,0.06047566,0.00030543262,193.96333,-78.6095,8.863889,STD
5822547625000,1.665102,1.17075600961887,9.83299544056261,-0.169997010381125,0.0421497,0.065973446,-0.0033597588,193.96631,-78.6186,8.862126,STD
5822552664000,1.670141,1.17513509266788,9.82861626606171,-0.165617927332123,0.049480084,0.06780604,-0.0070249503,193.97089,-78.62872,8.859898,STD
5822557565000,1.675042,1.17936202557892,9.82155973462869,-0.159976265887676,0.044898596,0.07513642,-0.011911872,193.96841,-78.639854,8.851451,STD
5822562668000,1.680145,1.18369796829918,9.80855163481501,-0.151304371392068,0.055588737,0.07819075,-0.014049901,193.96667,-78.65497,8.842976,STD
5822567666000,1.685143,1.18634231526508,9.79667910603291,-0.1436521,0.05009095,0.08399397,-0.016493361,193.96724,-78.66737,8.833258,STD
5822572669000,1.690146,1.17439793338873,9.79269799185641,-0.1436521,0.04550946,0.08979719,-0.026267206,193.96722,-78.683655,8.820925,STD
5822577653000,1.69513,1.16249891294665,9.78873199684228,-0.1436521,0.04642576,0.09987647,-0.01740966,193.96037,-78.69325,8.814712,STD
5822582600000,1.700077,1.1651744077225,9.79387757452654,-0.1436521,0.04795292,0.09621128,-0.029626964,193.95692,-78.70881,8.80021,STD
5822587707000,1.705184,1.17477287165146,9.80347568766559,-0.1436521,0.04795292,0.096516706,-0.029626964,193.94873,-78.719345,8.791341,STD
5822593256000,1.710733,1.17464022825192,9.80665,-0.140345028251923,0.04062254,0.096516706,-0.03573562,193.93964,-78.73588,8.774429,STD
5822597684000,1.715161,1.17084652003936,9.80665,-0.136551320039363,0.047647487,0.102319926,-0.03145956,193.92844,-78.75236,8.760514,STD
5822602658000,1.720135,1.17002553368439,9.80665,-0.124145089944108,0.053145275,0.10140363,-0.034513887,193.92554,-78.7682,8.744957,STD
5822607615000,1.725092,1.17396219490007,9.80665,-0.100525103741106,0.046120327,0.10354166,-0.034208454,193.91982,-78.78108,8.731503,STD
5822612973000,1.73045,1.17992910888618,9.80698030837898,-0.0756235487981335,0.040011674,0.093462385,-0.03634648,193.91132,-78.795586,8.716654,STD
5822617692000,1.735169,1.20743545045648,9.8115647943802,-0.0618703674816393,0.045814894,0.09560041,-0.043066,193.89893,-78.81168,8.70032,STD
5822622805000,1.740282,1.23479251858751,9.81591920286592,-0.0481918229633572,0.046731193,0.09773844,-0.046120327,193.88828,-78.8212,8.685734,STD
5822627661000,1.745138,1.2252725716479,9.81115912998976,-0.0529518004094166,0.04917465,0.101098195,-0.043676864,193.87677,-78.832115,8.670945,STD
5822632666000,1.750143,1.21551642121789,9.80591194433872,-0.0581989193215985,0.03970624,0.094989546,-0.0421497,193.87181,-78.83401,8.661807,STD
5822637698000,1.755175,1.20634602015224,9.79674183054234,-0.0673693270901998,0.04337143,0.084910266,-0.050396383,193.86736,-78.84031,8.650749,STD
5822643076000,1.760553,1.1971009,9.78802999863139,-0.0776804853804745,0.05467244,0.093462385,-0.049480084,193.86084,-78.844475,8.640778,STD
5822647611000,1.765088,1.1971009,9.79595507664233,-0.0935311486934307,0.040317107,0.103847094,-0.040927973,193.8567,-78.84476,8.631138,STD
5822652569000,1.770046,1.1971009,9.80461936259124,-0.110860275199635,0.036651913,0.1001819,-0.04734206,193.8545,-78.856094,8.615725,STD
5822657621000,1.775098,1.20000885035516,9.80955801108422,-0.12946144392163,0.044898596,0.0983493,-0.043676864,193.84818,-78.86277,8.605367,STD
5822662620000,1.780097,1.20374582820233,9.81329506697369,-0.148146348765904,0.029932396,0.10445796,-0.04184427,193.84093,-78.86632,8.592735,STD
5822667654000,1.785131,1.20891920738792,9.81510622290044,-0.161684965135761,0.02687807,0.10720685,-0.04428773,193.83794,-78.874664,8.580528,STD
5822672677000,1.790154,1.21904428977057,9.810043575984,-0.156622418658177,0.036651913,0.10751228,-0.04795292,193.8339,-78.88242,8.568554,STD
5822677576000,1.795053,1.22364720508374,9.81429437781913,-0.16196529536658,0.03726278,0.10842858,-0.038789943,193.82729,-78.886765,8.561242,STD
5822682619000,1.800096,1.2164576550428,9.83945795310756,-0.190723514298474,0.046731193,0.10629055,-0.034513887,193.82181,-78.89623,8.551786,STD
5822687679000,1.805156,1.20924386896167,9.8647063550428,-0.21957867745441,0.036957346,0.105068825,-0.03023783,193.81871,-78.89818,8.546935,STD
5822692618000,1.810095,1.21554019268868,9.87959614337657,-0.22984336,0.040011674,0.11026118,-0.030543262,193.81442,-78.904175,8.5419235,STD
5822697670000,1.815147,1.22980375212264,9.88910488512186,-0.22984336,0.040011674,0.10567969,-0.019242255,193.81276,-78.9043,8.541858,STD
5822702616000,1.820093,1.24134920722816,9.88392946323067,-0.226872803284098,0.040927973,0.101098195,-0.0067195175,193.81802,-78.91181,8.538818,STD
5822707591000,1.825068,1.25133131072701,9.86895651644668,-0.221881746323067,0.04184427,0.105374254,-0.0070249503,193.82205,-78.91951,8.535264,STD
5822712642000,1.830119,1.2621992897945,9.85647348995674,-0.222812424784456,0.041233405,0.10567969,-0.0015271631,193.82707,-78.9217,8.539974,STD
5822717636000,1.835113,1.27328389410538,9.84538900139061,-0.226507309606768,0.03970624,0.09560041,0.0018325958,193.8339,-78.92433,8.544153,STD
5822722649000,1.840126,1.28165777125444,9.83456386642966,-0.231069035185373,0.032375857,0.08246681,0.008552114,193.84254,-78.921196,8.553286,STD
5822727603000,1.84508,1.26559434029118,9.82653196224818,-0.243116644051126,0.021685716,0.08460484,0.022602014,193.84929,-78.91481,8.5651245,STD
5822732575000,1.850052,1.24947254401557,9.8184708747249,-0.255208027030642,0.03970624,0.06536258,0.028099801,193.8649,-78.91006,8.581399,STD
5822737671000,1.855148,1.2195108178789,9.79712137190971,-0.284047875395915,0.04428773,0.061086524,0.030543262,193.8752,-78.89871,8.5998535,STD
5822742698000,1.860175,1.18501237746327,9.77124745154067,-0.318546347331602,0.049785517,0.05589417,0.025961773,193.89128,-78.8913,8.618219,STD
5822747608000,1.865085,1.16191464571842,9.758766,-0.343796020242337,0.06169739,0.051923547,0.0290161,193.90858,-78.887314,8.635619,STD
5822752685000,1.870162,1.1487249587214,9.758766,-0.361382217542273,0.061391957,0.05681047,0.032986723,193.92484,-78.88294,8.651592,STD
5822757584000,1.875061,1.13485031887987,9.75996344528672,-0.377087723340765,0.089491755,0.051923547,0.038789943,193.94313,-78.89489,8.662022,STD
5822762672000,1.880149,1.11746808097744,9.76430909551414,-0.390124410842772,0.09010262,0.067500606,0.03604105,193.95418,-78.902626,8.670131,STD
5822767692000,1.885169,1.09933101581952,9.76923267618079,-0.398222313497028,0.10720685,0.089186326,0.032375857,193.96262,-78.922264,8.676382,STD
5822772669000,1.890146,1.06578596576478,9.78414149218017,-0.33113224452299,0.10842858,0.10476339,0.02565634,193.96846,-78.939995,8.680566,STD
5822778472000,1.895949,1.02667366408352,9.80152462644667,-0.252907677463247,0.1255328,0.122783914,0.02687807,193.96056,-78.96744,8.681162,STD
5822782601000,1.900078,1.00587974521548,9.80896548705129,-0.211319838342166,0.12492194,0.13255776,0.021991149,193.95105,-78.99421,8.677872,STD
5822787702000,1.905179,0.986341196350365,9.81385022627737,-0.172242715109489,0.12003502,0.1423316,0.016798794,193.93645,-79.02234,8.674237,STD
5822792685000,1.910162,0.98377276373117,9.816227,-0.130678886572277,0.12797627,0.14660765,0.014966198,193.9089,-79.050735,8.659247,STD
5822797669000,1.915146,0.997599754229432,9.816227,-0.0857411349674102,0.115453534,0.14996742,0.017715093,193.87909,-79.07434,8.644004,STD
5822802576000,1.920053,1.01121312549247,9.816227,-0.0414976463789108,0.10842858,0.13988814,0.02076942,193.8439,-79.099945,8.624204,STD
5822807601000,1.925078,1.0277395541006,9.83827366867141,-0.0318799276055221,0.106901415,0.14019357,0.018020526,193.80522,-79.124596,8.603336,STD
5822812712000,1.930189,1.04558068862767,9.86949575888464,-0.0363402028540186,0.086437434,0.12064589,0.01740966,193.77533,-79.143166,8.585185,STD
5822817632000,1.935109,1.05957396964414,9.883265,-0.0403489512806877,0.07788532,0.0983493,0.018936822,193.74632,-79.15519,8.569967,STD
5822822661000,1.940138,1.071128162495,9.883265,-0.0442003509084366,0.059253927,0.07880162,0.022907447,193.72238,-79.16136,8.556018,STD
5822827800000,1.945277,1.08305295684969,9.88268248326863,-0.0493402943893511,0.062002823,0.074830994,0.017104227,193.69923,-79.17068,8.543385,STD
5822832620000,1.950097,1.09585389306711,9.87414834756887,-0.0706752023427621,0.06078109,0.057726767,0.018020526,193.68533,-79.17364,8.534984,STD
5822837676000,1.955153,1.10928159711592,9.86519635792198,-0.093054724046589,0.05467244,0.03726278,0.01863139,193.6775,-79.17421,8.52867,STD
5822842761000,1.960238,1.10325021529107,9.864111,-0.145554098998838,0.048563786,0.014660766,0.019547688,193.67526,-79.174324,8.52343,STD
5822847852000,1.965329,1.09453064294018,9.864111,-0.202231358430654,0.06688975,-0.0009162979,0.022296581,193.67682,-79.17716,8.519414,STD
5822852659000,1.970136,1.08536990816013,9.86623974173525,-0.226652646285395,0.065973446,-0.024740042,0.02443461,193.68799,-79.17623,8.520221,STD
5822857609000,1.975086,1.07545112729809,9.86954607106988,-0.236571434052169,0.055588737,-0.0143553335,0.024129177,193.6937,-79.176765,8.520493,STD
5822864285000,1.981762,1.06182933531732,9.8728904763324,-0.250591985274369,0.064751714,-0.011911872,0.02565634,193.70665,-79.187996,8.521948,STD
5822867660000,1.985137,1.05332955994039,9.86722386079944,-0.261924988539621,0.05100725,-0.015882496,0.019547688,193.71861,-79.194984,8.521026,STD
5822872613000,1.99009,1.04085566736501,9.85890778769285,-0.278556800442672,0.04886922,-0.010079277,0.024129177,193.72433,-79.2054,8.520587,STD
5822877611000,1.995088,1.04920413495353,9.85027441552045,-0.295823644732342,0.046731193,-0.004581489,0.02321288,193.73155,-79.21578,8.517079,STD
5822883394000,2.000871,1.08523378356877,9.83998056802974,-0.316412006156134,0.032375857,-0.0033597588,0.017104227,193.73827,-79.22359,8.5134,STD
5822887649000,2.005126,1.11101829171584,9.835381,-0.330454182065365,0.03726278,-0.00580322,0.024129177,193.74107,-79.23579,8.51075,STD
5822892622000,2.010099,1.13984291786957,9.835381,-0.344866483855349,0.031154128,-0.0061086523,0.026572637,193.74321,-79.24574,8.505073,STD
5822897598000,2.015075,1.16868493269784,9.835381,-0.359287479975791,0.0290161,-0.010995574,0.02443461,193.75494,-79.251236,8.508318,STD
5822902618000,2.020095,1.18093633772346,9.835381,-0.387830974272163,0.03176499,-0.025961773,0.028710667,193.76929,-79.25441,8.514362,STD
5822907604000,2.025081,1.18529149321416,9.835381,-0.42267223638818,0.03023783,-0.040317107,0.032375857,193.78482,-79.25698,8.519719,STD
5822912635000,2.030112,1.18262889553903,9.83293334665427,-0.452771123931227,0.036957346,-0.04184427,0.025961773,193.80441,-79.25854,8.531993,STD
5822917631000,2.035108,1.17274750503924,9.82799254822387,-0.477474625975836,0.03940081,-0.049480084,0.034513887,193.82909,-79.254776,8.550003,STD
5822922616000,2.040093,1.16064137092391,9.83095657336957,-0.501299000407609,0.035430185,-0.03970624,0.03481932,193.8496,-79.25658,8.565098,STD
5822927619000,2.045096,1.14669157555318,9.84025611325699,-0.524548602712539,0.032070424,-0.0421497,0.029932396,193.8755,-79.257965,8.581513,STD
5822932595000,2.050072,1.13964,9.844957,-0.538543943764954,0.043982297,-0.026267206,0.027183503,193.88939,-79.26507,8.595979,STD
5822937690000,2.055167,1.13964,9.844957,-0.543213653402239,0.057726767,-0.01282817,0.028710667,193.90451,-79.27178,8.610198,STD
5822942653000,2.06013,1.14770056788456,9.83689649524102,-0.529756889481118,0.056505036,-0.0018325958,0.032375857,193.91402,-79.2828,8.620678,STD
5822947608000,2.065085,1.16712669330672,9.81747052195272,-0.490904699490329,0.06505715,0.007330383,0.033292156,193.92012,-79.29767,8.6302595,STD
5822953236000,2.070713,1.18303317397463,9.80665,-0.451462950467549,0.059253927,0.0125227375,0.03268129,193.92172,-79.30914,8.640388,STD
5822957597000,2.075074,1.19076661065642,9.80665,-0.424395905930932,0.058643065,0.016798794,0.035124753,193.92084,-79.3216,8.651171,STD
5822962622000,2.080099,1.19496033640652,9.80593646390114,-0.396517707437186,0.05681047,0.009162978,0.035430185,193.92654,-79.32548,8.665034,STD
5822967606000,2.085083,1.18761789390832,9.8034889319557,-0.376937850552764,0.063224554,0.01038471,0.03481932,193.92844,-79.3301,8.67864,STD
5822972617000,2.090094,1.1802356749359,9.80102814090862,-0.357251923015075,0.052839845,0.00061086525,0.03023783,193.93376,-79.32607,8.693605,STD
5822980739000,2.098216,1.16806349275882,9.7971344026023,-0.32561144,0.06627888,-0.029932396,0.036957346,193.94441,-79.32455,8.7119,STD
5822982761000,2.100238,1.15893454214596,9.7989602270413,-0.32561144,0.07941248,-0.03970624,0.030543262,193.95245,-79.325386,8.724526,STD
5822987731000,2.105208,1.13649592466528,9.80344803488591,-0.32561144,0.0711658,-0.05589417,0.035430185,193.96906,-79.32063,8.739098,STD
5822992677000,2.110154,1.11088129925674,9.80785066266679,-0.334015908165129,0.06872234,-0.06414085,0.03604105,193.98639,-79.321396,8.750496,STD
5822997643000,2.11512,1.07681063476314,9.81210958466911,-0.363827757385153,0.06811147,-0.07849618,0.026267206,194.01016,-79.32234,8.7608185,STD
5823002786000,2.120263,1.04141193437236,9.816227,-0.39387911185053,0.06536258,-0.08399397,0.03359759,194.02916,-79.3225,8.770799,STD
5823007638000,2.125115,1.006510652427,9.816227,-0.411329739156887,0.07727446,-0.084910266,0.02687807,194.05148,-79.33038,8.774257,STD
5823012633000,2.13011,0.97058074654962,9.816227,-0.429294678026476,0.087659165,-0.082161374,0.023823744,194.07175,-79.345024,8.772797,STD
5823017643000,2.13512,0.918690991616827,9.816227,-0.435371432934617,0.092240654,-0.07574729,0.014966198,194.09135,-79.363205,8.767802,STD
5823023436000,2.140913,0.860748713157447,9.81467515897872,-0.439369212347234,0.08979719,-0.069027774,0.008857546,194.10983,-79.38154,8.76276,STD
5823027719000,2.145196,0.850276176714894,9.80071184995745,-0.428896668614468,0.087659165,-0.059253927,0.0015271631,194.12329,-79.41122,8.74663,STD
5823032644000,2.150121,0.838233860119149,9.78465551165958,-0.416854343635745,0.09285152,-0.061086524,-0.005192355,194.12961,-79.45264,8.718186,STD
5823037757000,2.155234,0.8331822,9.77526499872623,-0.401182891141843,0.09193522,-0.050701816,-0.014049901,194.1297,-79.494125,8.686968,STD
5823042633000,2.16011,0.8331822,9.77101629960877,-0.384188440707852,0.087964594,-0.04886922,-0.014660766,194.13252,-79.5347,8.657106,STD
5823047610000,2.165087,0.86519662947054,9.77210947981047,-0.337714623476514,0.096516706,-0.058337633,-0.012217305,194.13663,-79.57858,8.623182,STD
5823052642000,2.170119,0.949584586042439,9.78203767593737,-0.243398662561805,0.10598512,-0.062308256,-0.019547688,194.13872,-79.62355,8.586782,STD
5823057666000,2.175143,0.991763364164957,9.787497,-0.168301167467996,0.10934488,-0.0571159,-0.02076942,194.14049,-79.66469,8.553114,STD
5823064110000,2.181587,0.979701818342617,9.787497,-0.101962621364214,0.10445796,-0.07391469,-0.023823744,194.14977,-79.70726,8.51831,STD
5823067611000,2.185088,0.969673284596031,9.79465796866989,-0.0826107551020602,0.09896017,-0.086132,-0.015882496,194.15521,-79.72464,8.503083,STD
5823072714000,2.190191,0.951114289366752,9.81321684277983,-0.0733312647545808,0.09101892,-0.10415252,-0.0143553335,194.1673,-79.742645,8.486216,STD
5823077570000,2.195047,0.93451394320742,9.825804,-0.0770704269337639,0.074830994,-0.11881329,-0.009468411,194.17929,-79.75321,8.469958,STD
5823082603000,2.20008,0.92003511418444,9.825804,-0.113267535398017,0.055283304,-0.12644911,-0.013439035,194.19447,-79.76336,8.452353,STD
5823087620000,2.205097,0.905602313626464,9.825804,-0.149349572585611,0.048563786,-0.13683382,-0.010079277,194.21324,-79.77371,8.433881,STD
5823092659000,2.210136,0.862437371076321,9.83929772994129,-0.178998204383562,0.040011674,-0.15668693,-0.005192355,194.23674,-79.78095,8.415711,STD
5823097811000,2.215288,0.80099312141256,9.86124207863369,-0.205331436562889,0.02443461,-0.16615535,-0.0033597588,194.2599,-79.78567,8.398105,STD
5823102636000,2.220113,0.755088089241658,9.88474444924166,-0.235008444480283,0.015271631,-0.18478674,-0.0018325958,194.2939,-79.79613,8.379542,STD
5823107591000,2.225068,0.726299589342771,9.91353304934277,-0.273393146082912,0.019547688,-0.21410827,0.0033597588,194.3331,-79.80468,8.363644,STD
5823112660000,2.230137,0.683837322079694,9.93647314574236,-0.309304207106987,0.002443461,-0.22693644,0.00580322,194.35983,-79.822525,8.33401,STD
5823117633000,2.23511,0.623178982660117,9.94947117066958,-0.339633372292576,0.0033597588,-0.21899518,0.009162978,194.38835,-79.84205,8.30707,STD
5823122821000,2.240298,0.569829114723165,9.9589231229827,-0.371565520435322,-0.0015271631,-0.23273966,0.0067195175,194.42854,-79.86778,8.2740135,STD
5823127600000,2.245077,0.550890305156004,9.9551352819664,-0.401867631563353,-0.004886922,-0.23732115,0.0027488936,194.46318,-79.89278,8.241784,STD
5823132596000,2.250073,0.531091541272863,9.95117544649508,-0.433545670315319,-0.021991149,-0.23976462,-0.005192355,194.49312,-79.93041,8.19472,STD
5823138609000,2.256086,0.504932298290242,9.91979336252433,-0.479758887628579,-0.027794369,-0.24740042,-0.009162978,194.52527,-79.96834,8.149013,STD
5823142661000,2.260138,0.486951928482068,9.89462109637661,-0.512123557038273,-0.031154128,-0.23579398,-0.0076358155,194.55208,-80.003395,8.10321,STD
5823147622000,2.265099,0.493445171714369,9.87742295541277,-0.529645361292835,-0.043676864,-0.23579398,-0.01863139,194.58386,-80.04598,8.049981,STD
5823152608000,2.270085,0.516687955330023,9.86812565751558,-0.534293913161994,-0.06536258,-0.23487769,-0.01863139,194.61108,-80.08248,8.001079,STD
5823157604000,2.275081,0.571110342184503,9.8536673098389,-0.528468375126582,-0.06719518,-0.23976462,-0.023518313,194.64012,-80.13157,7.94483,STD
5823162669000,2.280146,0.650186950402762,9.83506115765247,-0.514513658987342,-0.08246681,-0.2501493,-0.025961773,194.66978,-80.17307,7.8905864,STD
5823167656000,2.285133,0.736518918486476,9.81875553371122,-0.48877521260541,-0.081855945,-0.2678644,-0.028405234,194.70499,-80.21197,7.8423834,STD
5823172686000,2.290163,0.832325062380668,9.80438431951074,-0.450452755047733,-0.099571034,-0.28008172,-0.0290161,194.74094,-80.244354,7.795222,STD
5823177653000,2.29513,0.918798888010181,9.80336190537224,-0.441437601008999,-0.094989546,-0.29718593,-0.0290161,194.79396,-80.26492,7.766837,STD
5823182602000,2.300079,0.996348336914826,9.81628706844832,-0.462979112094355,-0.113926366,-0.3203988,-0.03145956,194.85158,-80.27858,7.7388945,STD
5823187613000,2.30509,1.07149359030225,9.83095962360933,-0.482707086549178,-0.112399206,-0.33078352,-0.025350908,194.9188,-80.27484,7.7345266,STD
5823192668000,2.310145,1.1382210335926,9.8500244936497,-0.497005808755538,-0.11911872,-0.34238997,-0.023823744,194.99239,-80.26789,7.7293253,STD
5823197631000,2.315108,1.19736227663913,9.86657059552442,-0.519868473640071,-0.13439035,-0.355829,-0.015577064,195.08347,-80.24707,7.7461495,STD
5823202605000,2.320082,1.2372116989543,9.87653315915508,-0.569680303547004,-0.1441642,-0.3753767,-0.011911872,195.17877,-80.22695,7.7626987,STD
5823208406000,2.325883,1.26822761890804,9.89144323781608,-0.623784554095721,-0.16371189,-0.38362336,-0.005192355,195.28384,-80.18983,7.7969427,STD
5823212711000,2.330188,1.27544223239129,9.90587246478257,-0.659857832449033,-0.19058995,-0.38728857,-0.005192355,195.39227,-80.150925,7.8305435,STD
5823217690000,2.335167,1.28269484480025,9.92216913961107,-0.702689851775523,-0.19486602,-0.38820487,0.0018325958,195.5127,-80.10816,7.876365,STD
5823222642000,2.340119,1.27267073446417,9.93219298826886,-0.762834859207356,-0.21380283,-0.38148534,0.007941248,195.63089,-80.059074,7.921455,STD
5823227634000,2.345111,1.26134814709853,9.94002747004781,-0.825189981803694,-0.22296582,-0.38056904,0.01282817,195.754,-80.01634,7.9693027,STD
5823232602000,2.350079,1.24350712623043,9.93556758741914,-0.896554130479048,-0.22968534,-0.37384954,0.015577064,195.8723,-79.97049,8.017441,STD
5823237836000,2.355313,1.22613981436242,9.93053195838926,-0.97095967557047,-0.23090707,-0.3475823,0.020463986,195.99532,-79.93172,8.063656,STD
5823242617000,2.360094,1.23086740143521,9.92107658678368,-1.02769076980898,-0.22937989,-0.3277292,0.03176499,196.1168,-79.89062,8.112063,STD
5823247638000,2.365115,1.23464882311957,9.911995,-1.08673486524672,-0.22021692,-0.3191771,0.03940081,196.24002,-79.86099,8.156588,STD
5823252605000,2.370082,1.22585784814267,9.911995,-1.13948076100536,-0.20861048,-0.28344148,0.045814894,196.3484,-79.82998,8.202141,STD
5823257598000,2.375075,1.21702085638514,9.911995,-1.19250275768804,-0.19486602,-0.2574797,0.053145275,196.46118,-79.80362,8.251626,STD
5823262623000,2.3801,1.22023861538322,9.9199633971734,-1.22100559229933,-0.16340645,-0.2171626,0.055283304,196.55867,-79.78194,8.299409,STD
5823267618000,2.385095,1.22457238200761,9.92863111143323,-1.24700819204566,-0.14477506,-0.19639318,0.065973446,196.65306,-79.75674,8.35092,STD
5823272663000,2.39014,1.21269301611795,9.92129508130547,-1.23813884514744,-0.12095132,-0.18173242,0.07788532,196.74219,-79.745865,8.399369,STD
5823277629000,2.395106,1.19453922709228,9.90767945519611,-1.21544660886535,-0.09407325,-0.16035213,0.074830994,196.82292,-79.73909,8.445153,STD
5823282601000,2.400078,1.18471572708674,9.89680143012199,-1.18701906028239,-0.07819075,-0.15210545,0.082161374,196.90878,-79.730644,8.497341,STD
5823287715000,2.405192,1.18001149548554,9.88739326164633,-1.15408938995293,-0.055588737,-0.13408493,0.08827003,196.98529,-79.727806,8.546727,STD
5823292623000,2.4101,1.13571521761631,9.87659664453738,-1.13074904506012,-0.05375614,-0.13255776,0.08674286,197.06139,-79.724014,8.591462,STD
5823297617000,2.415094,1.05654591603067,9.86409598118139,-1.11408184199338,-0.026572637,-0.10903945,0.093462385,197.12514,-79.7235,8.63849,STD
5823302576000,2.420053,0.986563049417956,9.85196362296756,-1.11161446022308,-0.018936822,-0.09682214,0.08399397,197.19553,-79.720604,8.678707,STD
5823307592000,2.425069,0.945057298303354,9.84064403456131,-1.15689348364622,0.011911872,-0.0852157,0.084910266,197.25848,-79.7206,8.722521,STD
5823312642000,2.430119,0.903270208365407,9.82924771848245,-1.2024794222999,0.022907447,-0.0693332,0.079107046,197.30511,-79.738075,8.740211,STD
5823317724000,2.435201,0.865061730234742,9.81940854234742,-1.25462647795305,0.03970624,-0.030848695,0.06994407,197.34166,-79.76068,8.756075,STD
5823322668000,2.440145,0.829495336995305,9.81051676995305,-1.30797604460094,0.06169739,0.012217305,0.060170226,197.37222,-79.7862,8.769411,STD
5823327628000,2.445105,0.794033249035134,9.8266454123766,-1.32831972956162,0.08155051,0.051618114,0.048258353,197.39009,-79.82819,8.768703,STD
5823332609000,2.450086,0.758589603513427,9.86208923766054,-1.32325635616177,0.10995574,0.115453534,0.050396383,197.3883,-79.872055,8.767598,STD
5823337649000,2.455126,0.738453151503268,9.88791758082789,-1.2874483762963,0.10934488,0.1459968,0.044898596,197.38452,-79.929886,8.753403,STD
5823342631000,2.460108,0.725979525986928,9.90870695668845,-1.23755383081481,0.12705997,0.17715092,0.03390302,197.3624,-79.99326,8.736942,STD
5823347784000,2.465261,0.725853711146222,9.92536848664177,-1.17820313837978,0.15149458,0.21410827,0.02321288,197.32808,-80.06371,8.709848,STD
5823352667000,2.470144,0.743765619371828,9.93432416020301,-1.11103343577516,0.16707164,0.23976462,0.020463986,197.2884,-80.1341,8.681987,STD
5823357603000,2.47508,0.761019026938283,9.93849941031823,-1.02852784440694,0.172264,0.25228736,0.0143553335,197.24438,-80.20632,8.645213,STD
5823362697000,2.480174,0.776700257521697,9.93065905496625,-0.906998406653809,0.18142697,0.26145032,0.0070249503,197.19447,-80.280205,8.607529,STD
5823367660000,2.485137,0.791978221280135,9.92302032634201,-0.788594284241401,0.18509217,0.26816985,0.0036651916,197.1421,-80.34218,8.573226,STD
5823372666000,2.490143,0.831227672837726,9.9256112721519,-0.661125549761361,0.18692477,0.26206118,0.0015271631,197.09143,-80.40508,8.53794,STD
5823377567000,2.495044,0.875056601892509,9.93048125316456,-0.534508606312513,0.18875736,0.23945917,0.0009162979,197.04413,-80.46734,8.503014,STD
5823382600000,2.500077,0.861948546974274,9.92350177908999,-0.429206288171748,0.18051068,0.22876903,-0.0018325958,196.98999,-80.5141,8.469467,STD
5823387637000,2.505114,0.839867460459581,9.91466916002929,-0.32763323486771,0.16890424,0.20250183,-0.005497787,196.94739,-80.560036,8.436869,STD
5823392645000,2.510122,0.827317397527912,9.9178599127033,-0.211841498672703,0.15149458,0.1826487,-0.009773844,196.90593,-80.58807,8.4109,STD
5823397635000,2.515112,0.818915053475165,9.92626241468132,-0.0900076739746813,0.12675454,0.1554652,-0.0070249503,196.87444,-80.61229,8.387006,STD
5823402649000,2.520126,0.763386157896808,9.94019218626487,-0.0480921322394706,0.1001819,0.1160644,-0.0067195175,196.8433,-80.6294,8.356712,STD
5823407620000,2.525097,0.644189481355629,9.9614770721184,-0.116204525311634,0.07513642,0.0888809,-0.0125227375,196.81683,-80.644066,8.326229,STD
5823412691000,2.530168,0.533629273456821,9.97826697917181,-0.179272427281633,0.05467244,0.06872234,-0.009773844,196.78024,-80.642426,8.296888,STD
5823417692000,2.535169,0.47054391666749,9.97432427097226,-0.214757933270766,0.03604105,0.061391957,-0.009162978,196.74821,-80.63953,8.266044,STD
5823422645000,2.540122,0.408064058203672,9.97041940520293,-0.249902846520952,0.026572637,0.044898596,-0.032070424,196.70236,-80.6714,8.202749,STD
5823427721000,2.545198,0.365857307126395,9.95606019399328,-0.278667601403684,0.009162978,0.033292156,-0.046731193,196.65736,-80.69653,8.143009,STD
5823432619000,2.550096,0.331807980832955,9.93903563306415,-0.304204598345885,0.0067195175,0.03848451,-0.0580322,196.613,-80.72631,8.078782,STD
5823437720000,2.555197,0.308224622933384,9.92073546035707,-0.305621292390094,0.00580322,0.022296581,-0.0720821,196.56981,-80.774376,7.9959803,STD
5823442627000,2.560104,0.294692258665771,9.9026919437512,-0.287578143173354,0.013439035,0.016493361,-0.08674286,196.52264,-80.82477,7.9109287,STD
5823447607000,2.565084,0.294022563457317,9.88836223445122,-0.273248487131098,0.017104227,0.004581489,-0.11484267,196.48149,-80.88827,7.8127522,STD
5823452607000,2.570084,0.308621354107724,9.87863001900407,-0.263515951561992,0.025045475,-0.007330383,-0.13622294,196.44234,-80.95366,7.7142057,STD
5823457606000,2.575083,0.348602089764227,9.87549734029644,-0.240480735440442,0.042455133,-0.031154128,-0.1441642,196.4098,-81.02269,7.6110835,STD
5823463893000,2.58137,0.431834480986867,9.88012145511097,-0.194240528824207,0.036957346,-0.046120327,-0.16432275,196.37898,-81.09545,7.500515,STD
5823467715000,2.585192,0.482433208401044,9.88293255210813,-0.166130131228016,0.044898596,-0.07452556,-0.18173242,196.36247,-81.16857,7.3944197,STD
5823472610000,2.590087,0.593636404021073,9.86039126470272,-0.1170582159671,0.03573562,-0.105374254,-0.19486602,196.35121,-81.23973,7.2863746,STD
5823477787000,2.595264,0.718968125075529,9.83458987449288,-0.0683561658023306,0.035124753,-0.1337795,-0.20311269,196.34744,-81.31413,7.1776376,STD
5823482592000,2.600069,0.873879292749245,9.82267339154079,-0.0882165684048338,0.029321533,-0.13836098,-0.19853121,196.35468,-81.36505,7.088873,STD
5823487634000,2.605111,1.03643124018127,9.81016914449719,-0.109056557982736,0.015882496,-0.160963,-0.19822577,196.38858,-81.38985,7.0238147,STD
5823492653000,2.61013,1.12663853935125,9.79639030354132,-0.11834163000496,-0.007330383,-0.18234327,-0.20097467,196.42287,-81.410385,6.9608293,STD
5823497696000,2.615173,1.18891866389247,9.78201817875211,-0.123132409970241,-0.03176499,-0.18936823,-0.19822577,196.45876,-81.42584,6.901235,STD
5823502598000,2.620075,1.22057112904408,9.77792,-0.127971850887865,-0.04917465,-0.19853121,-0.20219639,196.531,-81.41211,6.880819,STD
5823507575000,2.625052,1.24053290628206,9.77792,-0.132962300408334,-0.061086524,-0.19181168,-0.20647246,196.5998,-81.39444,6.861648,STD
5823512705000,2.630182,1.25862843167361,9.77792,-0.154540661619562,-0.07513642,-0.19761491,-0.21380283,196.68002,-81.364,6.8560596,STD
5823517703000,2.63518,1.27559121060512,9.77792,-0.17998490972269,-0.093462385,-0.19303341,-0.22388211,196.75471,-81.33255,6.848547,STD
5823522765000,2.640242,1.32425380437979,9.78884306799387,-0.210651610196018,-0.10598512,-0.19058995,-0.22937989,196.8324,-81.2968,6.845669,STD
5823527608000,2.645085,1.39528066388974,9.80778342542113,-0.243797428523737,-0.12095132,-0.18600847,-0.23182335,196.90752,-81.259315,6.8411164,STD
5823533383000,2.65086,1.46093161243498,9.81962580577093,-0.265371250231622,-0.122478485,-0.17104226,-0.24617869,196.98009,-81.22829,6.835697,STD
5823537653000,2.65513,1.5010659664442,9.82363932917853,-0.273398141987437,-0.13164146,-0.16584991,-0.23976462,197.05286,-81.18956,6.836079,STD
5823542621000,2.660098,1.54240336043013,9.82088111351143,-0.2777274,-0.14355333,-0.1572978,-0.25503623,197.13336,-81.152626,6.8407917,STD
5823547624000,2.665101,1.57936954265599,9.811639387019,-0.2777274,-0.15027285,-0.14874569,-0.2666427,197.21127,-81.11342,6.848395,STD
5823552603000,2.67008,1.634745607898,9.80039969534906,-0.292311655937351,-0.15241088,-0.13316862,-0.2669481,197.29227,-81.06788,6.864848,STD
5823557602000,2.675079,1.7124712973546,9.78668359660013,-0.324316351034285,-0.16371189,-0.12614368,-0.27397305,197.37294,-81.024254,6.876197,STD
5823562699000,2.680176,1.78049058174908,9.78125774349817,-0.351440739602564,-0.17104226,-0.11209377,-0.2782491,197.45055,-80.9753,6.8960967,STD
5823567659000,2.685136,1.82833954731685,9.7899572746337,-0.368840356012821,-0.17501289,-0.10262536,-0.27305678,197.5266,-80.92533,6.9165874,STD
5823572614000,2.690091,1.8753816900531,9.79882956576797,-0.387463586380719,-0.17592919,-0.08979719,-0.267559,197.61302,-80.86766,6.9530396,STD
5823577603000,2.69508,1.91929594614992,9.80858848182189,-0.411860387397876,-0.18203785,-0.08368854,-0.26633725,197.69785,-80.80932,6.989301,STD
5823582640000,2.700117,1.961803624932,9.816227,-0.431973178116499,-0.18081611,-0.0729984,-0.26267207,197.7913,-80.74465,7.037966,STD
5823587668000,2.705145,1.9979369335522,9.816227,-0.436489841694025,-0.19425514,-0.065973446,-0.24831672,197.88284,-80.67487,7.0893536,STD
5823592636000,2.710113,2.03404762733586,9.81999159785354,-0.443356565588173,-0.19242255,-0.06536258,-0.24281894,197.97885,-80.60814,7.147301,STD
5823597607000,2.715084,2.07412035214646,9.86006400883839,-0.473411056891835,-0.18997909,-0.052839845,-0.22540927,198.06781,-80.534775,7.211274,STD
5823603254000,2.720731,2.10969396546311,9.892841,-0.50079031400314,-0.18875736,-0.035430185,-0.20586158,198.16782,-80.455635,7.2839026,STD
5823607600000,2.725077,2.11738087520547,9.892841,-0.508477219732201,-0.19792034,-0.016798794,-0.19181168,198.2626,-80.37403,7.358369,STD
5823612944000,2.730421,2.12314743965015,9.89247806122449,-0.519325356851312,-0.20463985,-0.0033597588,-0.17012598,198.35774,-80.287704,7.446219,STD
5823617615000,2.735092,2.09246086817013,9.88864257022809,-0.54234024941348,-0.20433442,0.02076942,-0.16340645,198.44374,-80.20292,7.531394,STD
5823622578000,2.740055,2.05985597537301,9.88456730972389,-0.566793880709998,-0.20433442,0.053145275,-0.1459968,198.52698,-80.113144,7.6244655,STD
5823627610000,2.745087,2.02806939197151,9.87258117287148,-0.613781651904608,-0.21502456,0.07269296,-0.13561209,198.60632,-80.023315,7.7154427,STD
5823632565000,2.750042,1.99734550462933,9.85721890838459,-0.670108832167908,-0.20738874,0.112704635,-0.12583824,198.66945,-79.934906,7.8077936,STD
5823637636000,2.755113,1.96943336833267,9.83843226309476,-0.737919586485406,-0.22113322,0.16707164,-0.11881329,198.71432,-79.849655,7.892159,STD
5823642626000,2.760103,1.94268265869652,9.81932461335466,-0.806707165453818,-0.21105394,0.22937989,-0.11881329,198.74518,-79.77112,7.9741135,STD
5823647604000,2.765081,1.9249382,9.80162202392194,-0.869095962354422,-0.21044308,0.28955013,-0.112704635,198.7686,-79.69826,8.049753,STD
5823652602000,2.770079,1.9249382,9.78655618193264,-0.919316161063897,-0.21288654,0.36132678,-0.12217305,198.77136,-79.631546,8.117112,STD
5823657604000,2.775081,1.91129443191429,9.77597085247619,-0.961747607909524,-0.2134974,0.43279803,-0.11362094,198.75974,-79.57452,8.182132,STD
5823662615000,2.780092,1.87930148765714,9.7714003432381,-0.993740528304762,-0.20555615,0.4981606,-0.12370021,198.7306,-79.525925,8.235797,STD
5823667722000,2.785199,1.86207829865772,9.78087636689038,-1.03046010961969,-0.19608775,0.57543504,-0.118507855,198.68546,-79.47682,8.293012,STD
5823672885000,2.790362,1.87436888240119,9.81774803256276,-1.07552562612478,-0.18112154,0.6585127,-0.1160644,198.6211,-79.43388,8.343079,STD
5823677572000,2.795049,1.88552634240616,9.85122033490761,-1.11643635164471,-0.17745635,0.6945538,-0.11148291,198.54924,-79.39977,8.385501,STD
5823682589000,2.800066,1.90661589471079,9.88251310110918,-1.13647436237969,-0.16401732,0.75777835,-0.103847094,198.44676,-79.36948,8.424826,STD
5823687613000,2.80509,1.92866830266752,9.91338659198827,-1.1541162519021,-0.14263703,0.8173377,-0.10476339,198.33647,-79.342865,8.460855,STD
5823692671000,2.810148,1.95759382265546,9.94135374471034,-1.12252687868428,-0.10995574,0.86437434,-0.09315695,198.22028,-79.321815,8.501539,STD
5823697628000,2.815105,1.98829745225908,9.96767100411162,-1.07427831787859,-0.08246681,0.8958339,-0.08307768,198.09311,-79.30448,8.539011,STD
5823702657000,2.820134,2.03057280779409,9.9991234507423,-1.01326699175407,-0.05497787,0.9074403,-0.079107046,197.9695,-79.28896,8.58053,STD
5823707602000,2.825079,2.08024567990963,10.0335124266581,-0.944489199515895,-0.020158553,0.9108001,-0.061086524,197.84012,-79.27396,8.626934,STD
5823712665000,2.830142,2.12449816368179,10.0679417892319,-0.874465791593455,0.0143553335,0.9074403,-0.038789943,197.71516,-79.25167,8.67975,STD
5823717700000,2.835177,2.10895236276296,10.0951466973483,-0.808396097106472,0.022296581,0.89949906,-0.024129177,197.5919,-79.228546,8.73406,STD
5823722588000,2.840065,2.09386043130491,10.1215573410172,-0.744255349012654,0.04642576,0.8848383,-0.012217305,197.47968,-79.18943,8.804298,STD
5823727702000,2.845179,2.01240875241981,10.1115438875463,-0.690009791990459,0.042760566,0.87872964,-0.0015271631,197.36838,-79.14457,8.876272,STD
5823732639000,2.850116,1.89369502203252,10.0788977387484,-0.64549215859017,0.040317107,0.8961393,0.025045475,197.25514,-79.09792,8.953846,STD
5823737682000,2.855159,1.77243244509447,10.045550659877,-0.600018708066035,0.020158553,0.91415983,0.03390302,197.13698,-79.047424,9.02109,STD
5823742654000,2.860131,1.61991095744829,10.0096770744829,-0.580354886173132,0.0061086523,0.9450085,0.043066,197.01082,-78.99234,9.092843,STD
5823747682000,2.865159,1.42205742413817,9.96943574138171,-0.593768689552197,-0.025350908,0.9810496,0.049785517,196.87938,-78.93107,9.163448,STD
5823752633000,2.87011,1.22723386737238,9.9298106737238,-0.606977070723588,-0.05589417,1.0140363,0.058337633,196.70561,-78.89128,9.194284,STD
5823757621000,2.875098,1.09119854677124,9.89514589831993,-0.63397714025639,-0.087964594,1.0558805,0.064751714,196.52089,-78.8466,9.223422,STD
5823762681000,2.880158,1.00245352383948,9.86427824643682,-0.672561930733339,-0.12034045,1.0824533,0.07147124,196.33301,-78.7965,9.252857,STD
5823767707000,2.885184,0.914026366173877,9.83421859126417,-0.711008518928181,-0.12705997,1.1172725,0.06780604,196.08435,-78.796394,9.220599,STD
5823772716000,2.890193,0.821349747194456,9.81407151390172,-0.751302698897942,-0.14752395,1.1365148,0.059253927,195.83522,-78.78929,9.18775,STD
5823777608000,2.895085,0.730837864573709,9.79439503107938,-0.790655689197816,-0.1386664,1.1542299,0.05497787,195.56708,-78.80731,9.132007,STD
5823782626000,2.900103,0.648193980598745,9.77731421197489,-0.8299082250169,-0.13683382,1.1749994,0.054061573,195.29552,-78.822495,9.07377,STD
5823788579000,2.906056,0.556433578178014,9.75896176356028,-0.875788435808788,-0.12980886,1.1945469,0.050396383,195.0223,-78.84202,9.012777,STD
5823792647000,2.910124,0.480488703145769,9.75275242355183,-0.89451837487528,-0.09865474,1.2021828,0.052534413,194.7298,-78.88678,8.931416,STD
5823797667000,2.915144,0.329094688659982,9.77267267547858,-0.862645930191431,-0.07360926,1.1933253,0.054367006,194.43951,-78.932594,8.849019,STD
5823802582000,2.920059,0.180867282046905,9.79217626874948,-0.831440140227065,-0.045814894,1.176221,0.05467244,194.13597,-79.0019,8.748955,STD
5823807621000,2.925098,0.0859798601636818,9.82135622157434,-0.778074657101208,-0.0125227375,1.1230757,0.05955936,193.84808,-79.074486,8.652844,STD
5823812653000,2.93013,0.00971002813835901,9.85347006413994,-0.71786164869471,0.02107485,1.0708468,0.04642576,193.56833,-79.155365,8.55293,STD
5823817775000,2.935252,-0.0614550435737553,9.87175897639419,-0.672237346572518,0.052839845,1.0088439,0.040927973,193.27452,-79.26412,8.4192095,STD
5823822763000,2.94024,-0.120544761623853,9.86683473394495,-0.652540736697248,0.089491755,0.9550878,0.03634648,192.99655,-79.38089,8.285035,STD
5823827634000,2.945111,-0.164933894761905,9.87079952380952,-0.641646,0.12767084,0.91415983,0.023518313,192.71141,-79.51244,8.129032,STD
5823832592000,2.950069,-0.192411789861111,9.88650108680556,-0.641646,0.16371189,0.86620694,0.012217305,192.4465,-79.64866,7.9762716,STD
5823837796000,2.955273,-0.220121619682027,9.90125856350961,-0.639761904958341,0.20677789,0.84788096,-0.0021380284,192.17068,-79.80036,7.809997,STD
5823842618000,2.960095,-0.21619547365244,9.86984955925863,-0.588721981975854,0.23365596,0.8344419,-0.002443461,191.90964,-79.9524,7.6484113,STD
5823847727000,2.965204,-0.212035647840503,9.8365711265091,-0.534644220358782,0.2415972,0.8371908,-0.007941248,191.64447,-80.11542,7.4766116,STD
5823852598000,2.970075,-0.20611256678598,9.79834083380365,-0.478241504188326,0.25503623,0.8417723,-0.015882496,191.38518,-80.28203,7.307138,STD
5823858439000,2.975916,-0.197804509870786,9.74849237085994,-0.407623059447497,0.2611449,0.8445212,-0.02107485,191.1281,-80.446335,7.1395407,STD
5823863340000,2.980817,-0.195793359684228,9.7104949713678,-0.338474005862402,0.27550024,0.8353582,-0.016798794,190.86676,-80.602264,6.977069,STD
5823867637000,2.985114,-0.232824363637925,9.70712844903468,-0.200449371795075,0.26053402,0.8170323,-0.015882496,190.60995,-80.752625,6.814898,STD
5823872584000,2.990061,-0.275456985597186,9.70325267850131,-0.0415459822835406,0.2706133,0.8042041,-0.0067195175,190.3492,-80.89124,6.6617436,STD
5823877610000,2.995087,-0.321556499042402,9.69637006187868,0.0728528999782918,0.27214047,0.7800749,-0.0076358155,190.0996,-81.02461,6.5091147,STD
5823882600000,3.000077,-0.370033129129641,9.6866750456482,0.140720186656117,0.25809056,0.7467828,-0.01038471,189.85841,-81.15273,6.3613896,STD
5823887665000,3.005142,-0.424299002270048,9.70263138525464,0.17238252,0.26053402,0.7247916,-0.005497787,189.59442,-81.26164,6.2053776,STD
5823892639000,3.010116,-0.481816983041409,9.73984894545067,0.17238252,0.26908615,0.70249504,-0.005192355,189.34291,-81.36786,6.050465,STD
5823897598000,3.015075,-0.539161507899709,9.77695426933731,0.17238252,0.27458394,0.6786713,-0.00061086525,189.08365,-81.46661,5.8907886,STD
5823902596000,3.020073,-0.63457081050824,9.81914338173281,0.191370362257619,0.2828306,0.64904433,-0.006414085,188.83543,-81.56687,5.731326,STD
5823907606000,3.025083,-0.745011382435319,9.86331957913636,0.217876099151091,0.2938262,0.6291912,-0.0106901415,188.59361,-81.66491,5.5762115,STD
5823912653000,3.03013,-0.849602625103042,9.88802377464537,0.222704969447765,0.30665436,0.6102544,-0.016187929,188.33832,-81.77633,5.4053826,STD
5823917631000,3.035108,-0.947424624062807,9.89652976393969,0.209945576927469,0.31764993,0.59986967,-0.023518313,188.0891,-81.88757,5.2357364,STD
5823922618000,3.040095,-1.0358875625866,9.90982730254042,0.211485972840647,0.31581733,0.5876524,-0.03145956,187.81967,-82.00789,5.0422635,STD
5823928296000,3.045773,-1.11232892752284,9.93712776965559,0.249706661010142,0.30818152,0.5687156,-0.051923547,187.55864,-82.128555,4.846792,STD
5823932569000,3.050046,-1.14350980897959,9.94744859387755,0.279564588,0.30482176,0.54458636,-0.06627888,187.28091,-82.25728,4.6326957,STD
5823938288000,3.055765,-1.1222193447619,9.9368036952381,0.322145538666667,0.30024028,0.52198434,-0.082161374,187.0117,-82.382324,4.4164357,STD
5823942665000,3.060142,-1.09074710572589,9.92890867802236,0.351485870255066,0.2846632,0.49205196,-0.09407325,186.7383,-82.50231,4.1876063,STD
5823947808000,3.065285,-1.01330445594864,9.92030376694619,0.377300082354997,0.28924468,0.464563,-0.10415252,186.47394,-82.62182,3.959345,STD
5823952955000,3.070432,-0.935812009837278,9.9130508464584,0.405091755753568,0.2837469,0.42821655,-0.11759156,186.21658,-82.72129,3.736838,STD
5823957595000,3.075072,-0.866210980251479,9.94011784959102,0.478559509878176,0.2764165,0.3915646,-0.12156218,185.96994,-82.8152,3.5188031,STD
5823962614000,3.080091,-0.790924866568047,9.96939571353986,0.558028186160808,0.2751948,0.33933565,-0.13041973,185.74881,-82.89283,3.3193758,STD
5823967618000,3.085095,-0.700741602666312,9.9790325,0.592716048822748,0.2565634,0.28680122,-0.13622294,185.54068,-82.959,3.124234,STD
5823972843000,3.09032,-0.598793470635132,9.9790325,0.606013625224555,0.23976462,0.23640485,-0.13805555,185.3492,-83.02062,2.9327064,STD
5823977615000,3.095092,-0.521168663493701,9.9790325,0.618729605637663,0.2284636,0.22082779,-0.14202617,185.16779,-83.049736,2.7607405,STD
5823982589000,3.100066,-0.46150641117218,9.9790325,0.632767792570545,0.22113322,0.1908954,-0.14049901,185.00676,-83.07112,2.5949707,STD
5823987645000,3.105122,-0.400860583319826,9.9790325,0.647037409203566,0.19181168,0.16432275,-0.1337795,184.85713,-83.07161,2.4570537,STD
5823992639000,3.110116,-0.325888301635654,9.98239615461184,0.637767838989596,0.15607607,0.1337795,-0.12980886,184.7191,-83.06609,2.3223805,STD
5823997636000,3.115113,-0.244501733721489,9.98718344657863,0.618618041248499,0.11789699,0.08093964,-0.115453534,184.59619,-83.04834,2.1965768,STD
5824002597000,3.120074,-0.186879431712508,10.0019639435354,0.596222077370006,0.08460484,0.03359759,-0.10567969,184.48141,-83.01146,2.0922754,STD
5824007591000,3.125068,-0.138870428335676,10.0211676832463,0.57221757066854,0.046731193,-0.010995574,-0.09315695,184.38197,-82.96108,1.996342,STD
5824012679000,3.130156,-0.094990098367662,10.0242340049115,0.449680616514384,0.016187929,-0.050701816,-0.0842994,184.30525,-82.90453,1.9226288,STD
5824017630000,3.135107,-0.0543287994609807,10.0205376416543,0.290731905343416,-0.02107485,-0.074830994,-0.0711658,184.23746,-82.835236,1.8560356,STD
5824022641000,3.140118,-0.014055587645879,10.0144268212682,0.140119698940562,-0.032986723,-0.0888809,-0.058643065,184.17957,-82.76625,1.8051499,STD
5824027602000,3.145079,0.0206852210667502,9.99457478872872,0.0507861878610676,-0.050701816,-0.08735373,-0.04886922,184.1248,-82.68626,1.7584828,STD
5824032592000,3.150069,0.0574947282351874,9.97038284942383,-0.0239589623183014,-0.064751714,-0.08399397,-0.03634648,184.07631,-82.64233,1.7311336,STD
5824037687000,3.155164,0.101768233947918,9.93053658388531,-0.046095716099265,-0.06627888,-0.07269296,-0.029626964,184.02573,-82.59779,1.7050046,STD
5824042796000,3.160273,0.144635645617448,9.89185746028785,-0.0682670818292466,-0.094989546,-0.08552113,-0.010995574,183.98816,-82.554985,1.694391,STD
5824047616000,3.165093,0.161039416815032,9.87545378757996,-0.0887717926146055,-0.099571034,-0.10323623,-0.004886922,183.94958,-82.51977,1.6820405,STD
5824052607000,3.170084,0.178025147530206,9.85846815884861,-0.110003952683014,-0.093462385,-0.12675454,0.011301007,183.92319,-82.48419,1.6887301,STD
5824057591000,3.175068,0.209238385937164,9.860596134105,-0.15129375036296,-0.0870483,-0.15057829,0.014966198,183.90268,-82.448875,1.6940987,STD
5824063299000,3.180776,0.249914679377429,9.86963549185614,-0.205528801990905,-0.065973446,-0.1731803,0.03145956,183.88788,-82.41846,1.7082912,STD
5824067708000,3.185185,0.291764391698401,9.87537473362529,-0.245023656172887,-0.04062254,-0.21044308,0.041233405,183.8908,-82.39532,1.7265322,STD
5824072612000,3.190089,0.354360086016756,9.87984594535415,-0.285263749379284,-0.029932396,-0.21960606,0.05100725,183.89174,-82.373505,1.7488859,STD
5824077581000,3.195058,0.412374886902711,9.87680650620406,-0.337255276051529,-0.017104227,-0.23793201,0.0693332,183.90758,-82.36744,1.7878047,STD
5824082599000,3.200076,0.454153161421007,9.85022018801865,-0.424609871676282,-0.0021380284,-0.25473082,0.08368854,183.92542,-82.36454,1.8279899,STD
5824087647000,3.205124,0.496181206412708,9.82347492412866,-0.512486714783846,0.018936822,-0.26297748,0.094989546,183.95764,-82.36915,1.8861371,STD
5824092629000,3.210106,0.510646413615925,9.82545389238425,-0.5547552545419,0.028405234,-0.2611449,0.10781772,183.99109,-82.37299,1.9479831,STD
5824097708000,3.215185,0.51496886693504,9.83842107180308,-0.580689992510442,0.044593163,-0.25350907,0.118202426,184.02478,-82.383156,2.0113144,STD
5824102603000,3.22008,0.503884294512653,9.86485204942665,-0.613656918618031,0.053450707,-0.25350907,0.13408493,184.06801,-82.409164,2.090821,STD
5824107589000,3.225066,0.475562863249308,9.90733458323448,-0.656139087692764,0.076052725,-0.2574797,0.15577064,184.10948,-82.44035,2.1733453,STD
5824113554000,3.231031,0.456590508072412,9.94043753646099,-0.652087283253442,0.08460484,-0.267559,0.1695151,184.15146,-82.4732,2.2581725,STD
5824117633000,3.23511,0.452606442065273,9.95238956807751,-0.616230664228455,0.09896017,-0.27550024,0.17623462,184.19337,-82.510345,2.345556,STD
5824122614000,3.240091,0.456840153000386,9.95763554704405,-0.582545000104328,0.1282817,-0.27214047,0.18203785,184.22961,-82.56153,2.4287934,STD
5824127629000,3.245106,0.470758531700155,9.95299599381762,-0.559347699041731,0.12767084,-0.27122417,0.1881465,184.26848,-82.60534,2.512752,STD
5824132608000,3.250085,0.473018214888235,9.950302,-0.541996579294118,0.13041973,-0.24984388,0.19364429,184.30286,-82.64909,2.59361,STD
5824137644000,3.255121,0.458833274190196,9.950302,-0.532539958745098,0.118202426,-0.22235495,0.20158553,184.33485,-82.6854,2.6750684,STD
5824142609000,3.260086,0.434272305333464,9.93974355538068,-0.523204919685225,0.105374254,-0.18020524,0.20616703,184.3512,-82.71436,2.7583964,STD
5824147635000,3.265112,0.391659938323825,9.91133523490065,-0.513735482821169,0.09987647,-0.13958271,0.20922135,184.36012,-82.73925,2.8409512,STD
5824152572000,3.270049,0.362546542970485,9.892841,-0.492477444078823,0.08246681,-0.1160644,0.2098322,184.3539,-82.75867,2.9192567,STD
5824157589000,3.275066,0.358412061807073,9.892841,-0.446998125378195,0.06414085,-0.110872045,0.20525073,184.342,-82.77499,2.9944806,STD
5824162976000,3.280453,0.352897277212121,9.89211873198653,-0.397530987824916,0.04550946,-0.124311075,0.2134974,184.32838,-82.78496,3.061917,STD
5824167743000,3.28522,0.337526013484848,9.88443334890572,-0.347574400774411,0.038789943,-0.1572978,0.21838433,184.31975,-82.7932,3.126125,STD
5824172616000,3.290093,0.321812951151515,9.87657707205387,-0.296506968700337,0.055588737,-0.17928895,0.22052236,184.31332,-82.7955,3.1885939,STD
5824177600000,3.295077,0.300179240228216,9.86311781120332,-0.259229459232365,0.05467244,-0.23518312,0.22876903,184.3261,-82.78956,3.2549798,STD
5824183500000,3.300977,0.270872617216459,9.84358018153527,-0.225038403302213,0.073303826,-0.2874121,0.22602014,184.34477,-82.793396,3.3180697,STD
5824187665000,3.305142,0.255549518947368,9.82630821052632,-0.197080603684211,0.07422013,-0.29810223,0.23182335,184.36208,-82.78133,3.3809304,STD
5824192630000,3.310107,0.246659402620361,9.79963775479106,-0.15707503147705,0.08155051,-0.3200934,0.24251351,184.39748,-82.77479,3.4452364,STD
5824197632000,3.315109,0.20354789895285,9.78133638733377,-0.115957470830466,0.080634214,-0.32925636,0.2312125,184.42953,-82.76637,3.4973269,STD
5824202606000,3.320083,0.0174908333339533,9.79905600213894,-0.0716581701534456,0.06383542,-0.3368922,0.23884831,184.46645,-82.75138,3.5574088,STD
5824207817000,3.325294,-0.170991301114865,9.81957563682432,-0.0324511389358108,0.052839845,-0.3359759,0.23915374,184.50119,-82.73344,3.6093624,STD
5824212627000,3.330104,-0.271688603320747,9.8607698647655,-0.0782226429799285,0.048258353,-0.34330627,0.24220806,184.54004,-82.71147,3.6638067,STD
5824217805000,3.335282,-0.379440610098538,9.90304381786122,-0.127627515920548,0.02107485,-0.34422258,0.23945917,184.54143,-82.69349,3.6736798,STD
5824222615000,3.340092,-0.470222108428586,9.91259995726584,-0.175407245056529,0.015577064,-0.3555236,0.23762658,184.54784,-82.67945,3.6850224,STD
5824227657000,3.345134,-0.561941279921023,9.92027467782642,-0.224590870097862,0.0067195175,-0.36713,0.22693644,184.5426,-82.68053,3.670178,STD
5824232598000,3.350075,-0.622872263361662,9.90808823512748,-0.26521152713881,0.0033597588,-0.36865717,0.21288654,184.53792,-82.68227,3.654146,STD
5824237608000,3.355085,-0.684654134852777,9.89573161138295,-0.30639944289982,0.005497787,-0.38331795,0.20219639,184.52731,-82.70245,3.6183558,STD
5824242635000,3.360112,-0.724018211740891,9.892841,-0.330269670144592,0.0030543262,-0.39920044,0.19394971,184.51784,-82.72174,3.5800743,STD
5824247609000,3.365086,-0.756160589068826,9.892841,-0.348636762082128,0.015271631,-0.4251622,0.17104226,184.51613,-82.74816,3.5361419,STD
5824252640000,3.370117,-0.772980054219902,9.90992982309582,-0.320164181689189,0.029626964,-0.46578476,0.15760323,184.51399,-82.79004,3.4796057,STD
5824257603000,3.37508,-0.782711797075143,9.93425909131859,-0.271505599515766,0.051618114,-0.52381694,0.14110987,184.52478,-82.839264,3.4182472,STD
5824262584000,3.380061,-0.729443324592468,9.95715288158141,-0.206004518062582,0.07513642,-0.54061574,0.13469578,184.52893,-82.89694,3.3506422,STD
5824267647000,3.385124,-0.652219653839236,9.97986570638936,-0.133323435987446,0.08032878,-0.5671884,0.12492194,184.55241,-82.95648,3.2810304,STD
5824272620000,3.390097,-0.563642068577525,9.97683899715505,-0.102402359009957,0.080634214,-0.5852089,0.12186762,184.57791,-83.01138,3.2102768,STD
5824277776000,3.395253,-0.463300645464337,9.95677083092867,-0.0973852828774639,0.07819075,-0.59315014,0.10567969,184.60805,-83.06802,3.1352422,STD
5824282597000,3.400074,-0.3742745601844,9.94135238260527,-0.068918820250567,0.057421334,-0.59742624,0.09987647,184.65361,-83.09885,3.080357,STD
5824287681000,3.405158,-0.283052665527068,9.92694913637708,-0.0257084513926634,0.03176499,-0.59498274,0.103847094,184.69875,-83.12718,3.0252767,STD
5824292670000,3.410147,-0.222730858779059,9.91631867133984,-0.0200832517626442,0.016187929,-0.61453044,0.10048734,184.76501,-83.14364,2.9889946,STD
5824297632000,3.415109,-0.180565720028394,9.90788547275954,-0.0369493077031943,-0.0030543262,-0.6374379,0.10170906,184.83028,-83.15085,2.9563334,STD
5824302608000,3.420085,-0.140555419544839,9.90368537458622,-0.0567554751862775,-0.005497787,-0.6637051,0.1133155,184.91045,-83.14521,2.9467242,STD
5824307590000,3.425067,-0.104660405646253,9.90727494831478,-0.0818819845404755,-0.023823744,-0.6960809,0.116980694,184.99802,-83.13139,2.9369125,STD
5824312629000,3.430106,-0.0683547101354198,9.9109055910322,-0.107295971018959,-0.032070424,-0.73853606,0.12583824,185.10728,-83.11931,2.9427104,STD
5824317624000,3.435101,-0.0328547485128356,9.90215253599882,-0.187099552930068,-0.032070424,-0.77121735,0.13500121,185.2215,-83.104355,2.9509,STD
5824323274000,3.440751,0.00706038697452543,9.88618643734632,-0.304183957769254,-0.03726278,-0.78984874,0.14294247,185.34209,-83.08528,2.9626756,STD
5824327597000,3.445074,0.0376007640916691,9.87397025248352,-0.393769069648864,-0.01740966,-0.7993172,0.14813483,185.48427,-83.07327,2.9859753,STD
5824332600000,3.450077,0.0729450867187961,9.8598324840661,-0.497445755916199,-0.008552114,-0.8045095,0.14782938,185.62871,-83.05704,3.010715,STD
5824337657000,3.455134,0.13957843567274,9.86521137158374,-0.5363012,0.00030543262,-0.7892379,0.1563815,185.76772,-83.04531,3.0392654,STD
5824342617000,3.460094,0.222796660480028,9.88185491748423,-0.5363012,0.0027488936,-0.77732605,0.16554448,185.90742,-83.034195,3.0683832,STD
5824347812000,3.465289,0.303153891609611,9.88501750999362,-0.51869824128535,0.01740966,-0.76052725,0.16737708,186.0589,-83.05389,3.1130414,STD
5824352604000,3.470081,0.366581141892409,9.86550154741654,-0.47478706056666,0.029932396,-0.7440339,0.16554448,186.20528,-83.071915,3.1585443,STD
5824357617000,3.475094,0.415405234621849,9.83476503114187,-0.421554665857637,0.032070424,-0.7290677,0.18051068,186.3634,-83.07881,3.2275443,STD
5824362655000,3.480132,0.44402488487395,9.79183569273356,-0.359545432776075,0.03176499,-0.7266242,0.18051068,186.51933,-83.08918,3.2909245,STD
5824367666000,3.485143,0.472360833702906,9.768343,-0.291813809539094,0.037873644,-0.7244862,0.18509217,186.67906,-83.085106,3.3712652,STD
5824372661000,3.490138,0.500447412228202,9.768343,-0.216916221184069,0.03726278,-0.73456544,0.19608775,186.83987,-83.07721,3.4527555,STD
5824377628000,3.495105,0.510333050562088,9.77686111402102,-0.157049904088723,0.023518313,-0.75625116,0.2049453,187.00453,-83.056335,3.5400739,STD
5824382591000,3.500068,0.493397491683592,9.79803056814538,-0.118944860138963,0.027183503,-0.77457714,0.21166481,187.16934,-83.03739,3.628994,STD
5824387704000,3.505181,0.472705107862343,9.81929460225016,-0.0854243549530113,0.030848695,-0.7858781,0.21838433,187.33757,-83.00186,3.725158,STD
5824392678000,3.510155,0.43667595273518,9.83730906930131,-0.0809207118553465,0.03604105,-0.79504114,0.22937989,187.5085,-82.96536,3.8237112,STD
5824397757000,3.515234,0.398627722426628,9.85564111891553,-0.0779983609101646,0.026572637,-0.8081747,0.2510656,187.6773,-82.91617,3.922355,STD
5824402600000,3.520077,0.344677638439513,9.87224104742305,-0.0987483954795991,0.023518313,-0.80848014,0.2565634,187.84361,-82.8704,4.0182137,STD
5824407568000,3.525045,0.28933507861131,9.88926942752327,-0.120033997738726,0.0143553335,-0.8072584,0.26297748,188.00418,-82.82059,4.1115627,STD
5824412629000,3.530106,0.240496613258851,9.892841,-0.14683696126717,0.00061086525,-0.8136725,0.27030787,188.16531,-82.76808,4.2058125,STD
5824417587000,3.535064,0.194567217721997,9.892841,-0.174394597630103,-0.0018325958,-0.8151997,0.2761111,188.32306,-82.715515,4.3000913,STD
5824422631000,3.540108,0.157822105936064,9.90318573291622,-0.237130126317333,0.004886922,-0.8032878,0.27916542,188.47401,-82.67058,4.3804884,STD
5824427591000,3.545068,0.125315825361228,9.91711727656662,-0.311430194124548,0.0027488936,-0.7996226,0.27397305,188.62634,-82.62382,4.4595494,STD
5824432598000,3.550075,0.090581222745821,9.90635922473997,-0.359528693124071,0.0076358155,-0.7837401,0.2837469,188.7743,-82.58745,4.530271,STD
5824437654000,3.555131,0.054607720297084,9.883875801263,-0.395502189468796,0.0076358155,-0.7761043,0.28252518,188.92253,-82.55246,4.5958714,STD
5824442613000,3.56009,0.038307227,9.86026953628009,-0.41180268,0.017715093,-0.7538077,0.29260445,189.0583,-82.53391,4.6586804,STD
5824447622000,3.565099,0.038307227,9.83507722564551,-0.41180268,0.017104227,-0.7458665,0.29718593,189.19482,-82.51387,4.719161,STD
5824452634000,3.570111,0.0399633024382653,9.81539894555031,-0.406834455327998,0.018936822,-0.7367035,0.28863382,189.3193,-82.507065,4.7699356,STD
5824457598000,3.575075,0.0464670670549969,9.81214699753745,-0.387323167929407,0.01863139,-0.73548174,0.28710666,189.44229,-82.49706,4.8234143,STD
5824462612000,3.580089,0.0530363409849511,9.80886229420617,-0.367615352656132,0.025961773,-0.73914695,0.29016098,189.5674,-82.48879,4.874777,STD
5824467618000,3.585095,0.0498567173876974,9.80665,-0.351300209875219,0.03023783,-0.76052725,0.29626966,189.69601,-82.47899,4.9265413,STD
5824472648000,3.590125,0.0263768298862351,9.80665,-0.341908251540261,0.01863139,-0.79351395,0.3109304,189.82748,-82.464615,4.98153,STD
5824477611000,3.595088,0.00175613042559015,9.8133534556962,-0.343008915757783,0.02443461,-0.8045095,0.31245756,189.96494,-82.45004,5.034679,STD
5824482597000,3.600074,-0.0268317679615121,9.83785743670886,-0.371596811159767,0.027794369,-0.81092364,0.30879238,190.10886,-82.4304,5.0907893,STD
5824488388000,3.605865,-0.0591291177474297,9.86369392211445,-0.410567270479146,0.026572637,-0.80756384,0.2996294,190.24957,-82.41535,5.139562,STD
5824492696000,3.610173,-0.0751356668252182,9.85969220378274,-0.490600032581959,0.034208454,-0.8023715,0.29077184,190.39029,-82.4032,5.187094,STD
5824497634000,3.615111,-0.0934830065063046,9.85510527594568,-0.58233675014549,0.02565634,-0.7846564,0.26725355,190.52809,-82.40078,5.2187834,STD
5824502612000,3.620089,-0.125725840620183,9.88449198933501,-0.634953976205413,0.02107485,-0.766025,0.25473082,190.66264,-82.39984,5.250792,STD
5824508298000,3.625775,-0.164767765411006,9.92353419134253,-0.688636614129772,-0.00061086525,-0.7440339,0.2574797,190.78995,-82.3947,5.2799015,STD
5824512612000,3.630089,-0.185205741603443,9.95423073086564,-0.768352306834893,-0.028405234,-0.73823065,0.24404067,190.92235,-82.407646,5.2965984,STD
5824517627000,3.635104,-0.205270782583556,9.99034769819519,-0.876703544050802,-0.070249505,-0.7507534,0.23396139,191.05217,-82.411385,5.3150487,STD
5824522617000,3.640094,-0.216736008628673,10.0232242315227,-1.00004720382903,-0.076358154,-0.75594574,0.22510384,191.17853,-82.430145,5.3209457,STD
5824527606000,3.645083,-0.202554147999406,10.0468606494509,-1.17022956099733,-0.1001819,-0.7849618,0.20922135,191.3143,-82.43952,5.323418,STD
5824532595000,3.650072,-0.181595108108808,10.0619102587565,-1.32564150429016,-0.11178834,-0.8249735,0.17745635,191.45535,-82.47324,5.315361,STD
5824537626000,3.655103,-0.136659545544041,10.0469314337824,-1.43049108945078,-0.106595986,-0.88117313,0.16065755,191.6078,-82.50466,5.3088546,STD
5824542676000,3.660153,-0.0256991604113211,10.0017385594947,-1.53976120393693,-0.08674286,-0.9282097,0.13103059,191.78368,-82.56343,5.294253,STD
5824547638000,3.665115,0.230260723396337,9.89004715160121,-1.65610661892077,-0.06352998,-0.9615019,0.09254608,191.97037,-82.62737,5.2742157,STD
5824552572000,3.670049,0.45999582216542,9.79766946650389,-1.74028463995117,-0.030848695,-0.97158116,0.052839845,192.17899,-82.70496,5.2564406,STD
5824557625000,3.675102,0.618765778147413,9.76074624782542,-1.72920767434763,0.0012217305,-0.94225967,0.03023783,192.384,-82.788956,5.233356,STD
5824562708000,3.680185,0.778478362009767,9.72360381352052,-1.71806494405616,0.03268129,-0.93126404,-0.009162978,192.64914,-82.860214,5.2528043,STD
5824567662000,3.685139,0.966662662732919,9.70481490062112,-1.65660908695652,0.03634648,-0.874759,-0.034513887,192.89052,-82.93093,5.2681484,STD
5824572786000,3.690263,1.17953346604555,9.69513926501035,-1.56468756811594,0.060170226,-0.79534656,-0.0571159,193.12047,-83.015816,5.272598,STD
5824578516000,3.695993,1.38548997286404,9.70660720223296,-1.46980055062159,0.077579886,-0.6743952,-0.09682214,193.3552,-83.07438,5.305615,STD
5824582655000,3.700132,1.52359194059704,9.72230059648428,-1.40388829476601,0.10751228,-0.63316184,-0.10445796,193.58737,-83.13381,5.341217,STD
5824587626000,3.705103,1.68883743111895,9.739613,-1.32828112742756,0.10995574,-0.550695,-0.13041973,193.80363,-83.15639,5.3999763,STD
5824592634000,3.710111,1.84830490135034,9.739613,-1.2924823041121,0.1328632,-0.4550946,-0.14049901,194.00192,-83.18257,5.4593763,STD
5824597645000,3.715122,2.00786789921965,9.739613,-1.25666203581462,0.13530666,-0.3753767,-0.15790866,194.20966,-83.16647,5.549558,STD
5824602659000,3.720136,2.15290862911475,9.73411026491803,-1.23078376731967,0.15393804,-0.29901853,-0.16035213,194.38893,-83.15302,5.638045,STD
5824607628000,3.725105,2.20751679868852,9.6951044295082,-1.26588905991803,0.16798794,-0.22479841,-0.17134771,194.54478,-83.14267,5.7164626,STD
5824612648000,3.730125,2.26268544655738,9.65569825245902,-1.30135466040984,0.17104226,-0.1459968,-0.1872302,194.7072,-83.08683,5.8390756,STD
5824617880000,3.735357,2.29474951202153,9.66859609000955,-1.32130430721292,0.18325958,-0.073303826,-0.18997909,194.84871,-83.032005,5.9588795,STD
5824622652000,3.740129,2.31458307230275,9.70032962077945,-1.33320444338165,0.18325958,-0.005192355,-0.17959438,194.96786,-82.97469,6.074489,STD
5824627646000,3.745123,2.3595911252496,9.720459,-1.33167339138608,0.17959438,0.03940081,-0.17379116,195.09085,-82.90933,6.199491,STD
5824632617000,3.750094,2.44154091661502,9.720459,-1.30872741557529,0.18112154,0.064446285,-0.16126843,195.19894,-82.83884,6.326222,STD
5824637658000,3.755135,2.52464469820285,9.720459,-1.28545832202024,0.16035213,0.07788532,-0.1518,195.30978,-82.76003,6.4540453,STD
5824642963000,3.76044,2.60639512089275,9.72514274758657,-1.2409297271278,0.15118915,0.093767814,-0.14110987,195.41208,-82.67859,6.5829062,STD
5824648234000,3.765711,2.68239816986981,9.73408444752458,-1.17833908800815,0.14905111,0.087659165,-0.12889257,195.51631,-82.592026,6.7126155,STD
5824652516000,3.769993,2.74546162318827,9.7415037188073,-1.13018610981376,0.14996742,0.086437434,-0.105068825,195.63045,-82.47383,6.8703814,STD
5824657512000,3.774989,2.82395021502461,9.75073737585641,-1.08401637826884,0.14110987,0.083383106,-0.092240654,195.74658,-82.35439,7.0255766,STD
5824662535000,3.780012,2.90120391895903,9.76133976340788,-1.03357688321195,0.14049901,0.07086037,-0.07269296,195.8767,-82.20896,7.202382,STD
5824667526000,3.785003,2.96741897171977,9.78025825113794,-0.957902468058579,0.14263703,0.0571159,-0.051923547,196.00757,-82.06074,7.379697,STD
5824672517000,3.789994,3.02001965154366,9.79863584475154,-0.881266178612173,0.13103059,0.035124753,-0.027794369,196.15543,-81.885445,7.57759,STD
5824677506000,3.794983,2.96382599650103,9.8126845518965,-0.796975617812408,0.11453723,0.007330383,-0.0009162979,196.30812,-81.706345,7.7783785,STD
5824682544000,3.800021,2.90374157198323,9.82870216408823,-0.716086865585388,0.10323623,0.007330383,0.023823744,196.392059912377,-81.6043133351588,7.88832097360351,STD
5824687549000,3.805026,2.80327540120771,9.86697475316898,-0.687382273909572,0.08552113,-0.023518313,0.039095376,196.47545,-81.50295,7.9975433,STD
5824692550000,3.810027,2.6994513462134,9.90276590888337,-0.661495503235732,0.049785517,-0.05009095,0.056505036,196.64873,-81.300064,8.213681,STD
5824697523000,3.815,2.55291152331514,9.90749309707196,-0.670949682173697,0.049785517,-0.064446285,0.06688975,196.734931625025,-81.1961570946857,8.3177210314297,STD
5824702636000,3.820113,2.40188322325919,9.91265056586473,-0.682575508697231,-0.03176499,-0.06994407,0.079107046,196.82356,-81.089325,8.42469,STD
5824707574000,3.825051,2.25161900907853,9.92123726146164,-0.716921573808443,-0.06963864,-0.07238753,0.081855945,196.98256,-80.906906,8.607447,STD
5824713498000,3.830975,2.07357213168188,9.9307494380704,-0.759564355228162,-0.10170906,-0.04734206,0.0720821,197.12111,-80.75038,8.757494,STD
5824717552000,3.835029,1.99041322024586,9.92351808064817,-0.813798463687837,-0.14385876,-0.018325957,0.057421334,197.25797,-80.593575,8.903941,STD
5824722776000,3.840253,1.88325432696964,9.91419972564723,-0.883684744544608,-0.17715092,0.01985312,0.03176499,197.36406,-80.4782,9.006866,STD
5824727578000,3.845055,1.79254324135778,9.92231441780822,-0.982776402147462,-0.19700404,0.063224554,-0.005497787,197.45964,-80.36978,9.099824,STD
5824732555000,3.850032,1.7013253287772,9.93671703767123,-1.09799903542506,-0.2012801,0.110872045,-0.03940081,197.54237,-80.2681,9.183968,STD
5824737610000,3.855087,1.61535410165124,9.97580176918889,-1.19065029834876,-0.21380283,0.14782938,-0.071776666,197.60257,-80.2002,9.234462,STD
5824742603000,3.86008,1.53292593215387,10.0235233791508,-1.27307846784613,-0.21319197,0.17867808,-0.08979719,197.65051,-80.1397,9.27784,STD
5824747544000,3.865021,1.47855936906445,10.0486404588358,-1.35828989280665,-0.20372356,0.1881465,-0.106595986,197.68976,-80.11088,9.293852,STD
5824752595000,3.870072,1.44838946253638,10.0536688816008,-1.44879961239085,-0.19486602,0.19272798,-0.13500121,197.72168,-80.0905,9.300805,STD
5824757568000,3.875045,1.4476404030524,10.052867091183,-1.54000207331584,-0.17928895,0.1994475,-0.14080444,197.7431,-80.093445,9.289989,STD
5824762644000,3.880121,1.46654264347234,10.0481414323904,-1.63451337410324,-0.16676621,0.20922135,-0.15607607,197.76263,-80.10681,9.268749,STD
5824767596000,3.885073,1.53564548622162,10.0511382086163,-1.69874766248787,-0.14630222,0.22693644,-0.17073683,197.77565,-80.13534,9.240723,STD
5824772578000,3.890055,1.646753561013,10.0603974001552,-1.74041315427906,-0.1282817,0.2556471,-0.18112154,197.78256,-80.167076,9.209962,STD
5824777568000,3.895045,1.77910770214567,10.0765021901575,-1.75085420984252,-0.101098195,0.2855795,-0.18570304,197.79266,-80.20383,9.182541,STD
5824782557000,3.900034,1.93429437728346,10.100015307874,-1.72734109212598,-0.10262536,0.33475417,-0.18325958,197.78871,-80.23937,9.154157,STD
5824787613000,3.90509,2.08173261131565,10.1347623613066,-1.68471948068941,-0.09712757,0.37782016,-0.17195857,197.79984,-80.25418,9.151943,STD
5824792665000,3.910142,2.21707301077423,10.182785993142,-1.6192321670998,-0.12095132,0.40530908,-0.14782938,197.80095,-80.26118,9.153834,STD
5824797653000,3.91513,2.40033971946309,10.1985914340045,-1.5639760844519,-0.12889257,0.453262,-0.121256754,197.8047,-80.236664,9.1894865,STD
5824802588000,3.920065,2.73074762969799,10.1192937857942,-1.53754342771253,-0.1328632,0.49021935,-0.110872045,197.80376,-80.20835,9.226517,STD
5824807628000,3.925105,3.04858454964663,10.0439471939422,-1.5059178594034,-0.12492194,0.5161811,-0.106901415,197.80553,-80.1442,9.296635,STD
5824812657000,3.930134,3.18120073364846,10.0218445196879,-1.43076876693896,-0.12003502,0.5354234,-0.095294975,197.79878,-80.07596,9.369738,STD
5824818306000,3.935783,3.32291323327397,9.99627585621895,-1.34579318234136,-0.12064589,0.5357288,-0.07452556,197.85168,-79.932434,9.519982,STD
5824822638000,3.940115,3.31902474659293,9.96516780035617,-1.27191112332927,-0.11728613,0.528093,-0.055588737,197.90152,-79.79018,9.669426,STD
5824827566000,3.945043,3.31460127882651,9.92977987346518,-1.18786431196926,-0.11301007,0.4978552,-0.032375857,197.97437,-79.61079,9.852834,STD
5824833369000,3.950846,3.30548821347286,9.89326747159554,-1.14815305812268,-0.113926366,0.48472157,-0.0070249503,198.04434,-79.42979,10.03772,STD
5824837648000,3.955125,3.2980623243635,9.86727711171514,-1.12958858735164,-0.1386664,0.48563787,0.012217305,198.11884,-79.246666,10.223367,STD
5824842616000,3.960093,3.26698265856045,9.84081461495458,-1.10676701495458,-0.160963,0.4877759,0.019242255,198.1923,-79.060265,10.407655,STD
5824847612000,3.965089,3.21921821527403,9.81693236837376,-1.08288476837376,-0.17715092,0.5027421,0.023823744,198.26154,-78.87242,10.591974,STD
5824852659000,3.970136,3.16254990168609,9.80321167319613,-1.05369099221423,-0.19730948,0.54428095,0.018936822,198.31473,-78.68334,10.772357,STD
5824857608000,3.975085,3.10085214337962,9.79733588612695,-1.02137312027647,-0.21563543,0.56046885,0.014660766,198.37112,-78.49649,10.949935,STD
5824864759000,3.982236,3.01170268497396,9.78884573592859,-0.974675787031986,-0.23365596,0.59681535,0.015577064,198.39601,-78.31858,11.114451,STD
5824867927000,3.985404,2.95266401429769,9.77933747631027,-0.955018461542977,-0.267559,0.61727935,0.0143553335,198.42151,-78.14399,11.273045,STD
5824872663000,3.99014,2.84807000037736,9.76032000377358,-0.926492828603774,-0.27214047,0.6401868,0.004581489,198.43652,-77.97699,11.424734,STD
5824877616000,3.995093,2.74558948519825,9.73003208325102,-0.914217499607027,-0.28588495,0.66645396,0.004581489,198.42754,-77.82354,11.554392,STD
5824882623000,4.0001,2.65086463306053,9.68605286171864,-0.924366579805277,-0.28893927,0.70157874,0.0018325958,198.41028,-77.67797,11.676439,STD
5824887676000,4.005153,2.55526953063355,9.64166959700861,-0.934608901003951,-0.29840767,0.7657196,-0.01160644,198.3575,-77.555435,11.770385,STD
5824892779000,4.010256,2.46238746239383,9.65136536005077,-0.891105830669726,-0.3036,0.838718,-0.032070424,198.29323,-77.439026,11.857673,STD
5824897671000,4.015148,2.3754848052426,9.69252970370009,-0.817924567274236,-0.30695978,0.8772025,-0.05222898,198.22197,-77.32875,11.937699,STD
5824903423000,4.0209,2.30013342088061,9.71576310568758,-0.741369103088561,-0.31520647,0.91599244,-0.059253927,198.10513,-77.243195,11.989471,STD
5824907623000,4.0251,2.25707774115464,9.72150397488047,-0.689702320386784,-0.3368922,0.9505063,-0.07147124,197.98082,-77.165276,12.031044,STD
5824912684000,4.030161,2.20519564708485,9.7284217222579,-0.627443847231142,-0.34330627,0.9960158,-0.09101892,197.82477,-77.10936,12.043573,STD
5824917695000,4.035172,2.18951731567673,9.68003529406037,-0.598629687789679,-0.36713,1.0329732,-0.11362094,197.66374,-77.05548,12.049251,STD
5824922848000,4.040325,2.18471213063291,9.61276280379747,-0.579408927544304,-0.3848451,1.0778717,-0.14080444,197.4901,-77.009674,12.045039,STD
5824927663000,4.04514,2.18677014372228,9.57967028138862,-0.519219915895853,-0.4016439,1.105666,-0.15088372,197.2862,-76.9719,12.02279,STD
5824932638000,4.050115,2.19136460659595,9.55669796702025,-0.441113989473481,-0.4382958,1.1307116,-0.183565,197.07419,-76.94423,11.983832,STD
5824937671000,4.055148,2.2000959987058,9.55508410114783,-0.372095193838687,-0.46028697,1.1673635,-0.20158553,196.85054,-76.912964,11.9457245,STD
5824942984000,4.060461,2.21185507853016,9.56684301725599,-0.305460363145366,-0.49571714,1.2244794,-0.21838433,196.61754,-76.884865,11.896128,STD
5824947783000,4.06526,2.22416325429572,9.57934637957558,-0.247629606557929,-0.54275376,1.2873985,-0.23426682,196.36328,-76.84389,11.843719,STD
5824952663000,4.07014,2.26267835518165,9.62107086553121,-0.225162490068677,-0.5751296,1.2983941,-0.26511553,196.1121,-76.809,11.780596,STD
5824957628000,4.075105,2.3018643133576,9.66352210995124,-0.202304040607788,-0.60048056,1.35551,-0.27305678,195.82373,-76.76118,11.716225,STD
5824962681000,4.080158,2.3399574248827,9.71049478537914,-0.183797288035417,-0.62125,1.4214834,-0.2947425,195.53506,-76.721245,11.636971,STD
5824967642000,4.085119,2.36512569592856,9.78240413122446,-0.198179164713183,-0.6533204,1.4715744,-0.30573806,195.23862,-76.67568,11.555666,STD
5824972664000,4.090141,2.39060343372181,9.8551976677766,-0.212737879624641,-0.68508536,1.5268577,-0.31215215,194.92438,-76.61847,11.477064,STD
5824977666000,4.095143,2.41361930237841,9.92072310709962,-0.215346186822616,-0.7141015,1.5827519,-0.33108896,194.60104,-76.563065,11.388297,STD
5824982621000,4.100098,2.43389401351563,9.97816836309905,-0.205208806554867,-0.72601336,1.6328428,-0.3378085,194.2681,-76.5044,11.297699,STD
5824987725000,4.105202,2.45477839810582,10.0373410344656,-0.194766588817916,-0.7275405,1.6765196,-0.3494149,193.91971,-76.44361,11.204639,STD
5824992637000,4.110114,2.48249946111897,10.1167698522188,-0.167618434866372,-0.73456544,1.7284433,-0.3539964,193.55975,-76.38051,11.107749,STD
5824997656000,4.115133,2.51451408717842,10.2088117349929,-0.131601959656149,-0.7324274,1.765706,-0.3472769,193.19675,-76.31933,11.0080595,STD
5825002574000,4.120051,2.5378537,10.2665460087011,-0.0997246805257924,-0.7458665,1.7965547,-0.33628133,192.82605,-76.25027,10.90851,STD
5825007603000,4.12508,2.5378537,10.2291301236793,-0.0772751307594779,-0.75777835,1.8353447,-0.33322698,192.44785,-76.18296,10.80511,STD
5825012660000,4.130137,2.5378537,10.1915059179615,-0.0547005884711001,-0.78038037,1.8729129,-0.33841935,192.05502,-76.10228,10.706775,STD
5825017624000,4.135101,2.49778434359022,10.1061708085027,-0.0170614047907107,-0.8222246,1.9318613,-0.30787608,191.64902,-76.0088,10.614717,STD
5825022649000,4.140126,2.43920170874614,9.99801825910666,0.0280022267852795,-0.8512407,1.9963076,-0.2837469,191.23706,-75.91768,10.515432,STD
