timestamp,rel_time,acc_x,acc_y,acc_z,gyro_x,gyro_y,gyro_z,azimuth,pitch,roll,label
338669917000,0,1.2291830631487,9.7908485299668,0.954198385853573,0.01985312,-0.08124508,0.09132435,0,0,0,STD
338674883000,0.004966,1.198712868414,9.76037830630788,1.00959872782107,0.01985312,-2.244319,-0.03604105,0.014590199,-0.00443163,0.64487445,STD
338679919000,0.010002,1.16781317033025,9.72947857889219,1.06577998479818,3.6117408,0.7467828,0.026267206,262.94513,24.800438,7.4588037,STD
338684886000,0.014969,1.1344960888029,9.70696038266828,1.09837754079807,-1.1633929,0.7443393,0.0290161,174.81203,-4.258573,-72.472984,STD
338689958000,0.020041,1.09925531762999,9.6873821764611,1.12187138824667,-1.1688906,0.75991637,0.032070424,130.12677,-26.83192,-55.92275,STD
338694909000,0.024992,1.06933425105081,9.67039618853295,1.13201431911855,-1.1841623,0.77396625,0.03481932,158.01192,-32.32734,-30.041597,STD
338699970000,0.030053,1.05450007900428,9.66050653397266,1.09740125101,-1.196685,0.77488256,0.03604105,161.32631,-36.71792,-23.217781,STD
338704852000,0.034935,1.04513922090181,9.66102435187526,1.07640406270544,-1.2061534,0.75319684,0.03176499,165.74472,-38.877037,-17.55331,STD
338709848000,0.039931,1.05017985436157,9.69126825790139,1.0915259630847,-1.1850786,0.72356987,0.029626964,167.596,-40.598434,-15.124714,STD
338714910000,0.044993,1.05969126193475,9.72211840540927,1.10258129238695,-1.1475104,0.70249504,0.026267206,166.4637,-42.388565,-16.001467,STD
338719937000,0.05002,1.07691456388094,9.75312027697481,1.10602595277619,-1.1224649,0.80939645,0.05681047,165.76756,-43.920597,-16.485203,STD
338725004000,0.055087,1.09427491219233,9.7843688314253,1.10949802243847,-1.2696834,0.79809546,0.06505715,166.93922,-44.90098,-15.386241,STD
338729923000,0.060006,1.12180937951923,9.79122274070513,1.11383482128205,-1.2583824,0.79168135,0.06536258,168.00954,-45.737385,-14.599587,STD
338734900000,0.064983,1.15745538730769,9.78103850128205,1.11892710051282,-1.2562444,0.79412484,0.07880162,169.08015,-46.37867,-13.986435,STD
338739884000,0.069967,1.18544490467193,9.73523398832016,1.14894377083476,-1.2559389,0.7846564,0.07666359,170.33821,-46.95691,-13.3512745,STD
338744895000,0.074978,1.21017318265201,9.67341329336998,1.19015761050326,-1.2562444,0.7831292,0.0888809,171.62653,-47.433826,-12.800012,STD
338749889000,0.079972,1.19689530218812,9.634268,1.22167999604895,-1.2565498,0.7816021,0.10293079,172.96257,-47.80361,-12.356262,STD
338754851000,0.084934,1.11804828343876,9.634268,1.23646380241626,-1.2751812,0.7507534,0.12461651,174.3626,-48.099934,-11.924511,STD
338759856000,0.089939,1.09794395271399,9.634268,1.25863036085595,-1.2382239,0.7150178,0.12492194,175.82573,-48.339092,-11.751951,STD
338764925000,0.095008,1.15783035397609,9.634268,1.29087690681344,-1.1414018,0.66950834,0.12644911,177.3572,-48.57985,-11.454505,STD
338770665000,0.100748,1.17833753132286,9.64130415610745,1.32609510813989,-1.0216721,0.6252206,0.12705997,178.79727,-48.790104,-11.015507,STD
338774911000,0.104994,1.14536184282818,9.65366985098834,1.35082684223011,-0.89949906,0.591623,0.1282817,180.23584,-49.005142,-10.592938,STD
338779915000,0.109998,1.11138753061827,9.6830155506436,1.37676247650348,-0.78893244,0.5662721,0.1301143,181.74014,-49.24697,-10.10617,STD
338784862000,0.114945,1.08639468951256,9.73799990546529,1.3967566971935,-0.6960809,0.37843102,0.09132435,183.2979,-49.490498,-9.611826,STD
338789906000,0.119989,1.05314228992097,9.77266755420041,1.41860168230071,-0.31215215,0.23854288,0.059253927,184.82927,-49.80827,-9.1743555,STD
338794936000,0.125019,1.01084135919602,9.7820679464338,1.44210222118255,-0.041233405,0.26389378,0.070249505,186.36475,-50.10517,-8.741533,STD
338799849000,0.129932,0.96779159725794,9.787497,1.45939849899303,-0.0888809,0.27977628,0.070554934,187.93219,-50.378017,-8.321021,STD
338804907000,0.13499,0.92089047929512,9.787497,1.4687787186677,-0.124005646,0.27366763,0.06169739,189.49272,-50.717014,-7.9091,STD
338809873000,0.139956,0.879473389568789,9.77911972895277,1.49437511232033,-0.12095132,0.27091873,0.06658431,191.01936,-51.012573,-7.542331,STD
338814926000,0.145009,0.846351121558864,9.75427797390486,1.55233904891342,-0.13103059,0.269697,0.056505036,192.53487,-51.287983,-7.18517,STD
338820368000,0.150451,0.811432956450621,9.73107420759521,1.61669030631166,-0.12156218,0.26816985,0.05467244,193.99583,-51.53806,-6.853566,STD
338824917000,0.155,0.788326497456243,9.74031649008168,1.68600964469078,-0.12675454,0.25595254,0.046731193,195.43506,-51.78471,-6.5218062,STD
338829883000,0.159966,0.764353801326674,9.75053205205244,1.75792770069455,-0.13897185,0.24465153,0.038179077,196.81367,-52.015396,-6.212114,STD
338834909000,0.164992,0.749328673560169,9.76180113321367,1.80300312321679,-0.14446963,0.24740042,0.027794369,198.1662,-52.249672,-5.906268,STD
338840935000,0.171018,0.731314065537693,9.77531237139067,1.85704699431091,-0.14538592,0.24709499,0.02443461,199.4163,-52.53089,-5.5819697,STD
338844944000,0.175027,0.722540842013214,9.79116114496696,1.88866315959969,-0.15851954,0.23915374,0.02321288,200.63937,-52.805916,-5.2661276,STD
338849922000,0.180005,0.713276693082005,9.81432151729499,1.92571980369219,-0.16646078,0.24281894,0.015882496,201.83229,-53.08056,-4.962434,STD
338854843000,0.184926,0.7086837,9.825804,1.95602146199472,-0.18234327,0.23365596,0.009162978,203.04398,-53.303677,-4.6998124,STD
338859889000,0.189972,0.7086837,9.825804,1.98056164724761,-0.19150625,0.22479841,0.0076358155,204.22601,-53.52725,-4.445012,STD
338864957000,0.19504,0.699322775779075,9.816443124652,1.9919758,-0.1957823,0.20525073,0.0033597588,205.37186,-53.750336,-4.197078,STD
338869958000,0.200041,0.682118078230804,9.7992385169286,1.9919758,-0.21166481,0.18600847,0.004581489,206.49121,-53.96751,-3.9541135,STD
338874926000,0.205009,0.665545625486592,9.77944557050173,1.98714494230104,-0.21013765,0.17715092,-0.0009162979,207.58528,-54.187737,-3.723362,STD
338879887000,0.20997,0.650133427119377,9.75375866262976,1.97173279757785,-0.2134974,0.16523905,-0.0036651916,208.65671,-54.401596,-3.4954202,STD
338884887000,0.21497,0.641646,9.74174120852523,1.95047508207741,-0.20463985,0.14966199,-0.0030543262,209.70053,-54.61669,-3.2836754,STD
338889932000,0.220015,0.641646,9.74647525262126,1.92206844454679,-0.22174409,0.122783914,-0.0067195175,210.72528,-54.822323,-3.0766194,STD
338894889000,0.224972,0.632077548538804,9.73770700851558,1.89047504489065,-0.21838433,0.10354166,-0.010079277,211.72012,-55.035328,-2.8797214,STD
338899857000,0.22994,0.609057661439907,9.71008350551577,1.85364314669054,-0.21227567,0.095294975,-0.007941248,212.69403,-55.243282,-2.6865556,STD
338904834000,0.234917,0.588809127282452,9.69007799691421,1.8291701,-0.20066923,0.09162979,-0.007941248,213.65527,-55.453217,-2.4951184,STD
338909862000,0.239945,0.573950389129809,9.68512498765686,1.8291701,-0.19853121,0.083383106,-0.004886922,214.59592,-55.661057,-2.307027,STD
338914903000,0.244986,0.57267265171761,9.67642109751528,1.82534957813055,-0.17654006,0.08155051,-0.010079277,215.50711,-55.87956,-2.132046,STD
338919888000,0.249971,0.591501442035102,9.66229922461053,1.81593519280221,-0.172264,0.070554934,-0.0070249503,216.39983,-56.092236,-1.9578325,STD
338924811000,0.254894,0.594103601229,9.65034268565268,1.8100165,-0.16371189,0.06078109,-0.008552114,217.2739,-56.306602,-1.7965827,STD
338929908000,0.259991,0.567791688419729,9.64157232890127,1.8100165,-0.14813483,0.062308256,-0.008857546,218.12782,-56.522495,-1.6400914,STD
338934843000,0.264926,0.551588700734579,9.63212644334017,1.8107303373123,-0.14996742,0.058337633,-0.008246681,218.9672,-56.736755,-1.4811658,STD
338939911000,0.269994,0.59353338381117,9.61639686485903,1.81597342064384,-0.15027285,0.059253927,-0.013439035,219.78792,-56.953487,-1.3303124,STD
338944863000,0.274946,0.627705060015921,9.60032440672411,1.82219961024536,-0.13439035,0.062308256,-0.004581489,220.57709,-57.172062,-1.1875886,STD
338949885000,0.279968,0.645721459148717,9.58230813457576,1.83120779335081,-0.13622294,0.06414085,-0.01038471,221.3526,-57.382935,-1.0546355,STD
338954882000,0.284965,0.664744491035485,9.56328520896452,1.8395358582071,-0.12797627,0.063224554,-0.016798794,222.11844,-57.5979,-0.91757244,STD
338959861000,0.289944,0.689481411143391,9.53854828885661,1.84448324222868,-0.12064589,0.06872234,-0.02076942,222.86688,-57.8094,-0.7873645,STD
338964928000,0.295011,0.719434910247502,9.52902206070795,1.82467102982161,-0.1160644,0.06261369,-0.027794369,223.59262,-58.026466,-0.6597767,STD
338969915000,0.299998,0.764040805009807,9.56916724768843,1.72653802967218,-0.09896017,0.06841691,-0.038789943,224.30037,-58.24592,-0.5411417,STD
338974939000,0.305022,0.807334772894398,9.60649802369856,1.65637348582053,-0.08307768,0.073303826,-0.045814894,224.99939,-58.464325,-0.4270906,STD
338979908000,0.309991,0.835646415329698,9.61593542835895,1.84039918135845,-0.077579886,0.07147124,-0.055588737,225.68616,-58.6811,-0.32018214,STD
338985053000,0.315136,0.864934179983291,9.62771258787105,2.01767616145076,-0.07788532,0.06627888,-0.052534413,226.38766,-58.924297,-0.20009418,STD
338989937000,0.32002,0.892518098933556,9.65529657882839,2.07744136318066,-0.05955936,0.06841691,-0.063224554,227.07672,-59.16982,-0.090742506,STD
338995174000,0.325257,0.924169088241405,9.68258797601058,2.12167704535323,-0.04062254,0.079107046,-0.061086524,227.72244,-59.381905,0.013513529,STD
338999913000,0.329996,0.971319564643937,9.68687447043823,1.98451195391953,-0.03726278,0.0842994,-0.06841691,228.35844,-59.590683,0.10993367,STD
339004818000,0.334901,1.02012165089724,9.69131111428032,1.8425421768606,-0.036651913,0.087659165,-0.07269296,228.97531,-59.79452,0.20519978,STD
339009899000,0.339982,1.04405868631515,9.68786085003498,1.93747615835082,-0.028710667,0.09407325,-0.06811147,229.57663,-59.997356,0.2961617,STD
339014859000,0.344942,1.0648268863851,9.68370713195173,2.05377796597587,-0.032070424,0.09162979,-0.06352998,230.16696,-60.193184,0.38361013,STD
339019873000,0.349956,1.08355871730386,9.67941286347164,2.11649435528175,-0.03390302,0.09712757,-0.061391957,230.7835,-60.413834,0.48086628,STD
339024987000,0.35507,1.10130677137163,9.67497575729299,2.14755344990034,-0.036651913,0.10598512,-0.057726767,231.38632,-60.62845,0.57672536,STD
339029850000,0.359933,1.10878727257348,9.65984099111863,2.10068851072108,-0.060170226,0.101098195,-0.052839845,231.96533,-60.806137,0.6687385,STD
339034841000,0.364924,1.10373358164517,9.62951874000846,1.94907762456122,-0.056505036,0.10323623,-0.049480084,232.52763,-60.987183,0.7560386,STD
339039866000,0.369949,1.09891560292915,9.59577652439372,1.84804770990965,-0.0711658,0.09437868,-0.048563786,233.08023,-61.145927,0.84553796,STD
339044884000,0.374967,1.09434533356158,9.55921456034237,1.79320442977651,-0.08246681,0.0870483,-0.040011674,233.6185,-61.303535,0.93430036,STD
339049885000,0.379968,1.08341591347861,9.5385,1.76630246503228,-0.10567969,0.07391469,-0.033292156,234.17078,-61.466713,1.0328265,STD
339054902000,0.384985,1.06402656497175,9.5385,1.77599718990113,-0.12186762,0.06872234,-0.028099801,234.71124,-61.62553,1.130683,STD
339059905000,0.389988,1.04103518579464,9.53436204938507,1.77507928209553,-0.1414153,0.056505036,-0.020158553,235.25645,-61.77867,1.229062,STD
339064997000,0.39508,1.01314016216989,9.52506353017447,1.76113174601011,-0.1572978,0.049480084,-0.020158553,235.79105,-61.926067,1.3237913,STD
339069937000,0.40002,0.992511192956051,9.51586940186635,1.75429395352197,-0.1740966,0.028099801,-0.014966198,236.32083,-62.063187,1.415096,STD
339074912000,0.404995,0.98294976811158,9.50630827654024,1.75907466594421,-0.16493362,0.022602014,-0.010079277,236.83797,-62.20149,1.5026653,STD
339079889000,0.409972,0.971636118591876,9.500193,1.7707960386957,-0.18051068,0.018325957,-0.0070249503,237.35791,-62.32161,1.5861677,STD
339084905000,0.414988,0.957110169877029,9.500193,1.79500596164701,-0.17959438,0.020463986,0.0015271631,237.86615,-62.447723,1.6698861,STD
339089914000,0.419997,0.932006565996263,9.51092436703383,1.82790237941581,-0.19150625,0.006414085,0.002443461,238.37157,-62.558598,1.7539145,STD
339094997000,0.42508,0.888919417712431,9.53964871597168,1.87577701083792,-0.18295415,-0.0018325958,-0.007330383,238.8658,-62.67486,1.834041,STD
339099882000,0.429965,0.8619126,9.55281291373327,1.91869167641051,-0.18600847,-0.009468411,-0.003970624,239.34943,-62.77475,1.9184836,STD
339104900000,0.434983,0.8619126,9.53851770897372,1.95681275317799,-0.18661933,-0.009468411,-0.00061086525,239.82565,-62.87761,1.9983292,STD
339109841000,0.439924,0.85949088045977,9.52529047126437,1.98724243908046,-0.18295415,-0.011301007,-0.008857546,240.29384,-62.97134,2.064484,STD
339114972000,0.445055,0.851591425303432,9.51344145350052,2.00304134939314,-0.18051068,-0.009773844,-0.0067195175,240.75099,-63.064163,2.1319923,STD
339119961000,0.450044,0.843910586914235,9.50192035632184,2.01840302617153,-0.17623462,-0.013744468,-0.004886922,241.19826,-63.148937,2.1959393,STD
339124925000,0.455008,0.842759,9.52853917147872,2.06322575320755,-0.17379116,-0.010995574,-0.013439035,241.6365,-63.234222,2.2550788,STD
339130104000,0.460187,0.842759,9.56336004958315,2.11545743396226,-0.16798794,-0.0015271631,-0.013133603,242.06493,-63.321487,2.3150206,STD
339134872000,0.464955,0.838431412413681,9.57031572255326,2.12480905362828,-0.16646078,-0.0106901415,-0.01985312,242.49503,-63.398315,2.3703573,STD
339140062000,0.470145,0.830317185689331,9.55814457734063,2.10452352918129,-0.16401732,-0.0030543262,-0.0290161,242.91125,-63.47742,2.4204357,STD
339144886000,0.474969,0.822627515408134,9.5485658814537,2.08578830060571,-0.14294247,0.00580322,-0.033292156,243.32037,-63.554985,2.465564,STD
339149887000,0.47997,0.813418097698298,9.5531702056533,2.06736936902221,-0.14385876,0.0036651916,-0.03573562,243.7243,-63.627415,2.5084848,STD
339155127000,0.48521,0.802955581701257,9.55658430217169,2.04986407913132,-0.1337795,0.005192355,-0.042455133,244.12497,-63.71036,2.5445337,STD
339159909000,0.489992,0.783670609667328,9.54280933447633,2.05537406620947,-0.14019357,0.008552114,-0.04886922,244.51929,-63.78843,2.5795202,STD
339164942000,0.495025,0.763373398407026,9.52831133940925,2.0611732642363,-0.1301143,0.0067195175,-0.057421334,244.91364,-63.87814,2.608163,STD
339169904000,0.499987,0.743362517764543,9.514017866029,2.0668906535884,-0.12736541,0.01038471,-0.069027774,245.30037,-63.96404,2.6330147,STD
339174933000,0.505016,0.717359530305411,9.51311149808504,2.06524777171757,-0.12705997,0.023823744,-0.08246681,245.68002,-64.05216,2.6539974,STD
339179890000,0.509973,0.68938808911912,9.51777350230777,2.06058586485319,-0.12492194,0.037873644,-0.09621128,246.05382,-64.1416,2.671293,STD
339184911000,0.514994,0.667714113995421,9.53464494256821,2.04677424594543,-0.12705997,0.043676864,-0.10934488,246.41867,-64.22358,2.681213,STD
339189902000,0.519985,0.649474108815112,9.5574448895249,2.02853428838008,-0.1337795,0.04795292,-0.12705997,246.7767,-64.30526,2.6850336,STD
339194937000,0.52502,0.647352658506694,9.56723,2.02641282871267,-0.11453723,0.06078109,-0.13500121,247.12646,-64.39268,2.683921,STD
339199948000,0.530031,0.65723723015448,9.56723,2.03629734875386,-0.112704635,0.057421334,-0.13103059,247.4744,-64.47331,2.6832523,STD
339204892000,0.534975,0.655109081689074,9.5843018252225,2.0569316252225,-0.10323623,0.048258353,-0.14110987,247.82196,-64.5662,2.6742997,STD
339209887000,0.53997,0.646050879501988,9.61147638449157,2.08410618449157,-0.09315695,0.026267206,-0.14080444,248.16664,-64.65891,2.6715765,STD
339214900000,0.544983,0.639255969704462,9.63186101352134,2.10688095113,-0.07849618,-0.004276057,-0.14630222,248.51733,-64.75045,2.6688244,STD
339219973000,0.550056,0.634563777874252,9.64593743712575,2.12564977724551,-0.06352998,-0.035430185,-0.14080444,248.86728,-64.84423,2.6721616,STD
339224958000,0.555041,0.638914519530355,9.63516703436426,2.15160030332188,-0.050396383,-0.04184427,-0.13347405,249.2085,-64.941956,2.670073,STD
339229918000,0.560001,0.653753958372384,9.5955955004686,2.18622557625742,-0.04886922,-0.070249505,-0.13225232,249.55844,-65.0401,2.6745188,STD
339234850000,0.564933,0.647306294111536,9.56331356123565,2.1959189041006,-0.04642576,-0.08857546,-0.13561209,249.89853,-65.14131,2.6760278,STD
339239912000,0.569995,0.620801202684527,9.53680840523054,2.18266637222526,-0.03390302,-0.10262536,-0.13316862,250.2391,-65.24498,2.6823833,STD
339244896000,0.574979,0.599997294676259,9.51600455935252,2.17226442733813,-0.035124753,-0.112399206,-0.129198,250.57509,-65.33329,2.6947894,STD
339249884000,0.579967,0.589889576013542,9.5058971573212,2.16721056800677,-0.05131268,-0.12675454,-0.13133603,250.91154,-65.42072,2.7082891,STD
339254892000,0.584975,0.588375149705736,9.51904754992519,2.1643584,-0.055283304,-0.1328632,-0.12370021,251.24142,-65.51026,2.7214484,STD
339259854000,0.589937,0.597855465236908,9.56170887082294,2.1643584,-0.054367006,-0.13225232,-0.12522738,251.56995,-65.59692,2.7323782,STD
339264972000,0.595055,0.613949324660424,9.61609327550518,2.1749688713652,-0.062002823,-0.13469578,-0.1151481,251.89561,-65.679825,2.74367,STD
339269930000,0.600013,0.637350918497782,9.68161755840315,2.19837043587974,-0.07819075,-0.1414153,-0.10934488,252.21838,-65.760704,2.753809,STD
339274879000,0.604962,0.649329003010626,9.74129168890201,2.2141362772137,-0.089491755,-0.15149458,-0.10415252,252.54053,-65.84548,2.7631578,STD
339279851000,0.609934,0.644644199114522,9.79282409149941,2.21882103219205,-0.09682214,-0.16126843,-0.10598512,252.85999,-65.92676,2.7729144,STD
339284857000,0.61494,0.658443866564093,9.84932095355323,2.23189790941437,-0.10781772,-0.16584991,-0.103847094,253.1804,-66.00324,2.7857795,STD
339289983000,0.620066,0.705651028848928,9.91541081315511,2.26022217720935,-0.10170906,-0.18387043,-0.10354166,253.50269,-66.082695,2.800179,STD
339294864000,0.624947,0.749877584229022,9.9626486467737,2.27097101629809,-0.10415252,-0.20861048,-0.09315695,253.82008,-66.16304,2.8150573,STD
339299917000,0.63,0.793856624598607,9.97242170902757,2.24165167646168,-0.100792766,-0.22999077,-0.09132435,254.13777,-66.246895,2.8292472,STD
339304848000,0.634931,0.839002077404366,9.96643515267581,2.2190197992272,-0.10567969,-0.25992316,-0.07849618,254.45802,-66.32771,2.8590522,STD
339309862000,0.639945,0.890025964427164,9.92468822638138,2.20974273678516,-0.093767814,-0.28344148,-0.06841691,254.77771,-66.41411,2.8895543,STD
339314900000,0.644983,0.928014931288245,9.88722916586151,2.19892432515298,-0.09285152,-0.2968805,-0.063224554,255.10367,-66.50067,2.9305592,STD
339319927000,0.65001,0.92413871763285,9.86397220772947,2.1834194705314,-0.0852157,-0.31490102,-0.0580322,255.43127,-66.59189,2.9759943,STD
339324856000,0.654939,0.920338069710145,9.84116863768116,2.16821687884058,-0.08124508,-0.32650748,-0.057421334,255.75775,-66.68131,3.0248647,STD
339329878000,0.659961,0.92612943406136,9.8184910398466,2.1272004171172,-0.07391469,-0.32375857,-0.04734206,256.07895,-66.77301,3.0763524,STD
339334864000,0.664947,0.93506216716397,9.79615920709007,2.07807029177813,-0.070249505,-0.33261612,-0.043982297,256.40244,-66.86472,3.127161,STD
339339922000,0.670005,0.93852705,9.7794644562377,2.04027118929658,-0.06047566,-0.34208453,-0.043066,256.72333,-66.95952,3.1765006,STD
339344940000,0.675023,0.93852705,9.76656198997673,2.01016606339717,-0.052534413,-0.3399465,-0.043066,257.03888,-67.05438,3.2246068,STD
339349867000,0.67995,0.934722829058799,9.758766,1.97105256496174,-0.04184427,-0.32375857,-0.04153884,257.356,-67.157845,3.2755187,STD
339354878000,0.684961,0.924663224237501,9.758766,1.91572468592391,-0.03268129,-0.31978795,-0.04337143,257.672,-67.26266,3.325016,STD
339359872000,0.689955,0.9466075078125,9.74619640625,1.857301928125,-0.010079277,-0.31123585,-0.046120327,257.9843,-67.37768,3.3677752,STD
339364902000,0.694985,1.00467758445382,9.71939477142062,1.79476495121476,0.01038471,-0.30634892,-0.043676864,258.29224,-67.49362,3.4100485,STD
339369885000,0.699968,1.06306387094332,9.6949077430855,1.76055222959302,0.019242255,-0.30207285,-0.043982297,258.60373,-67.61902,3.448118,STD
339374890000,0.704973,1.1235521039857,9.67474510400673,1.78575571266169,0.029932396,-0.28955013,-0.051618114,258.90854,-67.74953,3.482231,STD
339379836000,0.709919,1.18383141969487,9.66685005270458,1.81392160291262,0.05222898,-0.28099802,-0.048563786,259.21997,-67.889366,3.5328906,STD
339384844000,0.714927,1.24559959754309,9.67635304775114,1.84718139098474,0.058643065,-0.27397305,-0.047647487,259.52597,-68.0264,3.5785346,STD
339389851000,0.719934,1.29942859163228,9.689323764418,1.88361387291047,0.060170226,-0.2742785,-0.04734206,259.8352,-68.15548,3.624502,STD
339394882000,0.724965,1.34103965903464,9.707817432684,1.92522489203531,0.062002823,-0.28344148,-0.052839845,260.14178,-68.28497,3.6684303,STD
339399861000,0.729944,1.39159475232384,9.72488120889555,1.96103905077461,0.061086524,-0.27763826,-0.051923547,260.44446,-68.40158,3.7206447,STD
339404884000,0.734967,1.46371509175412,9.73930507596202,1.98507916391804,0.057726767,-0.27977628,-0.05375614,260.74866,-68.5171,3.77085,STD
339409822000,0.739905,1.51724408727655,9.75192816298633,1.99744394132492,0.056199603,-0.2687807,-0.047647487,261.03848,-68.62635,3.82154,STD
339415110000,0.745193,1.53176730807762,9.76161044498614,1.98292082162317,0.04734206,-0.26725355,-0.032375857,261.32678,-68.73099,3.8738286,STD
339420954000,0.751037,1.55139368665544,9.768343,1.95376677694544,0.029626964,-0.26725355,-0.032070424,261.61093,-68.8275,3.9269526,STD
339424910000,0.754993,1.56878710078047,9.768343,1.91897985788507,0.028710667,-0.25717425,-0.032070424,261.88647,-68.92441,3.9810803,STD
339429879000,0.759962,1.59063438965491,9.768343,1.87528516607239,0.023823744,-0.2510656,-0.016187929,262.15985,-69.01626,4.0407677,STD
339434889000,0.764972,1.60201295121613,9.77371561463054,1.83372421100527,0.020463986,-0.24465153,-0.018020526,262.42847,-69.10827,4.092943,STD
339440127000,0.77021,1.60665211503745,9.78299413603995,1.79197168817165,0.02107485,-0.23273966,-0.009773844,262.68765,-69.19762,4.1491694,STD
339444878000,0.774961,1.59519901854891,9.77836048823148,1.74201613300583,0.010079277,-0.21502456,-0.0012217305,262.95245,-69.28745,4.2065744,STD
339449967000,0.78005,1.5636272185921,9.75731218203412,1.6736105114878,0.013133603,-0.20219639,-0.0036651916,263.21204,-69.38053,4.2608156,STD
339454879000,0.784962,1.53766673368791,9.74643404264663,1.6334347624573,0.01863139,-0.1872302,0.0021380284,263.46692,-69.47604,4.3195953,STD
339459918000,0.790001,1.51411955110764,9.7417250093686,1.60988762905241,0.019242255,-0.17898351,0.0012217305,263.7176,-69.57041,4.373569,STD
339465072000,0.795155,1.50628272612542,9.73688881698447,1.5775336625516,0.032986723,-0.15118915,0.005192355,263.96478,-69.674164,4.424839,STD
339469912000,0.799995,1.51083862469039,9.73233282327501,1.5410864264596,0.040011674,-0.13775012,0.004581489,264.21097,-69.77523,4.473766,STD
339474875000,0.804958,1.50825610549273,9.72271690539176,1.52027255274637,0.044898596,-0.13775012,0.01160644,264.45667,-69.878204,4.5179124,STD
339480107000,0.81019,1.49813780630048,9.70753913964055,1.51521340315024,0.042455133,-0.122783914,0.015271631,264.69202,-69.97987,4.557189,STD
339484901000,0.814984,1.48668540940951,9.69400871099376,1.52043184138262,0.044593163,-0.11942416,0.01160644,264.9304,-70.08982,4.5978365,STD
339490104000,0.820187,1.47233262292847,9.67965612433989,1.53478472777724,0.041233405,-0.108123146,0.018325957,265.15857,-70.1948,4.6397557,STD
339494867000,0.82495,1.45887461018799,9.66619829896907,1.55249396082474,0.052839845,-0.109650314,0.03023783,265.3911,-70.299484,4.68076,STD
339499866000,0.829949,1.44435841152213,9.6516823024055,1.57668757474227,0.054061573,-0.11178834,0.030543262,265.6187,-70.399025,4.719463,STD
339504851000,0.834934,1.43453494028849,9.6478170364692,1.59968030224984,0.04917465,-0.112399206,0.025045475,265.8418,-70.49504,4.7558107,STD
339509856000,0.839939,1.43018663370226,9.65651346802141,1.6214220622063,0.062002823,-0.10751228,0.03023783,266.0606,-70.594025,4.7947655,STD
339514842000,0.844925,1.4269443,9.6642188557487,1.64251723376029,0.065973446,-0.109650314,0.031154128,266.27808,-70.68274,4.830229,STD
339519948000,0.850031,1.4269443,9.6691898999695,1.66240104730101,0.06261369,-0.106901415,0.03176499,266.49014,-70.77132,4.866035,STD
339524877000,0.85496,1.42274827996379,9.66977761436331,1.68293451804466,0.076358154,-0.10293079,0.03390302,266.6953,-70.8617,4.904597,STD
339529856000,0.859939,1.4083598613961,9.66018520177027,1.70691504872259,0.0720821,-0.09437868,0.038179077,266.8961,-70.94475,4.9429727,STD
339534857000,0.86494,1.38901949206554,9.64948067415317,1.72645212047128,0.07147124,-0.086437434,0.03726278,267.0917,-71.02986,4.9766,STD
339539859000,0.869942,1.35815410408689,9.63625281516937,1.73527081590574,0.07727446,-0.0888809,0.035430185,267.28546,-71.11409,5.0111246,STD
339544970000,0.875053,1.32940348850296,9.6229183131836,1.74356970383235,0.07391469,-0.08857546,0.041233405,267.46948,-71.19281,5.0370374,STD
339549923000,0.880006,1.31752224351674,9.61103723361443,1.74753011882775,0.07544186,-0.08368854,0.0421497,267.65155,-71.2738,5.0611067,STD
339554852000,0.884935,1.30569856967521,9.59921372438841,1.7514713434416,0.06811147,-0.08307768,0.046120327,267.83173,-71.34585,5.088237,STD
339559855000,0.889938,1.29917857927035,9.59269371103835,1.75909004145931,0.06841691,-0.07574729,0.04795292,268.00693,-71.419556,5.1139517,STD
339564869000,0.894952,1.29468671068288,9.58820174864359,1.76807377863424,0.067500606,-0.065973446,0.03726278,268.1802,-71.49072,5.1369796,STD
339569963000,0.900046,1.2867461286504,9.59556813120567,1.7717092,0.0693332,-0.07238753,0.050396383,268.34692,-71.55995,5.171237,STD
339574945000,0.905028,1.2767937159053,9.61049646453901,1.7717092,0.06841691,-0.061391957,0.051618114,268.50653,-71.62909,5.1967626,STD
339579911000,0.909994,1.2737153,9.62161701843775,1.78146355790048,0.074830994,-0.06414085,0.044593163,268.67334,-71.692566,5.2292542,STD
339584916000,0.914999,1.2737153,9.63111996946868,1.79571773637986,0.064446285,-0.06872234,0.048563786,268.83493,-71.749565,5.2637677,STD
339589993000,0.920076,1.25923746165547,9.64005895392642,1.78885739908914,0.073303826,-0.06536258,0.047036625,268.99564,-71.813705,5.295617,STD
339594916000,0.924999,1.23839089886806,9.64839731782809,1.77218010532366,0.07269296,-0.06566802,0.052534413,269.15604,-71.870964,5.330567,STD
339599897000,0.92998,1.21665611361735,9.64975104041461,1.77130760554393,0.06872234,-0.064751714,0.053450707,269.31204,-71.9275,5.365568,STD
339604855000,0.934938,1.1940801463294,9.64072093638265,1.79388361997908,0.06963864,-0.070249505,0.05131268,269.46814,-71.98445,5.40106,STD
339609875000,0.939958,1.17265847198542,9.6355902311647,1.81927192486446,0.0842994,-0.0711658,0.05131268,269.62387,-72.04625,5.4374065,STD
339615112000,0.945195,1.15390587055524,9.64027846719013,1.85208889169938,0.076358154,-0.06811147,0.05375614,269.77847,-72.10158,5.4731126,STD
339619886000,0.949969,1.13831906206897,9.64450541379311,1.87639363103448,0.07544186,-0.07269296,0.046731193,269.93243,-72.158424,5.504982,STD
339624894000,0.954977,1.12994531883021,9.64869193566128,1.8722067594151,0.06658431,-0.070249505,0.045814894,270.08142,-72.209785,5.537484,STD
339629857000,0.95994,1.12164681889131,9.65284083902226,1.86805750944566,0.06566802,-0.07544186,0.04886922,270.2342,-72.254425,5.5672603,STD
339634864000,0.964947,1.11287753228332,9.6343988307083,1.83704182913328,0.06719518,-0.069027774,0.048563786,270.38187,-72.29769,5.5939593,STD
339639928000,0.970011,1.10394377246016,9.61206443115041,1.80130678984066,0.06047566,-0.06566802,0.038789943,270.53082,-72.339066,5.6188283,STD
339644910000,0.974993,1.1013328,9.605537,1.78149821170886,0.06169739,-0.064446285,0.04184427,270.67056,-72.38801,5.644752,STD
339649881000,0.979964,1.1013328,9.605537,1.76820527467424,0.055588737,-0.06261369,0.04153884,270.80893,-72.434105,5.66618,STD
339654872000,0.984955,1.0988985512382,9.60310295458368,1.74509265866741,0.048258353,-0.063224554,0.039095376,270.9533,-72.48267,5.686354,STD
339659856000,0.989939,1.09443814835997,9.59864292430614,1.71386983851976,0.049480084,-0.058948494,0.04184427,271.09406,-72.53123,5.7068033,STD
339664909000,0.994992,1.091756,9.60169751354764,1.70274359122074,0.043982297,-0.058643065,0.043676864,271.23523,-72.57783,5.731534,STD
339669913000,0.999996,1.091756,9.61565933932213,1.72135961810236,0.036651913,-0.05589417,0.03573562,271.37384,-72.624695,5.75309,STD
339674865000,1.004948,1.08352166128547,9.62139719572847,1.73175513225709,0.048258353,-0.0571159,0.034513887,271.51587,-72.67727,5.7817636,STD
339679898000,1.009981,1.05935639787426,9.61173088849895,1.72692207957485,0.051618114,-0.0580322,0.029932396,271.65674,-72.72651,5.806273,STD
339684853000,1.014936,1.03753506855995,9.60236864180532,1.73333058888889,0.04520403,-0.07452556,0.03573562,271.79822,-72.7735,5.8318243,STD
339689893000,1.019976,1.01907371916236,9.59313828035953,1.76102258888889,0.054367006,-0.07147124,0.036651913,271.93408,-72.826195,5.8526177,STD
339694876000,1.024959,1.00196192397599,9.58878577544301,1.7812861,0.053450707,-0.07819075,0.03726278,272.07593,-72.87422,5.875821,STD
339699944000,1.030027,0.987862411319841,9.59818515609567,1.7812861,0.058643065,-0.079107046,0.03359759,272.21442,-72.926414,5.896623,STD
339704869000,1.034952,0.978979092542531,9.60839678311194,1.78271596169502,0.053145275,-0.087964594,0.0290161,272.35126,-72.970055,5.920609,STD
339709901000,1.039984,0.990209681589373,9.6233712145576,1.79020302105958,0.05681047,-0.09437868,0.032986723,272.48618,-73.016914,5.9449205,STD
339715131000,1.045214,1.00188217378234,9.63893486250291,1.79798468252156,0.06383542,-0.101098195,0.03359759,272.62354,-73.0649,5.965332,STD
339719889000,1.049972,0.994212795194508,9.65235881006865,1.82314350961098,0.0580322,-0.10048734,0.03604105,272.75897,-73.10974,5.9864116,STD
339724881000,1.054964,0.975979619908467,9.66603350114416,1.85960986018307,0.06658431,-0.10445796,0.036957346,272.89642,-73.16022,6.0072465,STD
339729894000,1.059977,0.952510266425499,9.66765915623778,1.88934347842198,0.06352998,-0.109650314,0.042760566,273.0277,-73.2069,6.031014,STD
339734890000,1.064973,0.924442769687133,9.65830313511928,1.91273309160149,0.06383542,-0.119729586,0.052534413,273.15997,-73.25594,6.0559087,STD
339739936000,1.070019,0.899170764054226,9.64704555918479,1.92706337652625,0.069027774,-0.11881329,0.052534413,273.2865,-73.30054,6.076186,STD
339746014000,1.076097,0.872690979077427,9.6311579293058,1.93235932688563,0.06780604,-0.12522738,0.04550946,273.41653,-73.34315,6.097579,STD
339749887000,1.07997,0.855536872203293,9.61959044865328,1.93196471101171,0.057726767,-0.12889257,0.055283304,273.53934,-73.380135,6.120547,STD
339754844000,1.084927,0.8329461054497,9.60151794470353,1.92292841185876,0.06383542,-0.13255776,0.05681047,273.66403,-73.4227,6.138898,STD
339759865000,1.089948,0.812588689326881,9.5907036293096,1.9110417782079,0.054367006,-0.13194689,0.0571159,273.77847,-73.46285,6.156306,STD
339765091000,1.095174,0.803939535145598,9.61665119571416,1.88509425696017,0.046731193,-0.12980886,0.05497787,273.89264,-73.50501,6.1727176,STD
339769863000,1.099946,0.796041761752355,9.64034461073188,1.86140088317636,0.05497787,-0.12461651,0.042760566,274.01157,-73.547295,6.1837626,STD
339774920000,1.105003,0.803599736975089,9.68310638078292,1.823001413879,0.043676864,-0.14080444,0.030848695,274.13492,-73.582664,6.1949463,STD
339780328000,1.110411,0.81503510192517,9.73087478435374,1.78078282763605,0.050396383,-0.14874569,0.0290161,274.2537,-73.625206,6.2038646,STD
339784890000,1.114973,0.837325608054422,9.74945019319728,1.76963754353742,0.047647487,-0.14294247,0.02321288,274.3796,-73.66855,6.2084193,STD
339792155000,1.122238,0.872462407255303,9.77694699934872,1.75377185970413,0.0693332,-0.14782938,0.020158553,274.51297,-73.7293,6.215754,STD
339794960000,1.125043,0.882459789493859,9.76694968496465,1.7662685940268,0.06261369,-0.13897185,0.021380283,274.63995,-73.78162,6.220685,STD
339799925000,1.130008,0.900155690675475,9.7492539038891,1.78838848205247,0.07391469,-0.15027285,0.028710667,274.7661,-73.85241,6.230219,STD
339804897000,1.13498,0.914239634371227,9.72406248879566,1.81376863007265,0.0842994,-0.15424347,0.025045475,274.88766,-73.92141,6.23535,STD
339809886000,1.139969,0.924017313743989,9.68984038892868,1.84310168350558,0.080634214,-0.14630222,0.025045475,275.00732,-73.98755,6.242902,STD
339815186000,1.145269,0.924355435676235,9.65879050185329,1.8716849741574,0.08124508,-0.1469131,0.029321533,275.12744,-74.04845,6.2572703,STD
339819958000,1.150041,0.91647672423067,9.63515427290751,1.8953211619688,0.082161374,-0.16523905,0.027488936,275.24985,-74.108444,6.269895,STD
339824820000,1.154903,0.90979666,9.61762250588487,1.90616372843997,0.07452556,-0.15699236,0.027183503,275.36307,-74.153404,6.2893753,STD
339829906000,1.159989,0.90979666,9.63325762957415,1.84883608437834,0.0720821,-0.15699236,0.021685716,275.48322,-74.200516,6.3077607,STD
339834843000,1.164926,0.908434411295732,9.64929396636814,1.81274099740854,0.0693332,-0.15393804,0.017104227,275.59406,-74.24158,6.3202305,STD
339839920000,1.170003,0.903802035762195,9.66782337176067,1.82200574847561,0.06872234,-0.13683382,0.014966198,275.70026,-74.28278,6.3300996,STD
339844920000,1.175003,0.905277132618743,9.680129048284,1.82006699682368,0.05955936,-0.14569137,0.009773844,275.8248,-74.32623,6.340031,STD
339849882000,1.179965,0.92864229717573,9.67078278532796,1.77800964304258,0.061086524,-0.15454891,0.003970624,275.9438,-74.37243,6.34735,STD
339854877000,1.18496,0.951538512939463,9.6690086881631,1.74040280615769,0.049480084,-0.14538592,-0.0027488936,276.05933,-74.41229,6.352922,STD
339859901000,1.189984,0.971556780465987,9.70404081963803,1.72538912510922,0.050396383,-0.15302174,-0.005192355,276.1811,-74.45589,6.359283,STD
339864903000,1.194986,0.993820315736965,9.72791904016657,1.71636531562419,0.043982297,-0.16646078,-0.007941248,276.3047,-74.501945,6.3639402,STD
339869982000,1.200065,1.02335831159885,9.71947944911946,1.72480473042422,0.048563786,-0.172264,-0.009468411,276.42737,-74.550964,6.36781,STD
339875338000,1.205421,1.05454589946947,9.71041182105926,1.73324527150436,0.047647487,-0.17654006,-0.008552114,276.55963,-74.5961,6.3731604,STD
339879910000,1.209993,1.08210600262566,9.69860051272368,1.72930811391062,0.06291912,-0.18142697,-0.0076358155,276.69257,-74.64664,6.3780913,STD
339884875000,1.214958,1.11203511727363,9.68577392788418,1.72503252610377,0.054367006,-0.17959438,-0.0143553335,276.82214,-74.687164,6.386065,STD
339890071000,1.220154,1.11670747340614,9.64814173957358,1.69359374778991,0.05009095,-0.18906279,-0.0143553335,276.9546,-74.73169,6.3966665,STD
339894866000,1.224949,1.11193152374415,9.60515829235569,1.65538610062403,0.05222898,-0.19272798,-0.0125227375,277.08398,-74.77611,6.40485,STD
339899852000,1.229935,1.1109096,9.60319889292872,1.65082979762382,0.057726767,-0.19486602,-0.009773844,277.21124,-74.82038,6.4174724,STD
339904821000,1.234904,1.1109096,9.61228098635366,1.65537103401088,0.05009095,-0.1853976,-0.0070249503,277.33496,-74.86143,6.429442,STD
339909922000,1.240005,1.09486240445451,9.6279516894111,1.64074037094186,0.053450707,-0.17562376,-0.008857546,277.45926,-74.91376,6.437265,STD
339914993000,1.245076,1.07194623193658,9.64628453171008,1.61782415056625,0.050701816,-0.16920967,-0.013133603,277.58072,-74.96216,6.4442315,STD
339919958000,1.250041,1.06864707165146,9.66466417809832,1.61171423582573,0.055283304,-0.160963,-0.009773844,277.695,-75.01328,6.452239,STD
339924928000,1.255011,1.07798799913649,9.68334642321656,1.61638469956825,0.044593163,-0.15943582,-0.01038471,277.809,-75.0603,6.4575906,STD
339929904000,1.259987,1.0821792,9.68635484203535,1.60504518566466,0.03726278,-0.15149458,-0.018936822,277.93256,-75.107796,6.4566755,STD
339934922000,1.265005,1.0821792,9.67653418483703,1.5804940553898,0.03756821,-0.15393804,-0.02107485,278.05704,-75.15353,6.4577026,STD
339939915000,1.269998,1.08481135769017,9.66731057468073,1.57586061538034,0.04428773,-0.14813483,-0.022296581,278.1722,-75.20251,6.4555254,STD
339944978000,1.275061,1.08929843324079,9.65833623616509,1.58483476648158,0.03940081,-0.13897185,-0.02321288,278.2862,-75.24844,6.4526644,STD
339949970000,1.280053,1.10725792105044,9.6556356063985,1.59196446015006,0.046120327,-0.129198,-0.02321288,278.40164,-75.30229,6.443964,STD
339954869000,1.284952,1.14148230646103,9.66052490641934,1.59685365806586,0.04520403,-0.12614368,-0.02565634,278.51556,-75.35287,6.4343233,STD
339959881000,1.289964,1.18607944549386,9.66089904497492,1.59512887761633,0.04428773,-0.1255328,-0.029932396,278.62683,-75.400665,6.4266286,STD
339965079000,1.295162,1.2420509628092,9.65659345372773,1.58651787495243,0.04886922,-0.12644911,-0.024129177,278.7362,-75.448235,6.4210668,STD
339969842000,1.299925,1.28660133372222,9.65259374,1.58265508733333,0.057726767,-0.115453534,-0.020158553,278.84564,-75.48919,6.421857,STD
339974918000,1.305001,1.30460581172222,9.64809302,1.59615837533333,0.064751714,-0.1142318,-0.026267206,278.9573,-75.531204,6.421943,STD
339980162000,1.310245,1.32113125600518,9.64197238491421,1.60796721201036,0.06352998,-0.12217305,-0.0143553335,279.06512,-75.56889,6.433407,STD
339984914000,1.314997,1.3162203944966,9.62232852865005,1.5981454889932,0.067500606,-0.11789699,-0.018020526,279.1696,-75.61212,6.4377217,STD
339989889000,1.319972,1.30993845588749,9.60623172437629,1.5897499,0.06780604,-0.11759156,-0.004581489,279.26605,-75.65264,6.447255,STD
339994962000,1.325045,1.29835810201812,9.61009189607501,1.5897499,0.07391469,-0.118507855,-0.0061086523,279.362,-75.69754,6.4512706,STD
339999835000,1.329918,1.28723429669474,9.61379988280629,1.5897499,0.077579886,-0.118202426,-0.0106901415,279.45837,-75.73889,6.4605594,STD
340004914000,1.334997,1.27010056798849,9.61841193548387,1.57985630016437,0.07238753,-0.11911872,-0.0061086523,279.55396,-75.778076,6.471784,STD
340009925000,1.340008,1.25038032162523,9.62334211290323,1.56506607678241,0.07788532,-0.1151481,-0.004886922,279.64774,-75.82147,6.4801784,STD
340014909000,1.344992,1.24201102991835,9.62766493218737,1.56994111024495,0.0729984,-0.12034045,-0.008552114,279.7414,-75.8641,6.4849668,STD
340019920000,1.350003,1.23788646225183,9.63178958599055,1.58231481324452,0.07086037,-0.12980886,-0.0067195175,279.83392,-75.90734,6.491462,STD
340024943000,1.355026,1.23735835522267,9.65377055222672,1.59170015522267,0.07574729,-0.13133603,-0.010079277,279.92984,-75.95418,6.4914656,STD
340029908000,1.359991,1.24217098801619,9.70189688016194,1.59651278801619,0.07696902,-0.12522738,-0.012217305,280.0252,-75.99863,6.492335,STD
340034899000,1.364982,1.24866543716179,9.74475807178355,1.58828510773054,0.073303826,-0.122783914,-0.017715093,280.12125,-76.040535,6.492255,STD
340039881000,1.369964,1.25744725523652,9.7798851606847,1.56193969935579,0.074830994,-0.11789699,-0.020158553,280.21396,-76.08347,6.4918294,STD
340044882000,1.374965,1.27008331150835,9.80665,1.53829909571399,0.06719518,-0.10598512,-0.020158553,280.3049,-76.123184,6.490727,STD
340049972000,1.380055,1.29519458999588,9.80665,1.52323225520297,0.063224554,-0.102319926,-0.020158553,280.3961,-76.16406,6.489112,STD
340054858000,1.384941,1.31793296820084,9.80517237709205,1.5131354,0.05955936,-0.092240654,-0.024129177,280.488,-76.206184,6.488448,STD
340059885000,1.389968,1.33807630443515,9.80013643786611,1.5131354,0.06414085,-0.0842994,-0.022602014,280.57828,-76.24821,6.4890137,STD
340065000000,1.395083,1.3503298,9.797073,1.49960290368008,0.05497787,-0.080634214,-0.019242255,280.66998,-76.28423,6.491898,STD
340071273000,1.401356,1.3503298,9.797073,1.45833438184495,0.05131268,-0.079107046,-0.013133603,280.75897,-76.32179,6.495391,STD
340074881000,1.404964,1.3503298,9.7825134843448,1.44448015539235,0.046120327,-0.06688975,-0.015577064,280.84747,-76.35266,6.496968,STD
340079928000,1.410011,1.3503298,9.74047579812524,1.43980924175686,0.039095376,-0.06688975,-0.009773844,280.9372,-76.38006,6.50291,STD
340084820000,1.414903,1.34595286162642,9.70541082703302,1.43214405020053,0.024740042,-0.06291912,-0.017104227,281.02927,-76.40904,6.5040174,STD
340089889000,1.419972,1.32938325698438,9.68469882123048,1.41557440230395,0.022602014,-0.063224554,-0.023823744,281.1212,-76.438354,6.506887,STD
340095315000,1.425398,1.31142084374385,9.66227589148727,1.39797299800022,0.012217305,-0.05589417,-0.016798794,281.2025,-76.462845,6.5153027,STD
340099868000,1.429951,1.28759652866353,9.63368667358759,1.38844329186974,0.005497787,-0.052534413,-0.024129177,281.2855,-76.490456,6.517945,STD
340104856000,1.434939,1.26461691369077,9.60601542368187,1.37810327761401,0.014660766,-0.05375614,-0.018936822,281.36853,-76.51839,6.5269423,STD
340109860000,1.439943,1.26935747232169,9.61075608131368,1.36862220985261,0.017715093,-0.05375614,-0.021380283,281.45032,-76.5451,6.531318,STD
340114924000,1.445007,1.2737153,9.61844477571417,1.35879633885234,0.017104227,-0.051618114,-0.023518313,281.53082,-76.57451,6.535553,STD
340119904000,1.449987,1.2737153,9.65419318747397,1.34688017394853,0.017715093,-0.046120327,-0.0076358155,281.60873,-76.60259,6.543702,STD
340124885000,1.454968,1.2737153,9.68994877762971,1.33496161624053,0.014049901,-0.04642576,-0.018936822,281.69086,-76.63421,6.543185,STD
340129859000,1.459942,1.26404249436228,9.69808100079405,1.33762473709181,0.023823744,-0.043982297,-0.022602014,281.76855,-76.66582,6.5485406,STD
340134852000,1.464935,1.24980419290323,9.69333529677419,1.34711693806452,0.028710667,-0.046120327,-0.018020526,281.84708,-76.69551,6.5532026,STD
340140085000,1.470168,1.2322696658235,9.68537125014053,1.35350860854413,0.021685716,-0.042760566,-0.014049901,281.92593,-76.7282,6.557007,STD
340144936000,1.475019,1.21486023850478,9.67666635469365,1.35786096537381,0.01740966,-0.038789943,-0.008857546,282.00418,-76.76157,6.5623584,STD
340149881000,1.479964,1.1935232698897,9.68046753169776,1.37569191063808,0.023518313,-0.03604105,-0.01985312,282.08176,-76.79613,6.5618477,STD
340154891000,1.484974,1.1687939284816,9.69530489897949,1.40536710999897,0.026267206,-0.025350908,-0.01038471,282.1538,-76.82487,6.5676937,STD
340159856000,1.489939,1.14855582053287,9.70642399663545,1.40968913867418,0.014049901,-0.02443461,-0.0076358155,282.23077,-76.84997,6.572817,STD
340165125000,1.495208,1.13020166605438,9.71560126552696,1.39592347490225,0.015577064,-0.018936822,-0.018325957,282.30298,-76.87955,6.575647,STD
340169904000,1.499987,1.11657027300935,9.7341655262509,1.36905636504675,0.005497787,-0.011301007,-0.015882496,282.36658,-76.90309,6.574102,STD
340174882000,1.504965,1.10677405182369,9.76845250498305,1.32007525911846,0.0125227375,-0.004276057,-0.021685716,282.42932,-76.93372,6.5670567,STD
340179859000,1.509942,1.10342379611095,9.79586094077584,1.28659598983319,-0.0021380284,0.00580322,-0.017715093,282.49347,-76.95559,6.5618577,STD
340184852000,1.514935,1.10814366210641,9.81474030618893,1.27243634256243,-0.008857546,0.0009162979,-0.020463986,282.56003,-76.982704,6.5537405,STD
340190152000,1.520235,1.11318837349905,9.83491904640674,1.26641727349905,-0.0036651916,0.011301007,-0.014049901,282.61932,-77.02036,6.5452514,STD
340194930000,1.525013,1.1177747171294,9.85326432514784,1.2710036171294,-0.004581489,0.01282817,-0.013133603,282.68246,-77.05554,6.535444,STD
340199871000,1.529954,1.1204864,9.86201057172471,1.26741414676617,0.0070249503,0.02107485,-0.019242255,282.74915,-77.091995,6.5262375,STD
340204868000,1.534951,1.1204864,9.85705034483831,1.25253377686567,-0.0012217305,0.015271631,-0.014660766,282.81808,-77.12126,6.521057,STD
340209890000,1.539973,1.1204864,9.85222359171598,1.25884708433408,0.015271631,0.016187929,-0.010995574,282.8764,-77.163925,6.5139093,STD
340215161000,1.545244,1.1204864,9.84732686390533,1.2882268887671,0.021685716,0.023518313,-0.005497787,282.93375,-77.200584,6.508604,STD
340219876000,1.549959,1.12856915943838,9.83889501482059,1.30850786957878,0.022296581,0.022907447,-0.00061086525,282.9959,-77.239365,6.504608,STD
340224879000,1.554962,1.14725587176287,9.82488017570203,1.32252290382215,0.024129177,0.016187929,-0.008857546,283.05768,-77.28047,6.498379,STD
340229847000,1.55993,1.15327935877426,9.81071283554648,1.32933811959142,0.02565634,0.021991149,-0.003970624,283.1076,-77.316185,6.497849,STD
340234852000,1.564935,1.13859134529111,9.79602502655771,1.32444211509704,0.02443461,0.021685716,-0.0070249503,283.16168,-77.35341,6.493453,STD
340239873000,1.569956,1.12638950234878,9.78198633844201,1.33262047377347,0.026572637,0.032070424,0.005497787,283.20187,-77.38632,6.501599,STD
340244918000,1.575001,1.11762647414528,9.76884152162873,1.35890951263263,0.025961773,0.03634648,0.0009162979,283.24472,-77.42058,6.5041656,STD
340249815000,1.579898,1.10264646544503,9.75773308795811,1.37802722031414,0.027488936,0.04642576,0.0033597588,283.28064,-77.45472,6.5095387,STD
340254847000,1.58493,1.06227744303665,9.75268686136126,1.37298115179058,0.017715093,0.04795292,0.0021380284,283.31805,-77.486465,6.5126143,STD
340259814000,1.589897,1.03692662088249,9.7452417942406,1.37079913983279,0.018936822,0.055588737,0.004276057,283.3464,-77.51765,6.5100994,STD
340264947000,1.59503,1.04605954629819,9.73154266836972,1.37536553101719,0.027183503,0.06566802,0.0027488936,283.37378,-77.54828,6.50605,STD
340269871000,1.599954,1.05268229810028,9.72505802740579,1.37982660990346,0.01740966,0.06994407,-0.0012217305,283.40326,-77.57793,6.4932265,STD
340274858000,1.604941,1.04772439281636,9.75480556264923,1.38478456695733,0.01863139,0.06291912,0.0009162979,283.43277,-77.61082,6.482112,STD
340279868000,1.609951,1.04073016384045,9.77373092157241,1.39282611123422,0.014660766,0.06169739,-0.007941248,283.45898,-77.63889,6.4707613,STD
340284844000,1.614927,1.02695591121495,9.75536541121495,1.41119176542056,0.01282817,0.059864793,-0.00030543262,283.48627,-77.664406,6.465264,STD
340289962000,1.620045,1.01655769345859,9.74102914909534,1.4269443,0.014660766,0.06780604,-0.0070249503,283.51022,-77.69509,6.4518876,STD
340294897000,1.62498,1.0247799460682,9.74925114413709,1.4269443,0.0106901415,0.052839845,-0.0076358155,283.5404,-77.72127,6.4438944,STD
340299830000,1.629913,1.0329988664579,9.75746980706333,1.4269443,0.009773844,0.04734206,-0.0070249503,283.5691,-77.74376,6.428246,STD
340304859000,1.634942,1.0342951,9.78123763854646,1.4269443,0.01038471,0.04886922,-0.0012217305,283.59955,-77.764595,6.414755,STD
340309822000,1.639905,1.0342951,9.80747305188592,1.4269443,0.004886922,0.040011674,-0.0015271631,283.63458,-77.7842,6.400942,STD
340315162000,1.645245,1.02712782093448,9.81981071437278,1.4269443,0.003970624,0.03604105,-0.00030543262,283.66565,-77.80557,6.3861685,STD
340319894000,1.649977,1.01792164163535,9.82441390015236,1.4269443,-0.0015271631,0.028099801,0.0033597588,283.69995,-77.82383,6.3731084,STD
340324940000,1.655023,0.986395186135892,9.80424420363071,1.43413087377593,-0.003970624,0.03145956,0.00030543262,283.7331,-77.84456,6.3564506,STD
340329862000,1.659945,0.94727731031639,9.77490571379668,1.44391033634855,0.004581489,0.042760566,0.0067195175,283.7652,-77.86439,6.343922,STD
340334837000,1.66492,0.926652035671761,9.76537418364407,1.44016039128591,0.007330383,0.040317107,0.007330383,283.80096,-77.88316,6.3316464,STD
340339974000,1.670057,0.91090553370889,9.76143747491398,1.43228713824918,0.00580322,0.043066,0.00061086525,283.83185,-77.902824,6.318572,STD
340344894000,1.674977,0.898737120721226,9.76617969639387,1.42990977855755,-0.0015271631,0.041233405,0.0030543262,283.85742,-77.92487,6.303172,STD
340349867000,1.67995,0.893595096709134,9.79188981645433,1.44019382658173,0.009468411,0.050396383,0.005497787,283.87933,-77.95153,6.2856975,STD
340354834000,1.684917,0.89064306,9.80465053143535,1.4381001510083,0.008552114,0.053145275,0.004886922,283.9035,-77.97776,6.263435,STD
340359888000,1.689971,0.89064306,9.79986581830763,1.41896159826018,0.0143553335,0.052839845,0.005497787,283.92566,-78.00711,6.242551,STD
340364862000,1.694945,0.885441302146883,9.79187132543161,1.41472619886394,0.009773844,0.047036625,0.004886922,283.94125,-78.038086,6.2207775,STD
340369876000,1.699959,0.872555129283478,9.7789853588872,1.43190781650416,0.013439035,0.043676864,0.0015271631,283.95642,-78.07195,6.1989455,STD
340374846000,1.704929,0.855875207792504,9.76920550222705,1.44868534363933,0.007330383,0.045814894,0.008246681,283.97934,-78.098465,6.1807656,STD
340379903000,1.709986,0.819046387052689,9.77446686985334,1.46446906195546,0.017104227,0.040317107,0.007941248,284.00583,-78.13064,6.160811,STD
340384818000,1.714901,0.799325489503057,9.77940353799864,1.48076222806949,0.020463986,0.03176499,0.013439035,284.028,-78.15636,6.142782,STD
340390253000,1.720336,0.814481237309521,9.78445556119577,1.500969898845,0.0125227375,0.022907447,0.0067195175,284.0525,-78.182945,6.1220765,STD
340394836000,1.724919,0.819939257090714,9.78383081925248,1.51557946945688,0.00580322,0.010079277,-0.0009162979,284.08524,-78.20703,6.0957727,STD
340399985000,1.730068,0.80554050508468,9.76943176153397,1.52517864080202,0.00580322,0.01282817,0.0021380284,284.11563,-78.22979,6.0709968,STD
340404867000,1.73495,0.789722825454362,9.75258341406407,1.53331944892202,0.007941248,0.011911872,0.00030543262,284.1535,-78.24565,6.046277,STD
340409899000,1.739982,0.765447927183155,9.72345347733226,1.53817452286923,0.008857546,0.007330383,-0.00030543262,284.19107,-78.26046,6.0234704,STD
340414989000,1.745072,0.750916983619557,9.69639740444336,1.53892142216817,0.008857546,0.004581489,-0.009162978,284.22546,-78.278175,5.9942837,STD
340419967000,1.75005,0.766379043950377,9.67706986434769,1.52732481738425,0.0125227375,0.005497787,-0.0143553335,284.2596,-78.29635,5.966765,STD
340424904000,1.754987,0.781713755049866,9.65790151050028,1.51582372501419,-0.002443461,0.0067195175,-0.011911872,284.29413,-78.309395,5.937974,STD
340429901000,1.759984,0.781737112708273,9.65698214281568,1.51669646844702,0.004581489,0.0036651916,-0.019547688,284.33002,-78.33071,5.905922,STD
340434853000,1.764936,0.777148417493953,9.66157094823416,1.5212851780358,-0.0021380284,0.01038471,-0.018325957,284.3619,-78.34313,5.877344,STD
340440137000,1.77022,0.778904870379117,9.66618154683477,1.53226267429637,0.0015271631,0.0033597588,-0.016493361,284.39587,-78.36403,5.8466516,STD
340444945000,1.775028,0.782993044947172,9.67026981958626,1.54452727910859,-0.0009162979,0.01160644,-0.017715093,284.4234,-78.38169,5.81531,STD
340449913000,1.779996,0.796545360728484,9.67482448371319,1.5514427,0.0036651916,0.011911872,-0.02076942,284.45673,-78.400604,5.782592,STD
340454852000,1.784935,0.821157622584036,9.67974703579977,1.5514427,0.009468411,0.003970624,-0.02321288,284.48978,-78.41901,5.750703,STD
340459879000,1.789962,0.841882028045178,9.69520178748914,1.54926776569939,0.0018325958,0.004886922,-0.016493361,284.51776,-78.43178,5.721708,STD
340465460000,1.795543,0.860456527019983,9.72306363292789,1.54462418944396,0.00580322,-0.004276057,-0.017104227,284.55103,-78.44998,5.691799,STD
340469828000,1.799911,0.867304145631874,9.74484456796016,1.5387270373729,0.0070249503,-0.0070249503,-0.01038471,284.57507,-78.46612,5.667936,STD
340474966000,1.805049,0.846882648059763,9.7703714399253,1.52341080757419,0.01740966,-0.0067195175,-0.005192355,284.60074,-78.485504,5.6445765,STD
340479855000,1.809938,0.82946423405905,9.78625765386341,1.50817811898053,0.014049901,-0.014660766,-0.0009162979,284.63116,-78.49979,5.626787,STD
340484844000,1.814927,0.81660089697209,9.78196979125909,1.49102702674325,0.014049901,-0.01863139,-0.009773844,284.64604015087,-78.5064243085106,5.61890138852998,STD
340490195000,1.820278,0.80445176,9.77913718219791,1.4748282,0.0009162979,-0.02565634,0.0009162979,284.662,-78.51354,5.6104436,STD
340494901000,1.824984,0.80445176,9.78810128145201,1.4748282,0.007330383,-0.037873644,-0.0009162979,284.69995,-78.53389,5.5927415,STD
340499936000,1.830019,0.803487952506193,9.79675175722543,1.47547073922378,0.0076358155,-0.03176499,-0.0061086523,284.74008,-78.5522,5.571485,STD
340504855000,1.834938,0.788900355392238,9.79188962427746,1.48519581750619,0.0015271631,-0.039095376,-0.0018325958,284.78668,-78.56927,5.5541935,STD
340509855000,1.839938,0.778818731956664,9.787497,1.49127163858067,0.008246681,-0.036651913,-0.005192355,284.83014,-78.58913,5.540442,STD
340514906000,1.844989,0.806956544390315,9.787497,1.46665108942776,0.007330383,-0.03940081,-0.014049901,284.8767,-78.6057,5.5271683,STD
340519917000,1.85,0.834871527186796,9.787497,1.44222551591653,0.0061086523,-0.039095376,-0.0070249503,284.92365,-78.6189,5.515251,STD
340524841000,1.854924,0.859525444160722,9.7910917038397,1.43233650590642,0.003970624,-0.03756821,-0.0070249503,284.97125,-78.63385,5.499297,STD
340529848000,1.859931,0.879647606437264,9.80115245404952,1.44742805144775,0.010995574,-0.03848451,-0.002443461,285.0184,-78.649216,5.4870243,STD
340534857000,1.86494,0.894769316544403,9.80252387271349,1.45361149327078,0.023518313,-0.03390302,0.00061086525,285.0697,-78.66556,5.478043,STD
340539875000,1.869958,0.903878667771775,9.79341480684295,1.44905686521657,0.021685716,-0.033292156,-0.006414085,285.12207,-78.680885,5.467879,STD
340544878000,1.874961,0.908177928192397,9.78264070316137,1.44933534671257,0.029932396,-0.038789943,-0.009468411,285.17004,-78.6991,5.4618945,STD
340549859000,1.879942,0.903552051466253,9.76876278316524,1.45858705186191,0.025350908,-0.042455133,-0.0030543262,285.21677,-78.71324,5.4565973,STD
340554853000,1.884936,0.898815648841381,9.75736175951611,1.47086824463448,0.022907447,-0.04184427,-0.0009162979,285.26105,-78.73196,5.4533796,STD
340559849000,1.889932,0.893826005208051,9.75237201168005,1.4908268191678,0.021991149,-0.049785517,0.0009162979,285.30807,-78.74897,5.4524035,STD
340564859000,1.894942,0.887357979354596,9.74590403255245,1.49370340608712,0.025350908,-0.062308256,-0.007330383,285.35043,-78.76889,5.44967,STD
340569893000,1.899976,0.878286615685389,9.7368329814658,1.46648944769028,0.023823744,-0.061391957,-0.014660766,285.39075,-78.78685,5.4473076,STD
340574815000,1.904898,0.8714894,9.72890929411765,1.44835125294118,0.026267206,-0.06047566,-0.0076358155,285.43234,-78.80223,5.4478507,STD
340579845000,1.909928,0.8714894,9.72398118056266,1.45820722276215,0.01038471,-0.061391957,-0.004581489,285.47437,-78.81415,5.4452233,STD
340584821000,1.914904,0.877674199200337,9.72169598438085,1.45906662017396,0.014660766,-0.05467244,-0.010995574,285.51648,-78.83651,5.4430532,STD
340589889000,1.919972,0.90037120307239,9.72623547521511,1.4363696874018,0.0125227375,-0.06414085,-0.004276057,285.5623,-78.85098,5.446076,STD
340594881000,1.924964,0.920526669163987,9.730036,1.41448444606913,0.009468411,-0.067500606,-0.006414085,285.6025,-78.866455,5.4487863,STD
340599869000,1.929952,0.928206585305466,9.730036,1.39528461561897,0.008552114,-0.06291912,-0.006414085,285.64233,-78.88067,5.453704,STD
340604825000,1.934908,0.935837231736334,9.730036,1.37620795970257,0.016798794,-0.06414085,-0.0070249503,285.68823,-78.89681,5.4649377,STD
340609841000,1.939924,0.954554312683447,9.73804951279863,1.3935242731058,0.01985312,-0.058337633,-0.0125227375,285.73065,-78.91214,5.473655,STD
340614890000,1.944973,0.979308564530717,9.7504264556314,1.43065561856655,0.02321288,-0.05589417,-0.006414085,285.77347,-78.92798,5.4851527,STD
340619892000,1.949975,1.00453386021565,9.758766,1.4599475726715,0.0143553335,-0.059253927,-0.0033597588,285.81802,-78.94669,5.492385,STD
340624896000,1.954979,1.03126135079011,9.758766,1.47331129470162,0.018325957,-0.06047566,-0.004581489,285.86087,-78.96894,5.499479,STD
340629857000,1.95994,1.05176374212362,9.75960854213453,1.48861762269705,0.033292156,-0.059253927,0.0015271631,285.89426,-78.983604,5.515469,STD
340634881000,1.964964,1.04127336942113,9.76485381063992,1.51484341752971,0.02443461,-0.064446285,-0.0009162979,285.93,-78.99469,5.528443,STD
340639861000,1.969944,1.03583802930068,9.76371432487459,1.52303152086161,0.03359759,-0.0693332,0.008246681,285.9616,-79.00598,5.553332,STD
340644891000,1.974974,1.0405760844792,9.74950050565555,1.49460348663323,0.029932396,-0.064751714,0.014049901,285.992,-79.01275,5.5755224,STD
340649897000,1.97998,1.03293225663256,9.74234784659845,1.46935833545575,0.038179077,-0.06627888,0.013439035,286.0204,-79.02204,5.6020336,STD
340654844000,1.984927,0.997020570873602,9.75132547508054,1.45140251601289,0.027794369,-0.06352998,0.021991149,286.04532,-79.02368,5.6312585,STD
340659846000,1.989929,0.968065192716222,9.75957370958392,1.43167483526882,0.024129177,-0.0729984,0.016493361,286.07782,-79.03448,5.6561913,STD
340664933000,1.995016,0.972620328910706,9.76412894090697,1.40434397053763,0.024740042,-0.07269296,0.01863139,286.10577,-79.04137,5.6840086,STD
340669932000,2.000015,0.975680988835799,9.76776633312783,1.37790679335183,0.021380283,-0.07574729,0.015271631,286.14285,-79.05296,5.7036743,STD
340674878000,2.004961,0.956212466589601,9.75803188142211,1.35843834733868,0.022602014,-0.06261369,0.0027488936,286.1753,-79.06685,5.719683,STD
340679899000,2.009982,0.94161156899146,9.74970309678731,1.34023891394876,0.030848695,-0.062002823,0.01282817,286.21838,-79.08022,5.7401996,STD
340684882000,2.014965,0.970721716973363,9.75455488521757,1.33538722684018,0.022907447,-0.059253927,0.005192355,286.25818,-79.094444,5.75082,STD
340690244000,2.020327,0.99845915288653,9.75958976816523,1.33199995096218,0.028710667,-0.05497787,0.012217305,286.29718,-79.1147,5.7669654,STD
340694989000,2.025072,1.00976686257465,9.76335908344393,1.33576918752488,0.021991149,-0.05131268,0.005497787,286.33627,-79.133026,5.7763586,STD
340699926000,2.030009,1.02153212342402,9.76728091896151,1.33969094114134,0.027794369,-0.049480084,0.005192355,286.37518,-79.15017,5.7955503,STD
340704888000,2.034971,1.03191632638399,9.7575461671159,1.33355501119635,0.019242255,-0.042455133,0.005192355,286.391691612317,-79.1564645512368,5.80468493872791,STD
340709831000,2.039914,1.04173145587808,9.74282375471698,1.3237399329463,0.023518313,-0.032070424,0.014049901,286.40814,-79.162735,5.8137846,STD
340714910000,2.044993,1.03702479184239,9.739613,1.32844657240886,0.019242255,-0.032375857,0.0027488936,286.44632,-79.1797,5.826233,STD
340719844000,2.049927,1.02858087156004,9.739613,1.33689044860615,0.019242255,-0.026267206,0.004581489,286.47577,-79.19163,5.84363,STD
340724937000,2.05502,1.04230508096266,9.739613,1.34954637517807,0.0125227375,-0.02687807,0.008857546,286.50595,-79.20404,5.858076,STD
340729958000,2.060041,1.0734416208828,9.739613,1.36511461804446,0.004581489,-0.029626964,-0.0021380284,286.53543,-79.21808,5.867986,STD
340734890000,2.064973,1.07615221421936,9.73659944417649,1.39057785023223,-0.0018325958,-0.0290161,0.0070249503,286.565,-79.22384,5.884328,STD
340740349000,2.070432,1.06681320900322,9.73192984405145,1.42326436848875,0.01282817,-0.025961773,0.015882496,286.59488,-79.23453,5.8970003,STD
340744890000,2.074973,1.05599110152567,9.7417601233165,1.43886584914773,0.0143553335,-0.021991149,0.0009162979,286.61584,-79.244286,5.9033866,STD
340749864000,2.079947,1.04095474767466,9.76682062584175,1.44387800198864,0.0009162979,-0.027794369,0.00030543262,286.63748,-79.25022,5.9161425,STD
340754855000,2.084938,1.0315535332683,9.78066162398603,1.45158100483623,-0.003970624,-0.023518313,0.013133603,286.65353,-79.2514,5.9317274,STD
340759860000,2.089943,1.02663188997844,9.78558337005853,1.46142424002464,0.0076358155,-0.024740042,0.0070249503,286.67346,-79.25656,5.941807,STD
340765139000,2.095222,1.03342839245952,9.77007681508095,1.47105810809532,0.0009162979,-0.0125227375,-0.00030543262,286.68585,-79.25879,5.946364,STD
340769874000,2.099957,1.04580231619065,9.7453289676187,1.47930736187011,-0.004276057,-0.015882496,-0.0027488936,286.70294,-79.264305,5.9510784,STD
340774870000,2.104953,1.0534488,9.72361757025685,1.47798670429527,-0.009773844,-0.00580322,0.0033597588,286.7153,-79.26473,5.95358,STD
340779861000,2.109944,1.0534488,9.70814202298726,1.46251148020721,-0.004276057,-0.0033597588,0.011911872,286.7306,-79.26665,5.956488,STD
340784852000,2.114935,1.06100500640045,9.69878647493628,1.4556746,-0.01038471,-0.0030543262,0.006414085,286.74344,-79.259964,5.9632745,STD
340790167000,2.12025,1.07542038221467,9.69398175106202,1.4556746,0.00061086525,0.010995574,0.0033597588,286.75098,-79.2572,5.9720564,STD
340794870000,2.124953,1.0800602862804,9.6938477367157,1.44931788096668,-0.009773844,0.017715093,-0.00030543262,286.76047,-79.25195,5.9790115,STD
340799877000,2.12996,1.07526182359652,9.69864579855899,1.43492254302011,-0.01282817,0.018020526,0.004886922,286.76743,-79.25021,5.987012,STD
340804859000,2.134942,1.05951912275869,9.701305,1.4269443,-0.01282817,0.018020526,-0.00061086525,286.7736,-79.24662,5.9940753,STD
340809862000,2.139945,1.02986092790674,9.701305,1.4269443,-0.0076358155,0.028099801,0.004886922,286.776,-79.24117,6.0049067,STD
340815163000,2.145246,1.01252390325897,9.69868762192047,1.42432670325897,-0.018020526,0.025350908,0.0018325958,286.7845,-79.2385,6.006338,STD
340819927000,2.15001,1.008098697129,9.69426278545102,1.419901497129,-0.020158553,0.0290161,0.005497787,286.78772,-79.237114,6.010395,STD
340824944000,2.155027,0.99472008972989,9.69606670822202,1.41953642205402,-0.011911872,0.03023783,-0.0015271631,286.79572,-79.238976,6.0077,STD
340829856000,2.159939,0.971448475205303,9.70537506243198,1.42419074495894,-0.009162978,0.03573562,-0.005497787,286.80103,-79.238075,6.006521,STD
340834852000,2.164935,0.961492815417579,9.70897590248548,1.43647456864108,-0.009162978,0.035124753,0.00061086525,286.802721475323,-79.2389340301982,6.00655489596914,STD
340840298000,2.170381,0.97142620324731,9.70400910484716,1.46130798635368,-0.009162978,0.03573562,-0.0012217305,286.804565305308,-79.239870435014,6.00659184501796,STD
340844890000,2.174973,0.978370629481365,9.7059140846973,1.47943718844409,-0.004886922,0.03604105,0.0033597588,286.80612,-79.24066,6.006623,STD
340849902000,2.179985,0.983103317471899,9.72011244517847,1.4936352524157,-0.003970624,0.046731193,0.00061086525,286.80737,-79.24553,6.0017133,STD
340854881000,2.184964,0.983479669722107,9.730036,1.50209288486105,-0.00030543262,0.051618114,0.009162978,286.8079,-79.24473,6.001657,STD
340859873000,2.189956,0.973565238863542,9.730036,1.49713566943177,-0.0027488936,0.05467244,0.0070249503,286.8065,-79.24485,5.99751,STD
340864879000,2.194962,0.962524269580483,9.72688045264674,1.50660374229384,-0.014660766,0.05467244,0.0009162979,286.7964,-79.24632,5.9912586,STD
340869952000,2.200035,0.94940313410605,9.71813286154123,1.54159342166907,-0.01282817,0.050701816,0.009773844,286.7861,-79.24823,5.9888773,STD
340874830000,2.204913,0.9358379148305,9.71222659601544,1.57194086793575,-0.0021380284,0.061391957,0.009773844,286.77112,-79.25517,5.9788475,STD
340879912000,2.209995,0.915531547919057,9.72237999415876,1.58209405404193,-0.003970624,0.061391957,0.013133603,286.7599,-79.25741,5.9731674,STD
340884859000,2.214942,0.892770488772175,9.73110021716165,1.58549312025115,-0.007330383,0.0571159,0.013133603,286.74072,-79.2602,5.960172,STD
340890163000,2.220246,0.857334197299183,9.7361626457046,1.56524382896153,-0.0030543262,0.05681047,0.012217305,286.7206,-79.26369,5.948144,STD
340894895000,2.224978,0.828201618799702,9.74160516882391,1.54745822713474,-0.013133603,0.052534413,0.018020526,286.70044,-79.264175,5.933881,STD
340899933000,2.230016,0.805737726152342,9.75059043877456,1.52948707736288,-0.0106901415,0.05497787,0.0143553335,286.67917,-79.26994,5.916977,STD
340904973000,2.235056,0.78529817,9.75838082518963,1.51583157138825,-0.0030543262,0.035430185,0.004276057,286.6732,-79.27633,5.900547,STD
340909900000,2.239983,0.78529817,9.75421907893808,1.54496323022579,0.00030543262,0.03268129,0.013439035,286.6612,-79.27956,5.8881645,STD
340916186000,2.246269,0.785917294833008,9.74980813808594,1.57924441226563,0.0033597588,0.030543262,0.013439035,286.6551,-79.29533,5.8667674,STD
340919972000,2.250055,0.792998885823242,9.75688988066406,1.56862202023438,-0.0018325958,0.020158553,0.009773844,286.6521,-79.30857,5.84798,STD
340924878000,2.254961,0.802175400719726,9.76606659199219,1.55485724070313,0.0076358155,0.013439035,0.004581489,286.64606,-79.31871,5.83368,STD
340929900000,2.259983,0.793851641722098,9.768343,1.53730915239019,0.0021380284,0.0036651916,-0.00030543262,286.64413,-79.3243,5.819419,STD
340934877000,2.26496,0.779986519864249,9.768343,1.51882224924852,0.00580322,-0.006414085,-0.005497787,286.64453,-79.33492,5.8043203,STD
340940295000,2.270378,0.7757214,9.79451320247062,1.50565824390881,0.005192355,-0.00061086525,0.0033597588,286.64343,-79.344475,5.790612,STD
340944980000,2.275063,0.7757214,9.82605614010244,1.49664602978809,0.01282817,-0.004886922,0.011301007,286.64838,-79.35748,5.776558,STD
340949916000,2.279999,0.782458827149084,9.82864342159485,1.50408795655275,0.013744468,-0.01863139,0.002443461,286.6577,-79.37389,5.757333,STD
340954847000,2.28493,0.791814572931154,9.81928746577514,1.51812159720654,0.004581489,-0.018936822,0.013439035,286.66327,-79.38498,5.745975,STD
340959882000,2.289965,0.798077215004886,9.81942931522376,1.50990320660543,0.0061086523,-0.026572637,0.013744468,286.68036,-79.40183,5.730773,STD
340964832000,2.294915,0.802709334459644,9.82406153625171,1.49137470943912,0.013744468,-0.030543262,0.015271631,286.69586,-79.41582,5.719184,STD
340969886000,2.299969,0.789177859778155,9.81053011891676,1.46913111891676,0.0143553335,-0.03604105,0.018936822,286.70947,-79.427505,5.7048626,STD
340974847000,2.30493,0.765439194677726,9.78679148356151,1.44539248356151,0.010995574,-0.044898596,0.016798794,286.72534,-79.44046,5.690061,STD
340979846000,2.309929,0.744795553820598,9.76320481727575,1.4306349576412,0.0106901415,-0.04062254,0.019547688,286.74118,-79.454765,5.6790204,STD
340984838000,2.314921,0.726109845163182,9.73984768145398,1.42129215209107,0.010995574,-0.043066,0.016798794,286.76166,-79.46935,5.6667986,STD
340989888000,2.319971,0.7043921739898,9.72448855374657,1.40904647543154,0.013133603,-0.038179077,0.020463986,286.77716,-79.489815,5.6559377,STD
340994925000,2.325008,0.680736651431934,9.71502614711652,1.3948531124951,0.017715093,-0.053450707,0.011301007,286.7997,-79.51292,5.641939,STD
340999925000,2.330008,0.659172636043128,9.71928505809693,1.40264180435465,0.012217305,-0.06169739,0.008552114,286.82233,-79.53254,5.627897,STD
341004856000,2.334939,0.63939946024809,9.73411522254789,1.42735822893332,0.022602014,-0.074830994,0.008552114,286.8508,-79.55766,5.613279,STD
341009858000,2.339941,0.634901041811068,9.74244458412521,1.44218464136389,0.024740042,-0.07819075,-0.002443461,286.8801,-79.58688,5.588537,STD
341014891000,2.344974,0.639391435272033,9.74693461654556,1.45116545641886,0.029932396,-0.08582657,-0.0018325958,286.91364,-79.616974,5.5683675,STD
341019898000,2.349981,0.658727423610398,9.74430875341621,1.4556746,0.03726278,-0.09987647,-0.0021380284,286.94543,-79.649254,5.545669,STD
341024889000,2.354972,0.693103788626323,9.73448725716634,1.4556746,0.036651913,-0.122478485,-0.009773844,286.98193,-79.681274,5.5223107,STD
341029856000,2.359939,0.716161399605504,9.74249883267584,1.45816716653517,0.039095376,-0.1255328,-0.009468411,287.02277,-79.708145,5.4976325,STD
341034880000,2.364963,0.730049740758203,9.76564606793034,1.46279661358607,0.046731193,-0.1386664,-0.0125227375,287.07303,-79.73743,5.4718933,STD
341039883000,2.369966,0.755032940029496,9.77792,1.47185845983679,0.051618114,-0.14752395,-0.018020526,287.12378,-79.76143,5.452321,STD
341044940000,2.375023,0.793125489849572,9.77792,1.48614315483237,0.051923547,-0.15118915,-0.020463986,287.1764,-79.78594,5.433479,STD
341049863000,2.379946,0.817842243604004,9.77219936707453,1.4939818,0.047647487,-0.15821409,-0.0061086523,287.23663,-79.80303,5.422052,STD
341054852000,2.384935,0.826700003147942,9.75891247803115,1.4939818,0.049785517,-0.16218472,-0.007941248,287.29727,-79.82454,5.405667,STD
341059859000,2.389942,0.827747527068424,9.74647175078468,1.48582979698682,0.04886922,-0.16401732,0.0015271631,287.35373,-79.83601,5.4010406,STD
341064886000,2.394969,0.807599960086838,9.7363982907512,1.45560847018205,0.034513887,-0.17806722,-0.004276057,287.4149,-79.84749,5.392297,STD
341069923000,2.400006,0.79487497,9.73540808877285,1.436521,0.026267206,-0.17592919,0.00061086525,287.47406,-79.85339,5.389133,STD
341074882000,2.404965,0.79487497,9.74971538642298,1.436521,0.016187929,-0.19150625,-0.004276057,287.54214,-79.85818,5.382894,STD
341079846000,2.409929,0.798438111119031,9.75520296863863,1.41157899914469,0.024129177,-0.17898351,0.00061086525,287.60742,-79.86679,5.376938,STD
341084858000,2.414941,0.808212858403421,9.74542852245189,1.34315573243051,0.015577064,-0.15149458,0.009468411,287.67206,-79.86961,5.3707447,STD
341089898000,2.419981,0.802372133200591,9.74155557348448,1.32381587319862,0.025350908,-0.1414153,0.0033597588,287.73718,-79.88247,5.3587036,STD
341094938000,2.425021,0.773825781855101,9.7463128963036,1.3761507463381,0.027183503,-0.16615535,0.0036651916,287.803,-79.88936,5.3513823,STD
341099873000,2.429956,0.7565677,9.75455917404217,1.40063043616474,0.02107485,-0.19058995,-0.015271631,287.8743,-79.90854,5.341394,STD
341104861000,2.434944,0.7565677,9.7687469008019,1.38171391158301,0.029626964,-0.19150625,-0.01038471,287.94415,-79.92819,5.3381705,STD
341109846000,2.439929,0.765864548097077,9.77637049457621,1.37723078150395,0.04062254,-0.19730948,-0.01038471,288.01462,-79.947876,5.323152,STD
341115246000,2.445329,0.794388968394925,9.77161633020776,1.4010011565729,0.040927973,-0.20738874,-0.015271631,288.08585,-79.96713,5.3085375,STD
341119874000,2.449957,0.82357390002788,9.76921077556507,1.42083852071094,0.044898596,-0.21227567,-0.0106901415,288.1576,-79.99429,5.2888484,STD
341124888000,2.454971,0.876167674643035,9.77399212356865,1.43996346339739,0.04917465,-0.2144137,-0.013744468,288.2312,-80.02335,5.2663913,STD
341129853000,2.459936,0.922691894962113,9.77543111755069,1.45484499850502,0.043982297,-0.22082779,-0.013439035,288.30713,-80.03904,5.2571077,STD
341134855000,2.464938,0.942312298863404,9.76071552652058,1.44993995515052,0.039095376,-0.21960606,-0.014660766,288.38086,-80.05669,5.24637,STD
341139893000,2.469976,0.956746535917088,9.74638656140045,1.43769045739418,0.033292156,-0.22449298,-0.009773844,288.4525,-80.06514,5.2466335,STD
341144886000,2.474969,0.952581999072461,9.73389319003658,1.40020977799164,0.03970624,-0.22082779,-0.009162978,288.5208,-80.07657,5.2447634,STD
341150441000,2.480524,0.948875638182409,9.72026604917678,1.35971365320624,0.02565634,-0.22143865,-0.019547688,288.59583,-80.07818,5.243685,STD
341154860000,2.484943,0.967211831612868,9.71568191107019,1.35512961083189,0.029321533,-0.21655174,-0.016493361,288.66675,-80.084045,5.245929,STD
341159984000,2.490067,0.988292392332016,9.70994138330039,1.349859476917,0.028099801,-0.22143865,-0.016187929,288.7422,-80.09733,5.239753,STD
341164891000,2.494974,1.00686684197628,9.70065444940711,1.34521586450593,0.01740966,-0.21655174,-0.01985312,288.81268,-80.1096,5.232689,STD
341170118000,2.500201,1.02617535493251,9.69367172300516,1.34221004986106,0.019242255,-0.20861048,-0.018936822,288.88293,-80.12287,5.229324,STD
341174884000,2.504967,1.03976502970425,9.71179113169909,1.35579967733227,0.022602014,-0.20799962,-0.021380283,288.95337,-80.135315,5.2240357,STD
341180182000,2.510265,1.05264488913281,9.72923207654134,1.37068925580789,0.015882496,-0.20555615,-0.01985312,289.02032,-80.143456,5.223671,STD
341184891000,2.514974,1.04505848377492,9.72164555235932,1.38206876482463,0.013439035,-0.20250183,-0.023518313,289.0865,-80.15489,5.220967,STD
341191834000,2.521917,1.03537685389092,9.71169333024359,1.3974023895236,0.0143553335,-0.21380283,-0.025045475,289.14526,-80.167534,5.225447,STD
341194915000,2.524998,1.0480977841884,9.72123420230653,1.38786174991377,0.009162978,-0.2125811,-0.024740042,289.19907,-80.17852,5.2284985,STD
341199927000,2.53001,1.06879148839189,9.73675476406553,1.37234156629662,0.006414085,-0.21410827,-0.014660766,289.25696,-80.18559,5.2339826,STD
341204911000,2.534994,1.06894822497416,9.73595874866109,1.35852087492248,0.01038471,-0.21899518,-0.020158553,289.3154,-80.19568,5.2349734,STD
341209899000,2.539982,1.06445991543738,9.73147034539134,1.34505594631213,0.0143553335,-0.22266038,-0.014660766,289.37244,-80.20222,5.241624,STD
341215303000,2.545386,1.07653702677282,9.730036,1.32724157322718,0.012217305,-0.21624629,-0.020158553,289.42572,-80.214554,5.2456436,STD
341219919000,2.550002,1.09290677637475,9.730036,1.31087182362525,0.007330383,-0.20189096,-0.02107485,289.4768,-80.22579,5.251929,STD
341224909000,2.554992,1.09625547413041,9.72495856809654,1.30498446293479,0.005192355,-0.20066923,-0.018020526,289.53485,-80.236984,5.25827,STD
341229855000,2.559938,1.08664856756921,9.7153514609066,1.30978791621539,0.003970624,-0.19425514,-0.014966198,289.58676,-80.247536,5.2632213,STD
341234857000,2.56494,1.09047520282232,9.7212520035279,1.3120226,-0.0015271631,-0.18875736,-0.018936822,289.63687,-80.260216,5.2711926,STD
341239850000,2.569933,1.10581098293778,9.74042172867223,1.3120226,0.0021380284,-0.18845193,-0.01740966,289.6858,-80.27355,5.281048,STD
341244961000,2.575044,1.12213894485439,9.76074905658617,1.30805649718105,-0.0009162979,-0.18875736,-0.027183503,289.72992,-80.28912,5.281444,STD
341249861000,2.579944,1.14645567093999,9.78992916851487,1.24969642567105,-0.0021380284,-0.18509217,-0.033292156,289.77222,-80.30515,5.2828946,STD
341254937000,2.58502,1.17029636471664,9.81767137842779,1.19613796764168,-0.008857546,-0.17562376,-0.03145956,289.8164,-80.314865,5.289303,STD
341259871000,2.589954,1.18469366246191,9.82846920140159,1.18893931876904,-0.005497787,-0.16737708,-0.031154128,289.85974,-80.32795,5.2931604,STD
341265916000,2.595999,1.2023328324802,9.84169839472882,1.1801197337599,-0.009162978,-0.15882497,-0.033292156,289.90393,-80.34748,5.2953925,STD
341269894000,2.599977,1.21380730773679,9.84020407706879,1.17557076408774,-0.0030543262,-0.15577064,-0.042760566,289.94727,-80.37103,5.2952833,STD
341274864000,2.604947,1.22804360763709,9.83071350777667,1.17082533078764,-0.009773844,-0.15485434,-0.039095376,289.9879,-80.38867,5.2978497,STD
341279860000,2.609943,1.2354081,9.8210908138001,1.17072704388635,-0.0076358155,-0.14446963,-0.03848451,290.03436,-80.40488,5.3029604,STD
341284896000,2.614979,1.2354081,9.81130293515982,1.17562088100457,-0.008552114,-0.14446963,-0.03940081,290.0829,-80.41844,5.3086743,STD
341289858000,2.619941,1.2420880155455,9.79997017745586,1.17126736120416,-0.009162978,-0.14996742,-0.040317107,290.1332,-80.42795,5.32113,STD
341294918000,2.625001,1.25525015443187,9.78680822181983,1.15810517650521,-0.0067195175,-0.14874569,-0.048258353,290.1814,-80.43937,5.3305397,STD
341299871000,2.629954,1.2641385,9.77792,1.1492168,-0.0067195175,-0.13530666,-0.042455133,290.22266,-80.450165,5.3393826,STD
341304864000,2.634947,1.2641385,9.77792,1.1492168,-0.007330383,-0.11942416,-0.042760566,290.26297,-80.463646,5.343822,STD
341309861000,2.639944,1.2641385,9.77281618155159,1.14751556271217,-0.023823744,-0.109650314,-0.04428773,290.30005,-80.47431,5.3494854,STD
341314856000,2.644939,1.2641385,9.76006301839509,1.14326459710299,-0.017715093,-0.10567969,-0.040011674,290.33368,-80.48916,5.3560796,STD
341319911000,2.649994,1.26707726356978,9.75065840863531,1.14110937794911,-0.01282817,-0.10476339,-0.043982297,290.3667,-80.50107,5.356733,STD
341324917000,2.655,1.28555898521588,9.7598994383192,1.15035021464919,-0.01282817,-0.093462385,-0.04795292,290.39508,-80.51252,5.357939,STD
341329950000,2.660033,1.30335740331813,9.76879881117793,1.15788199668187,-0.00061086525,-0.077579886,-0.03940081,290.42282,-80.52496,5.365982,STD
341334848000,2.664931,1.31308514417254,9.77366278318125,1.14815425582746,-0.0067195175,-0.073303826,-0.037873644,290.4508,-80.53475,5.3707485,STD
341339853000,2.669936,1.3235745462275,9.77660320834929,1.13964,0.0030543262,-0.071776666,-0.03023783,290.47202,-80.546364,5.3809276,STD
341344875000,2.674958,1.33738956621984,9.76739300268097,1.13964,0.006414085,-0.069027774,-0.025961773,290.49155,-80.5552,5.390141,STD
341350125000,2.680208,1.34892190210016,9.7582966908993,1.14198650140011,0.01863139,-0.06536258,-0.014660766,290.5105,-80.56712,5.401305,STD
341354879000,2.684962,1.33666339181476,9.7542104354694,1.16241739454317,0.017715093,-0.064446285,-0.009773844,290.52936,-80.57689,5.411603,STD
341359831000,2.689914,1.32389432514809,9.74995399102495,1.18369921676539,0.019242255,-0.071776666,-0.0076358155,290.5536,-80.58356,5.4249644,STD
341364844000,2.694927,1.3215994,9.76942741435161,1.1875241,0.025350908,-0.071776666,-0.0030543262,290.57492,-80.58982,5.43969,STD
341369908000,2.699991,1.3215994,9.79428487985648,1.1875241,0.027794369,-0.077579886,0.0021380284,290.59967,-80.59511,5.4552717,STD
341374864000,2.704947,1.3173576519027,9.79283160623801,1.1832823519027,0.027488936,-0.06505715,0.01985312,290.61612,-80.59498,5.477211,STD
341379817000,2.7099,1.31256973523771,9.78804408953265,1.17849443523771,0.018325957,-0.052839845,0.014966198,290.6347,-80.59632,5.4938326,STD
341384845000,2.714928,1.28872284211196,9.79137996183206,1.18959715866957,0.022907447,-0.056505036,0.028099801,290.65607,-80.59416,5.5169764,STD
341389822000,2.719905,1.26273384726463,9.79571109160305,1.20259163347874,0.022296581,-0.059864793,0.03573562,290.67398,-80.590576,5.5361743,STD
341394893000,2.724976,1.23142389476275,9.80037846977751,1.21659390224454,0.02321288,-0.050396383,0.029626964,290.68976,-80.589615,5.55367,STD
341399912000,2.729995,1.19830106404804,9.80511040155542,1.23078940112227,0.025045475,-0.04642576,0.03604105,290.7071,-80.585526,5.5765433,STD
341404890000,2.734973,1.16818351733749,9.80342650784866,1.25152519051117,0.03573562,-0.05467244,0.03848451,290.72583,-80.5858,5.591368,STD
341409901000,2.739984,1.13921022594083,9.79859753350775,1.27566950756691,0.029932396,-0.056505036,0.04062254,290.74118,-80.58183,5.607074,STD
341414836000,2.744919,1.10634096496445,9.80003834130575,1.26550035468649,0.028099801,-0.057421334,0.04184427,290.75745,-80.58226,5.620341,STD
341419942000,2.750025,1.070216380386,9.80455400868039,1.23840696340382,0.029626964,-0.05100725,0.03940081,290.77197,-80.58252,5.6325264,STD
341424916000,2.754999,1.04287958944692,9.80400764907819,1.2258313,0.037873644,-0.042760566,0.0421497,290.78876,-80.57768,5.6471066,STD
341429902000,2.759985,1.02264223006993,9.79894821678322,1.2258313,0.03634648,-0.032070424,0.045814894,290.80283,-80.57152,5.6604843,STD
341434894000,2.764977,1.02334127233115,9.79433998039216,1.23403104379085,0.038789943,-0.03604105,0.04184427,290.8256,-80.5752,5.667521,STD
341439957000,2.77004,1.03654593114561,9.78993881045752,1.24723565664488,0.053145275,-0.021991149,0.050396383,290.8394,-80.57857,5.677744,STD
341444943000,2.775026,1.03934408112716,9.78070501531111,1.26588146172223,0.050701816,-0.016187929,0.046120327,290.84882,-80.58982,5.6794024,STD
341449909000,2.779992,1.02901535116734,9.76521167770659,1.29170320573352,0.054061573,-0.016187929,0.044898596,290.85553,-80.60333,5.6838517,STD
341454846000,2.784929,1.02201768190747,9.75066425852078,1.32675136283273,0.06536258,-0.010079277,0.051923547,290.8567,-80.61346,5.690905,STD
341459882000,2.789965,1.01728054755918,9.73645305333464,1.36938557196739,0.054367006,-0.016187929,0.04184427,290.86212,-80.6222,5.693042,STD
341464845000,2.794928,1.00841832137325,9.730036,1.38191382137325,0.060170226,-0.029626964,0.049785517,290.86652,-80.62894,5.6988673,STD
341469941000,2.800024,0.995677035288487,9.730036,1.36917253528849,0.06505715,-0.016493361,0.038789943,290.86624,-80.63787,5.695688,STD
341475789000,2.805872,0.984174320412169,9.73450941903827,1.3599066,0.059864793,-0.025961773,0.04520403,290.8733,-80.63276,5.7025757,STD
341479912000,2.809995,0.979868885192455,9.74312001973613,1.3599066,0.05589417,-0.038179077,0.041233405,290.8782,-80.63278,5.702991,STD
341484869000,2.814952,0.971465663616071,9.75276815943877,1.35811705765306,0.061391957,-0.032986723,0.045814894,290.88266,-80.63364,5.7080436,STD
341489878000,2.819961,0.958354254719388,9.76150926603498,1.35374659562682,0.053450707,-0.03634648,0.03848451,290.89352,-80.6334,5.7092247,STD
341494840000,2.824923,0.945022541848662,9.768343,1.3503298,0.05467244,-0.048258353,0.042455133,290.90503,-80.635155,5.711583,STD
341499940000,2.830023,0.92999895525992,9.768343,1.3503298,0.05681047,-0.056505036,0.040927973,290.9168,-80.6376,5.7103133,STD
341504806000,2.834889,0.916946724649291,9.77076977729697,1.34668971007346,0.060170226,-0.048258353,0.040927973,290.93185,-80.6391,5.709734,STD
341509898000,2.839981,0.907131883119654,9.78058482892221,1.33196744009258,0.06536258,-0.052534413,0.03176499,290.95297,-80.64351,5.7068424,STD
341514819000,2.844902,0.898958138101253,9.78371175525511,1.31907595620251,0.06627888,-0.05497787,0.034208454,290.9668,-80.65057,5.703277,STD
341519958000,2.850041,0.894101217623606,9.76914068952926,1.30936211524721,0.061391957,-0.06169739,0.021991149,290.9839,-80.661514,5.6934276,STD
341524902000,2.854985,0.896669595470127,9.758766,1.30606172203722,0.055588737,-0.0571159,0.029932396,291.00052,-80.66984,5.6922007,STD
341529899000,2.859982,0.920105080095984,9.758766,1.32012301574927,0.05497787,-0.06566802,0.028710667,291.02347,-80.681816,5.6857505,STD
341534859000,2.864942,0.936830644644696,9.76215879299691,1.33032799732235,0.048563786,-0.07086037,0.023518313,291.0434,-80.69336,5.677603,STD
341539879000,2.869962,0.928578750377618,9.7786624953656,1.32620205018881,0.05497787,-0.07422013,0.029321533,291.0647,-80.70579,5.6726046,STD
341545957000,2.87604,0.918181958899879,9.79667586933889,1.31921641282318,0.044593163,-0.0720821,0.025350908,291.08038,-80.712616,5.6700916,STD
341549883000,2.879966,0.908395778859969,9.79341408068714,1.29964401186882,0.03726278,-0.06994407,0.020463986,291.09674,-80.72063,5.668994,STD
341554842000,2.884925,0.89603468186101,9.7892940577824,1.27492176624154,0.042760566,-0.076358154,0.032070424,291.11737,-80.727005,5.6728697,STD
341559841000,2.889924,0.89064306,9.77717574900247,1.2486569468174,0.033292156,-0.06780604,0.03268129,291.13358,-80.73112,5.6715493,STD
341564836000,2.894919,0.89064306,9.758997099943,1.22138954267528,0.03634648,-0.06261369,0.021380283,291.15234,-80.73941,5.6703134,STD
341569875000,2.899958,0.89064306,9.74500380078307,1.18993635684721,0.043676864,-0.04795292,0.009773844,291.16763,-80.752884,5.66707,STD
341574886000,2.904969,0.89064306,9.7360566876107,1.15414673631025,0.025350908,-0.05375614,0.02076942,291.18677,-80.75906,5.6675835,STD
341579817000,2.9099,0.895093644062997,9.72558532144277,1.13451378561208,0.03390302,-0.04795292,0.0076358155,291.20587,-80.779205,5.660416,STD
341584840000,2.914923,0.909433146146661,9.71124551490461,1.1488532926868,0.031154128,-0.06383542,0.005192355,291.23187,-80.78876,5.660286,STD
341589811000,2.919894,0.924761650949367,9.701305,1.16687590494049,0.02565634,-0.052534413,0.011301007,291.25006,-80.80752,5.656044,STD
341594902000,2.924985,0.94318430443038,9.701305,1.19450989718496,0.019242255,-0.06566802,0.0076358155,291.28003,-80.827225,5.649838,STD
341599858000,2.929941,0.962734654263494,9.70214734330155,1.22299311448014,0.025045475,-0.061086524,0.005497787,291.29642,-80.84495,5.646096,STD
341604898000,2.934981,0.989547211619294,9.70661619618554,1.25874323761689,0.015271631,-0.062308256,0.004276057,291.31818,-80.85797,5.6422606,STD
341610199000,2.940282,1.01604418962201,9.70997933865538,1.29467437924401,0.013439035,-0.05222898,-0.005497787,291.337,-80.86665,5.6358,STD
341614808000,2.944891,1.02453499874002,9.70148879551794,1.31165599748004,0.00061086525,-0.05222898,-0.0030543262,291.35843,-80.86875,5.6329083,STD
341620357000,2.95044,1.03500418117011,9.69220170432645,1.32975804012783,0.0036651916,-0.043676864,-0.011911872,291.3715,-80.8681,5.629199,STD
341624938000,2.955021,1.04794561878073,9.70082902910521,1.30387520995084,0.0036651916,-0.04428773,-0.02443461,291.377735638488,-80.8656404674176,5.62651791658069,STD
341629856000,2.959939,1.06183908967552,9.71009102064897,1.27608831651917,-0.0067195175,-0.03481932,-0.029626964,291.38443,-80.863,5.6236396,STD
341634899000,2.964982,1.05620904166282,9.69043225381062,1.26349046249423,-0.0125227375,-0.028710667,-0.025961773,291.39417,-80.85173,5.625848,STD
341639850000,2.969933,1.04890885123941,9.66853160631255,1.25254017685912,-0.021991149,-0.018325957,-0.025045475,291.4007,-80.84123,5.6218987,STD
341644870000,2.974953,1.043872,9.65185029706514,1.24341406584518,-0.032375857,-0.008552114,-0.025350908,291.40714,-80.83329,5.618457,STD
341649926000,2.980009,1.043872,9.64689925340014,1.23846260855916,-0.031154128,-0.00061086525,-0.03848451,291.4114,-80.82819,5.611451,STD
341654849000,2.984932,1.04915804197858,9.64560686680265,1.22483601604284,-0.03634648,0.007941248,-0.03970624,291.41425,-80.81922,5.6066985,STD
341659883000,2.989966,1.06390856044875,9.65052329556349,1.1953349791025,-0.050396383,0.0009162979,-0.03634648,291.41946,-80.81018,5.600089,STD
341664859000,2.994942,1.07950456724664,9.65687215569507,1.18484946724664,-0.04734206,0.008857546,-0.04795292,291.41412,-80.81001,5.590892,STD
341669941000,3.000024,1.09696440495067,9.66560225686099,1.20230930495067,-0.057726767,0.013133603,-0.04337143,291.4111,-80.80035,5.587817,STD
341674849000,3.004932,1.11005382658668,9.6759980757815,1.21711027341332,-0.06261369,0.016187929,-0.04642576,291.41183,-80.79708,5.5819626,STD
341679882000,3.009965,1.10498067277129,9.69629058509631,1.22218342722871,-0.06719518,0.01740966,-0.034513887,291.4111,-80.78826,5.5817337,STD
341684846000,3.014929,1.1013328,9.70965837836041,1.22827849217251,-0.0729984,0.022907447,-0.036651913,291.411,-80.77271,5.5826902,STD
341689886000,3.019969,1.1013328,9.70507320879643,1.23744863979291,-0.0729984,0.019547688,-0.043676864,291.4127,-80.75672,5.5857997,STD
341694904000,3.024987,1.1013328,9.70302874193548,1.24670860593795,-0.06505715,0.024740042,-0.043676864,291.4134,-80.73886,5.5890536,STD
341699918000,3.030001,1.1013328,9.712895,1.25657465796178,-0.07666359,0.02443461,-0.043066,291.41666,-80.71821,5.590802,STD
341704882000,3.034965,1.10449215670103,9.72677773539519,1.2641385,-0.08399397,0.030543262,-0.043982297,291.41467,-80.70139,5.5865602,STD
341709899000,3.039982,1.11864438220913,9.75508228492882,1.2641385,-0.0888809,0.03390302,-0.050396383,291.4136,-80.68379,5.581237,STD
341714877000,3.04496,1.1279078985561,9.78007527143664,1.26342006618537,-0.08093964,0.029932396,-0.040317107,291.4101,-80.664795,5.581342,STD
341720001000,3.050084,1.11603288285876,9.79195012180366,1.25946172761959,-0.0842994,0.039095376,-0.03848451,291.4023,-80.64508,5.5769153,STD
341724957000,3.05504,1.10454721193837,9.80343563281439,1.25563317064612,-0.089186326,0.047036625,-0.03268129,291.39505,-80.62509,5.576337,STD
341729890000,3.059973,1.09067833457436,9.82085587973227,1.2297012806735,-0.07819075,0.051618114,-0.024129177,291.3859,-80.60766,5.5770044,STD
341734849000,3.064932,1.07577830805271,9.84072247803807,1.19493455212299,-0.074830994,0.05467244,-0.028710667,291.37515,-80.589066,5.575459,STD
341739839000,3.069922,1.04599065147929,9.844957,1.16756527992581,-0.06688975,0.05955936,-0.025045475,291.3662,-80.57322,5.5712934,STD
341744914000,3.074997,1.01165182011834,9.844957,1.14181114520004,-0.058643065,0.051923547,-0.022602014,291.36017,-80.55954,5.566161,STD
341749964000,3.080047,0.998774044878205,9.84774320306351,1.1328493448782,-0.04153884,0.05100725,-0.015271631,291.35632,-80.554535,5.5600214,STD
341754883000,3.084966,1.00378503085842,9.85275429369216,1.13786033085842,-0.040317107,0.047036625,-0.009773844,291.35553,-80.547806,5.5547514,STD
341759880000,3.089963,1.00304917425847,9.86459605043239,1.1320934227754,-0.027488936,0.053450707,-0.012217305,291.35773,-80.555,5.5424953,STD
341765094000,3.095177,0.999013496961125,9.88073867534147,1.11998639088338,-0.020158553,0.053145275,-0.01740966,291.36285,-80.56067,5.531766,STD
341769850000,3.099933,0.9959879,9.892841,1.11010623765475,-0.0106901415,0.045814894,-0.015577064,291.36945,-80.56688,5.52137,STD
341774902000,3.104985,0.9959879,9.892841,1.10531451797564,-0.003970624,0.04550946,-0.0067195175,291.37405,-80.57367,5.5116763,STD
341779852000,3.109935,0.9959879,9.88852389339595,1.10421091113997,0.0018325958,0.043676864,-0.004276057,291.37967,-80.58734,5.505802,STD
341784899000,3.114982,0.9959879,9.85954990798282,1.12352717034669,0.0021380284,0.04795292,-0.003970624,291.38342,-80.59984,5.501729,STD
341789896000,3.119979,0.996621735808595,9.83284560381801,1.14280918566142,0.008246681,0.032986723,0.004886922,291.39337,-80.61455,5.496895,STD
341794893000,3.124976,1.00064623077117,9.81674728778068,1.16293170249769,0.011301007,0.01985312,0.0012217305,291.40213,-80.63028,5.488618,STD
341801273000,3.131356,1.00583293293321,9.79653655093875,1.18832879879963,0.028710667,0.026572637,0.0036651916,291.39963,-80.64944,5.482746,STD
341804923000,3.135006,1.00941919742485,9.78936424663999,1.19908759227455,0.015577064,0.03390302,0.012217305,291.4007,-80.66134,5.4782724,STD
341809846000,3.139929,1.01425623306658,9.77969047840361,1.21359869919975,0.020463986,0.038789943,0.007941248,291.39612,-80.679665,5.4711585,STD
341814854000,3.144937,1.02698018400722,9.78581218129828,1.21230828573292,0.025045475,0.037873644,0.013439035,291.39056,-80.69137,5.4693484,STD
341819905000,3.149988,1.04154000697301,9.79551839209391,1.2074550283034,0.02107485,0.027183503,0.008857546,291.38715,-80.704185,5.463841,STD
341824893000,3.154976,1.05926042533884,9.797073,1.21821901900413,0.030543262,0.03390302,0.013439035,291.37485,-80.71679,5.462927,STD
341829846000,3.159929,1.07749896822071,9.797073,1.23189792616553,0.022602014,0.046120327,0.017104227,291.3644,-80.724976,5.460788,STD
341834905000,3.164988,1.08874159479016,9.79379207670043,1.23212690260492,0.021685716,0.03573562,0.019242255,291.36353,-80.733376,5.4579024,STD
341839845000,3.169928,1.09729973371925,9.78951336468886,1.22784783314038,0.016798794,0.03481932,0.0070249503,291.357,-80.74054,5.451357,STD
341844895000,3.174978,1.0985684257052,9.77920370392365,1.2285956742948,0.01863139,0.035430185,0.016187929,291.3467,-80.74442,5.4497623,STD
341849866000,3.179949,1.0935200404666,9.7640582319194,1.2336440595334,0.013744468,0.04520403,0.013439035,291.3351,-80.74943,5.441362,STD
341854858000,3.184941,1.082478475,9.75567342708333,1.2354081,0.01038471,0.0580322,0.02076942,291.32318,-80.751305,5.436834,STD
341859853000,3.189936,1.06824153571429,9.75092768154762,1.2354081,0.006414085,0.055283304,0.022602014,291.31335,-80.753075,5.430539,STD
341864838000,3.194921,1.06017863834919,9.749189,1.24110202330161,0.009773844,0.050701816,0.013439035,291.29895,-80.75616,5.4235225,STD
341869947000,3.20003,1.05556845544144,9.749189,1.25032238911712,-0.0018325958,0.051618114,0.016493361,291.28342,-80.75233,5.4206576,STD
341874880000,3.204963,1.06093486973883,9.74419844317838,1.2545617,0.0070249503,0.06078109,0.0106901415,291.27252,-80.75361,5.416913,STD
341879852000,3.209935,1.0753391803973,9.73459587022285,1.2545617,0.0036651916,0.059864793,0.014049901,291.26385,-80.747345,5.4171014,STD
341884848000,3.214931,1.0821792,9.730036,1.26485410586508,0.0036651916,0.060170226,0.013133603,291.255767426713,-80.7474974542271,5.41332933252626,STD
341889847000,3.21993,1.0821792,9.730036,1.28438038173587,0.0021380284,0.06383542,0.010995574,291.24768,-80.74765,5.409555,STD
341894876000,3.224959,1.0841995797389,9.73165229535248,1.3024458,0.009162978,0.07086037,0.0070249503,291.23102,-80.74861,5.4029202,STD
341899890000,3.229973,1.10927429263708,9.75171196093995,1.3024458,-0.0021380284,0.08032878,0.00030543262,291.21567,-80.74146,5.3981094,STD
341904879000,3.234962,1.12845919444389,9.76593702516356,1.30084177769502,-0.011301007,0.08155051,0.0021380284,291.19534,-80.73267,5.400847,STD
341909916000,3.239999,1.11874840599899,9.75137104529441,1.29113088785103,-0.0143553335,0.07788532,0.006414085,291.17407,-80.7234,5.4023376,STD
341914836000,3.244919,1.10752246043237,9.74029037132444,1.28058229541953,-0.019242255,0.07391469,0.0021380284,291.14954,-80.71375,5.402407,STD
341919983000,3.250066,1.08710840029819,9.74437284229272,1.2642510899445,-0.011301007,0.07849618,0.007330383,291.1233,-80.70415,5.406279,STD
341924907000,3.25499,1.06757880400895,9.74827843526878,1.24862745369834,-0.016187929,0.08155051,-0.0012217305,291.10577,-80.69064,5.4090743,STD
341929897000,3.25998,1.04716604756466,9.74125949288793,1.23309026672414,-0.023518313,0.08032878,0.01038471,291.0873,-80.67436,5.418965,STD
341934851000,3.264934,1.02671622383621,9.73103492801724,1.21775293896552,-0.020158553,0.06994407,0.01282817,291.0714,-80.662575,5.424055,STD
341939859000,3.269942,1.01635996235169,9.72585674389891,1.20789616235169,-0.022296581,0.084910266,0.014660766,291.0509,-80.651146,5.429949,STD
341944910000,3.274993,1.00702796335488,9.72119064695669,1.19856416335488,-0.027794369,0.089186326,0.018020526,291.03632,-80.63923,5.437631,STD
341949990000,3.280073,0.990644064737942,9.7465702675084,1.17845006697248,-0.025961773,0.09407325,0.018325957,291.02014,-80.632835,5.4384236,STD
341954857000,3.28494,0.973708726160414,9.77620728685621,1.15728084954128,-0.026572637,0.07941248,0.018020526,291.00833,-80.624214,5.440628,STD
341959895000,3.289978,0.964799416066102,9.78012259419589,1.16642341320435,-0.026267206,0.08002335,0.019242255,290.99374,-80.617386,5.4398494,STD
341964897000,3.29498,0.960937815614672,9.76853755090689,1.19345465668682,-0.01985312,0.07513642,0.0125227375,290.9853,-80.613304,5.4376216,STD
341969975000,3.300058,0.954256710125697,9.76013562340797,1.22036328441688,-0.011301007,0.07574729,0.01863139,290.9809,-80.61189,5.436736,STD
341974896000,3.304979,0.934641513185716,9.76798185948556,1.24390150108216,-0.009773844,0.07147124,0.013744468,290.97998,-80.61325,5.4313865,STD
341979881000,3.309964,0.914771211063015,9.77593013968201,1.26774584371098,-0.021685716,0.070249505,0.015271631,290.9758,-80.60526,5.4291024,STD
341984880000,3.314963,0.913065614344345,9.78445771071071,1.27044634224224,-0.011301007,0.076358154,0.016187929,290.97092,-80.603806,5.425326,STD
341989807000,3.31989,0.9173594394722,9.7930451009191,1.26615251263081,-0.00580322,0.07452556,0.017104227,290.96857,-80.598335,5.4225006,STD
341994951000,3.325034,0.924745408103158,9.80781714058014,1.2802544023562,-0.005497787,0.07819075,0.02107485,290.95813,-80.593796,5.416476,STD
342000129000,3.330212,0.934563974660925,9.82745468379368,1.30971015329175,-0.004581489,0.08460484,0.017104227,290.9478,-80.591835,5.4086943,STD
342004877000,3.33496,0.930601219525688,9.83273900041515,1.33745103887909,-0.009773844,0.07452556,0.025045475,290.94232,-80.58516,5.408428,STD
342009871000,3.339954,0.915709723141671,9.82777506289569,1.36723399018163,-0.0012217305,0.070554934,0.034208454,290.93347,-80.58235,5.4071,STD
342014891000,3.344974,0.893098867270118,9.825804,1.38462602509808,0.016187929,0.06627888,0.030848695,290.9285,-80.57216,5.414522,STD
342019901000,3.349984,0.865553282292604,9.825804,1.39380787716965,0.00061086525,0.063224554,0.034208454,290.92365,-80.554,5.4262037,STD
342024897000,3.35498,0.840707972411467,9.82115277571669,1.40519043929174,0.010995574,0.061086524,0.036957346,290.9157,-80.54416,5.438366,STD
342029883000,3.359966,0.818340554064081,9.81220562900506,1.41861097251265,0.0033597588,0.057726767,0.03023783,290.90918,-80.52787,5.4485507,STD
342034890000,3.364973,0.808144509152542,9.81034282627119,1.40848053495763,0.008552114,0.052839845,0.040011674,290.89966,-80.51813,5.458288,STD
342039892000,3.369975,0.817810197933818,9.8200087169088,1.36015204058717,0.017104227,0.057421334,0.037873644,290.88916,-80.51069,5.4623375,STD
342044910000,3.374993,0.827428513649036,9.82198077449333,1.32735305433515,0.013133603,0.04917465,0.03481932,290.88022,-80.50314,5.4605536,STD
342049914000,3.379997,0.836904026704894,9.81250508334157,1.31787756106772,0.025045475,0.05131268,0.044593163,290.8667,-80.49957,5.4613056,STD
342054836000,3.384919,0.842759,9.80139818699431,1.31027197129158,0.015577064,0.045814894,0.048258353,290.86633,-80.49528,5.4631257,STD
342059882000,3.389965,0.842759,9.78691695834582,1.30544482786934,0.02076942,0.04917465,0.049785517,290.86258,-80.49593,5.4665513,STD
342064815000,3.394898,0.837827512542243,9.78285141193317,1.30080197313604,0.035124753,0.050396383,0.04886922,290.85605,-80.50115,5.468594,STD
342069896000,3.399979,0.823891534915513,9.79678717613365,1.29615665372792,0.034513887,0.05100725,0.040317107,290.8491,-80.50496,5.4687037,STD
342074831000,3.404914,0.815342830287998,9.80270724402993,1.30206889201599,0.03359759,0.04917465,0.04428773,290.84204,-80.51115,5.4693933,STD
342079844000,3.409927,0.820263246235523,9.78794620170134,1.33651180364866,0.03390302,0.04886922,0.043066,290.83508,-80.51944,5.4661994,STD
342084809000,3.414892,0.82360536,9.77931301818182,1.36826454909091,0.037873644,0.047036625,0.042455133,290.83032,-80.5295,5.463593,STD
342089840000,3.419923,0.82360536,9.78380550181818,1.39521893490909,0.04184427,0.04184427,0.0421497,290.82678,-80.539474,5.4609456,STD
342094973000,3.425056,0.82360536,9.78660318245516,1.42183648506166,0.05009095,0.041233405,0.048258353,290.81155,-80.55006,5.456639,STD
342099872000,3.429955,0.82360536,9.78221998710762,1.44375195835202,0.04734206,0.031154128,0.045814894,290.8011,-80.56003,5.4506006,STD
342105235000,3.435318,0.822778980821069,9.77833319821844,1.46690415835786,0.05009095,0.027183503,0.05589417,290.78363,-80.566574,5.4514017,STD
342109853000,3.439936,0.815927600123935,9.78175896010844,1.48060691975213,0.04520403,0.021685716,0.05497787,290.77026,-80.57258,5.448928,STD
342114847000,3.44493,0.808518376390395,9.7854636493416,1.49542536721921,0.042760566,0.016798794,0.059253927,290.75397,-80.57385,5.451273,STD
342119872000,3.449955,0.80445176,9.77394342011153,1.49774995756396,0.04337143,0.015882496,0.06352998,290.73834,-80.57465,5.453408,STD
342124915000,3.454998,0.80445176,9.74401754297601,1.48492465817474,0.046120327,0.021380283,0.051618114,290.72293,-80.57724,5.4520326,STD
342129873000,3.459956,0.800499423650794,9.71650669047619,1.4748282,0.042455133,0.017715093,0.055283304,290.70792,-80.57331,5.4558425,STD
342134862000,3.464945,0.780541725223475,9.69654912750627,1.4748282,0.03573562,0.021380283,0.051618114,290.69022,-80.57235,5.45374,STD
342139881000,3.469964,0.7661445,9.68817760703887,1.46622010391189,0.028710667,0.025961773,0.04795292,290.67484,-80.57049,5.453132,STD
342145124000,3.475207,0.7661445,9.71042567584504,1.43443683082036,0.0290161,0.025350908,0.03481932,290.66058,-80.57087,5.448889,STD
342149961000,3.480044,0.7661445,9.73095093024433,1.40511474576529,0.025350908,0.027794369,0.040011674,290.6422,-80.56767,5.450295,STD
342154935000,3.485018,0.765725936813862,9.74793332792397,1.37738585162604,0.02107485,0.038789943,0.02687807,290.62305,-80.569435,5.4426146,STD
342159941000,3.490024,0.76262634020172,9.73863466755027,1.36498749754316,0.03176499,0.02565634,0.025961773,290.60953,-80.570816,5.4408097,STD
342164931000,3.495014,0.759536650410552,9.72936572722571,1.35262877064072,0.022907447,0.029932396,0.019547688,290.59784,-80.57607,5.4295316,STD
342170215000,3.500298,0.756207076620976,9.72081963091021,1.3421954897505,0.025045475,0.032375857,0.017715093,290.59042,-80.585464,5.420144,STD
342174955000,3.505038,0.752711463499153,9.72431531703373,1.35617790573695,0.028405234,0.029321533,0.017104227,290.58368,-80.59363,5.409675,STD
342179978000,3.510061,0.749007146049592,9.72801971184352,1.37099513685507,0.025350908,0.019242255,0.018325957,290.58002,-80.60281,5.402424,STD
342184914000,3.514997,0.741208978387827,9.74015427225992,1.38195106080609,0.022602014,0.018325957,0.015577064,290.5749,-80.61324,5.393861,STD
342189923000,3.520006,0.728056550887655,9.7631708143807,1.38852727455617,0.02443461,0.008552114,0.021685716,290.5749,-80.62207,5.3890758,STD
342197717000,3.5278,0.710732705040288,9.79639001971541,1.39650619936568,0.022602014,0.0036651916,0.018020526,290.56894,-80.63196,5.3779263,STD
342199948000,3.530031,0.72172147966741,9.7927272095834,1.38734890630036,0.0030543262,-0.00061086525,0.0143553335,290.56546,-80.6368,5.369095,STD
342204749000,3.534832,0.745368771009772,9.78484502605863,1.3676428713355,0.0030543262,-0.004276057,0.02076942,290.563,-80.645905,5.3599606,STD
342209741000,3.539824,0.766889027983126,9.77717546424267,1.34735171916432,0.005192355,0.0012217305,0.01282817,290.55984,-80.65369,5.345864,STD
342214736000,3.544819,0.771693830664926,9.77237061139012,1.32813270912013,0.004581489,0.003970624,0.024129177,290.55756,-80.65645,5.339567,STD
342219813000,3.549896,0.778282756345788,9.76919680446759,1.30860744453571,0.010995574,0.009773844,0.025350908,290.5549,-80.66546,5.3293686,STD
342224747000,3.55483,0.792482455458279,9.773930142943,1.28967443660222,0.005497787,-0.0018325958,0.017715093,290.5564,-80.67094,5.320631,STD
342229737000,3.55982,0.807746793271918,9.78039123796708,1.27206778508436,0.006414085,0.004276057,0.018325957,290.55365,-80.6789,5.315898,STD
342234785000,3.564868,0.827762831727564,9.79540304212814,1.2620597763068,0.016493361,-0.0030543262,0.016493361,290.55853,-80.689186,5.3094163,STD
342239765000,3.569848,0.842759,9.80490815729143,1.25107790545054,0.010079277,0.004276057,0.019242255,290.56134,-80.69534,5.3029976,STD
342244863000,3.574946,0.842759,9.79749587504745,1.23625287655811,0.0106901415,0.004276057,0.02107485,290.56848,-80.70573,5.2965293,STD
342249776000,3.579859,0.842759,9.79035257519168,1.22196582929477,0.018020526,0.0027488936,0.01985312,290.57532,-80.71531,5.2934566,STD
342254779000,3.584862,0.83373265789724,9.7724531174403,1.2312983825597,0.016798794,-0.00580322,0.016187929,290.58417,-80.72296,5.290512,STD
342259787000,3.58987,0.818858053997726,9.74766214545642,1.25608935454358,0.009773844,-0.0070249503,0.019547688,290.59113,-80.72982,5.2890253,STD
342264794000,3.594877,0.804675830499711,9.73337771461583,1.27349126530907,0.010995574,-0.005497787,0.01863139,290.60202,-80.7429,5.2815404,STD
342269859000,3.599942,0.790664716947814,9.72403677392644,1.2875024325053,0.01038471,-0.013744468,0.020463986,290.61575,-80.75269,5.2763634,STD
342274768000,3.604851,0.788340164137156,9.72654311533112,1.30503697654863,0.011911872,-0.0061086523,0.014966198,290.62286,-80.76071,5.268362,STD
342279768000,3.609851,0.793463091279555,9.73678918358832,1.32552868511822,0.0070249503,-0.017715093,0.010079277,290.6376,-80.766594,5.262218,STD
342284758000,3.614841,0.810713533769231,9.74594822307692,1.3311762,0.003970624,-0.0106901415,0.005192355,290.646,-80.770226,5.2569532,STD
342289762000,3.619845,0.832655995868132,9.75472492747253,1.3311762,0.0009162979,-0.01740966,-0.004581489,290.66187,-80.77435,5.2499433,STD
342294810000,3.624893,0.852941597771966,9.758766,1.33881314832897,-0.005497787,-0.017104227,-0.009468411,290.67017,-80.774414,5.245101,STD
342299821000,3.629904,0.871536713455391,9.758766,1.35275948509154,-0.004581489,-0.018325957,-0.0009162979,290.68057,-80.77493,5.241745,STD
342304832000,3.634915,0.890386448157554,9.7564358923414,1.35757654100189,-0.004581489,-0.016187929,-0.0076358155,290.68717488558,-80.7743641530928,5.23803995463176,STD
342309828000,3.639911,0.909446603620157,9.75167076018325,1.35281150835574,-0.0036651916,-0.021380283,-0.005192355,290.69376,-80.7738,5.234346,STD
342314846000,3.644929,0.926336997993579,9.75615269341894,1.34336625200642,-0.014660766,-0.014049901,-0.0061086523,290.70367,-80.76833,5.23007,STD
342319899000,3.649982,0.940901074157303,9.77071707373596,1.3288021758427,-0.015577064,-0.022602014,-0.009162978,290.71014,-80.76792,5.2251363,STD
342324871000,3.654954,0.94810385,9.77545446585468,1.30680647831564,-0.010079277,-0.018325957,-0.0021380284,290.71057,-80.763695,5.2244716,STD
342329844000,3.659927,0.94810385,9.77049647907558,1.27705912710806,-0.0076358155,-0.016493361,0.0030543262,290.7142,-80.75949,5.22292,STD
342334833000,3.664916,0.94810385,9.75568282841122,1.25907443136449,-0.022602014,-0.015577064,0.00580322,290.71524,-80.755554,5.2216954,STD
342339862000,3.669945,0.94810385,9.73317734841121,1.25007223936449,-0.018020526,-0.025350908,0.002443461,290.7188,-80.756966,5.2205687,STD
342344919000,3.675002,0.943718360647095,9.7226517904693,1.2405994106471,-0.01740966,-0.019242255,0.007330383,290.7214,-80.75527,5.2232537,STD
342349874000,3.679957,0.933907931868927,9.72755710729791,1.23078898186893,-0.016798794,-0.032986723,-0.0009162979,290.73297,-80.757385,5.222337,STD
342354846000,3.684929,0.914781663947447,9.72059033349985,1.23763844476971,-0.005192355,-0.026572637,-0.0027488936,290.73578,-80.76298,5.220054,STD
342359842000,3.689925,0.886100036751923,9.70146936517135,1.26153977996803,-0.009773844,-0.0290161,0.0030543262,290.74503,-80.764946,5.2185574,STD
342364880000,3.694963,0.864890460696517,9.68952930762852,1.26711636069652,-0.029626964,-0.03481932,-0.0070249503,290.75552,-80.771996,5.2069507,STD
342369957000,3.70004,0.851451706246545,9.6850496292611,1.25367760624655,-0.020158553,-0.028099801,-0.0009162979,290.76227,-80.781166,5.201428,STD
342374853000,3.704936,0.841175473320341,9.68531895414914,1.24656842667966,-0.020158553,-0.03359759,-0.005497787,290.76953,-80.78809,5.184893,STD
342379889000,3.709972,0.83622842595138,9.69521273894758,1.25151547404862,-0.022602014,-0.036651913,-0.0061086523,290.77377,-80.79483,5.1713347,STD
342384877000,3.71496,0.843409387589134,9.70300956508206,1.26478889470855,-0.032986723,-0.041233405,-0.007330383,290.78137,-80.80404,5.1558514,STD
342389897000,3.71998,0.870616850067912,9.70754423212601,1.29199637612715,-0.034513887,-0.043676864,-0.01160644,290.7893,-80.81508,5.13985,STD
342394847000,3.72493,0.895022719601895,9.70978706194771,1.3142124303726,-0.03726278,-0.04550946,-0.01740966,290.79776,-80.8235,5.1251106,STD
342399968000,3.730051,0.91289382463879,9.705319191218,1.32314798522365,-0.03726278,-0.047036625,-0.021685716,290.80682,-80.832466,5.1101146,STD
342405126000,3.735209,0.931063465633356,9.7050031445974,1.33487431701495,-0.041233405,-0.05131268,-0.029626964,290.8081,-80.837616,5.0994916,STD
342409865000,3.739948,0.949042871174606,9.73646725096563,1.36633818870952,-0.049785517,-0.05375614,-0.033292156,290.8093,-80.8415,5.089176,STD
342415256000,3.745339,0.972686700821104,9.77031724266247,1.39525232569881,-0.051618114,-0.044593163,-0.025045475,290.81073,-80.838615,5.084513,STD
342419929000,3.750012,1.01568781173131,9.78595391378407,1.37179723737771,-0.046120327,-0.041233405,-0.02443461,290.81485,-80.83735,5.0772157,STD
342424881000,3.754964,1.06125629048742,9.80252416745283,1.34694177036164,-0.05009095,-0.038789943,-0.023518313,290.81287,-80.825005,5.0801673,STD
342429867000,3.75995,1.07594488399516,9.799965241421,1.32404058002418,-0.044898596,-0.043676864,-0.020463986,290.8119,-80.81599,5.083972,STD
342434872000,3.764955,1.08040241993862,9.79105044880498,1.30175290030689,-0.04886922,-0.04062254,-0.014049901,290.8077,-80.80345,5.0885224,STD
342439852000,3.769935,1.0821792,9.79298583496544,1.27365744714862,-0.042455133,-0.04337143,-0.016798794,290.81015,-80.79568,5.0940933,STD
342444874000,3.774957,1.0821792,9.8022203171083,1.24133569893433,-0.04337143,-0.034513887,-0.005192355,290.8075,-80.782265,5.1047554,STD
342449876000,3.779959,1.08747965728922,9.80134970875133,1.19667875723586,-0.03848451,-0.030543262,-0.00061086525,290.81116,-80.77512,5.1149254,STD
342454882000,3.784965,1.09771262651014,9.79111706008538,1.14039737309498,-0.04642576,-0.03023783,-0.00061086525,290.811602164007,-80.7702009254241,5.12024423103483,STD
342459839000,3.789922,1.08568444468758,9.79271295503889,1.11266222234379,-0.042455133,-0.026572637,-0.0036651916,290.81204,-80.76533,5.125511,STD
342464838000,3.794921,1.06113135987691,9.80089706026156,1.10038567993846,-0.02443461,-0.025350908,-0.0030543262,290.81586,-80.76713,5.133268,STD
342469870000,3.799953,1.043872,9.80665,1.091756,-0.021991149,-0.015271631,0.005497787,290.82254,-80.768585,5.1463556,STD
342474850000,3.804933,1.043872,9.80665,1.091756,-0.021685716,-0.023518313,0.0030543262,290.8344,-80.77535,5.1567645,STD
342479887000,3.80997,1.03945615590512,9.80885795662962,1.091756,-0.011301007,-0.01160644,0.0018325958,290.84814,-80.78226,5.1667333,STD
342484944000,3.815027,1.0298431883684,9.81366451568083,1.091756,-0.0033597588,-0.010995574,0.0070249503,290.86707,-80.78803,5.178177,STD
342489894000,3.819977,1.04789595853615,9.81043267108089,1.11686512840014,0.0070249503,-0.009773844,0.008246681,290.8818,-80.7979,5.188128,STD
342494942000,3.825025,1.0998040420723,9.79745584216177,1.17309888180029,0.011301007,-0.019547688,0.013133603,290.89905,-80.80661,5.2005816,STD
342499854000,3.829937,1.14366011701547,9.787497,1.22228465978162,0.009468411,-0.010995574,0.023823744,290.9133,-80.81433,5.211974,STD
342504910000,3.834993,1.1632417274492,9.787497,1.25165699875645,0.016187929,-0.013439035,0.03023783,290.9333,-80.82483,5.2239184,STD
342509848000,3.839931,1.1722963013015,9.78278784261334,1.27654080426651,0.014660766,-0.0070249503,0.029321533,290.93115,-80.82405,5.2387104,STD
342514897000,3.84498,1.14729026061024,9.76194951163592,1.28904384637132,0.015271631,-0.016187929,0.028710667,290.9339,-80.82423,5.255554,STD
342520775000,3.850858,1.11887615688255,9.73921043081364,1.30284836077936,0.013133603,-0.0067195175,0.029932396,290.931,-80.812164,5.2805333,STD
342524926000,3.855009,1.10453255349089,9.73562445507848,1.30643426162728,0.01038471,-0.00580322,0.029932396,290.9331,-80.80071,5.304836,STD
342529922000,3.860005,1.08726908865235,9.73130849873715,1.31075012783691,0.0076358155,-0.00580322,0.028099801,290.9342,-80.78674,5.327121,STD
342534881000,3.864964,1.07212658789521,9.73254920551039,1.3095094469738,0.008246681,0.015271631,0.026267206,290.92886,-80.773315,5.3478527,STD
342539879000,3.869962,1.05771380668473,9.73615247606143,1.30590625167118,0.008552114,0.0290161,0.02321288,290.92563,-80.76009,5.367308,STD
342544988000,3.875071,1.04418822474888,9.74056166103868,1.30212957525112,-0.0033597588,0.02443461,0.029626964,290.92557,-80.73959,5.3928876,STD
342549931000,3.880014,1.04924679734986,9.75573716755717,1.29707100265014,-0.003970624,0.026267206,0.027488936,290.92014,-80.724144,5.4137106,STD
342555107000,3.88519,1.05144072053694,9.76733894454243,1.29487706897903,0.00061086525,0.022907447,0.02321288,290.92166,-80.706825,5.4350896,STD
342559885000,3.889968,1.04247380121497,9.76285541465804,1.3038439414854,0.0009162979,0.028710667,0.029321533,290.9196,-80.687546,5.457685,STD
342564906000,3.894989,1.0324631847086,9.75937665118292,1.31263323843047,0.008857546,0.018936822,0.032375857,290.92618,-80.672485,5.4755874,STD
342569919000,3.900002,1.01861191569533,9.7639938372764,1.31725032810156,0.010079277,0.021991149,0.02687807,290.9274,-80.65689,5.4914985,STD
342575163000,3.905246,1.0055647,9.76595862071926,1.32207627585615,0.016187929,0.02565634,0.024740042,290.93015,-80.64373,5.504536,STD
342579847000,3.90993,1.0055647,9.7445631560622,1.32635536878756,0.0106901415,0.025961773,0.03023783,290.93274,-80.62825,5.517802,STD
342585245000,3.915328,1.00534483607817,9.72034906574329,1.33172585865667,0.0067195175,0.018936822,0.029626964,290.93387,-80.61937,5.524957,STD
342589821000,3.919904,0.997029982307182,9.71619155203491,1.35251294967271,0.0106901415,0.021380283,0.021991149,290.93216,-80.61161,5.5310454,STD
342594849000,3.924932,0.987893818679442,9.71162337482212,1.3753533110426,0.0036651916,0.028405234,0.023518313,290.93036,-80.59884,5.5342503,STD
342599853000,3.929936,0.990312241756639,9.73038770878319,1.36735671546542,0.0015271631,0.024740042,0.03481932,290.9308,-80.58799,5.5383863,STD
342604851000,3.934934,0.994967902334403,9.75366601167202,1.35338978234608,0.013439035,0.021991149,0.028099801,290.9295,-80.581825,5.537553,STD
342609840000,3.939923,0.984140688753872,9.75284257993805,1.35329160281153,0.01038471,0.03359759,0.02443461,290.91895,-80.56828,5.5425034,STD
342614845000,3.944928,0.968913340965769,9.74522914454769,1.35709843975856,0.004886922,0.040927973,0.0290161,290.91037,-80.55689,5.548038,STD
342619853000,3.949936,0.953569208895172,9.73824247672901,1.36401808394954,0.013439035,0.040011674,0.0290161,290.903,-80.553604,5.544585,STD
342624856000,3.954939,0.937938669383428,9.73303219715094,1.37964859625924,0.0021380284,0.03726278,0.03145956,290.8939,-80.543365,5.5430684,STD
342629869000,3.959952,0.924925452337432,9.73204844190851,1.39266177875061,0.0061086523,0.03756821,0.021685716,290.88998,-80.5375,5.53745,STD
342634853000,3.964936,0.915534257791441,9.73674413969503,1.40205292916872,0.0009162979,0.03756821,0.024129177,290.88635,-80.52471,5.536237,STD
342639859000,3.969942,0.90979666,9.74144237515831,1.40962006619581,-0.010079277,0.03756821,0.02107485,290.88382,-80.51285,5.526055,STD
342644947000,3.97503,0.90979666,9.74618886205553,1.41436704875792,-0.004276057,0.03390302,0.024129177,290.88193,-80.502525,5.5187845,STD
342649820000,3.979903,0.908189046019654,9.74758152031202,1.42058271117415,-0.0021380284,0.032070424,0.01740966,290.88095,-80.48964,5.5072637,STD
342654861000,3.984944,0.903298290392057,9.74269117323473,1.43036417136055,-0.004581489,0.03145956,0.020158553,290.88004,-80.4753,5.499727,STD
342659835000,3.989918,0.897031419140401,9.74280133099177,1.44449207717904,0.003970624,0.030543262,0.022907447,290.8789,-80.46417,5.49536,STD
342664916000,3.994999,0.888036156504298,9.75179628366762,1.46698016332378,0.009468411,0.02687807,0.023823744,290.87857,-80.45198,5.4915714,STD
342669874000,3.999957,0.882949108420951,9.75688315646062,1.48252209747737,0.005192355,0.024740042,0.010995574,290.87927,-80.44005,5.4809265,STD
342674860000,4.004943,0.892144193031003,9.74768838869632,1.47332704167148,-0.005192355,0.014660766,0.022602014,290.88214,-80.42411,5.478197,STD
342679868000,4.009951,0.89897693705148,9.74085588011967,1.46338702141752,-0.003970624,0.021380283,0.015577064,290.8874,-80.40545,5.4750385,STD
342684863000,4.014946,0.889106666577943,9.75072581048179,1.44858166208604,0.0036651916,0.0290161,0.02107485,290.89398,-80.38271,5.478991,STD
342689838000,4.019921,0.879564411890956,9.75501152972739,1.43802278810904,-0.004886922,0.027794369,0.007941248,290.89795,-80.365265,5.4746966,STD
342694886000,4.024969,0.871196833111207,9.73409258277802,1.44639036688879,-0.0076358155,0.04337143,0.011911872,290.89392,-80.347755,5.4758444,STD
342699833000,4.029916,0.862996672211164,9.71359218052791,1.45459052778884,-0.010995574,0.034513887,0.006414085,290.8995,-80.335815,5.4705563,STD
342704899000,4.034982,0.879012117515176,9.70660703804128,1.44712485463375,-0.007941248,0.036651913,0.00580322,290.8971,-80.323654,5.4668655,STD
342709903000,4.039986,0.898406039919061,9.70175846377985,1.43742790861999,-0.010079277,0.03726278,0.0021380284,290.89783,-80.31124,5.461323,STD
342714904000,4.044987,0.903456394287631,9.69483213419817,1.4397575680832,-0.014660766,0.03970624,0.0061086523,290.89252,-80.30023,5.4524693,STD
342719892000,4.049975,0.907017795793633,9.68770955431298,1.44331900677701,-0.009468411,0.04337143,-0.0018325958,290.8872,-80.293724,5.439525,STD
342724881000,4.054964,0.908648490644809,9.68559646010929,1.44724605736612,-0.011301007,0.040317107,0.0015271631,290.88107,-80.283104,5.433403,STD
342729877000,4.05996,0.903419453180328,9.70128335409836,1.45247504022951,-0.0125227375,0.035124753,-0.00061086525,290.87503,-80.27612,5.423769,STD
342734849000,4.064932,0.903761683566049,9.716194849073,1.44859096766126,-0.013744468,0.03390302,0.007330383,290.86758,-80.26505,5.419153,STD
342739857000,4.06994,0.913024060808227,9.73008871234067,1.43006625186365,-0.01863139,0.025045475,0.0033597588,290.86435,-80.25527,5.4113626,STD
342744869000,4.074952,0.915188460534133,9.73821797389299,1.42155249092251,-0.013439035,0.021685716,-0.00030543262,290.8575,-80.24778,5.4062567,STD
342749947000,4.08003,0.901729704037823,9.73373162647601,1.43501125210332,-0.014966198,0.016493361,-0.0009162979,290.85376,-80.23789,5.4015245,STD
342754880000,4.084963,0.888611202857143,9.730036,1.4488070301273,-0.013744468,0.0070249503,0.004886922,290.8554,-80.23078,5.400565,STD
342759853000,4.089936,0.875138635428572,9.730036,1.46677036895804,-0.021991149,0.01282817,0.007330383,290.8543,-80.22189,5.3981714,STD
342765262000,4.095345,0.8619126,9.730036,1.48482684667335,-0.015577064,0.011301007,0.007941248,290.85675,-80.21536,5.395408,STD
342769882000,4.099965,0.8619126,9.730036,1.48852500916082,-0.01282817,0.008246681,0.007330383,290.85782,-80.20609,5.392911,STD
342774892000,4.104975,0.8619126,9.730036,1.49253535419592,-0.01282817,0.008552114,0.01282817,290.86145,-80.19034,5.397541,STD
342779910000,4.109993,0.858658514835979,9.73329015312169,1.46794915266667,-0.016798794,0.007330383,0.013439035,290.86646,-80.17564,5.4006734,STD
342784886000,4.114969,0.853615746920635,9.73833302634921,1.427607062,-0.02321288,0.0012217305,0.0106901415,290.8725,-80.16049,5.4044166,STD
342789892000,4.119975,0.858842600217825,9.74611959638773,1.40435383162098,-0.007941248,0.0021380284,0.008857546,290.8765,-80.148285,5.4110456,STD
342794953000,4.125036,0.867640600726085,9.75491732129243,1.38675773873661,-0.0143553335,0.0012217305,0.013133603,290.8824,-80.12942,5.418697,STD
342799876000,4.129959,0.884906641564957,9.76413300310302,1.36832634597642,-0.007330383,0.0012217305,0.013439035,290.89264,-80.12468,5.424019,STD
342804859000,4.134942,0.909586639615225,9.77400519817956,1.34858241969384,0.00030543262,0.004886922,0.015271631,290.90173,-80.118004,5.430596,STD
342809917000,4.14,0.924697349278499,9.77525799476912,1.34873884891775,0.005192355,0.002443461,0.01038471,290.91263,-80.11651,5.440355,STD
342814860000,4.144943,0.933235971645022,9.77098859442641,1.36154678246753,0.0070249503,0.00580322,0.008552114,290.92053,-80.11549,5.450652,STD
342819899000,4.149982,0.93852705,9.77035108064516,1.37149141774194,0.006414085,0.002443461,0.0143553335,290.9286,-80.11902,5.4609976,STD
342824902000,4.154985,0.93852705,9.77543530507216,1.37657548290535,0.01282817,0.0012217305,0.02107485,290.9351,-80.1247,5.4705343,STD
342829855000,4.159938,0.940972688366765,9.77792,1.37172321043682,0.018325957,-0.006414085,0.016187929,290.9458,-80.12622,5.4763474,STD
342834859000,4.164942,0.945852263481316,9.77792,1.35708453604521,0.023823744,-0.009468411,0.02321288,290.95468,-80.12637,5.486957,STD
342839852000,4.169935,0.953157762367283,9.77792,1.34022200165159,0.023823744,-0.015882496,0.019547688,290.9665,-80.127945,5.496869,STD
342844966000,4.175049,0.962787310745183,9.77792,1.32096295517106,0.024740042,-0.022296581,0.03145956,290.97815,-80.12747,5.5128193,STD
342849881000,4.179964,0.972010825285672,9.78029671227659,1.31439926264284,0.025961773,-0.025350908,0.029932396,290.98975,-80.13443,5.520201,STD
342854956000,4.185039,0.981504381297002,9.78504358941303,1.3191460406485,0.030543262,-0.03359759,0.032375857,291.0039,-80.139824,5.532109,STD
342859856000,4.189939,0.984491693820966,9.787497,1.31967999382097,0.035124753,-0.044898596,0.03359759,291.0218,-80.14783,5.543721,STD
342864855000,4.194938,0.980277766948332,9.787497,1.31546606694833,0.036651913,-0.03359759,0.032375857,291.0355,-80.15609,5.554264,STD
342869892000,4.199975,0.975370996316507,9.787497,1.30982762919509,0.028710667,-0.03176499,0.03359759,291.05914,-80.15718,5.568964,STD
342874858000,4.204941,0.967737838656609,9.787497,1.29837781300056,0.03573562,-0.02687807,0.029932396,291.07874,-80.16323,5.580807,STD
342879890000,4.209973,0.960003233472434,9.787497,1.28677582446032,0.035430185,-0.027794369,0.0290161,291.10098,-80.16563,5.5921264,STD
342884859000,4.214942,0.965833475578533,9.78206170277367,1.26155129350074,0.036651913,-0.022907447,0.031154128,291.12,-80.17018,5.6024003,STD
342889843000,4.219926,0.977584034711965,9.77422783308715,1.23021651004431,0.03573562,-0.0106901415,0.03145956,291.13705,-80.17466,5.611222,STD
