timestamp,rel_time,acc_x,acc_y,acc_z,gyro_x,gyro_y,gyro_z,azimuth,pitch,roll,label
9626026828000,0,-4.22205707851163,8.99342456186046,0.426207985650233,0.33567044,-0.41691554,0.07880162,204.86339,-73.43287,-12.603233,STD
9626031747000,0.004919,-4.21790553884455,8.99596160986536,0.411216356454786,0.33841935,-0.41905355,0.07880162,204.87895,-73.424835,-12.687038,STD
9626036733000,0.009905,-4.2136974524896,8.99853321412485,0.396020531456108,0.33292156,-0.42424592,0.07238753,204.87646,-73.380516,-12.801026,STD
9626041792000,0.014964,-4.20942775556426,9.00114246922889,0.380602224462864,0.31490102,-0.43066,0.06169739,204.87497,-73.333466,-12.913229,STD
9626047102000,0.020274,-4.20494621955447,9.00388118134639,0.364418945132142,0.31490102,-0.43035457,0.060170226,204.87267,-73.28936,-13.021969,STD
9626051821000,0.024993,-4.20096347597062,9.00631507635251,0.350036855647834,0.31429017,-0.43157628,0.0571159,204.873,-73.239456,-13.13097,STD
9626056805000,0.029977,-4.1967570775765,9.00888564908201,0.334847126046267,0.310625,-0.419359,0.054367006,204.86908,-73.18909,-13.2383585,STD
9626061801000,0.034973,-4.19254055141738,9.01146241099143,0.319620824062032,0.31642818,-0.4147775,0.06047566,204.86707,-73.14201,-13.341061,STD
9626066801000,0.039973,-4.1883206493366,9.01404123596083,0.304382331283574,0.31856623,-0.41355577,0.05375614,204.86298,-73.09055,-13.446078,STD
9626071760000,0.044932,-4.18413535045288,9.01659891456548,0.2892687941459,0.31642818,-0.40775254,0.053145275,204.85533,-73.042564,-13.545697,STD
9626076779000,0.049951,-4.17989941274419,9.01918753906977,0.273972395094884,0.32559118,-0.4089743,0.04550946,204.8498,-72.99414,-13.646478,STD
9626081803000,0.054975,-4.17565925513342,9.02177874239902,0.258660757551089,0.32345316,-0.39187005,0.040317107,204.83691,-72.94431,-13.745622,STD
9626086802000,0.059974,-4.17144019703305,9.02435705160343,0.243425312471187,0.31520647,-0.38637227,0.037873644,204.82773,-72.89436,-13.843129,STD
9626092807000,0.065979,-4.16637209463403,9.02745422039168,0.22512388264426,0.3191771,-0.3830125,0.03940081,204.81406,-72.84629,-13.93943,STD
9626096959000,0.070131,-4.16286788794614,9.02959567664627,0.212469838241028,0.31581733,-0.38515055,0.031154128,204.80083,-72.79331,-14.036907,STD
9626101776000,0.074948,-4.15880243428152,9.03208011662179,0.197789074298262,0.3036,-0.37934732,0.03176499,204.78358,-72.742516,-14.129825,STD
9626106803000,0.079975,-4.1545597447295,9.03467286724602,0.1824682936588,0.2929099,-0.37751472,0.035124753,204.7682,-72.69075,-14.221785,STD
9626111760000,0.084932,-4.15037613380661,9.03722951432069,0.167360851918238,0.2864958,-0.3744604,0.03848451,204.75055,-72.63852,-14.311807,STD
9626117017000,0.090189,-4.14593932875887,9.03994089089351,0.151339100610967,0.2779437,-0.36071593,0.035430185,204.72923,-72.58422,-14.401279,STD
9626121785000,0.094957,-4.14191523013464,9.04240005838433,0.13680767389743,0.25045475,-0.3640757,0.035124753,204.7115,-72.52808,-14.486377,STD
9626126775000,0.099947,-4.13770376785802,9.04497372570379,0.121599658104529,0.24984388,-0.3549127,0.03634648,204.68607,-72.47525,-14.57131,STD
9626131742000,0.104914,-4.13351171713097,9.0475355304284,0.106461739378409,0.24281894,-0.35002577,0.047036625,204.6622,-72.42016,-14.651437,STD
9626136739000,0.109911,-4.12929434699143,9.05011280810282,0.0912323896956181,0.22968534,-0.35246924,0.04550946,204.63823,-72.36227,-14.732991,STD
9626141775000,0.114947,-4.12504406161567,9.05271020061199,0.0758841797691555,0.22174409,-0.35063666,0.043676864,204.61095,-72.30742,-14.81042,STD
9626147064000,0.120236,-4.12058024919461,9.05543808166463,0.0597649021081028,0.21319197,-0.3472769,0.04917465,204.58351,-72.25274,-14.884564,STD
9626153569000,0.126741,-4.11509015658752,9.05879313294982,0.0399396230033292,0.20708331,-0.35033122,0.047036625,204.55775,-72.19585,-14.9596,STD
9626156743000,0.129915,-4.11241136274663,9.06043017104039,0.0302662277875643,0.20372356,-0.34788775,0.05100725,204.52873,-72.141785,-15.0303135,STD
9626162755000,0.135927,-4.1073373524847,9.0635309501836,0.0119434640707466,0.19486602,-0.34697145,0.054367006,204.50104,-72.08623,-15.100131,STD
9626166791000,0.139963,-4.10393104752509,9.0656125776989,-0.000357047300024449,0.18936823,-0.34300083,0.056505036,204.4715,-72.032265,-15.168059,STD
9626172003000,0.145175,-4.09953222159608,9.068300744847,-0.0162416521722889,0.19792034,-0.33353242,0.056505036,204.43991,-71.980286,-15.23464,STD
9626176754000,0.149926,-4.09552247063892,9.07075114433293,-0.0307212680103794,0.20219639,-0.32498032,0.062308256,204.40695,-71.929665,-15.297872,STD
9626181735000,0.154907,-4.09131860418605,9.07332016976744,-0.045901854516279,0.20311269,-0.31520647,0.062002823,204.37112,-71.879166,-15.362106,STD
9626186773000,0.159945,-4.08706663084945,9.07591859380661,-0.0612561598398532,0.19975294,-0.32895094,0.064751714,204.3393,-71.83159,-15.421945,STD
9626191799000,0.164971,-4.08282478527785,9.07851082866585,-0.0765738927807589,0.20463985,-0.32589662,0.067500606,204.29977,-71.78603,-15.482018,STD
9626196773000,0.169945,-4.07862682668788,9.08107624374541,-0.0917331453967687,0.204029,-0.32589662,0.069027774,204.26512,-71.740265,-15.539744,STD
9626201785000,0.174957,-4.07439679684211,9.08366125789474,-0.107008210557895,0.21655174,-0.32742378,0.065973446,204.23018,-71.69741,-15.59701,STD
9626206740000,0.179912,-4.07021487388005,9.08621687343941,-0.122109556901346,0.2125811,-0.3277292,0.06872234,204.19458,-71.65449,-15.651239,STD
9626211743000,0.184915,-4.06599243985802,9.08879724570379,-0.137357192775471,0.20433442,-0.33169982,0.06658431,204.161,-71.61147,-15.706426,STD
9626216808000,0.18998,-4.06171767905018,9.0914095953978,-0.152793785960049,0.2012801,-0.33414328,0.07422013,204.1265,-71.57235,-15.757147,STD
9626221919000,0.195091,-4.05740409514321,9.09404567028152,-0.168370573278189,0.20341812,-0.33261612,0.07422013,204.09254,-71.531044,-15.809652,STD
9626226822000,0.199994,-4.05326605916279,9.09657446604651,-0.183313439296744,0.19211712,-0.33353242,0.067500606,204.06004,-71.48818,-15.860768,STD
9626232024000,0.205196,-4.05337752669323,9.097966,-0.136601125896414,0.20158553,-0.3368922,0.0693332,204.02745,-71.45136,-15.908552,STD
9626236815000,0.209987,-4.05794758715139,9.097966,-0.0314918588595617,0.1966986,-0.3368922,0.064751714,203.99484,-71.40826,-15.9592705,STD
9626241800000,0.214972,-4.05595232905585,9.09027654842641,0.0487230085439817,0.20830505,-0.3368922,0.0693332,203.94908,-71.424126,-15.963414,STD
9626246829000,0.220001,-4.04559422585131,9.07301304308552,0.093608154877769,0.20861048,-0.34513888,0.07360926,203.90617,-71.43574,-15.968788,STD
9626251725000,0.224897,-4.03551005935909,9.05620609893182,0.137306241266757,0.21533,-0.36682457,0.06994407,203.8176,-71.44994,-15.946627,STD
9626256816000,0.229988,-4.00525897544056,9.04122324848485,0.167993710672261,0.21777347,-0.38698313,0.064446285,203.73166,-71.46296,-15.925007,STD
9626261811000,0.234983,-3.9651167801958,9.0278427030303,0.190294944224709,0.22418754,-0.39522982,0.070249505,203.64886,-71.47834,-15.902201,STD
9626266803000,0.239975,-3.91722575133886,9.02910243263677,0.21661402918093,0.2302962,-0.41691554,0.06811147,203.51685,-71.49969,-15.845842,STD
9626271857000,0.245029,-3.8613176741363,9.04434987776961,0.247109359940145,0.2312125,-0.4370741,0.07269296,203.38782,-71.52229,-15.788739,STD
9626276834000,0.250006,-3.82626056394474,9.10062249461648,0.224880203674131,0.24220806,-0.4569272,0.07238753,203.23843,-71.5565,-15.716738,STD
9626281823000,0.254995,-3.8034978889757,9.18256806746069,0.170249978649833,0.23640485,-0.4615087,0.070554934,203.09154,-71.586975,-15.646742,STD
9626286796000,0.259968,-3.76986963861103,9.23534833706429,0.122179931498347,0.23640485,-0.4550946,0.07086037,202.93074,-71.631836,-15.559794,STD
9626291797000,0.264969,-3.72554913833341,9.26067442537346,0.0799699021442736,0.22693644,-0.44715336,0.07452556,202.77126,-71.672676,-15.475152,STD
9626296794000,0.269966,-3.68126408736615,9.28598025686335,0.0377936340614286,0.23335053,-0.43371433,0.06963864,202.60269,-71.72969,-15.382905,STD
9626302358000,0.27553,-3.63195409665536,9.31415749248667,-0.00916829421812893,0.21930063,-0.41874814,0.080634214,202.42992,-71.784805,-15.288257,STD
9626307143000,0.280315,-3.59017432251395,9.33781010442544,-0.048730238612421,0.22082779,-0.39553526,0.07941248,202.22968,-71.84226,-15.193415,STD
9626311761000,0.284933,-3.56385924458163,9.34767826723689,-0.0684665120273708,0.21380283,-0.36957347,0.07544186,202.02301,-71.8961,-15.099752,STD
9626316801000,0.289973,-3.53513945402752,9.3584481980662,-0.0900063167071774,0.19761491,-0.3576616,0.07269296,201.8183,-71.97762,-14.984481,STD
9626321865000,0.295037,-3.51224367053123,9.36367318329296,-0.115122204255927,0.18051068,-0.3268129,0.0720821,201.59914,-72.05487,-14.874804,STD
9626326811000,0.299983,-3.50404729524139,9.35547685079599,-0.147907726811732,0.17165314,-0.31398472,0.07086037,201.3806,-72.1275,-14.768624,STD
9626332138000,0.30531,-3.49635078764675,9.34614759530397,-0.18155113589247,0.15210545,-0.30268374,0.059253927,201.12794,-72.20637,-14.6481,STD
9626336807000,0.309979,-3.51641243987138,9.32608552411576,-0.171520302797428,0.13744467,-0.28496864,0.058643065,200.86778,-72.2839,-14.529104,STD
9626341795000,0.314967,-3.53784476398714,9.30465275241158,-0.160804133279743,0.111177474,-0.27672195,0.05497787,200.61064,-72.35391,-14.417687,STD
9626346805000,0.319977,-3.55194050825974,9.28317382753247,-0.165885220794805,0.096516706,-0.2751948,0.04550946,200.34937,-72.41919,-14.311774,STD
9626353564000,0.326736,-3.54713682802226,9.2543516457885,-0.223529428788126,0.07880162,-0.2648101,0.03390302,200.08228,-72.475624,-14.211533,STD
9626356846000,0.330018,-3.54480428200371,9.24035632096475,-0.251520002931354,0.05009095,-0.25686884,0.03940081,199.72882,-72.53374,-14.079957,STD
9626361801000,0.334973,-3.54607837633792,9.22140115019872,-0.276130534568814,0.043676864,-0.24373524,0.02565634,199.37158,-72.58212,-13.961777,STD
9626366792000,0.339964,-3.55049632705426,9.20372943959701,-0.289384395944172,0.030848695,-0.23090707,0.026267206,199.01028,-72.6259,-13.842384,STD
9626372118000,0.34529,-3.54770014137398,9.18490890228996,-0.303941101854061,0.028710667,-0.1994475,0.021991149,198.5819,-72.67621,-13.706355,STD
9626376873000,0.350045,-3.53764101082395,9.16814368470657,-0.317353282923202,0.028710667,-0.16401732,0.019242255,198.14853,-72.721085,-13.575583,STD
9626381716000,0.354888,-3.52739571760548,9.15106819600913,-0.33101368101318,0.019547688,-0.12583824,0.02107485,197.63014,-72.768074,-13.41448,STD
9626386810000,0.359982,-3.51909595961768,9.13809684737157,-0.304175173418459,0.007941248,-0.10567969,0.01863139,197.10855,-72.80742,-13.262991,STD
9626391821000,0.364993,-3.5119290921147,9.12734669578853,-0.261173934724462,0.014660766,-0.0693332,0.016493361,196.57266,-72.84351,-13.12058,STD
9626397059000,0.370231,-3.50589004361564,9.11750942994043,-0.214814641030821,0.00580322,-0.045814894,0.008552114,195.9378,-72.88095,-12.937586,STD
9626401859000,0.375031,-3.5138273033929,9.12147814270914,-0.159253785293965,-0.004276057,-0.02565634,0.006414085,195.2974,-72.91274,-12.764541,STD
9626406718000,0.37989,-3.52186212532159,9.12549563757231,-0.103009994038677,-0.0036651916,-0.016187929,0.005192355,194.51529,-72.94049,-12.5292635,STD
9626411760000,0.384932,-3.5242648,9.13436902157738,-0.045273212530506,-0.017715093,-0.020463986,0.013744468,193.74034,-72.95427,-12.305374,STD
9626417847000,0.391019,-3.5242648,9.14738088988095,0.0241244344315476,-0.024129177,-0.01863139,0.017715093,192.97043,-72.958496,-12.096831,STD
9626421897000,0.395069,-3.52700399783315,9.1563400595883,0.0702333773889491,-0.037873644,-0.01863139,0.021380283,192.0431,-72.948105,-11.817742,STD
9626426842000,0.400014,-3.57436530302525,9.17212705142095,0.125488174376198,-0.03359759,-0.018936822,0.026572637,191.13185,-72.92758,-11.555009,STD
9626431765000,0.404937,-3.62151590069172,9.18784380790066,0.180497146179682,-0.05497787,-0.034208454,0.026572637,190.22554,-72.879555,-11.299703,STD
9626436800000,0.409972,-3.66390564414277,9.17725457987953,0.192873252883215,-0.04642576,-0.04550946,0.04184427,189.33354,-72.83151,-11.0560875,STD
9626441815000,0.414987,-3.70276646118853,9.15134727834217,0.179919638183943,-0.05009095,-0.06047566,0.04886922,188.46355,-72.76503,-10.829968,STD
9626447068000,0.42024,-3.74043047775748,9.1104685442831,0.159480215797673,-0.03604105,-0.06383542,0.05467244,187.58138,-72.68754,-10.615144,STD
9626451774000,0.424946,-3.77076790881816,9.05846179113376,0.133476685358208,-0.029932396,-0.07360926,0.063224554,186.72066,-72.60205,-10.411834,STD
9626456739000,0.429911,-3.80520217093402,9.01495860340649,0.106397174982275,-0.021991149,-0.086437434,0.056199603,185.83838,-72.50383,-10.218383,STD
9626461734000,0.434906,-3.84494698786956,8.9950861603545,0.0799006581412449,-0.0106901415,-0.09590584,0.06811147,184.97327,-72.40712,-10.0328045,STD
9626468173000,0.441345,-3.896181597729,8.96946881084262,0.0457442873826075,0.008552114,-0.098043874,0.06627888,184.11197,-72.30582,-9.871703,STD
9626471932000,0.445104,-3.91418427308392,8.9524792115268,0.0200483525735086,0.026572637,-0.10262536,0.06719518,183.26959,-72.206116,-9.7203,STD
9626476824000,0.449996,-3.92839550835187,8.92879381941355,-0.0178483015183013,0.035430185,-0.101098195,0.07360926,182.44171,-72.10698,-9.582072,STD
9626481801000,0.454973,-3.94278170708283,8.91153083513406,-0.0539734892456983,0.03970624,-0.096516706,0.064446285,181.60347,-71.99433,-9.461666,STD
9626487839000,0.461011,-3.96013606434574,8.8999610220088,-0.094467021540016,0.049480084,-0.09987647,0.070249505,180.7816,-71.88754,-9.348623,STD
9626491779000,0.464951,-3.96943664785122,8.896853,-0.097613793789789,0.070249505,-0.089186326,0.07391469,179.97469,-71.78916,-9.260632,STD
9626496855000,0.470027,-3.97959444616563,8.896853,-0.0806841157902069,0.08124508,-0.095294975,0.076358154,179.1877,-71.69168,-9.181831,STD
9626501896000,0.475068,-3.98968220449955,8.896853,-0.0638711711889671,0.08735373,-0.10293079,0.0729984,178.40779,-71.599205,-9.118236,STD
9626506804000,0.479976,-3.98223108649877,8.91379902923457,-0.0461635188310123,0.102319926,-0.106595986,0.06688975,177.64226,-71.51235,-9.06558,STD
9626511781000,0.484953,-3.96340096952099,8.94204430301235,-0.0273333890727901,0.112399206,-0.10720685,0.0711658,176.89066,-71.42787,-9.0210495,STD
9626516768000,0.48994,-3.9514096389969,8.96956029707899,-0.0051778805046492,0.13713925,-0.11209377,0.070249505,176.14578,-71.344666,-8.987125,STD
9626521882000,0.495054,-3.94450970166244,8.99716014248145,0.0201219074936602,0.14813483,-0.112704635,0.0720821,175.41212,-71.263115,-8.961218,STD
9626526748000,0.49992,-3.93794437216117,9.02342155189255,0.0441947992417582,0.1554652,-0.11453723,0.07269296,174.70644,-71.19017,-8.944545,STD
9626531810000,0.504982,-3.93111459453367,9.05074075749037,0.0692373348005072,0.16035213,-0.108123146,0.07238753,174.00955,-71.12104,-8.936521,STD
9626536745000,0.509917,-3.92381018479814,9.08263907600928,0.0902121856018561,0.17562376,-0.1142318,0.06169739,173.31856,-71.05422,-8.934091,STD
9626541783000,0.514955,-3.9148546547007,9.12741672649652,0.103645490099304,0.18570304,-0.12339478,0.061086524,172.63673,-70.9904,-8.937084,STD
9626546941000,0.520113,-3.90141189383949,9.16944799508824,0.120106326757409,0.19425514,-0.12675454,0.065973446,171.96916,-70.92783,-8.943551,STD
9626553436000,0.526608,-3.85998577595738,9.20051769164169,0.156354206939727,0.19394971,-0.11209377,0.062002823,171.30997,-70.86616,-8.960319,STD
9626558206000,0.531378,-3.82902219282869,9.22359873022197,0.18408508689243,0.20738874,-0.116675265,0.059864793,170.6727,-70.81379,-8.978764,STD
9626561745000,0.534917,-3.79595379294252,9.24564417668103,0.225420546465566,0.21471913,-0.116980694,0.05131268,170.0401,-70.760124,-9.007827,STD
9626566812000,0.539984,-3.74860776801366,9.27720797357509,0.284603019948776,0.21624629,-0.13041973,0.054367006,169.44336,-70.721924,-9.037459,STD
9626571811000,0.544983,-3.70127472232416,9.31472277699365,0.330081066233827,0.22632557,-0.15393804,0.035124753,168.85956,-70.684685,-9.079512,STD
9626576752000,0.549924,-3.65303928012232,9.36666894777699,0.344922748506234,0.24312437,-0.16432275,0.028099801,168.2818,-70.65271,-9.122005,STD
9626581784000,0.554956,-3.60391547013252,9.41957182804046,0.360037774856112,0.2415972,-0.1695151,0.028405234,167.73067,-70.61442,-9.159958,STD
9626586800000,0.559972,-3.57079082880618,9.46538774833621,0.366848904285597,0.23365596,-0.17134771,0.02321288,167.18896,-70.57822,-9.204785,STD
9626591821000,0.564993,-3.54313518885876,9.50884656396352,0.370799698205571,0.22388211,-0.17134771,0.024740042,166.65393,-70.54331,-9.251269,STD
9626596791000,0.569963,-3.51518452502851,9.5462831199228,0.369603910874638,0.20799962,-0.14508049,0.023823744,166.14005,-70.52014,-9.298192,STD
9626601823000,0.574995,-3.48559129727169,9.57164883200281,0.356921090150013,0.1908954,-0.13103059,0.018325957,165.63515,-70.494484,-9.348154,STD
9626606989000,0.580161,-3.4502642247862,9.59980262005701,0.346925964068416,0.18417588,-0.10873401,0.008552114,165.1331,-70.47078,-9.400231,STD
9626611764000,0.584936,-3.35333067771362,9.65328289927637,0.377008799131642,0.17470746,-0.1020145,0.009468411,164.6361,-70.44365,-9.4538145,STD
9626616826000,0.589998,-3.25057096770704,9.70997759527812,0.408899754333748,0.16340645,-0.07971791,0.005192355,164.14383,-70.4239,-9.5138645,STD
9626621847000,0.595019,-3.17439092886725,9.74663459445468,0.437342520584364,0.13072516,-0.076358154,-0.005192355,163.66002,-70.39629,-9.576943,STD
9626627408000,0.60058,-3.15569948908485,9.73728916732473,0.460706844709134,0.105374254,-0.069027774,-0.0021380284,163.17276,-70.36967,-9.642261,STD
9626632069000,0.605241,-3.1394924863339,9.72979310762332,0.477625912210542,0.064446285,-0.06505715,-0.0018325958,162.72493,-70.34688,-9.693808,STD
9626636798000,0.60997,-3.1161872387194,9.72646372197309,0.460979314221128,0.04184427,-0.06169739,0.004276057,162.27808,-70.32418,-9.745713,STD
9626641793000,0.614965,-3.09157110172756,9.72294706278027,0.443396367095494,0.025045475,-0.06169739,0.002443461,161.83835,-70.29328,-9.79788,STD
9626646818000,0.61999,-3.07037813740963,9.71416425092576,0.423402595852583,-0.017104227,-0.055283304,0.005497787,161.39877,-70.253075,-9.850093,STD
9626651844000,0.625016,-3.05764674144772,9.6929453315112,0.397939874829836,-0.04153884,-0.04734206,0.009468411,160.96269,-70.214035,-9.904833,STD
9626657014000,0.630186,-3.04566535114448,9.66968477620645,0.369160136381397,-0.06963864,-0.033292156,0.0021380284,160.53577,-70.17033,-9.962446,STD
9626661799000,0.634971,-3.04900585180055,9.62959862880886,0.309031082714681,-0.08857546,-0.013439035,0.0012217305,160.10771,-70.12561,-10.020392,STD
9626666791000,0.639963,-3.05249086314332,9.58777834713515,0.246300834876804,-0.100792766,-0.0015271631,-0.0009162979,159.68018,-70.086555,-10.080156,STD
9626671812000,0.644984,-3.05602946224667,9.54839946462744,0.199056592960898,-0.12095132,0.021380283,0.005497787,159.24712,-70.04329,-10.142276,STD
9626676836000,0.650008,-3.05965436549386,9.51577507044376,0.191806706978829,-0.1328632,0.033292156,0.01282817,158.81769,-70.00021,-10.206555,STD
9626681769000,0.654941,-3.06321361066074,9.48374160378211,0.184688138597152,-0.14844026,0.03268129,0.0076358155,158.3798,-69.95795,-10.278605,STD
9626686798000,0.65997,-3.08520933344203,9.46372538796876,0.151012429473097,-0.14905111,0.03940081,0.010079277,157.9393,-69.91992,-10.349984,STD
9626691823000,0.664995,-3.11824708058869,9.45133645378872,0.101455968304299,-0.14385876,0.04184427,0.015577064,157.50429,-69.88056,-10.423209,STD
9626697208000,0.67038,-3.1616388732387,9.43591660417605,0.0343237258487307,-0.1423316,0.043982297,0.014049901,157.07329,-69.84105,-10.50242,STD
9626701845000,0.675017,-3.21166995783386,9.41923956436833,-0.0457261244359321,-0.14080444,0.0571159,0.014966198,156.64171,-69.80527,-10.581989,STD
9626706770000,0.679942,-3.26480842917981,9.40152672825597,-0.130747800660207,-0.14538592,0.06169739,0.007941248,156.2035,-69.76611,-10.672695,STD
9626711760000,0.684932,-3.29253344283762,9.37178149824891,-0.190997870767917,-0.13683382,0.07452556,0.017715093,155.76183,-69.73447,-10.761638,STD
9626716844000,0.690016,-3.30501032665072,9.33435089023661,-0.236746001793799,-0.1337795,0.08552113,0.022602014,155.32436,-69.699844,-10.855205,STD
9626721882000,0.695054,-3.30928067624565,9.30149836848204,-0.266719069212051,-0.13683382,0.09682214,0.023518313,154.86469,-69.675156,-10.96276,STD
9626726828000,0.7,-3.29555896494786,9.27862908845114,-0.262145198877945,-0.13225232,0.11301007,0.022602014,154.40459,-69.65419,-11.071811,STD
9626731749000,0.704921,-3.28617441462007,9.25678254225398,-0.257908862689963,-0.1301143,0.12186762,0.0125227375,153.94945,-69.63357,-11.191929,STD
9626736820000,0.709992,-3.29254220493018,9.23767910483184,-0.254724967534911,-0.13255776,0.12308934,0.013133603,153.49503,-69.61488,-11.310771,STD
9626741802000,0.714974,-3.29879823556022,9.21891094761686,-0.251596952219891,-0.13805555,0.13194689,0.0143553335,153.04094,-69.59725,-11.430679,STD
9626746793000,0.719965,-3.30541293149114,9.19553004327424,-0.247582252542579,-0.13713925,0.12950343,0.009773844,152.594,-69.58003,-11.551679,STD
9626753490000,0.726662,-3.3165593512513,9.13422525834202,-0.236435943351582,-0.15821409,0.13683382,-0.0067195175,152.14664,-69.55494,-11.677606,STD
9626756638000,0.72981,-3.32179885093848,9.10540825625652,-0.231196495638686,-0.17592919,0.14019357,-0.005192355,151.69948,-69.5268,-11.801749,STD
9626761700000,0.734872,-3.33117883413552,9.10599295985797,-0.217803163276457,-0.1740966,0.15790866,-0.004276057,151.25156,-69.49627,-11.932584,STD
9626766693000,0.739865,-3.34061116711707,9.11542544057599,-0.203654727823257,-0.17715092,0.16768251,-0.0076358155,150.80896,-69.46091,-12.063956,STD
9626771666000,0.744838,-3.33358761164712,9.13891510709101,-0.161881719926298,-0.17501289,0.18203785,-0.009468411,150.35483,-69.422386,-12.1966,STD
9626776918000,0.75009,-3.32422751952027,9.16607950080289,-0.113129152582296,-0.14569137,0.17562376,-0.00580322,149.9079,-69.39084,-12.327955,STD
9626781631000,0.754803,-3.33781712675632,9.17966887153754,-0.0904798718325973,-0.1142318,0.16737708,0.005192355,149.4683,-69.36399,-12.46084,STD
9626786886000,0.760058,-3.35380636180284,9.1943753017762,-0.0660757166544405,-0.087964594,0.14782938,0.0125227375,149.04791,-69.343124,-12.589445,STD
9626791694000,0.764866,-3.37834197864121,9.20255402575489,-0.0538078770643872,-0.043982297,0.1414153,0.006414085,148.63008,-69.333115,-12.718892,STD
9626796660000,0.769832,-3.40368388238899,9.21100151811723,-0.0411368929952931,-0.02076942,0.12980886,0.018936822,148.22052,-69.32691,-12.839303,STD
9626801638000,0.77481,-3.39803636135693,9.20911896195707,-0.0345382649124199,0.003970624,0.118507855,0.022602014,147.81755,-69.32791,-12.962917,STD
9626806622000,0.779794,-3.38347102566372,9.20426373176686,-0.029683132566982,0.019547688,0.105068825,0.02443461,147.42116,-69.33342,-13.082098,STD
9626812044000,0.785216,-3.3726355243299,9.21527689690722,-0.0446851838350515,0.024740042,0.10445796,0.024740042,147.0263,-69.343376,-13.202134,STD
9626816683000,0.789855,-3.36430810629803,9.22776785004686,-0.0613400329418932,0.01160644,0.10751228,0.016493361,146.63828,-69.35059,-13.322644,STD
9626821656000,0.794828,-3.3614593,9.21831388580802,-0.0773330444125304,-0.008857546,0.11026118,0.013744468,146.25598,-69.358444,-13.438555,STD
9626826626000,0.799798,-3.3614593,9.19816510921791,-0.0924447131160969,-0.019547688,0.13622294,0.015577064,145.86996,-69.36413,-13.556888,STD
9626831637000,0.804809,-3.34625743618961,9.22413788635673,-0.103368982412641,-0.04886922,0.17012598,0.0036651916,145.48396,-69.35584,-13.680756,STD
9626836633000,0.809805,-3.32687292582802,9.26290710949053,-0.113061220388534,-0.063224554,0.17623462,0.0036651916,145.292245188417,-69.3529515946053,-13.741299801071,STD
9626841721000,0.814893,-3.31917150933159,9.27830981507952,-0.110941147767264,-0.06047566,0.19120082,-0.0030543262,145.097,-69.35001,-13.8029585,STD
9626846647000,0.819819,-3.31442268466881,9.28780726605597,-0.106192273517214,-0.070554934,0.19058995,0.0030543262,144.7091,-69.33979,-13.925907,STD
9626851636000,0.824808,-3.32904877341523,9.28563355085995,-0.0705295381562654,-0.06414085,0.18448131,0.007330383,144.32532,-69.328995,-14.050948,STD
9626856647000,0.829819,-3.3479143635086,9.28091705484029,-0.0280819279424079,-0.057421334,0.16493362,0.009468411,143.94829,-69.316895,-14.17287,STD
9626861659000,0.834831,-3.36286732642968,9.28724837055642,-0.0411232821530139,-0.042760566,0.13713925,0.003970624,143.57608,-69.31012,-14.289895,STD
9626866719000,0.839891,-3.37691058608964,9.29661073918084,-0.0692098210247295,-0.043066,0.112704635,0.0027488936,143.211,-69.30274,-14.40304,STD
9626871669000,0.844841,-3.3736577465957,9.30603448021691,-0.100957507618799,-0.026267206,0.10354166,0.008552114,142.84628,-69.296104,-14.512363,STD
9626876663000,0.849835,-3.36405209501908,9.31564058314923,-0.134577311206266,-0.024740042,0.09590584,-0.0018325958,142.49261,-69.28279,-14.6239395,STD
9626882145000,0.855317,-3.36542862803289,9.33411110226589,-0.167468333463004,-0.008552114,0.09987647,0.00030543262,142.13432,-69.28359,-14.731076,STD
9626886664000,0.859836,-3.36976762014237,9.35146738785843,-0.193502576089834,-0.02076942,0.11178834,-0.0009162979,141.78,-69.27597,-14.841011,STD
9626891666000,0.864838,-3.371036,9.37755334452613,-0.204615049836082,-0.027488936,0.13469578,-0.0018325958,141.42639,-69.27245,-14.953889,STD
9626896754000,0.869926,-3.371036,9.40659730240413,-0.209455781932247,-0.050396383,0.160963,-0.0021380284,141.07126,-69.26289,-15.066918,STD
9626901638000,0.87481,-3.3539386569779,9.43451788303803,-0.20385080565001,-0.05955936,0.17898351,0.004581489,140.70834,-69.25829,-15.178722,STD
9626906638000,0.87981,-3.33010628588493,9.4631168278917,-0.19431784725861,-0.07574729,0.19517145,0.004276057,140.3419,-69.24615,-15.29315,STD
9626911634000,0.884806,-3.32636977289826,9.47467980649758,-0.149705492234255,-0.09132435,0.22143865,-0.004581489,139.97447,-69.23491,-15.408885,STD
9626916672000,0.889844,-3.33095307509262,9.47926315654983,-0.0901231475738577,-0.12034045,0.23060162,-0.004581489,139.60959,-69.21963,-15.521049,STD
9626921684000,0.894856,-3.34401739441448,9.48386118990755,-0.0359941866313559,-0.14080444,0.2415972,-0.004276057,139.24318,-69.205414,-15.630362,STD
9626926630000,0.899802,-3.36226343800077,9.48842280797381,0.0141826008919492,-0.15485434,0.23487769,-0.004581489,138.88225,-69.18686,-15.738197,STD
9626931633000,0.904805,-3.39801217770147,9.4744302370426,0.057190566320206,-0.15577064,0.22021692,-0.005192355,138.52876,-69.16208,-15.84282,STD
9626936625000,0.909797,-3.44931316021032,9.44364954040133,0.0931012824674321,-0.16218472,0.21410827,0.0012217305,138.17738,-69.13564,-15.944698,STD
9626941664000,0.914836,-3.48868004842558,9.40502871728926,0.108470029775083,-0.16340645,0.20341812,-0.0009162979,137.83774,-69.09885,-16.049194,STD
9626946756000,0.919928,-3.52206118075494,9.36211021816937,0.113238762964991,-0.16371189,0.20372356,0.008857546,137.49846,-69.065956,-16.147871,STD
9626951788000,0.92496,-3.5798302063335,9.29484320385948,0.124119394863929,-0.17837265,0.183565,0.01038471,137.15953,-69.01701,-16.251373,STD
9626956633000,0.929805,-3.64870649619001,9.21678284611578,0.137894643245918,-0.183565,0.17195857,0.01038471,136.82095,-68.972824,-16.352125,STD
9626961652000,0.934824,-3.70821480628571,9.15343615410714,0.141092016142857,-0.19242255,0.17287487,0.009162978,136.48398,-68.92314,-16.455948,STD
9626966749000,0.939921,-3.76051439514286,9.10113683830357,0.136733717071429,-0.20463985,0.16340645,0.009773844,136.15683,-68.87379,-16.556671,STD
9626971639000,0.944811,-3.81981150792228,9.0462586084456,0.111097910291192,-0.204029,0.17012598,0.004276057,135.81256,-68.805336,-16.673758,STD
9626976641000,0.949813,-3.89675442304145,8.98172581082902,0.0465651178580311,-0.2125811,0.1600467,0.013744468,135.47896,-68.73906,-16.783274,STD
9626981630000,0.954802,-3.97349736656995,8.91736073139896,-0.0177999564020725,-0.21166481,0.15302174,0.013133603,135.134,-68.66091,-16.907373,STD
9626986634000,0.959806,-4.05047104654922,8.85280213098446,-0.0823585516310881,-0.20586158,0.1591304,0.021991149,134.79132,-68.58918,-17.024708,STD
9626991651000,0.964823,-4.12279734594013,8.81577212235734,-0.132788829097287,-0.20005837,0.15088372,0.021380283,134.45825,-68.52139,-17.138979,STD
9626996695000,0.969867,-4.1905788444247,8.8067344445276,-0.168938809059869,-0.18906279,0.14446963,0.030848695,134.12587,-68.462074,-17.246943,STD
9627001631000,0.974803,-4.25323257532172,8.78418206469016,-0.205058561202732,-0.16584991,0.1469131,0.02687807,133.76022,-68.38528,-17.390682,STD
9627006658000,0.97983,-4.31042019906949,8.73652583597307,-0.24318377805979,-0.15699236,0.1328632,0.03481932,133.40477,-68.31548,-17.524685,STD
9627011636000,0.984808,-4.3621283811617,8.69581216218603,-0.263397902970958,-0.13958271,0.1151481,0.03970624,133.04303,-68.2517,-17.667065,STD
9627016674000,0.989846,-4.40473348963893,8.66740890482732,-0.249196190259027,-0.105068825,0.09285152,0.054061573,132.69041,-68.19816,-17.800901,STD
9627021730000,0.994902,-4.44668337620804,8.64084484655109,-0.222590998542973,-0.07880162,0.07086037,0.05589417,132.33868,-68.134315,-17.949362,STD
9627026636000,0.999808,-4.4856776612689,8.61918135485061,-0.170598577744375,-0.059253927,0.03145956,0.06291912,132.00177,-68.08115,-18.087114,STD
9627031635000,1.004807,-4.52544755685364,8.59708697511144,-0.120169449533061,-0.022602014,-0.0036651916,0.06383542,131.67123,-68.031,-18.226843,STD
9627036631000,1.009803,-4.56543754890416,8.57487036441308,-0.0868445093592125,0.014966198,-0.03726278,0.06627888,131.35551,-67.9872,-18.359112,STD
9627041670000,1.014842,-4.60577173023774,8.55246253789004,-0.0532327452407132,0.05222898,-0.07574729,0.06658431,131.06715,-67.94292,-18.492138,STD
9627046694000,1.019866,-4.64598584554235,8.53012141456167,-0.0197210359866271,0.08827003,-0.12644911,0.071776666,130.79535,-67.906586,-18.617525,STD
9627051617000,1.024789,-4.68539151625186,8.50822942607727,0.0131169705137444,0.13316862,-0.15027285,0.073303826,130.53046,-67.87667,-18.740448,STD
9627056630000,1.029802,-4.68865437326452,8.52411063367739,0.019153614,0.1685988,-0.17562376,0.070249505,130.28197,-67.85821,-18.851713,STD
9627061610000,1.034782,-4.68382817775754,8.54824161121231,0.019153614,0.20280726,-0.19364429,0.06719518,130.04124,-67.84592,-18.95928,STD
9627067346000,1.040518,-4.65112599677108,8.59314499248193,0.0145918231379277,0.24862215,-0.20861048,0.06352998,129.82167,-67.82768,-19.075195,STD
9627071646000,1.044818,-4.6233415726747,8.62886752742169,0.0106226404776867,0.28038713,-0.21746802,0.054061573,129.60881,-67.80929,-19.190298,STD
9627076630000,1.049802,-4.56476761332142,8.71149869525511,0.031542432014195,0.30390546,-0.2180789,0.04917465,129.3931,-67.79509,-19.299541,STD
9627081655000,1.054827,-4.49788972171928,8.80703854040103,0.0602044070067501,0.34391713,-0.21746802,0.032070424,129.18349,-67.78113,-19.411879,STD
9627086630000,1.059802,-4.41297229447017,8.9119270814492,0.08674432326614,0.37873647,-0.20708331,0.025961773,128.977,-67.776535,-19.514282,STD
9627091670000,1.064842,-4.32093497493871,9.02149548242986,0.113040757807137,0.3998113,-0.19547687,0.016493361,128.77342,-67.768845,-19.620117,STD
9627096753000,1.069925,-4.19552700143251,9.13016871977961,0.185431251136088,0.3998113,-0.18845193,0.01740966,128.56787,-67.7673,-19.709036,STD
9627101636000,1.074808,-4.05124255702479,9.23322880661157,0.288491407917355,0.398895,-0.17745635,0.0143553335,128.36078,-67.76363,-19.800516,STD
9627106631000,1.079803,-3.93460963366138,9.31755197690299,0.387009542956417,0.40042216,-0.16065755,0.0027488936,128.16283,-67.76881,-19.875126,STD
9627111626000,1.084798,-3.82892630849568,9.39441267734485,0.483085353299859,0.39003745,-0.15393804,-0.0070249503,127.96696,-67.77067,-19.948744,STD
9627116711000,1.089883,-3.71668784924545,9.46020781413689,0.578657863154513,0.37782016,-0.13255776,-0.012217305,127.79255,-67.78134,-20.00247,STD
9627121652000,1.094824,-3.60611865058904,9.52009969993185,0.670798858827767,0.35796702,-0.12522738,-0.019242255,127.62288,-67.78567,-20.058243,STD
9627126633000,1.099805,-3.50472782554381,9.57558169699126,0.742930661636511,0.3286455,-0.10995574,-0.03176499,127.468285,-67.78822,-20.101597,STD
9627131643000,1.104815,-3.40718809582232,9.6292286221793,0.806331483409229,0.2864958,-0.111177474,-0.042455133,127.31843,-67.78493,-20.145458,STD
9627137126000,1.110298,-3.30542978384329,9.68143651882566,0.834882831348775,0.2489276,-0.10995574,-0.046731193,127.19728,-67.79375,-20.168737,STD
9627141684000,1.114856,-3.22221350325994,9.72304461567057,0.847365277780955,0.20189096,-0.099265605,-0.03848451,127.07477,-67.796524,-20.19171,STD
9627146653000,1.119825,-3.14709577955922,9.75760454571627,0.858333065402561,0.15851954,-0.08460484,-0.051923547,126.97293,-67.7985,-20.206203,STD
9627153137000,1.126309,-3.06079131280651,9.79459160418942,0.870662256547205,0.12736541,-0.08399397,-0.049480084,126.87184,-67.80242,-20.213928,STD
9627156684000,1.129856,-3.03053249737274,9.81848333004926,0.859254998686371,0.082161374,-0.0729984,-0.049785517,126.783356,-67.80841,-20.214144,STD
9627161694000,1.134866,-2.99114024121511,9.85295175985222,0.839558870607553,0.065973446,-0.08582657,-0.046731193,126.70229,-67.81538,-20.212002,STD
9627166734000,1.139906,-2.9783869,9.85780929897006,0.776468042236981,0.047647487,-0.07544186,-0.043676864,126.62182,-67.82643,-20.201473,STD
9627171760000,1.144932,-2.9783869,9.8485429591876,0.693072677428049,0.025350908,-0.06261369,-0.03023783,126.54439,-67.83834,-20.187222,STD
9627176685000,1.149857,-2.98108739810749,9.82065257342922,0.617591685162756,0.010079277,-0.048563786,-0.03573562,126.46558,-67.849556,-20.17404,STD
9627181681000,1.154853,-2.98561481037093,9.77990595760787,0.5451530133081,-0.007330383,-0.023823744,-0.032986723,126.37927,-67.863174,-20.15659,STD
9627186682000,1.159854,-2.99232567980715,9.75004208593307,0.483579837396483,-0.03023783,-0.004581489,-0.036651913,126.283394,-67.87714,-20.145758,STD
9627191741000,1.164913,-3.0014860184723,9.73172150425411,0.43319794604273,-0.052534413,0.025350908,-0.030848695,126.17707,-67.89185,-20.133791,STD
9627196772000,1.169944,-3.01870109732396,9.7088751421975,0.388711418205478,-0.08827003,0.048258353,-0.021685716,126.05963,-67.89916,-20.131502,STD
9627201767000,1.174939,-3.04882138240109,9.67875469986357,0.353571003492497,-0.110872045,0.043066,-0.016187929,125.94256,-67.90567,-20.129175,STD
9627207829000,1.181001,-3.10372135701165,9.61406893146356,0.286259133996642,-0.11759156,0.03848451,-0.013744468,125.81011,-67.912384,-20.129776,STD
9627211735000,1.184907,-3.14805129394628,9.55865665494766,0.230846815049378,-0.14508049,0.034208454,-0.0106901415,125.68009,-67.91542,-20.12898,STD
9627216799000,1.189971,-3.1814360314054,9.50192085778522,0.148941209968965,-0.14660765,0.028710667,-0.010079277,125.549,-67.91714,-20.135479,STD
9627221859000,1.195031,-3.18570852373479,9.46346851604655,0.0549463144796332,-0.14263703,0.03940081,-0.0021380284,125.4151,-67.918945,-20.139996,STD
9627226823000,1.199995,-3.21137814271949,9.42085066381156,-0.019153614,-0.13530666,0.030848695,0.0067195175,125.27573,-67.914566,-20.156603,STD
9627231818000,1.20499,-3.32563014926701,9.3578146030308,-0.019153614,-0.12034045,-0.005497787,-0.007941248,125.14372,-67.90738,-20.177025,STD
9627236714000,1.209886,-3.4376177016307,9.29602790561687,-0.019153614,-0.12858713,-0.003970624,-0.012217305,124.99465,-67.90376,-20.202415,STD
9627241784000,1.214956,-3.47566892661028,9.21196068607677,-0.0339285027918022,-0.15332718,0.02565634,0.007941248,124.84877,-67.90244,-20.224545,STD
9627246776000,1.219948,-3.48733305777489,9.12253584287573,-0.0533687360149642,-0.16432275,0.06963864,0.03634648,124.69908,-67.90277,-20.246105,STD
9627251820000,1.224992,-3.52047638705433,9.04562918314941,-0.0717142687474533,-0.1328632,0.03268129,0.054367006,124.55133,-67.88203,-20.288275,STD
9627256825000,1.229997,-3.60185490413837,8.99985393325552,-0.0869727282200764,-0.10323623,-0.04886922,0.070554934,124.404205,-67.8673,-20.322489,STD
9627261735000,1.234907,-3.75535574644914,8.98700345192811,-0.0906922405529576,-0.07238753,-0.098043874,0.06169739,124.25813,-67.85312,-20.362947,STD
9627266791000,1.239963,-4.02149446429942,9.02079863461874,-0.0780189747019717,-0.018325957,-0.16340645,0.056199603,124.14202,-67.84972,-20.393423,STD
9627271792000,1.244964,-4.25312833796976,9.04854311447084,-0.0798618837278618,0.016493361,-0.22235495,0.004886922,124.03098,-67.82572,-20.446646,STD
9627276769000,1.249941,-4.2613639722851,9.0361898349892,-0.182807385765875,0.04184427,-0.17989981,-0.027183503,123.909386,-67.81,-20.497034,STD
9627281717000,1.254889,-4.26955161917927,9.02390853563715,-0.285153044613391,0.04428773,-0.099571034,-0.016187929,123.77369,-67.76423,-20.582241,STD
9627286757000,1.259929,-4.25892271457246,8.99668510718587,-0.312624501348856,0.04153884,-0.03268129,0.023823744,123.63026,-67.72114,-20.66696,STD
9627291788000,1.26496,-4.24344920859093,8.96573769128864,-0.320361302811722,0.029321533,0.021991149,0.039095376,123.46812,-67.67472,-20.756092,STD
9627296849000,1.270021,-4.23447499266641,8.91574256569272,-0.331715541329334,0.011301007,0.035124753,0.03604105,123.27815,-67.63519,-20.844435,STD
9627301801000,1.274973,-4.23906316248065,8.82856561445433,-0.350068613450077,0.0018325958,0.03176499,0.018020526,123.078674,-67.595566,-20.932497,STD
9627306807000,1.279979,-4.23276627851511,8.76455245072273,-0.355933792943495,0.014049901,0.02443461,0.008857546,122.87501,-67.55809,-21.016994,STD
9627311765000,1.284937,-4.19463647873412,8.77148525346766,-0.324736810385458,0.01985312,0.02443461,0.016187929,122.801985509868,-67.5456036684211,-21.0469715521382,STD
9627318967000,1.292139,-4.1392490608191,8.78155585559936,-0.279420015632939,0.04184427,-0.056505036,0.039095376,122.69591,-67.527466,-21.090517,STD
9627321835000,1.295007,-4.1047572671624,8.7900376524099,-0.266919707340426,0.057726767,-0.07544186,0.03940081,122.49732,-67.48668,-21.176939,STD
9627326832000,1.300004,-4.04241871576205,8.80562208684325,-0.246140161276596,0.064446285,-0.106901415,0.03726278,122.3278,-67.455315,-21.250282,STD
9627331815000,1.304987,-4.00011679497744,8.83596734677261,-0.242583320271728,0.105068825,-0.13652839,0.01985312,122.17772,-67.4294,-21.317785,STD
9627336756000,1.309928,-3.96762387938003,8.87310239827349,-0.247225160510104,0.14019357,-0.14874569,0.021380283,122.032684,-67.40811,-21.378742,STD
9627341780000,1.314952,-3.94972270976123,8.88177839493185,-0.227002994691245,0.16646078,-0.13775012,0.018936822,121.897125,-67.39001,-21.435663,STD
9627347511000,1.320683,-3.93968069333089,8.87173616878602,-0.186834902755466,0.18417588,-0.14355333,0.025045475,121.77114,-67.3767,-21.487593,STD
9627353444000,1.326616,-3.90587577037565,8.87944477847908,-0.142190668307442,0.19242255,-0.12461651,0.019547688,121.64179,-67.361885,-21.542398,STD
9627356921000,1.330093,-3.87875694020157,8.88961419820829,-0.11507181831131,0.18600847,-0.12003502,0.016798794,121.519226,-67.34922,-21.593006,STD
9627361737000,1.334909,-3.83698734133562,8.91610948858349,-0.0989774702741393,0.18906279,-0.118202426,0.0070249503,121.39577,-67.33797,-21.640594,STD
9627366777000,1.339949,-3.78862000785914,8.95756728544843,-0.1058870848071,0.1881465,-0.12461651,0.01740966,121.27392,-67.33014,-21.68231,STD
9627371903000,1.345075,-3.73942735877174,8.99973249710114,-0.112914601492807,0.19120082,-0.12156218,0.02107485,121.16185,-67.3231,-21.721321,STD
9627376820000,1.349992,-3.69049186978038,9.04348948201784,-0.118093131513379,0.20861048,-0.12705997,0.022907447,121.05508,-67.31893,-21.756826,STD
9627381792000,1.354964,-3.64025936324926,9.08915539704613,-0.122659727784598,0.22510384,-0.13683382,0.04337143,120.948906,-67.3205,-21.785425,STD
9627386800000,1.359972,-3.60055066815733,9.13637687163314,-0.12449849,0.23365596,-0.14477506,0.043982297,120.84878,-67.32904,-21.806711,STD
9627391790000,1.364962,-3.56820973805257,9.18424148222842,-0.12449849,0.24617869,-0.14874569,0.046731193,120.75063,-67.34416,-21.82147,STD
9627396913000,1.370085,-3.53500681522157,9.23338184296581,-0.12449849,0.24587326,-0.16523905,0.037873644,120.66581,-67.35926,-21.833857,STD
9627401846000,1.375018,-3.50303531057091,9.28069970350018,-0.12449849,0.24098633,-0.16982053,0.036651913,120.57899,-67.37654,-21.843723,STD
9627406715000,1.379887,-3.47147859941258,9.32740366922931,-0.12449849,0.22907446,-0.17501289,0.029321533,120.499466,-67.38764,-21.857906,STD
9627411755000,1.384927,-3.43881361189194,9.37574788514117,-0.12449849,0.22266038,-0.17623462,0.02687807,120.42063,-67.39887,-21.871002,STD
9627417334000,1.390506,-3.40265528542812,9.42926224636583,-0.12449849,0.20647246,-0.16157386,0.035430185,120.33897,-67.408844,-21.883242,STD
9627421792000,1.394964,-3.37762068078628,9.4708617409597,-0.129485525147305,0.18906279,-0.12797627,0.035124753,120.24962,-67.41768,-21.895826,STD
9627426804000,1.399976,-3.36343240954774,9.51342694974874,-0.153132658693467,0.17806722,-0.087659165,0.032375857,120.15425,-67.42678,-21.907303,STD
9627431795000,1.404967,-3.3475332956915,9.54559169961544,-0.171139895109671,0.15668693,-0.054367006,0.021685716,120.06547,-67.453255,-21.899412,STD
9627436729000,1.409901,-3.32397789057827,9.53213124725822,-0.164409805967099,0.13530666,-0.04734206,0.037873644,119.97246,-67.48453,-21.885603,STD
9627441786000,1.414958,-3.2998352712719,9.51833523842758,-0.157511942003988,0.11148291,-0.040927973,0.044593163,119.8706,-67.512566,-21.875355,STD
9627446981000,1.420153,-3.27672481701908,9.51991872872615,-0.145109120660134,0.08674286,-0.062002823,0.036957346,119.77594,-67.53844,-21.864744,STD
9627451747000,1.424919,-3.2578932424755,9.54345819690562,-0.126277531368747,0.07360926,-0.08155051,0.03145956,119.67959,-67.5648,-21.852575,STD
9627456729000,1.429901,-3.27195315138485,9.56156319097424,-0.11492168,0.06872234,-0.10170906,0.040927973,119.59856,-67.58996,-21.839046,STD
9627462804000,1.435976,-3.34519826033314,9.5728318865001,-0.11492168,0.062002823,-0.12522738,0.038789943,119.52571,-67.608635,-21.830301,STD
9627466785000,1.439957,-3.3834423704539,9.57060381477305,-0.108718490886665,0.06719518,-0.124311075,0.038179077,119.46309,-67.63311,-21.816032,STD
9627472033000,1.445205,-3.41886600056386,9.55289199971807,-0.0910066647349873,0.06841691,-0.124311075,0.041233405,119.40836,-67.656586,-21.801254,STD
9627476853000,1.450025,-3.45140066084015,9.53662466957993,-0.0747393244051311,0.064751714,-0.11209377,0.043982297,119.34547,-67.67201,-21.79496,STD
9627481802000,1.454974,-3.44590488935256,9.51847349923289,-0.116673070521632,0.04886922,-0.11301007,0.019547688,119.287766,-67.67939,-21.795628,STD
9627486802000,1.459974,-3.40672395450547,9.49888313409021,-0.209727852151989,0.035430185,-0.07238753,-0.0143553335,119.21427,-67.68415,-21.79997,STD
9627491784000,1.464956,-3.41057279192219,9.52628653265401,-0.208230557954423,0.02107485,-0.0027488936,-0.030848695,119.1374,-67.67531,-21.81697,STD
9627497004000,1.470176,-3.44762023685039,9.59111946456693,-0.134135616840945,0.03390302,0.04917465,-0.121256754,119.05679,-67.63724,-21.86494,STD
9627501808000,1.47498,-3.42768876319984,9.6677177972395,-0.00189152753771384,0.025961773,0.0143553335,-0.16554448,118.973015,-67.60573,-21.906845,STD
9627506805000,1.479977,-3.33465742655521,9.77005235497667,0.221383604638414,0.002443461,-0.15393804,-0.2284636,118.91783,-67.54436,-21.976768,STD
9627511744000,1.484916,-3.22977483387989,9.84380561683935,0.267877959415552,-0.08368854,-0.35246924,-0.2415972,118.8925,-67.48343,-22.038021,STD
9627516781000,1.489953,-3.09875821275526,9.86806793531838,-0.00871266885424002,-0.18784106,-0.47616947,-0.19761491,118.89599,-67.420555,-22.096601,STD
9627521964000,1.495136,-3.0204751450988,9.88704600691132,-0.278378099664168,-0.2666427,-0.45234573,-0.14905111,118.96049,-67.36173,-22.136238,STD
9627526833000,1.500005,-3.02955324938188,9.89612377942179,-0.509868725647815,-0.26908615,-0.3659083,-0.1554652,119.04276,-67.30018,-22.175709,STD
9627532748000,1.50592,-2.9926585168112,9.8846343887786,-0.677998115881308,-0.25259277,-0.23823744,-0.19394971,119.06747,-67.26377,-22.198828,STD
9627536741000,1.509913,-2.92473633938982,9.8566667008672,-0.689984375122767,-0.24556783,-0.116675265,-0.19975294,119.06607,-67.234924,-22.215792,STD
9627541786000,1.514958,-2.83911401593534,9.73881666743649,-0.665178906397229,-0.25473082,-0.024740042,-0.19822577,118.99531,-67.19771,-22.253977,STD
9627547006000,1.520178,-2.75082683905719,9.48753759665806,-0.57689170469909,-0.29046643,0.027794369,-0.16676621,118.89887,-67.16708,-22.286438,STD
9627551741000,1.524913,-2.67074258953267,9.25960533609564,-0.496807432660644,-0.3659083,0.08277224,-0.122783914,118.77714,-67.144295,-22.310358,STD
9627556744000,1.529916,-2.66812086948192,8.95669050127077,-0.456406469749756,-0.43279803,0.16157386,-0.054061573,118.631065,-67.136215,-22.31971,STD
9627561789000,1.534961,-2.76730118038123,8.57413796510264,-0.470575088410557,-0.49266282,0.2510656,0.027488936,118.46421,-67.14024,-22.314426,STD
9627566799000,1.539971,-2.92462372815441,8.27992893356197,-0.463052134811772,-0.5308419,0.32925636,0.09743301,118.30511,-67.151375,-22.295197,STD
9627571982000,1.545154,-3.17403392119955,8.10177850039879,-0.423463204322859,-0.5366451,0.3894266,0.14630222,118.123795,-67.17718,-22.261572,STD
9627576728000,1.5499,-3.40241531733929,7.9386486613495,-0.387212179028553,-0.52748215,0.41813725,0.17684549,117.91226,-67.18033,-22.251228,STD
9627581812000,1.554984,-3.80051507047743,7.8776373260799,-0.293599570659305,-0.48533243,0.42424592,0.17837265,117.69101,-67.18993,-22.237587,STD
9627586944000,1.560116,-4.20865814865568,7.84181336960104,-0.192401617509107,-0.41355577,0.41233405,0.183565,117.46805,-67.21052,-22.216053,STD
9627591783000,1.564955,-4.46991042862099,7.93023717623591,-0.0959391700641804,-0.3484986,0.3848451,0.15454891,117.237625,-67.167816,-22.26035,STD
9627597149000,1.570321,-4.75961485810928,8.02829093660017,0.0110286937484822,-0.23945917,0.27183503,0.14538592,117.0344,-67.087,-22.347595,STD
9627602001000,1.575173,-4.96230564040565,8.1803944578445,0.0664739703559356,-0.12889257,0.23671028,0.12370021,116.81911,-67.00165,-22.445446,STD
9627606728000,1.5799,-5.14684066139391,8.34242533063233,0.111482487644661,-0.012217305,0.14782938,0.115453534,116.65692,-66.92716,-22.535183,STD
9627611731000,1.584903,-5.11996114383427,8.47294273366021,0.06303412689924,0.042760566,0.058643065,0.09987647,116.5103,-66.83121,-22.647858,STD
9627616784000,1.589956,-5.00844332917382,8.58920583437117,-0.022383757244913,0.14019357,-0.01863139,0.07544186,116.38942,-66.74236,-22.76019,STD
9627622070000,1.595242,-4.89178329190978,8.71082996861976,-0.111740364327041,0.22571471,-0.06658431,0.03634648,116.286835,-66.632454,-22.893187,STD
9627626778000,1.59995,-4.78787949784261,8.8191550582986,-0.191326233820544,0.28191432,-0.119729586,-0.0021380284,116.21164,-66.522446,-23.026989,STD
9627631741000,1.604913,-4.52200687330827,8.93957781742819,-0.289293593960864,0.3408628,-0.14355333,-0.038789943,116.14074,-66.411766,-23.164272,STD
9627636731000,1.609903,-4.17190959887218,9.06395455349913,-0.395244055161943,0.37018433,-0.15424347,-0.053145275,116.08338,-66.30067,-23.300909,STD
9627641786000,1.614958,-3.82398223191308,9.20964926386396,-0.472257351998111,0.39553526,-0.1423316,-0.05131268,116.00495,-66.22241,-23.408411,STD
9627646990000,1.620162,-3.47085722837978,9.37444128615966,-0.528757354529995,0.42760566,-0.106595986,-0.03268129,115.92244,-66.148575,-23.511505,STD
9627651806000,1.624978,-3.19192940805751,9.51067814977245,-0.53677665988312,0.44776422,-0.086132,-0.012217305,115.84832,-66.12044,-23.568514,STD
9627656747000,1.629919,-2.95699860577162,9.63303791601158,-0.497621509133223,0.4382958,-0.06719518,0.005192355,115.763176,-66.09634,-23.62013,STD
9627661731000,1.634903,-2.79889070509843,9.72806556826635,-0.415250976109045,0.40408736,-0.0571159,-0.0021380284,115.69035,-66.12564,-23.616873,STD
9627666779000,1.639951,-2.71117640430917,9.79823656926427,-0.292450991640207,0.34697145,-0.060170226,-0.006414085,115.615845,-66.15718,-23.608341,STD
9627672572000,1.645744,-2.67644500844278,9.844957,-0.121473921307067,0.28099802,-0.06566802,-0.01740966,115.56361,-66.21663,-23.56729,STD
9627676768000,1.64994,-2.71728269652908,9.844957,0.0324527305003127,0.21013765,-0.07819075,-0.010079277,115.51467,-66.27565,-23.523136,STD
9627681708000,1.65488,-2.76536138555347,9.844957,0.213672382532833,0.129198,-0.090713486,-0.017715093,115.49832,-66.336075,-23.47024,STD
9627686736000,1.659908,-2.86271185081373,9.79317653350864,0.268929876815436,0.051923547,-0.10476339,-0.008552114,115.48594,-66.39934,-23.411589,STD
9627691792000,1.664964,-2.97626962518655,9.72435370528036,0.28269446042712,-0.02107485,-0.10842858,0.0076358155,115.47421,-66.45833,-23.354355,STD
9627697302000,1.670474,-3.10367552047237,9.64725027506249,0.296634190487027,-0.06994407,-0.11575896,0.014049901,115.50417,-66.51027,-23.29665,STD
9627701750000,1.674922,-3.25789497686406,9.55545300241359,0.292962291912766,-0.09682214,-0.1255328,0.010995574,115.53554,-66.56091,-23.23834,STD
9627706753000,1.679925,-3.43135719366434,9.45220170855961,0.288832231533489,-0.11026118,-0.13622294,0.007941248,115.562325,-66.58292,-23.20712,STD
9627711735000,1.684907,-3.64989723330116,9.33440756491313,0.207710860616152,-0.13164146,-0.13591751,0.010995574,115.58846,-66.60379,-23.175764,STD
9627716777000,1.689949,-3.89847513349421,9.20623442543436,0.079537875252574,-0.13347405,-0.124311075,0.005192355,115.614365,-66.620865,-23.148487,STD
9627721831000,1.695003,-4.11484421164021,9.09349011060721,-0.0319275147367095,-0.124311075,-0.10354166,0.004581489,115.6224,-66.6064,-23.153297,STD
9627726824000,1.699996,-4.15500307795415,9.06537927320064,-0.0520068782843705,-0.096516706,-0.07422013,0.002443461,115.62436,-66.591064,-23.160154,STD
9627731714000,1.704886,-4.19433351181658,9.03784833089779,-0.0716720270422441,-0.076052725,-0.04886922,-0.00030543262,115.57494,-66.52783,-23.221094,STD
9627736801000,1.709973,-4.20738841482626,9.03409881621622,-0.0924648710646075,-0.053145275,-0.025045475,-0.002443461,115.51741,-66.46776,-23.280792,STD
9627741986000,1.715158,-4.21164878985843,9.03835892432432,-0.113767207114372,-0.03481932,-0.0076358155,-0.021685716,115.454956,-66.404915,-23.344444,STD
9627746848000,1.72002,-4.18840092194724,9.06003885912429,-0.108871390870275,-0.008246681,-0.0021380284,-0.017104227,115.38175,-66.34541,-23.407255,STD
9627752334000,1.725506,-4.12648451652615,9.10766674852688,-0.0707690505033089,0.007941248,-0.0143553335,-0.018325957,115.309814,-66.28143,-23.47495,STD
9627756767000,1.729939,-4.06582043041338,9.15527733152118,-0.0299976332046364,0.03390302,-0.021380283,-0.027794369,115.231964,-66.216774,-23.545471,STD
9627761795000,1.734967,-3.9620975197969,9.23924374530721,0.0490294433710124,0.044593163,-0.03481932,-0.014049901,115.1601,-66.16048,-23.607195,STD
9627766873000,1.740045,-3.87048456925993,9.31323825416186,0.120684028475359,0.05467244,-0.053145275,-0.009162978,115.109474,-66.10794,-23.664799,STD
9627771794000,1.744966,-3.81222575302456,9.35984540448327,0.171174964694248,0.061086524,-0.079107046,0.008857546,115.06525,-66.064964,-23.712578,STD
9627776719000,1.749891,-3.75391958152299,9.40649043909675,0.221706942113071,0.060170226,-0.10415252,0.027794369,115.04379,-66.04685,-23.73289,STD
9627781747000,1.754919,-3.65153357876356,9.39611700471823,0.287072779834201,0.058643065,-0.12736541,0.037873644,115.02988,-66.03216,-23.749535,STD
9627786716000,1.759888,-3.54241759913573,9.37513339844783,0.354221064876973,0.048258353,-0.13622294,0.04917465,115.01904,-66.023224,-23.759794,STD
9627791788000,1.76496,-3.44911112296116,9.32515561723301,0.396726184803883,0.036651913,-0.15424347,0.07269296,115.035805,-66.0322,-23.74971,STD
9627796834000,1.770006,-3.36935223432039,9.25477983907767,0.420184715467961,0.018936822,-0.18112154,0.08277224,115.05801,-66.03984,-23.740065,STD
9627801818000,1.77499,-3.33012420977973,9.19902281521517,0.415328310985111,0.0021380284,-0.18967366,0.06688975,115.0967,-66.06107,-23.713778,STD
9627806739000,1.779911,-3.32531818031817,9.15576860024475,0.386492415243728,-0.011911872,-0.18142697,0.07147124,115.13762,-66.089645,-23.67938,STD
9627811717000,1.784889,-3.36294656354992,9.14674525356577,0.302284085889065,-0.051618114,-0.17562376,0.06169739,115.19525,-66.1185,-23.642899,STD
9627816781000,1.789953,-3.43596093667195,9.16595956228209,0.171626695129002,-0.070554934,-0.14782938,0.05375614,115.24285,-66.148544,-23.605993,STD
9627821872000,1.795044,-3.50785838281098,9.18457965165682,0.0457708164356347,-0.099571034,-0.10720685,0.040317107,115.28416,-66.1681,-23.579113,STD
9627826778000,1.79995,-3.5535454298302,9.19160856361732,0.0106269670838507,-0.09773844,-0.06414085,0.048563786,115.3154,-66.1915,-23.549414,STD
9627831758000,1.80493,-3.5999216006732,9.1987434966714,-0.0250469770196724,-0.12003502,-0.028099801,0.050701816,115.3016,-66.19889,-23.539248,STD
9627836736000,1.809908,-3.64667207928735,9.19989847287748,-0.0308217413102419,-0.12217305,0.011301007,0.042455133,115.27364,-66.20627,-23.530914,STD
9627841778000,1.81495,-3.69473242127998,9.19028620374241,0.0172386328002389,-0.12461651,0.023518313,0.05100725,115.24298,-66.21776,-23.517736,STD
9627846836000,1.820008,-3.74081069130477,9.17043897784902,0.0633168996696784,-0.121256754,0.013744468,0.048258353,115.1936,-66.21826,-23.517656,STD
9627851788000,1.82496,-3.78227768953658,9.1335797018362,0.104783834395803,-0.084910266,-0.007941248,0.06352998,115.1444,-66.22734,-23.510262,STD
9627857582000,1.830754,-3.82401043788104,9.09976722632435,0.129409832546856,-0.06719518,-0.03359759,0.0693332,115.10546,-66.23066,-23.507025,STD
9627861742000,1.834914,-3.846552053554,9.08567871652875,0.120956720785063,-0.048563786,-0.070249505,0.07574729,115.07703,-66.239746,-23.498951,STD
9627866796000,1.839968,-3.8739379491336,9.0685625317915,0.110687002793691,-0.032986723,-0.10995574,0.077579886,115.062935,-66.24546,-23.49362,STD
9627872033000,1.845205,-3.88156736307285,9.07509697827815,0.072263670723532,-0.015271631,-0.1282817,0.07727446,115.05378,-66.25301,-23.487017,STD
9627876777000,1.849949,-3.86953230633113,9.10317894490066,0.0120883421930243,-0.0021380284,-0.13103059,0.086132,115.052025,-66.263916,-23.477036,STD
9627881806000,1.854978,-3.85422445956127,9.13267265433193,-0.0420420330305783,0.010079277,-0.1255328,0.077579886,115.04862,-66.26436,-23.4786,STD
9627886730000,1.859902,-3.82984347668218,9.16053640615998,-0.0594569808474038,0.021685716,-0.12095132,0.07727446,115.04603,-66.27003,-23.475279,STD
9627891794000,1.864966,-3.80476928957826,9.1891923848881,-0.0773670734031317,0.033292156,-0.099265605,0.08277224,115.02678,-66.279755,-23.470837,STD
9627897015000,1.870187,-3.76521870288853,9.22061809233829,-0.0812464033980491,0.03970624,-0.076052725,0.09162979,115.00567,-66.29029,-23.465757,STD
9627901757000,1.874929,-3.71790882111942,9.25072456037504,-0.0726446022218013,0.05009095,-0.07360926,0.093462385,114.98452,-66.30061,-23.461319,STD
9627906747000,1.879919,-3.66200460534351,9.26070823282443,-0.0458279467108779,0.05681047,-0.06994407,0.09315695,114.95408,-66.31708,-23.451399,STD
9627911738000,1.88491,-3.59612552196777,9.23537012383376,0.00991593381361323,0.064751714,-0.06169739,0.086132,114.921906,-66.331894,-23.443443,STD
9627916780000,1.889952,-3.52833016147979,9.21561645881007,0.0474384309950419,0.06994407,-0.05131268,0.07727446,114.89365,-66.35421,-23.427567,STD
9627921871000,1.895043,-3.45859967423722,9.20167008953089,0.0660332148105454,0.06872234,-0.03176499,0.069027774,114.86043,-66.373886,-23.414436,STD
9627926844000,1.900016,-3.3968962741994,9.20174259335347,0.0946338969220544,0.05131268,0.003970624,0.064446285,114.830185,-66.39526,-23.39756,STD
9627931811000,1.904983,-3.34420270673716,9.22090380876133,0.137746889693656,0.03604105,0.02687807,0.042760566,114.7986,-66.40878,-23.388575,STD
9627936723000,1.909895,-3.29913919992556,9.23925917251326,0.17904627841165,0.028710667,0.060170226,0.036651913,114.76121,-66.43686,-23.364933,STD
9627941807000,1.914979,-3.26289567756583,9.25738124118359,0.219820105060947,0.015271631,0.11362094,0.017715093,114.71145,-66.45352,-23.35254,STD
9627946995000,1.920167,-3.24516107983585,9.28089257193592,0.25133996790861,-0.00030543262,0.12095132,0.014966198,114.67292,-66.47986,-23.328278,STD
9627953636000,1.926808,-3.28029616795833,9.32606667595296,0.26137858023834,-0.0076358155,0.13652839,0.018325957,114.61606,-66.50162,-23.30933,STD
9627956768000,1.92994,-3.29686642785889,9.34737149356799,0.266112947625286,-0.016493361,0.13439035,0.016493361,114.573906,-66.52797,-23.28406,STD
9627962528000,1.9357,-3.3039982,9.36016618386958,0.246398796465036,-0.018325957,0.1301143,0.003970624,114.52833,-66.55135,-23.261967,STD
9627966831000,1.940003,-3.3039982,9.36370180630631,0.225184378828829,-0.0125227375,0.13988814,0.00030543262,114.47959,-66.57585,-23.238892,STD
9627972008000,1.94518,-3.31419303954507,9.37427338441039,0.184183314087751,-0.0125227375,0.14446963,-0.0009162979,114.457350083854,-66.5837913364241,-23.2313096412014,STD
9627976753000,1.949925,-3.33581776625107,9.39157319287142,0.127959336258685,-0.00580322,0.13561209,-0.00030543262,114.436966,-66.59107,-23.22436,STD
9627981745000,1.954917,-3.3578735997548,9.41041608411514,0.0682179013049041,-0.004581489,0.13561209,-0.00061086525,114.39064,-66.60493,-23.21145,STD
9627986740000,1.959912,-3.37827274309168,9.43081517420043,0.00702026893816631,-0.022296581,0.14660765,-0.011301007,114.34095,-66.62094,-23.197395,STD
9627991844000,1.965016,-3.40277990826595,9.44832766334781,-0.0483153585766789,-0.015882496,0.15241088,-0.012217305,114.28254,-66.63102,-23.191216,STD
9627997048000,1.97022,-3.43275244450384,9.4616487210157,-0.0949393386100902,-0.021380283,0.17195857,-0.01282817,114.21733,-66.6368,-23.188648,STD
9628001830000,1.975002,-3.46029446377548,9.47388955456064,-0.137782511653859,-0.017715093,0.18325958,-0.006414085,114.13747,-66.644135,-23.185953,STD
9628006767000,1.979939,-3.4891089697696,9.48740299628061,-0.171291170943279,-0.023518313,0.20066923,0.0009162979,114.05059,-66.650665,-23.183834,STD
9628011761000,1.984933,-3.51875658163033,9.50222659582602,-0.191056255836347,-0.028710667,0.19730948,-0.006414085,113.9678,-66.65454,-23.184284,STD
9628016793000,1.989965,-3.55202096450753,9.52567599733283,-0.198840522995809,-0.02443461,0.20097467,-0.015882496,113.86432,-66.65419,-23.190847,STD
9628022043000,1.995215,-3.5903355625262,9.55920138312059,-0.194051205744904,-0.049480084,0.20708331,-0.028405234,113.76246,-66.64944,-23.200539,STD
9628026761000,1.999933,-3.60273887729608,9.57101908855558,-0.189606799324019,-0.05955936,0.21288654,-0.029321533,113.6633,-66.636925,-23.219185,STD
9628031732000,2.004904,-3.58317599552085,9.55634713149784,-0.184716078880214,-0.06994407,0.2321288,-0.02107485,113.55915,-66.62286,-23.238691,STD
9628036735000,2.009907,-3.5662954361196,9.4641761757845,-0.17220345200037,-0.08246681,0.25045475,-0.0015271631,113.45901,-66.6042,-23.26247,STD
9628041806000,2.014978,-3.55280910152735,9.27087264121077,-0.149726370066648,-0.09621128,0.24678956,0.0018325958,113.360886,-66.58331,-23.287968,STD
9628046792000,2.019964,-3.54097250847815,9.12893542759347,-0.124291726250658,-0.105374254,0.2452624,-0.008246681,113.26145,-66.56038,-23.315155,STD
9628051810000,2.024982,-3.53253712452168,9.10362962804985,-0.0905501640003511,-0.10873401,0.24098633,-0.017715093,113.16501,-66.53869,-23.340708,STD
9628057055000,2.030227,-3.52377596452147,9.08003508869634,-0.05746084,-0.111177474,0.2275473,-0.015271631,113.07702,-66.509384,-23.37322,STD
9628061812000,2.034984,-3.51659883374557,9.09797791563608,-0.05746084,-0.10354166,0.20830505,-0.011911872,112.99313,-66.478615,-23.407227,STD
9628066792000,2.039964,-3.50908525139031,9.11676187152422,-0.05746084,-0.106901415,0.18173242,-0.008857546,112.92197,-66.44748,-23.44009,STD
9628071931000,2.045103,-3.49661243673722,9.13094624851652,-0.0765830706527323,-0.09987647,0.17073683,-0.008857546,112.852615,-66.4177,-23.472036,STD
9628076766000,2.049938,-3.48020863618811,9.13914789186077,-0.113491647581259,-0.09285152,0.17073683,-0.011301007,112.7887,-66.388794,-23.502846,STD
9628081709000,2.054881,-3.46760330887216,9.14505071616676,-0.133261077150309,-0.07452556,0.1740966,-0.017715093,112.72604,-66.3674,-23.526554,STD
9628086735000,2.059907,-3.47165303305709,9.14100111884229,-0.0806146246880653,-0.055588737,0.17806722,-0.01038471,112.66366,-66.34996,-23.546492,STD
9628091822000,2.064994,-3.47575190829162,9.13690237200791,-0.0273292081191368,-0.053450707,0.17104226,0.0027488936,112.595566,-66.333725,-23.56563,STD
9628096986000,2.070158,-3.47991282665433,9.13274158398889,0.0267627696992133,-0.043982297,0.18173242,0.014966198,112.521286,-66.32036,-23.582726,STD
9628101765000,2.074937,-3.48376352937613,9.12889100189306,0.0768219412704556,-0.03359759,0.1731803,0.012217305,112.45592,-66.30676,-23.599737,STD
9628106798000,2.07997,-3.5108932440209,9.12216316046726,0.114412374435905,-0.029932396,0.15974127,0.021685716,112.39001,-66.30209,-23.607954,STD
9628111761000,2.084933,-3.56446709738703,9.11242227492571,0.133893748845169,-0.03481932,0.13591751,0.01863139,112.33086,-66.29315,-23.620176,STD
9628116851000,2.090023,-3.60440372277384,9.11846060231153,0.134918013590754,-0.03390302,0.118507855,0.018936822,112.29371,-66.28853,-23.626049,STD
9628122036000,2.095208,-3.63049025179932,9.14019937649943,0.117526985160669,-0.046120327,0.099571034,0.010995574,112.26499,-66.280365,-23.634768,STD
9628126764000,2.099936,-3.65680029563102,9.1563725357175,0.0996717798760472,-0.0720821,0.08002335,0.01282817,112.24047,-66.273506,-23.641592,STD
9628131806000,2.104978,-3.69377294870732,9.16072234510404,0.0735734488313665,-0.08246681,0.08002335,0.025350908,112.215996,-66.267815,-23.647346,STD
9628136721000,2.109893,-3.72981431916944,9.16496258967661,0.0481324934397352,-0.09743301,0.089491755,0.020463986,112.19292,-66.25266,-23.662197,STD
9628141837000,2.115009,-3.76732960935952,9.16937623997838,0.0216511246129628,-0.10140363,0.095294975,0.034513887,112.170845,-66.24695,-23.6676,STD
9628148094000,2.121266,-3.81337374517245,9.1739794723806,-0.00817327088185812,-0.087964594,0.08857546,0.038789943,112.14705,-66.2384,-23.675766,STD
9628151870000,2.125042,-3.84379322093654,9.16383943536779,0.0154863379668193,-0.06780604,0.08277224,0.040317107,112.1214,-66.23341,-23.680548,STD
9628156814000,2.129986,-3.88362211081409,9.15056286148238,0.046464385145808,-0.06047566,0.07360926,0.03970624,112.08462,-66.22102,-23.693844,STD
9628161800000,2.134972,-3.91606063112864,9.13670001182849,0.0727110453464761,-0.050396383,0.058948494,0.043066,112.0517,-66.21113,-23.705051,STD
9628166806000,2.139978,-3.94441437827501,9.12252333563332,0.0963391877062592,-0.026572637,0.040317107,0.042760566,112.0233,-66.200874,-23.716959,STD
9628171779000,2.144951,-3.97617045,9.1081415625,0.11731588625,-0.010995574,0.018936822,0.042760566,111.999985,-66.188774,-23.729977,STD
9628176911000,2.150083,-4.01124762814029,9.09310817220636,0.13735999850938,0.00061086525,0.003970624,0.04642576,111.980705,-66.178505,-23.74147,STD
9628181778000,2.15495,-4.01291352703297,9.07281354505495,0.124961541054945,0.008246681,-0.0009162979,0.029932396,111.97319,-66.15794,-23.763346,STD
9628186734000,2.159906,-3.99868896535465,9.04910594225774,0.0965123978941059,0.01985312,-0.0009162979,0.01985312,111.96868,-66.14116,-23.781643,STD
9628191840000,2.165012,-3.98745767960142,9.05264669435662,0.0922619867375683,0.028099801,0.003970624,-0.0018325958,111.96412,-66.117874,-23.8064,STD
9628196999000,2.170171,-3.9779900718214,9.07158230535595,0.101729604403564,0.027183503,0.01282817,-0.0021380284,111.95809,-66.09855,-23.827225,STD
9628201767000,2.174939,-3.97183080622805,9.09153296885977,0.138416820286718,0.03176499,0.013744468,-0.0009162979,111.9401,-66.07806,-23.849516,STD
9628206740000,2.179912,-3.96730926190069,9.11414069049653,0.197196934313111,0.029321533,0.004276057,0.0030543262,111.92269,-66.05875,-23.870382,STD
9628211732000,2.184904,-3.96114047919164,9.1193818056174,0.248130979318376,0.04642576,-0.03390302,0.0018325958,111.91573,-66.04272,-23.88798,STD
9628217726000,2.190898,-3.9513094568933,9.09971935040247,0.297286131871896,0.06994407,-0.057726767,0.012217305,111.90719,-66.031685,-23.900654,STD
9628221880000,2.195052,-3.94451923048003,9.09120192379993,0.322235929090299,0.10262536,-0.08246681,0.013133603,111.9177,-66.02875,-23.904469,STD
9628226765000,2.199937,-3.93666715461564,9.11083211346089,0.298679685099027,0.10354166,-0.089186326,0.018020526,111.92974,-66.0298,-23.904032,STD
9628231713000,2.204885,-3.92871381349446,9.13071546626385,0.274819645125881,0.11728613,-0.098043874,0.040011674,111.954285,-66.0379,-23.896286,STD
9628236769000,2.209941,-3.9264908,9.10584955561322,0.252938861922678,0.12614368,-0.0983493,0.049785517,111.97801,-66.04383,-23.890635,STD
9628241805000,2.214977,-3.9264908,9.06413638764919,0.232082256162429,0.13561209,-0.089186326,0.052839845,112.00105,-66.05418,-23.880816,STD
9628246900000,2.220072,-3.91033642354933,9.0526208245086,0.22026655,0.14996742,-0.06811147,0.03940081,112.01341,-66.065865,-23.870293,STD
9628251872000,2.225044,-3.87451146382018,9.07948963782564,0.22026655,0.12522738,-0.042760566,0.025961773,112.02133,-66.07734,-23.859451,STD
9628256726000,2.229898,-3.84173576074637,9.10339304561161,0.22026655,0.118202426,-0.013744468,0.022296581,112.0189,-66.07829,-23.86016,STD
9628261729000,2.234901,-3.81335414528581,9.12231395794254,0.22026655,0.087964594,-0.0015271631,0.015882496,112.01391,-66.07376,-23.865435,STD
9628266870000,2.240042,-3.7828313293257,9.14106503533715,0.21739132679619,0.053450707,0.005192355,0.008552114,112.005516,-66.078766,-23.861303,STD
9628272025000,2.245197,-3.74875830565256,9.15810154717372,0.207169412578508,0.020463986,0.022602014,-0.0030543262,111.99019,-66.07996,-23.860588,STD
9628276754000,2.249926,-3.7175010158465,9.17373019207675,0.197792219108979,0.00030543262,0.021380283,-0.0106901415,111.97573,-66.088264,-23.852089,STD
9628281795000,2.254967,-3.67811672922951,9.21010019062276,0.193389199012004,-0.013744468,0.026572637,0.002443461,111.9541,-66.09842,-23.841427,STD
9628287577000,2.260749,-3.62130636952909,9.28963546537396,0.199070240914127,-0.01740966,0.024740042,0.0036651916,111.93558,-66.10267,-23.836449,STD
9628291874000,2.265046,-3.58806708680383,9.32535143525903,0.20538370412841,0.0012217305,0.021380283,0.016493361,111.91622,-66.11967,-23.819012,STD
9628297058000,2.27023,-3.55812162620468,9.34198776365525,0.215365508114738,0.012217305,-0.0015271631,0.014660766,111.90407,-66.13218,-23.805689,STD
9628301822000,2.274994,-3.53060230245962,9.35727624137122,0.224538601129951,0.026267206,-0.00580322,0.011301007,111.8938,-66.15401,-23.783476,STD
9628306764000,2.279936,-3.50385615184113,9.36178478335747,0.236342471157427,0.049480084,-0.013439035,0.0106901415,111.89192,-66.1758,-23.76149,STD
9628311740000,2.284912,-3.47921084940008,9.35192671384981,0.251129657768928,0.057726767,-0.021991149,0.0067195175,111.89187,-66.19498,-23.742064,STD
9628316787000,2.289959,-3.46860847895634,9.33613690015566,0.267596174202802,0.045814894,-0.03268129,0.029932396,111.89966,-66.22619,-23.710226,STD
9628321898000,2.29507,-3.47223660324661,9.31436769979987,0.285736814596398,0.0290161,-0.07147124,0.02321288,111.91924,-66.24703,-23.688507,STD
9628327065000,2.300237,-3.47590448002372,9.29235997954192,0.304076217631755,0.024129177,-0.10048734,0.021991149,111.94138,-66.278656,-23.655727,STD
9628331781000,2.304953,-3.46869008012706,9.27412064055986,0.260313464624777,0.005192355,-0.11728613,-0.008552114,111.97202,-66.29853,-23.633842,STD
9628336715000,2.309887,-3.45930911304348,9.25535880434783,0.204027618043478,-0.019547688,-0.116980694,-0.019242255,112.00592,-66.32277,-23.607243,STD
9628341802000,2.314974,-3.43285655076951,9.27904738867134,0.14279479882069,-0.044898596,-0.1142318,-0.03145956,112.04975,-66.331764,-23.594984,STD
9628346851000,2.320023,-3.40203305178035,9.31427452053547,0.081147759460887,-0.06352998,-0.10170906,-0.03970624,112.09009,-66.33837,-23.584808,STD
9628351743000,2.324915,-3.37589127177827,9.35926644750152,0.0317237775359094,-0.07727446,-0.09743301,-0.018020526,112.12133,-66.348274,-23.571625,STD
9628356740000,2.329912,-3.35168776699373,9.41251437032167,-0.0118426523872142,-0.06383542,-0.07574729,-0.0076358155,112.143196,-66.35296,-23.56419,STD
9628361744000,2.334916,-3.33945155117093,9.42744658313089,-0.0458553248955398,-0.056199603,-0.044593163,0.010079277,112.14914,-66.3697,-23.54525,STD
9628366834000,2.340006,-3.33471479944612,9.4179728818385,-0.0742758550286658,-0.03726278,-0.015882496,0.006414085,112.149185,-66.38357,-23.530003,STD
9628371796000,2.344968,-3.35479032352103,9.414001,-0.0696451592444761,-0.0070249503,0.016187929,0.014660766,112.131035,-66.40919,-23.504282,STD
9628376803000,2.349975,-3.3938502766928,9.414001,-0.0403501357356685,0.007941248,0.030543262,0.025350908,112.10972,-66.4339,-23.479702,STD
9628381764000,2.354936,-3.44527478129608,9.39188937310827,-0.00661866265618937,0.019242255,0.032070424,0.029321533,112.081985,-66.459305,-23.455996,STD
9628386752000,2.359924,-3.50551905944897,9.35481616472643,0.0304547644466434,0.019547688,0.02687807,0.017715093,112.05236,-66.48254,-23.434586,STD
9628391815000,2.364987,-3.57149316023144,9.32483623529412,0.0554143393284474,0.018325957,0.014660766,0.016187929,112.01947,-66.50501,-23.413141,STD
9628396820000,2.369992,-3.64082577942141,9.30172491176471,0.0692808544788814,0.0106901415,-0.011301007,0.013133603,111.99309,-66.52297,-23.395885,STD
9628401712000,2.374884,-3.68614916070853,9.28733811463366,0.0722867704824879,-0.0009162979,-0.013439035,-0.0036651916,111.97378,-66.521706,-23.3976,STD
9628406637000,2.379809,-3.70513697874396,9.28259106099034,0.0627928545253623,-0.014049901,-0.01282817,0.007330383,111.96159,-66.527245,-23.392056,STD
9628411631000,2.384803,-3.72462619301003,9.27109985306587,0.0508419406348878,-0.020463986,-0.009773844,0.017104227,111.950584,-66.522575,-23.396887,STD
9628416722000,2.389894,-3.74479183825871,9.25093431310102,0.0357176961699928,-0.021380283,-0.0012217305,0.018020526,111.937775,-66.51849,-23.40102,STD
9628421640000,2.394812,-3.76370557113845,9.22482275082992,0.0383277986545597,-0.022602014,0.0009162979,0.03023783,111.92061,-66.519005,-23.400463,STD
9628426702000,2.399874,-3.78263849892599,9.19169042374536,0.0572607412692833,-0.043676864,0.009773844,0.03359759,111.89903,-66.51687,-23.402248,STD
9628431630000,2.404802,-3.80140833127727,9.14535398508674,0.0692858720204931,-0.052839845,0.0036651916,0.03481932,111.87877,-66.519844,-23.39959,STD
9628436656000,2.409828,-3.82094094692097,9.08187300973927,0.0741690024764127,-0.051923547,0.0033597588,0.035430185,111.85425,-66.52326,-23.396399,STD
9628441684000,2.414856,-3.83262844583564,9.038648085189,0.0651805710267058,-0.064446285,0.005192355,0.030543262,111.8294,-66.5175,-23.401217,STD
9628446658000,2.41983,-3.8364033093906,9.01599882502575,0.0425313739302639,-0.05589417,-0.00061086525,0.03023783,111.80733,-66.51387,-23.404371,STD
9628452011000,2.425183,-3.83925041142571,8.99325052366183,0.019153614,-0.050701816,-0.0021380284,0.026572637,111.784584,-66.49918,-23.418299,STD
9628456676000,2.429848,-3.81690125754877,9.00666024002001,0.019153614,-0.03940081,0.017104227,0.02321288,111.75743,-66.48527,-23.431993,STD
9628462000000,2.435172,-3.79119643049343,9.02152614213761,0.0181087822488475,-0.026267206,0.008552114,0.016493361,111.73433,-66.46789,-23.449556,STD
9628466709000,2.439881,-3.76424747553355,9.02537607324569,-0.00499033848437767,-0.0030543262,0.0070249503,0.02107485,111.703285,-66.453766,-23.464645,STD
9628471772000,2.444944,-3.73527262759092,9.02951542368107,-0.029825940156138,0.0106901415,0.01282817,0.01740966,111.673164,-66.43465,-23.484482,STD
9628476683000,2.449855,-3.71277507973532,9.0624358006617,-0.0414579087111249,0.027183503,0.011911872,0.005497787,111.64591,-66.41558,-23.504782,STD
9628481679000,2.454851,-3.69298777915633,9.11190405210918,-0.0464047364385856,0.04153884,-0.0067195175,0.0027488936,111.62259,-66.398834,-23.52288,STD
9628486672000,2.459844,-3.67820494433372,9.15920415724491,-0.0567496944550666,0.05375614,0.0030543262,0.0012217305,111.58651,-66.389946,-23.534224,STD
9628491739000,2.464911,-3.66536633980069,9.20627868304083,-0.0695883088191198,0.053145275,0.009468411,-0.0021380284,111.55757,-66.38,-23.546375,STD
9628496678000,2.46985,-3.64486299175794,9.24359293298682,-0.0939423064369779,0.05222898,0.019547688,-0.015882496,111.52741,-66.367256,-23.561584,STD
9628501903000,2.475075,-3.61235218240208,9.27145943799889,-0.135741950473547,0.06078109,0.0421497,-0.027183503,111.491554,-66.35468,-23.576895,STD
9628506769000,2.479941,-3.58829934468175,9.2970102950941,-0.155297575432438,0.052534413,0.059864793,-0.028710667,111.44912,-66.34461,-23.589191,STD
9628511737000,2.484909,-3.5782385406217,9.32216283051385,-0.130145544271516,0.048258353,0.071776666,-0.028710667,111.40192,-66.33237,-23.60399,STD
9628516926000,2.490098,-3.56787039167349,9.33596077736828,-0.074988251977887,0.04428773,0.0842994,-0.02107485,111.34402,-66.32269,-23.616508,STD
9628522138000,2.49531,-3.55765036115206,9.33255405309855,0.0203981031326781,0.028099801,0.07819075,-0.025045475,111.28886,-66.30968,-23.631897,STD
9628526823000,2.499995,-3.54846370670216,9.32949179231504,0.106139675214988,0.012217305,0.06841691,-0.024129177,111.23303,-66.30502,-23.638397,STD
9628531793000,2.504965,-3.55050423683507,9.31836208601708,0.150866978364029,0.019242255,0.06811147,-0.028405234,111.17684,-66.297966,-23.647413,STD
9628536799000,2.509971,-3.565302609466,9.29863064780327,0.145934216674555,0.008552114,0.061086524,-0.029626964,111.126366,-66.291534,-23.655006,STD
9628541872000,2.515044,-3.57731799718089,9.2869174474354,0.13072959733242,-0.009773844,0.06811147,-0.021685716,111.10087,-66.28784,-23.658382,STD
9628546797000,2.519969,-3.5865516972592,9.28230050097886,0.107645329781519,-0.015271631,0.061391957,-0.017715093,111.08215,-66.28293,-23.662874,STD
9628551721000,2.524893,-3.60240169417127,9.26882590582873,0.0913284240135777,-0.02076942,0.05467244,-0.01863139,111.056725,-66.27103,-23.673878,STD
9628556759000,2.529931,-3.62579802740762,9.24542957259238,0.0819698858329939,-0.021380283,0.056199603,-0.0125227375,111.031044,-66.262634,-23.681408,STD
9628561747000,2.534919,-3.65133799481615,9.21988977436207,0.0685135184127989,-0.027794369,0.05131268,-0.008552114,111.01184,-66.25586,-23.687859,STD
9628566818000,2.53999,-3.68061102242315,9.19061715430983,0.0489981529198312,-0.03023783,0.04886922,-0.005192355,110.99159,-66.25098,-23.692535,STD
9628571763000,2.544935,-3.71728680885132,9.16426129557434,0.0321154000343113,-0.030848695,0.037873644,0.008552114,110.97247,-66.24739,-23.695948,STD
9628577011000,2.550183,-3.76727094251616,9.13926922874192,0.0171201494962705,-0.034208454,0.036651913,0.01282817,110.951385,-66.24223,-23.700918,STD
9628581719000,2.554891,-3.80362888947815,9.10987666820798,0.00210116809880155,-0.027183503,0.029932396,0.019547688,110.927055,-66.236374,-23.706774,STD
9628586732000,2.559904,-3.83081129893366,9.06910281749552,-0.0160203879029914,-0.031154128,0.017715093,0.022602014,110.90512,-66.23067,-23.71216,STD
9628591965000,2.565137,-3.84865999479213,9.03807226579376,-0.0311632319399319,-0.026267206,0.003970624,0.022907447,110.88566,-66.22323,-23.720188,STD
9628596956000,2.570128,-3.84512413084776,9.03100075943187,-0.0382349642592099,-0.019242255,-0.0012217305,0.021380283,110.86754,-66.21633,-23.727602,STD
9628601815000,2.574987,-3.84168178203876,9.02411627748188,-0.0451196661905607,-0.01282817,-0.0027488936,0.0076358155,110.84248,-66.19914,-23.74532,STD
9628606787000,2.579959,-3.8376092975265,9.03211315371025,-0.0694064680812721,-0.006414085,0.00061086525,0.0009162979,110.81773,-66.18406,-23.761057,STD
9628612614000,2.585786,-3.8324201573368,9.05286960610006,-0.110919621025851,-0.0030543262,0.0143553335,-0.003970624,110.790504,-66.16616,-23.779753,STD
9628616833000,2.590005,-3.81791862919075,9.07246317080925,-0.126632513268786,-0.0012217305,0.03756821,0.004581489,110.75465,-66.15577,-23.79124,STD
9628622187000,2.595359,-3.78828026753372,9.10210153246628,-0.131572228176301,0.0076358155,0.048258353,0.0021380284,110.71889,-66.14142,-23.806873,STD
9628626809000,2.599981,-3.76086114317829,9.12243449321705,-0.130532251494186,0.015271631,0.058337633,0.0012217305,110.672264,-66.1286,-23.821619,STD
9628631775000,2.604947,-3.72860254612403,9.13625941375969,-0.121315499854651,0.02076942,0.06047566,0.0036651916,110.62523,-66.116486,-23.835733,STD
9628636810000,2.609982,-3.68964842246413,9.15489136467095,-0.0893045516397823,0.025961773,0.041233405,-0.0018325958,110.584274,-66.10584,-23.848372,STD
9628641937000,2.615109,-3.63619935867392,9.18404550094013,-0.00670139622919346,0.032070424,0.019547688,-0.0018325958,110.565340299649,-66.1024254231347,-23.8528915647471,STD
9628646795000,2.619967,-3.58465197120057,9.2083040209257,0.0616149214006029,0.044898596,0.007941248,0.002443461,110.5474,-66.09919,-23.857174,STD
9628651759000,2.624931,-3.52985404156765,9.22516480723533,0.107982360165632,0.044593163,-0.0027488936,0.0018325958,110.51035,-66.098114,-23.859922,STD
9628656946000,2.630118,-3.47568397301655,9.241618,0.15322891,0.04550946,-0.007330383,0.005497787,110.50053,-66.10512,-23.853636,STD
9628661744000,2.634916,-3.46593652151039,9.241618,0.15322891,0.048258353,-0.01038471,-0.002443461,110.49372,-66.108536,-23.850872,STD
9628666948000,2.64012,-3.45536425439118,9.241618,0.15322891,0.03848451,-0.014049901,-0.0012217305,110.50072,-66.12185,-23.837217,STD
9628672074000,2.645246,-3.44861915987213,9.24258678010352,0.145478825358198,0.043066,-0.0106901415,0.003970624,110.50643,-66.134026,-23.825008,STD
9628676823000,2.649995,-3.45208089097275,9.24604858349825,0.117784956310854,0.028710667,-0.01038471,0.016187929,110.514145,-66.14783,-23.810658,STD
9628682253000,2.655425,-3.45603902950221,9.25000680468869,0.0861198249301263,0.020463986,0.007941248,0.014049901,110.51352,-66.1628,-23.79541,STD
9628686804000,2.659976,-3.47363826516929,9.2535394868421,0.0602033773249246,0.004276057,0.0106901415,0.010079277,110.51762,-66.1799,-23.777563,STD
9628691853000,2.665025,-3.50200508065706,9.25759197368421,0.0318365419492122,-0.0015271631,0.014049901,0.003970624,110.5159,-66.19535,-23.761555,STD
9628696996000,2.670168,-3.52612060454508,9.260772,0.00679309814767413,0.0021380284,0.01038471,0.00030543262,110.51161,-66.20942,-23.747383,STD
9628701795000,2.674967,-3.53366167652802,9.260772,-0.00451851809475757,-0.0106901415,0.022296581,0.002443461,110.50152,-66.22271,-23.733776,STD
9628706718000,2.67989,-3.54139760013127,9.260772,-0.0161224119812946,-0.017715093,0.034208454,0.0033597588,110.486694,-66.230965,-23.725853,STD
9628711761000,2.684933,-3.55760393378016,9.27212032037534,-0.0305020013270777,-0.021991149,0.03604105,-0.0030543262,110.471535,-66.23737,-23.71963,STD
9628716906000,2.690078,-3.57703022371866,9.28766120627661,-0.0460429789149976,-0.016187929,0.040317107,0.0012217305,110.45205,-66.24693,-23.710405,STD
9628722087000,2.695259,-3.58915448972142,9.30015307756965,-0.0456462253928915,-0.002443461,0.040317107,0.0030543262,110.430565,-66.25267,-23.70523,STD
9628726799000,2.699971,-3.58192972481588,9.3037655354627,-0.00590999125392251,-0.005497787,0.025350908,0.004276057,110.4127,-66.25911,-23.699099,STD
9628731715000,2.704887,-3.5743921729747,9.30753439008966,0.0355465722068524,0.0036651916,0.025045475,0.0061086523,110.38795,-66.2662,-23.693197,STD
9628736760000,2.709932,-3.5555542001935,9.3003584556962,0.0783077482779972,0.0030543262,0.017104227,0.004581489,110.37051,-66.27228,-23.687912,STD
9628741980000,2.715152,-3.53137082359107,9.28826655696203,0.122643817225832,0.01740966,0.01160644,0.013133603,110.35254,-66.281944,-23.679407,STD
9628746874000,2.720046,-3.51021080488114,9.27544782825635,0.15322891,0.01038471,0.01160644,0.010995574,110.351295064832,-66.2848775904187,-23.6764341723251,STD
9628752083000,2.725255,-3.49217390667992,9.2574110242249,0.15322891,0.012217305,-0.009162978,0.013439035,110.34997,-66.288,-23.67327,STD
9628756991000,2.730163,-3.47661821870401,9.24090575380439,0.152991491048082,0.008246681,-0.022296581,0.007941248,110.3468,-66.29488,-23.666561,STD
9628761756000,2.734928,-3.47987844961063,9.23112519725656,0.149731256737158,-0.00061086525,-0.030848695,-0.0021380284,110.354614,-66.30133,-23.659151,STD
9628766870000,2.740042,-3.48337746762878,9.22062828934772,0.146232235065371,-0.0143553335,-0.043982297,-0.0030543262,110.370766,-66.30726,-23.652006,STD
9628771936000,2.745108,-3.4879637397606,9.21188490917179,0.137633676528632,-0.017104227,-0.053450707,0.0018325958,110.38836,-66.31207,-23.645994,STD
9628776842000,2.750014,-3.49556383371077,9.20808478283727,0.114833378806212,-0.03940081,-0.04795292,-0.00030543262,110.40524,-66.31415,-23.642193,STD
9628781711000,2.754883,-3.50310660938208,9.2043133162407,0.0922050360401165,-0.04795292,-0.0571159,-0.00030543262,110.42379,-66.315994,-23.638456,STD
9628786743000,2.759915,-3.51899718851823,9.20886551140419,0.0389788659788984,-0.05681047,-0.06261369,-0.01038471,110.43949,-66.314095,-23.638159,STD
9628792000000,2.765172,-3.53852598510473,9.216677193173,-0.0274190889084562,-0.069027774,-0.05467244,-0.008246681,110.453636,-66.31562,-23.634266,STD
9628797868000,2.77104,-3.5558535652825,9.22103580243552,-0.070897779098631,-0.08032878,-0.04550946,-0.00030543262,110.46798,-66.31027,-23.63756,STD
9628801828000,2.775,-3.56159057821647,9.21816726601619,-0.0594238649529536,-0.08674286,-0.038789943,-0.0027488936,110.480545,-66.30283,-23.642868,STD
9628806801000,2.779973,-3.56879516541865,9.21456493480069,-0.0450148308503139,-0.07269296,-0.025961773,-0.0076358155,110.47543,-66.28922,-23.655754,STD
9628811733000,2.784905,-3.5826905291693,9.21640173298283,-0.038307227,-0.07269296,-0.022602014,-0.004276057,110.471115,-66.277466,-23.66641,STD
9628816870000,2.790042,-3.60338286212408,9.22329896123379,-0.038307227,-0.0720821,-0.014049901,-0.0027488936,110.46127,-66.26466,-23.67858,STD
9628821877000,2.795049,-3.62355154250263,9.23002164409394,-0.038307227,-0.07391469,-0.008246681,-0.002443461,110.451935,-66.25444,-23.68788,STD
9628826823000,2.799995,-3.63272985164221,9.23516111680076,-0.0071066887497397,-0.053145275,-0.009468411,-0.006414085,110.44225,-66.24432,-23.697577,STD
9628831854000,2.805026,-3.63729027575958,9.23972163615712,0.0384975843290109,-0.057421334,-0.004886922,-0.01038471,110.42905,-66.2342,-23.706898,STD
9628836735000,2.809907,-3.64484343625838,9.24350365146488,0.0593464540550653,-0.06536258,-0.013744468,-0.008857546,110.42213,-66.2212,-23.71947,STD
9628841868000,2.81504,-3.65525453002471,9.24697408852806,0.0628168222675609,-0.07666359,-0.018936822,-0.0076358155,110.412735,-66.20741,-23.732777,STD
9628847183000,2.820355,-3.66603476835863,9.25056757635016,0.0664102387977409,-0.08674286,-0.02107485,-0.0015271631,110.41146,-66.19319,-23.745491,STD
9628851810000,2.824982,-3.66458511670429,9.251195,0.0537101063797968,-0.10720685,-0.013439035,-0.0070249503,110.40882,-66.17624,-23.760592,STD
9628856847000,2.830019,-3.66004802663657,9.251195,0.0355617318961625,-0.122783914,-0.0027488936,-0.01038471,110.40582,-66.1621,-23.7728,STD
9628861802000,2.834974,-3.66050798386858,9.2555306582803,0.02873042,-0.12675454,0.01282817,-0.009162978,110.39519,-66.147736,-23.78499,STD
9628867598000,2.84077,-3.6646153638301,9.26374558975877,0.02873042,-0.13255776,0.01863139,-0.013133603,110.38451,-66.13119,-23.799055,STD
9628872555000,2.845727,-3.66816611717877,9.26935251047486,0.02873042,-0.14477506,0.034208454,-0.015271631,110.36421,-66.11565,-23.812513,STD
9628876820000,2.849992,-3.67173150230447,9.25509067213687,0.02873042,-0.1459968,0.03359759,-0.01985312,110.34745,-66.09899,-23.827154,STD
9628881777000,2.854949,-3.67587537430168,9.23851483798883,0.02873042,-0.14569137,0.04734206,-0.017104227,110.32447,-66.08398,-23.840458,STD
9628886769000,2.859941,-3.68258942127623,9.2269455383477,0.0465651061725429,-0.14508049,0.054367006,-0.02076942,110.30411,-66.06645,-23.856253,STD
9628891873000,2.865045,-3.69109990916688,9.21843531705406,0.0763518333402977,-0.13775012,0.05681047,-0.014966198,110.28104,-66.053154,-23.868116,STD
9628896828000,2.87,-3.69190560243309,9.21921036374696,0.0973486658296837,-0.13775012,0.063224554,-0.029321533,110.25589,-66.03107,-23.888876,STD
9628901891000,2.875063,-3.67715884501217,9.23887260431873,0.102264259849148,-0.1301143,0.057421334,-0.023518313,110.233795,-66.01735,-23.90155,STD
9628907159000,2.880331,-3.66626242338776,9.25284961116609,0.103690300623454,-0.11789699,0.06291912,-0.023823744,110.214035,-65.99996,-23.917965,STD
9628911801000,2.884973,-3.66259629229754,9.25651581881906,0.100024163408214,-0.116980694,0.06047566,-0.013133603,110.198555,-65.987885,-23.928879,STD
9628917691000,2.890863,-3.6591109593253,9.260772,0.0949973042722892,-0.11942416,0.08002335,-0.0143553335,110.175064,-65.97934,-23.93672,STD
9628921809000,2.894981,-3.66544626252209,9.260772,0.0886619977678715,-0.11881329,0.08827003,-0.025045475,110.15608,-65.971466,-23.943874,STD
9628926818000,2.89999,-3.67315231733333,9.260772,0.0809559389333333,-0.11056661,0.09743301,-0.014049901,110.13091,-65.972626,-23.942541,STD
9628931742000,2.904914,-3.67551867896389,9.25879683771585,0.0785895762735479,-0.11026118,0.100792766,-0.012217305,110.10551,-65.96817,-23.946732,STD
9628937629000,2.910801,-3.66998702456829,9.25326506779827,0.0841212341348116,-0.1151481,0.10995574,-0.008246681,110.0756,-65.96762,-23.94726,STD
9628942002000,2.915174,-3.66231245415318,9.23578246966019,0.0959992225471953,-0.11026118,0.10048734,-0.005497787,110.04534,-65.964584,-23.950275,STD
9628946825000,2.919997,-3.64985589902913,9.20152687803398,0.117798210273058,-0.10354166,0.10170906,-0.014660766,110.00942,-65.95932,-23.955698,STD
9628952699000,2.925871,-3.63468488414239,9.15980650788835,0.144347506126618,-0.093462385,0.0842994,-0.01038471,109.98384,-65.96131,-23.95378,STD
9628956760000,2.929932,-3.62752689320328,9.1416843169036,0.140731459214901,-0.10048734,0.07086037,-0.0067195175,109.95714,-65.96037,-23.954645,STD
9628961768000,2.93494,-3.62255017696378,9.13173119622289,0.110871137873405,-0.10293079,0.064751714,-0.013439035,109.93397,-65.95807,-23.957127,STD
9628966897000,2.940069,-3.61285661989801,9.12191264668527,0.105336579794862,-0.10629055,0.06078109,-0.016493361,109.91882,-65.9573,-23.957098,STD
9628971882000,2.945054,-3.59907609031079,9.11272543510055,0.123710636511883,-0.105374254,0.06169739,-0.02107485,109.904366,-65.954315,-23.959364,STD
9628976750000,2.949922,-3.58174435580583,9.1056313192233,0.120693804038835,-0.11789699,0.048563786,-0.022602014,109.89451,-65.95067,-23.962442,STD
9628981772000,2.954944,-3.55839732159223,9.10096183436893,0.0880080682815534,-0.11789699,0.059864793,-0.03145956,109.87701,-65.94411,-23.969057,STD
9628986757000,2.959929,-3.5417771150384,9.09960731923787,0.0637550769919316,-0.12522738,0.06811147,-0.028099801,109.87038,-65.94321,-23.969215,STD
9628991891000,2.965063,-3.53699755917177,9.1043869749198,0.0541959562752989,-0.12186762,0.07238753,-0.03268129,109.86173,-65.93793,-23.974115,STD
9628996749000,2.969921,-3.5338416,9.107543,0.043653715688666,-0.12583824,0.087964594,-0.033292156,109.84039,-65.9402,-23.97186,STD
9629001778000,2.97495,-3.5338416,9.107543,0.0291617124668004,-0.14355333,0.10354166,-0.04337143,109.81811,-65.93818,-23.973724,STD
9629007340000,2.980512,-3.54755935711739,9.11714546722435,0.0493326375459408,-0.14110987,0.099571034,-0.04550946,109.79654,-65.9372,-23.975006,STD
9629011736000,2.984908,-3.57642640368897,9.13735247819528,0.11284005138412,-0.15393804,0.10842858,-0.04642576,109.76651,-65.93303,-23.979048,STD
9629016911000,2.990083,-3.61040888003291,9.16114030389468,0.187601395017553,-0.16584991,0.09285152,-0.04734206,109.7418,-65.93002,-23.981926,STD
9629021816000,2.994988,-3.65003137244349,9.16947550026911,0.231545161257625,-0.16218472,0.095294975,-0.04520403,109.70905,-65.92778,-23.984415,STD
9629026767000,2.999939,-3.70106984047363,9.15671561679225,0.235798375809114,-0.17501289,0.08307768,-0.04917465,109.68621,-65.92296,-23.988535,STD
9629031761000,3.004933,-3.74674674242176,9.14529615282837,0.235543327292054,-0.17531833,0.077579886,-0.043066,109.67992,-65.92038,-23.989435,STD
9629036733000,3.009905,-3.76090443203746,9.14175665650784,0.210767348289601,-0.17256944,0.0729984,-0.03970624,109.677315,-65.91592,-23.991922,STD
9629041918000,3.01509,-3.77566863570951,9.13806552850665,0.184929968738571,-0.16615535,0.07574729,-0.03390302,109.67459,-65.90882,-23.997505,STD
9629046842000,3.020014,-3.81378798236592,9.1561691865106,0.183435861281781,-0.1600467,0.076358154,-0.02565634,109.67393,-65.903755,-24.001076,STD
9629051773000,3.024945,-3.87721749377339,9.19694561863187,0.206089238613643,-0.13958271,0.0711658,-0.01038471,109.674095,-65.90313,-24.000723,STD
9629056741000,3.029913,-3.93575130936455,9.21681368917224,0.222150282903428,-0.10781772,0.06291912,0.004581489,109.66625,-65.90252,-24.001293,STD
9629061731000,3.034903,-3.98569720401338,9.20182960785953,0.227144877583612,-0.08032878,0.05131268,0.016187929,109.661064,-65.905785,-23.998306,STD
9629067014000,3.040186,-4.02245230553091,9.18152105432318,0.222515587492852,-0.04550946,0.051923547,0.028099801,109.654106,-65.91563,-23.989546,STD
9629071799000,3.044971,-4.04052378290447,9.15893158966775,0.208961899264517,-0.014660766,0.0421497,0.03390302,109.65404,-65.927284,-23.979275,STD
9629076822000,3.049994,-4.04205678173535,9.14585,0.18771453332367,0.013439035,0.01740966,0.028710667,109.65228,-65.93325,-23.974976,STD
9629081736000,3.054908,-4.0225661420584,9.14585,0.158478400815904,0.05222898,0.014966198,0.04337143,109.646385,-65.9472,-23.963741,STD
9629086730000,3.059902,-3.99814498533541,9.1396199375975,0.131191793042122,0.087964594,0.019547688,0.04337143,109.64163,-65.95099,-23.963163,STD
9629091897000,3.065069,-3.96812390029468,9.12675393742416,0.105459416522794,0.11026118,0.027794369,0.050396383,109.63623,-65.96121,-23.956583,STD
9629096804000,3.069976,-3.9292199079465,9.12103058945712,0.0971409178300551,0.14049901,0.043066,0.04337143,109.62141,-65.96443,-23.958027,STD
9629101769000,3.074941,-3.85065766994493,9.13973586561762,0.149515726236821,0.15668693,0.0571159,0.03940081,109.60434,-65.970314,-23.956789,STD
9629106711000,3.079883,-3.77245936577498,9.15835449095201,0.201647912167585,0.17592919,0.064446285,0.043982297,109.57473,-65.98252,-23.949787,STD
9629111740000,3.084912,-3.71122024518403,9.17269108254775,0.240765740923846,0.16279559,0.071776666,0.039095376,109.541145,-65.98999,-23.947014,STD
9629116939000,3.090111,-3.65816120906632,9.184935305025,0.273417485290598,0.16065755,0.073303826,0.03268129,109.507355,-65.99833,-23.943665,STD
9629121942000,3.095114,-3.60917984551282,9.20187383281157,0.299594305788611,0.15363261,0.074830994,0.030848695,109.4896,-66.01665,-23.928707,STD
9629126817000,3.099989,-3.56742047051282,9.23319323688134,0.310034138637448,0.13103059,0.06414085,0.034208454,109.47533,-66.03362,-23.914494,STD
9629131800000,3.104972,-3.52473596474359,9.2652064862105,0.32070525393709,0.10567969,0.05681047,0.029626964,109.4693,-66.05114,-23.898758,STD
9629136736000,3.109908,-3.48970561325832,9.29147943135168,0.317908638585981,0.08155051,0.038179077,0.026267206,109.47014,-66.068886,-23.882156,STD
9629141929000,3.115101,-3.45945940836248,9.31416455876539,0.302785520346663,0.056505036,0.025961773,0.024740042,109.471306,-66.08481,-23.866863,STD
9629147540000,3.120712,-3.42924340570825,9.33863134284707,0.285562118714764,0.025961773,0.022907447,0.017104227,109.47969,-66.11311,-23.83843,STD
9629153576000,3.126748,-3.44451971775899,9.36409186293164,0.249917364010747,-0.0033597588,0.021685716,0.019547688,109.49117,-66.142525,-23.808365,STD
9629156961000,3.130133,-3.45308670190275,9.37837016983791,0.229927719432699,-0.015577064,0.022602014,0.023823744,109.49988,-66.16775,-23.782127,STD
9629161802000,3.134974,-3.47529746980656,9.3620375803196,0.217685082884777,-0.040011674,0.014660766,0.03573562,109.51164,-66.19441,-23.753628,STD
9629167059000,3.140231,-3.50493722280908,9.32392897275021,0.213450832455845,-0.05955936,0.019547688,0.029321533,109.519264,-66.21622,-23.72997,STD
9629171783000,3.144955,-3.53270968615863,9.29184052255054,0.207070521353033,-0.076052725,0.010079277,0.025045475,109.52333,-66.24016,-23.703833,STD
9629176835000,3.150007,-3.56562910349922,9.26362386508554,0.192962231905132,-0.084910266,0.005497787,0.03268129,109.52448,-66.26471,-23.676954,STD
9629181740000,3.154912,-3.60089132380162,9.23682363809919,0.181000456618593,-0.08307768,-0.005192355,0.02443461,109.52709,-66.2752,-23.663963,STD
9629186803000,3.159975,-3.65119983013073,9.21166938493463,0.175969600732517,-0.09040806,-0.012217305,0.01863139,109.53005,-66.28781,-23.648504,STD
9629192002000,3.165174,-3.69565534589944,9.18944164946054,0.174528707595374,-0.08460484,-0.007330383,0.014966198,109.52456,-66.301544,-23.632597,STD
9629196847000,3.170019,-3.72183098710951,9.17635389718638,0.181072621314435,-0.09682214,-0.01985312,0.0143553335,109.52691,-66.3136,-23.617638,STD
9629201818000,3.17499,-3.74868735706932,9.16292578231436,0.187786717309781,-0.09254608,-0.009773844,0.01863139,109.51113,-66.31786,-23.610962,STD
9629206797000,3.179969,-3.78346207053432,9.15103201385272,0.189338682817415,-0.09101892,-0.015882496,0.015577064,109.504654,-66.3195,-23.606373,STD
9629211750000,3.184922,-3.82792681422768,9.1411507762733,0.184398167204458,-0.10354166,-0.009468411,0.013744468,109.49135,-66.32239,-23.600574,STD
9629216933000,3.190105,-3.84763832570843,9.1295588706043,0.186435480920109,-0.09987647,0.004886922,0.01038471,109.48223,-66.32116,-23.599653,STD
9629221850000,3.195022,-3.84361911048139,9.11750139279618,0.194473915571014,-0.10567969,0.005497787,-0.002443461,109.47571,-66.316284,-23.60187,STD
9629226924000,3.200096,-3.83413499475309,9.1084236736565,0.207277532372912,-0.10903945,0.012217305,-0.008552114,109.45742,-66.30673,-23.609127,STD
9629231812000,3.204984,-3.80438910092593,9.11267316312636,0.237023364079521,-0.116980694,0.016493361,-0.01863139,109.440186,-66.292534,-23.62085,STD
9629237152000,3.210324,-3.77216475460331,9.11730284471786,0.268516281798897,-0.11881329,0.027183503,-0.02565634,109.4203,-66.281265,-23.629822,STD
9629242060000,3.215232,-3.7482345376835,9.12129129749682,0.276493020772168,-0.12797627,0.039095376,-0.021380283,109.398994,-66.27038,-23.638168,STD
9629246904000,3.220076,-3.72461636923207,9.12522774111158,0.284365743589308,-0.14538592,0.052839845,-0.026267206,109.381874,-66.25413,-23.651022,STD
9629251840000,3.225012,-3.72129503583677,9.14867302861073,0.279063137639615,-0.15302174,0.05589417,-0.035430185,109.36467,-66.23834,-23.66349,STD
9629256810000,3.229982,-3.73002437027052,9.18359018404402,0.265969122316369,-0.16249016,0.065973446,-0.036651913,109.34132,-66.22342,-23.67492,STD
9629262617000,3.235789,-3.74001945676509,9.19571382062583,0.27123592513442,-0.17104226,0.08277224,-0.03604105,109.32004,-66.21092,-23.683842,STD
9629267061000,3.240233,-3.74752219791979,9.18445986557955,0.289992797606875,-0.17684549,0.09712757,-0.028710667,109.296646,-66.20023,-23.69094,STD
9629271889000,3.245061,-3.75829350266363,9.17388343741652,0.30645782,-0.19639318,0.093767814,-0.029321533,109.2667,-66.18916,-23.69786,STD
9629276829000,3.250001,-3.78059705731123,9.17016611361672,0.30645782,-0.1994475,0.096516706,-0.029626964,109.23085,-66.18078,-23.702692,STD
9629281777000,3.254949,-3.80293673107567,9.16644276985935,0.30645782,-0.19975294,0.11056661,-0.024740042,109.19508,-66.17045,-23.708607,STD
9629286798000,3.25997,-3.83623515244802,9.15513767053268,0.301524624359208,-0.20250183,0.10903945,-0.0106901415,109.16376,-66.16281,-23.711609,STD
9629292061000,3.265233,-3.87799034953194,9.13843567889984,0.293173576222351,-0.19853121,0.102319926,-0.01160644,109.13039,-66.15276,-23.717426,STD
9629296917000,3.270089,-3.91710249753232,9.11774546026733,0.28893175128819,-0.1685988,0.1020145,0.0021380284,109.09797,-66.142365,-23.724571,STD
9629301825000,3.274997,-3.95852694030552,9.07977298230023,0.295835832292891,-0.13775012,0.10567969,0.011911872,109.066925,-66.13121,-23.73271,STD
9629306717000,3.279889,-3.99981634007051,9.04192429399236,0.302717406106052,-0.10598512,0.0983493,0.010995574,109.03257,-66.118744,-23.743227,STD
9629311743000,3.284915,-4.03206764390307,9.01742837230636,0.310381369852012,-0.06994407,0.086132,0.013439035,108.998924,-66.11135,-23.749779,STD
9629317060000,3.290232,-4.05410128270013,9.0086147143228,0.319194852979662,-0.04153884,0.06047566,0.015271631,108.972275,-66.104515,-23.756292,STD
9629321909000,3.295081,-4.06797093980522,9.00509367522028,0.32488751590354,-0.04153884,0.040927973,0.010995574,108.964246824693,-66.097174428791,-23.7643042769467,STD
9629326820000,3.299992,-4.05706550594373,9.01963422839697,0.3212523510388,0.016493361,0.013133603,0.0067195175,108.956116,-66.08974,-23.772419,STD
9629332416000,3.305588,-4.04463895170042,9.0362029385531,0.317110143223064,0.02443461,0.00061086525,0.011301007,108.937126,-66.07898,-23.783989,STD
9629336792000,3.309964,-3.9846266951906,9.04996948178514,0.287641747830276,0.02687807,0.006414085,0.01160644,108.9225,-66.05935,-23.804823,STD
9629342064000,3.315236,-3.88220649821655,9.06703987110134,0.236431613694531,0.03176499,0.01160644,0.0106901415,108.912,-66.04158,-23.823895,STD
9629346818000,3.31999,-3.80726647249638,9.08311570953223,0.21057890815946,0.031154128,0.03481932,0.013133603,108.89197,-66.034134,-23.832952,STD
9629351767000,3.324939,-3.78821978339495,9.10216231908053,0.25248148098698,0.042760566,0.04917465,0.01863139,108.8732,-66.028046,-23.841055,STD
9629356735000,3.329907,-3.76909997101752,9.12128205159942,0.29454492447195,0.05375614,0.04886922,0.0106901415,108.84863,-66.02821,-23.8437,STD
9629361801000,3.334973,-3.75452701292796,9.14806544524784,0.315615813447164,0.04886922,0.043982297,0.012217305,108.821106,-66.03232,-23.842302,STD
9629366974000,3.340146,-3.74157968657549,9.1782756030142,0.328563148812614,0.044898596,0.041233405,0.019242255,108.79332,-66.03593,-23.841661,STD
9629371944000,3.345116,-3.7305903221383,9.18936985885238,0.337370378930848,0.049480084,0.04153884,0.019242255,108.77585,-66.04219,-23.837206,STD
9629376774000,3.349946,-3.72151608103973,9.18029590201079,0.341907499480137,0.05100725,0.035430185,0.022296581,108.76128,-66.05086,-23.82998,STD
9629381744000,3.354916,-3.71189077755188,9.18044625201186,0.34476504,0.051923547,0.020463986,0.03176499,108.75221,-66.057106,-23.824461,STD
9629386728000,3.3599,-3.70178260914867,9.19560829351969,0.34476504,0.05100725,0.01038471,0.031154128,108.743744,-66.06125,-23.821026,STD
9629391968000,3.36514,-3.69150992488114,9.19817341759112,0.342196302440571,0.048258353,0.018020526,0.028099801,108.73715,-66.0687,-23.814306,STD
9629396815000,3.369987,-3.68231445150555,9.18897775217908,0.337598565752773,0.06169739,0.0290161,0.03268129,108.732574,-66.078384,-23.805674,STD
9629402159000,3.375331,-3.68215741542738,9.1888207128214,0.33752004771369,0.047647487,0.021685716,0.0290161,108.72516,-66.08073,-23.802662,STD
9629406734000,3.379906,-3.68976927435719,9.19643273071577,0.341325977178596,0.04734206,0.028405234,0.027488936,108.70998,-66.08562,-23.798147,STD
9629411797000,3.384969,-3.6966474,9.20563613023782,0.341664821568081,0.051618114,0.028710667,0.025350908,108.70188,-66.09136,-23.792759,STD
9629416960000,3.390132,-3.6966474,9.21855824801812,0.324435082317275,0.04184427,0.032986723,0.03176499,108.69046,-66.098595,-23.785622,STD
9629422488000,3.39566,-3.6966474,9.23169929354703,0.307482954345002,0.040927973,0.04734206,0.02565634,108.67579,-66.0978,-23.786724,STD
9629426754000,3.399926,-3.6966474,9.22136085575707,0.338498721123577,0.03481932,0.043982297,0.014049901,108.665474,-66.09685,-23.787436,STD
9629431734000,3.404906,-3.6966474,9.20929207465205,0.374705593734289,0.024129177,0.03756821,0.016493361,108.64779,-66.10254,-23.781954,STD
9629436740000,3.409912,-3.6966474,9.21380034852408,0.388453336209218,0.02076942,0.03634648,0.028405234,108.62976,-66.10763,-23.777134,STD
9629442065000,3.415237,-3.6966474,9.23580814241326,0.379650209461419,0.013439035,0.030543262,0.025350908,108.61555,-66.10874,-23.775791,STD
9629446904000,3.420076,-3.69501419266504,9.25282824144254,0.377578481748166,0.013439035,0.036651913,0.0143553335,108.59956,-66.10401,-23.779022,STD
9629451755000,3.424927,-3.6879150091687,9.25992757319682,0.395326455314792,0.0076358155,0.028099801,0.01740966,108.590004,-66.10222,-23.77876,STD
9629456738000,3.42991,-3.68062265061125,9.26722008404645,0.413557366937653,0.0030543262,0.034513887,0.002443461,108.572975,-66.09341,-23.786057,STD
9629461733000,3.434905,-3.66625651438155,9.25911167526867,0.430743908593333,-0.007941248,0.034208454,0.0021380284,108.56067,-66.08951,-23.78796,STD
9629466986000,3.440158,-3.64559516984051,9.23845025881306,0.447961702902321,-0.009162978,0.014049901,0.008552114,108.55287,-66.08373,-23.791779,STD
9629471946000,3.445118,-3.62608626656171,9.21894128763091,0.464219129091656,-0.03756821,0.008857546,0.008246681,108.54491,-66.08355,-23.788908,STD
9629476820000,3.449992,-3.63206601422247,9.21589631637939,0.433164458485448,-0.048258353,-0.0076358155,0.005192355,108.54683,-66.08487,-23.784657,STD
9629481959000,3.455131,-3.65060804123575,9.22053191993972,0.377538348403504,-0.04886922,-0.004581489,0.00580322,108.54434,-66.08663,-23.77968,STD
9629486792000,3.459964,-3.66608048152933,9.21859477841208,0.342731429623676,-0.07147124,-0.004581489,0.01160644,108.545139878365,-66.0884706839482,-23.7755938743769,STD
9629491989000,3.465161,-3.68103447524976,9.21111762540374,0.320300423428228,-0.07574729,0.018936822,0.009468411,108.546,-66.09045,-23.7712,STD
9629497602000,3.470774,-3.69788846832987,9.20393153092516,0.296260485025121,-0.08307768,0.02565634,0.009773844,108.552025,-66.09397,-23.763433,STD
9629501838000,3.47501,-3.72600165252945,9.21798804963617,0.282203874578136,-0.081855945,0.035124753,0.019242255,108.54169,-66.09915,-23.7554,STD
9629506802000,3.479974,-3.75894637546778,9.23446032510395,0.265731491608628,-0.07147124,0.055588737,0.025350908,108.5207,-66.10263,-23.750238,STD
9629511742000,3.484914,-3.78569099034665,9.22504589040883,0.271002927900668,-0.055283304,0.057726767,0.021380283,108.502785,-66.10606,-23.745302,STD
9629517817000,3.490989,-3.81282262216695,9.18887069609824,0.298134488894761,-0.040927973,0.047036625,0.030848695,108.48255,-66.11515,-23.73511,STD
9629522135000,3.495307,-3.83097051030455,9.16475628452232,0.31603462,-0.031154128,0.03481932,0.023823744,108.463326,-66.1152,-23.735373,STD
9629526825000,3.499997,-3.8347181274927,9.16100858906967,0.31603462,-0.028710667,0.023823744,0.025961773,108.44701,-66.120636,-23.730314,STD
9629531809000,3.504981,-3.83870066993742,9.15702596345432,0.31603462,-0.010079277,0.016187929,0.0143553335,108.43586,-66.10931,-23.7418,STD
9629536759000,3.509931,-3.81796406057997,9.14550016845343,0.31603462,-0.0015271631,0.024129177,0.02443461,108.423004,-66.10484,-23.746235,STD
9629541921000,3.515093,-3.77886739917399,9.12812400553603,0.31603462,-0.007941248,0.014049901,0.018936822,108.41863,-66.09316,-23.757706,STD
9629546765000,3.519937,-3.73273027812915,9.10509494685092,0.322715226165294,-0.02321288,-0.004581489,0.012217305,108.40879,-66.08468,-23.76554,STD
9629553567000,3.526739,-3.64040480221455,9.05316198715564,0.351566961489946,-0.023518313,-0.023518313,-0.01038471,108.40266,-66.070694,-23.779064,STD
9629556817000,3.529989,-3.59749934823529,9.03791443529412,0.36391866,-0.05222898,-0.033292156,-0.044898596,108.402855,-66.04854,-23.799084,STD
9629561737000,3.534909,-3.54829859473721,9.13959591945701,0.36391866,-0.084910266,-0.03359759,-0.051618114,108.405876,-66.02842,-23.816824,STD
9629567032000,3.540204,-3.49534778380787,9.24902751674208,0.36391866,-0.10629055,-0.009773844,-0.054061573,108.414246,-66.0127,-23.829678,STD
9629572003000,3.545175,-3.47755437488654,9.33841550983358,0.378943092889561,-0.15027285,0.015271631,-0.052534413,108.422226,-65.99508,-23.842749,STD
9629576820000,3.549992,-3.56203755127001,9.38249380221355,0.441387176779998,-0.16401732,0.03848451,-0.040317107,108.423134,-65.98071,-23.853216,STD
9629581713000,3.554885,-3.64785365715423,9.42726753786129,0.504816469384505,-0.1872302,0.019242255,-0.01985312,108.43234,-65.9805,-23.847076,STD
9629587665000,3.560837,-3.78836341207957,9.38729671726452,0.497376527458656,-0.21471913,-0.046731193,0.04184427,108.44824,-65.99498,-23.825247,STD
9629592068000,3.56524,-3.90290093014301,9.33002746576656,0.467057737500999,-0.25350907,-0.076358154,0.06872234,108.45918,-66.00407,-23.807953,STD
9629596904000,3.570076,-4.01423607866761,9.25692083274274,0.425691651703284,-0.25503623,-0.08002335,0.08552113,108.49637,-66.02372,-23.778831,STD
9629601822000,3.574994,-4.06986884786204,9.14194675289393,0.351514575765021,-0.20525073,-0.08155051,0.060170226,108.54216,-66.038704,-23.754475,STD
9629606747000,3.579919,-4.12558080155918,9.02680902551382,0.277231920418143,-0.1282817,-0.046120327,0.046120327,108.55492,-66.03957,-23.746769,STD
9629611741000,3.584913,-4.13173755045211,8.96552217381112,0.218958000329873,-0.06719518,-0.047036625,0.04337143,108.57961,-66.037834,-23.742474,STD
9629616940000,3.590112,-4.1067259815221,8.9363417851641,0.168934744943905,-0.02321288,-0.062002823,0.04642576,108.5977,-66.036156,-23.740808,STD
9629621894000,3.595066,-4.07920908111423,8.92054624033554,0.127518599403197,0.0021380284,-0.041233405,0.050701816,108.58076,-66.02025,-23.758055,STD
9629626822000,3.599994,-4.04186136160329,8.9373526838919,0.103242550912555,0.026572637,-0.007330383,0.049785517,108.56443,-66.00587,-23.77533,STD
9629631708000,3.60488,-4.00483194652,8.95401589071341,0.079173400562458,0.03023783,0.0421497,0.027794369,108.52222,-65.98319,-23.802101,STD
9629636794000,3.609966,-3.96628679606695,8.97136117722471,0.0541190209716694,0.034208454,0.113926366,0.013133603,108.46266,-65.96369,-23.827383,STD
9629641920000,3.615092,-3.92743849853994,8.98884287967396,0.0288675955327425,0.040927973,0.18417588,0.01160644,108.38874,-65.942505,-23.855198,STD
9629646848000,3.62002,-3.85989070297565,9.01312194229035,0.0372508133748121,0.04642576,0.21838433,0.004581489,108.3108,-65.9176,-23.887882,STD
9629651829000,3.625001,-3.67349844914337,9.06688889540126,0.173460522616847,0.03940081,0.23365596,-0.0021380284,108.21767,-65.89268,-23.920902,STD
9629657493000,3.630665,-3.46154789188458,9.12802843011722,0.32834745157627,0.003970624,0.22357668,-0.022907447,108.11631,-65.8739,-23.947952,STD
9629661807000,3.634979,-3.37317531881137,9.19903225493092,0.389006906287253,-0.04337143,0.21868975,-0.027183503,108.009415,-65.85744,-23.972013,STD
9629667054000,3.640226,-3.32078200187679,9.3038190711617,0.419569639546442,-0.06719518,0.20830505,-0.069027774,107.90931,-65.82444,-24.011822,STD
9629671844000,3.645016,-3.30781829144376,9.39131613551402,0.431343625341605,-0.10903945,0.2003638,-0.06566802,107.85303,-65.82937,-24.00642,STD
9629676797000,3.649969,-3.40335875636481,9.45628375700935,0.393127447354173,-0.14844026,0.2134974,-0.032375857,107.79425,-65.8304,-24.004461,STD
9629681707000,3.654879,-3.49806977650661,9.52068735514019,0.355243047209152,-0.19822577,0.24465153,0.005497787,107.741585,-65.83925,-23.991995,STD
9629686798000,3.65997,-3.63491809650073,9.50776300885564,0.317101725503396,-0.23457226,0.3042109,0.042455133,107.67611,-65.8561,-23.971357,STD
9629691951000,3.665123,-3.78766292287851,9.46533393964405,0.278915532200155,-0.25045475,0.3811799,0.06658431,107.595985,-65.8784,-23.945139,STD
9629697029000,3.670201,-3.91934185203603,9.37355301191593,0.254381114204354,-0.25442538,0.46578476,0.07147124,107.480255,-65.89314,-23.927996,STD
9629701804000,3.674976,-4.02231617414149,9.23196292700319,0.245799917708763,-0.23976462,0.52290064,0.07422013,107.35029,-65.91333,-23.90642,STD
9629706725000,3.679897,-4.10268095780162,9.09623333758701,0.258459913341067,-0.23976462,0.5549711,0.05955936,107.18358,-65.90919,-23.910877,STD
9629711763000,3.684935,-4.11667402228345,8.98428882173241,0.328425031191029,-0.24373524,0.55955255,0.03940081,107.00981,-65.90434,-23.917038,STD
9629717059000,3.690231,-4.12190971413906,8.88831234102658,0.410592248776119,-0.25686884,0.52748215,0.02107485,106.829414,-65.874084,-23.948767,STD
9629722062000,3.695234,-4.10097950792137,8.85691710455042,0.51175499958209,-0.27152961,0.47800204,0.011301007,106.655495,-65.84115,-23.982998,STD
9629726932000,3.700104,-4.08060571134328,8.82635648059702,0.61022843480597,-0.30543262,0.3998113,0.00580322,106.51655,-65.80516,-24.017445,STD
9629731783000,3.704955,-4.07244481538462,8.82907906730769,0.656195445192308,-0.30726522,0.33353242,0.009162978,106.39117,-65.7705,-24.050802,STD
9629736801000,3.709973,-4.07736056644845,8.86840538379705,0.646363891734861,-0.30818152,0.28252518,0.02076942,106.28696,-65.73656,-24.0816,STD
9629742046000,3.715218,-4.07045618234743,8.90117181929765,0.690278592993522,-0.27550024,0.23365596,0.025350908,106.23095,-65.70293,-24.10914,STD
9629746883000,3.720055,-4.05466250329015,8.92486206989431,0.773195706955336,-0.24831672,0.20525073,0.0125227375,106.18545,-65.6683,-24.137197,STD
9629751780000,3.724952,-4.03133329665229,8.944737,0.863547163810271,-0.22113322,0.17195857,0.007330383,106.15378,-65.64558,-24.15403,STD
9629756812000,3.729984,-3.9708827030341,8.944737,0.988226592050176,-0.15821409,0.045814894,-0.002443461,106.16095,-65.62086,-24.173326,STD
9629761712000,3.734884,-3.91201785630733,8.944737,1.10963541525676,-0.12950343,-0.11911872,-0.01863139,106.206276,-65.59073,-24.193531,STD
9629767040000,3.740212,-3.82878267174194,8.97056346709677,1.1200538723871,-0.056505036,-0.30482176,-0.03756821,106.29764,-65.56183,-24.21404,STD
9629771883000,3.745055,-3.74275435369355,9.00796704967742,1.06394845945968,0.018936822,-0.44440445,-0.06414085,106.42582,-65.528435,-24.238256,STD
9629776788000,3.74996,-3.65059530884802,9.06937452991288,0.98755510690029,0.08979719,-0.52595496,-0.0421497,106.62287,-65.51178,-24.241314,STD
9629781813000,3.754985,-3.52481279723137,9.27901237357212,0.787234839088093,0.1423316,-0.54092115,-0.0018325958,106.84054,-65.49629,-24.243933,STD
9629786832000,3.760004,-3.41268251830106,9.46326547876327,0.572677804319176,0.1695151,-0.44073927,0.02443461,107.03561,-65.49568,-24.235107,STD
9629791944000,3.765116,-3.45472831917552,9.36006198969394,0.186620625993129,0.118202426,-0.19608775,0.04642576,107.18671,-65.50439,-24.218054,STD
9629796993000,3.770165,-3.49625594996877,9.25813037460962,-0.194678805416927,0.01985312,0.14080444,0.043982297,107.2423,-65.537155,-24.184546,STD
9629801822000,3.774994,-3.62891502350466,9.15080815228935,-0.222376506095582,-0.08124508,0.4428773,0.024740042,107.231125,-65.56781,-24.154726,STD
9629806798000,3.77997,-3.84854163438533,9.03144597214708,0.0497694590622182,-0.18325958,0.61453044,-0.00061086525,107.15576,-65.59064,-24.1325,STD
9629811750000,3.784922,-4.00183509439625,8.96828857424264,0.283819309373489,-0.24984388,0.65301496,-0.0012217305,106.93827,-65.603226,-24.134808,STD
9629816942000,3.790114,-4.09730623431944,8.95768045647845,0.492441405194851,-0.2678644,0.59589905,-0.0015271631,106.70013,-65.60596,-24.145802,STD
9629822222000,3.795394,-4.19439552915659,8.94689254010809,0.704599468742,-0.25045475,0.4642576,0.0009162979,106.51573,-65.582184,-24.174952,STD
9629826824000,3.799996,-4.213795,8.93829087693329,0.888810184675966,-0.16432275,0.30024028,0.016493361,106.361534,-65.56465,-24.198328,STD
9629831799000,3.804971,-4.213795,8.929249585065,1.08772502574248,-0.05009095,0.11026118,0.014049901,106.258934,-65.54502,-24.222893,STD
9629836792000,3.809964,-4.10673209954002,8.96272810303588,0.989204020220791,0.043676864,-0.042455133,0.01038471,106.238495,-65.52153,-24.244438,STD
9629842867000,3.816039,-3.88818131987121,9.03855149885005,0.623465994461821,0.08399397,-0.10598512,0.022907447,106.249504,-65.50502,-24.259624,STD
9629847033000,3.820205,-3.74034230378424,9.08824937522124,0.376509342643911,0.12797627,-0.090713486,0.021991149,106.317764,-65.490166,-24.269775,STD
9629851833000,3.825005,-3.62411304461863,9.08437539292035,0.194416837966287,0.16432275,-0.06566802,0.02687807,106.401405,-65.48226,-24.273293,STD
9629856768000,3.82994,-3.50461483753898,9.08039245486726,0.00720298159460597,0.16707164,-0.018020526,0.021380283,106.40944,-65.49553,-24.26575,STD
9629861801000,3.834973,-3.4178773582902,9.13537822090499,-0.121143650250459,0.15821409,0.08246681,0.004581489,106.392845,-65.50728,-24.261745,STD
9629866943000,3.840115,-3.35209813655034,9.22993555702121,-0.211590026481883,0.12156218,0.25961772,-0.022296581,106.33737,-65.51303,-24.264599,STD
9629871885000,3.845057,-3.33313537471042,9.29088419932433,-0.234021663605212,0.05955936,0.4578435,-0.012217305,106.20545,-65.53592,-24.255377,STD
9629876870000,3.850042,-3.45601931373874,9.25632321677928,-0.0496958633277027,0.007941248,0.5925393,0.018020526,106.03909,-65.55514,-24.250057,STD
9629881712000,3.854884,-3.57537819694337,9.22275365259009,0.129342356319981,-0.03756821,0.5919284,0.015577064,105.83804,-65.57687,-24.24263,STD
9629886769000,3.859941,-3.60490252710444,9.25176394223251,0.448535823256204,-0.03145956,0.49449542,-0.0061086523,105.627365,-65.600204,-24.233442,STD
9629891988000,3.86516,-3.59692657255246,9.30759595723291,0.831381920753211,-0.004886922,0.37690386,-0.023518313,105.42565,-65.62183,-24.224209,STD
9629896835000,3.870007,-3.58572335156003,9.33952496971462,1.0929639467593,-0.0027488936,0.24220806,-0.020463986,105.299194,-65.62188,-24.229548,STD
9629901828000,3.875,-3.56185258252766,9.30769713919627,1.05715787629586,-0.012217305,0.08979719,0.007941248,105.21647,-65.62474,-24.230537,STD
9629906711000,3.879883,-3.53850770666445,9.27657050262085,1.02214064375572,0.004886922,-0.05589417,0.032986723,105.25898,-65.63499,-24.213568,STD
9629912439000,3.885611,-3.47692431848667,9.31659454428203,0.776800064677558,0.048563786,-0.14294247,0.029932396,105.330574,-65.64543,-24.19563,STD
9629916950000,3.890122,-3.42289362469319,9.360494723208,0.550546231609474,0.09315695,-0.12064589,0.02321288,105.412315,-65.661964,-24.171635,STD
9629921775000,3.894947,-3.39145481107334,9.38882470908208,0.345788302909179,0.10720685,-0.024129177,0.03268129,105.48532,-65.680336,-24.1464,STD
9629926834000,3.900006,-3.43380942738222,9.36529433938805,0.237548528606119,0.09896017,0.07849618,0.05375614,105.54834,-65.7004,-24.1206,STD
9629931786000,3.904958,-3.49775277968461,9.33252116337548,0.19449393928612,0.06811147,0.14477506,0.03848451,105.535965,-65.72146,-24.101479,STD
9629936799000,3.909971,-3.65121097212672,9.26090697940048,0.399104811503054,0.03726278,0.15882497,0.004886922,105.508026,-65.741905,-24.083363,STD
9629942081000,3.915253,-3.81290380525643,9.18544994374201,0.614695201897997,-0.006414085,0.11942416,-0.0070249503,105.45339,-65.75499,-24.07375,STD
9629947203000,3.920375,-3.8977604,9.14180928270042,0.703592224050633,-0.032986723,0.022602014,-0.003970624,105.41336,-65.76198,-24.069084,STD
9629953648000,3.92682,-3.8977604,9.13072740057456,0.637098813627794,-0.004276057,-0.102319926,0.023518313,105.3949,-65.77278,-24.05996,STD
9629956771000,3.929943,-3.89029699046666,9.12186773177191,0.587013231794739,0.06627888,-0.1600467,0.03268129,105.4323,-65.75558,-24.07342,STD
9629961794000,3.934966,-3.84217284914965,9.09072856064262,0.419994237680457,0.112399206,-0.22632557,0.033292156,105.51062,-65.744484,-24.078955,STD
9629973052000,3.946224,-3.73483128566304,9.02225630256246,0.0478429271995516,0.18967366,-0.01740966,-0.007330383,105.5101,-65.73391,-24.092257,STD
9629974115000,3.947287,-3.73287482088405,9.03660367008328,0.0471907719327354,0.18967366,-0.01740966,-0.007330383,105.59408,-65.734215,-24.089432,STD
9629976794000,3.949966,-3.727944087918,9.07276227552851,0.0455471934192825,0.16371189,0.06658431,-0.016493361,105.53453,-65.728874,-24.104137,STD
9629982828000,3.956,-3.71683843554132,9.15420349436259,0.0418453073609865,0.14172074,0.27885997,-0.0125227375,105.43463,-65.72724,-24.116594,STD
9629986846000,3.960018,-3.70944325634849,9.20843465400385,0.0393802463430493,0.050701816,0.3051272,-0.0030543262,105.367195,-65.72154,-24.128258,STD
9629992037000,3.965209,-3.70331327227128,9.26697255828329,0.111080472802367,0.039095376,0.32559118,-0.005192355,105.23632,-65.71528,-24.144722,STD
9629996894000,3.970066,-3.69920566739668,9.31626441725539,0.213770668869216,0.0030543262,0.3286455,-0.01282817,105.10399,-65.70654,-24.159998,STD
9630001727000,3.974899,-3.68990091474771,9.34190411844925,0.287847134923047,-0.05131268,0.321926,-0.014966198,104.97129,-65.71034,-24.162123,STD
9630006804000,3.979976,-3.6709562766803,9.32769559044418,0.316264111805961,-0.086132,0.3371976,-0.011911872,104.83227,-65.712746,-24.165314,STD
9630011722000,3.984894,-3.66542166906572,9.31681710266525,0.347934893191571,-0.14294247,0.35124752,-0.014049901,104.721436,-65.71826,-24.161043,STD
9630016956000,3.990128,-3.68953644401039,9.31199379515058,0.391341518308477,-0.18784106,0.35338554,-0.007941248,104.610825,-65.72598,-24.154009,STD
9630021735000,3.994907,-3.70962169313164,9.30752347863859,0.436101982062551,-0.20586158,0.31764993,-0.0027488936,104.516846,-65.73526,-24.144012,STD
9630026768000,3.99994,-3.72440093507768,9.30259696177433,0.500145415269828,-0.20708331,0.2770274,0.0070249503,104.42506,-65.746376,-24.131483,STD
9630031791000,4.004963,-3.74330146905986,9.28357776779646,0.538723555924893,-0.19303341,0.2321288,0.004276057,104.35847,-65.745415,-24.129942,STD
9630036741000,4.009913,-3.77221469638407,9.22988210690947,0.51394084201882,-0.15760323,0.20280726,0.0067195175,104.3005,-65.74913,-24.124094,STD
9630042135000,4.015307,-3.80173473848391,9.17071615797128,0.482233397911289,-0.14508049,0.16157386,0.014966198,104.274376,-65.74941,-24.11975,STD
9630046839000,4.020011,-3.79764000952554,9.10929650627159,0.383961878231231,-0.10751228,0.1414153,0.013744468,104.25141,-65.74941,-24.117414,STD
9630051779000,4.024951,-3.79333984773678,9.04479542646792,0.280760069723687,-0.089491755,0.14660765,0.0106901415,104.22569,-65.743416,-24.121307,STD
9630056635000,4.029807,-3.7924154,9.030929,0.25857377,-0.08979719,0.16615535,0.01160644,104.20203,-65.73895,-24.124214,STD
9630061630000,4.034802,-3.7924154,9.030929,0.25857377,-0.08093964,0.1826487,0.006414085,104.178055,-65.7329,-24.12961,STD
9630066772000,4.039944,-3.81852073691655,9.07008677821782,0.245521142429986,-0.07971791,0.1957823,0.007330383,104.1301,-65.72852,-24.135944,STD
9630071656000,4.044828,-3.84498368118812,9.10978096435644,0.232289711742574,-0.08155051,0.2125811,-0.002443461,104.07655,-65.71995,-24.146898,STD
9630076636000,4.049808,-3.87835236324234,9.14966378808085,0.27052334147114,-0.09437868,0.2443461,-0.0012217305,104.012955,-65.71367,-24.155445,STD
9630081613000,4.054785,-3.91311441108564,9.18939163534069,0.320183451302355,-0.109650314,0.24831672,0.0070249503,103.95346,-65.70673,-24.164358,STD
9630086633000,4.059805,-3.91378076728309,9.18120113456619,0.347544082105109,-0.12614368,0.24404067,0.020463986,103.88551,-65.7008,-24.172617,STD
9630091703000,4.064875,-3.9102317302244,9.1670050604488,0.372387356339449,-0.13194689,0.23823744,0.016187929,103.81769,-65.69225,-24.183386,STD
9630096679000,4.069851,-3.9064892226574,9.15373100989682,0.390105146201306,-0.1328632,0.2180789,0.01282817,103.76162,-65.68155,-24.194572,STD
