timestamp,rel_time,acc_x,acc_y,acc_z,gyro_x,gyro_y,gyro_z,azimuth,pitch,roll,label
86643684000,0,0.532267566525033,9.883265,0.586051927342148,0.0021380284,-0.021380283,0.02321288,358.94077,-85.68808,2.3581848,STD
86648798000,0.005114,0.566222956337345,9.883265,0.731575007724459,0.0106901415,-0.035124753,0.015271631,359.9617,-85.73019,2.4051173,STD
86653710000,0.010026,0.598837128171149,9.883265,0.871350011799138,0.022602014,-0.034208454,0.017715093,0.8933086,-85.76706,2.4490693,STD
86658746000,0.015062,0.466309792032634,9.82097911640633,0.907252624622426,0.021685716,-0.03390302,0.029626964,1.7503028,-85.80016,2.4884856,STD
86663679000,0.019995,0.311200959168242,9.75047515500945,0.926053676086956,0.026267206,-0.028405234,0.030543262,2.534077,-85.83641,2.5208151,STD
86668775000,0.025091,0.487063824293446,9.80203784185208,0.346317988576869,0.018325957,-0.03268129,0.03634648,3.1190012,-85.75617,2.5778606,STD
86673654000,0.02997,0.711839471647625,9.87228018580878,-0.309277676433153,0.011301007,-0.037873644,0.029321533,3.5312226,-85.685455,2.6240702,STD
86678742000,0.035058,0.706660169717624,9.87519868549172,0.132662549406037,0.0070249503,-0.037873644,0.032986723,2.4161277,-85.65585,2.5778685,STD
86683884000,0.0402,0.658710894547225,9.865608630185,0.779978204806232,-0.005497787,-0.03940081,0.03940081,1.5033313,-85.6223,2.537869,STD
86688765000,0.045081,0.533293691069955,9.84838720070458,0.71203436013689,-0.007941248,-0.028099801,0.03848451,3.1226175,-85.720184,2.6400952,STD
86693679000,0.049995,0.391188705125315,9.82943998399597,0.508350578604932,-0.0143553335,-0.03573562,0.050396383,4.5047264,-85.80107,2.7369897,STD
86698762000,0.055078,0.462486633866348,9.85340276491647,0.098647961646778,-0.020158553,-0.032070424,0.043066,4.6695976,-85.72582,2.7795255,STD
86703701000,0.060017,0.580077750515115,9.88632795813445,-0.34349460905529,-0.016493361,-0.024129177,0.04184427,4.8011904,-85.65187,2.8243966,STD
86708763000,0.065079,0.526585336605847,9.88516589650775,0.0525907281047675,-0.023518313,-0.036957346,0.0421497,4.643253,-85.66632,2.8112435,STD
86713733000,0.070049,0.433203473235236,9.87582801049637,0.640896414685109,-0.032986723,-0.028405234,0.046731193,4.4852505,-85.67935,2.7995136,STD
86718768000,0.075084,0.367599423275743,9.87000432026854,0.679947650172771,-0.02321288,-0.028099801,0.034513887,5.299126,-85.77655,2.8419569,STD
86723779000,0.080095,0.310745593849343,9.86526640467963,0.55676431845197,-0.011911872,-0.016187929,0.03176499,6.020785,-85.86143,2.8844354,STD
86728747000,0.085063,0.258017325107347,9.85704473212527,0.484327633886153,-0.008857546,-0.012217305,0.029626964,5.7541866,-85.83254,2.873455,STD
86733781000,0.090097,0.205790992995864,9.84754884518416,0.427353442584203,-0.004581489,-0.025350908,0.01985312,5.5086465,-85.808815,2.8605373,STD
86738754000,0.09507,0.170541051099492,9.83795886324873,0.408303502010152,0.0036651916,-0.03145956,0.01740966,5.2588015,-85.826744,2.8316734,STD
86743775000,0.100091,0.141250611766497,9.82819569441624,0.403421764670051,0.007941248,-0.048563786,0.021685716,5.030077,-85.84429,2.8039062,STD
86748797000,0.105113,0.157456915484127,9.82220675528701,0.472370747111089,0.018936822,-0.056199603,0.009773844,4.745464,-85.891266,2.7553935,STD
86753904000,0.11022,0.188946870726066,9.81736204833837,0.5668406406597,0.029626964,-0.06872234,0.0067195175,4.483913,-85.93463,2.7130806,STD
86758748000,0.115064,0.218815158016443,9.81276683383686,0.656445528920806,0.01863139,-0.082161374,0.0021380284,4.183106,-85.983116,2.6599245,STD
86763778000,0.120094,0.249830328344807,9.80799517220544,0.749491067309197,0.019242255,-0.09010262,0.0018325958,3.9053757,-86.03394,2.609611,STD
86768768000,0.125084,0.265337661879387,9.78974029678695,0.782485270691053,0.018936822,-0.083383106,-0.0033597588,3.645962,-86.081955,2.5587926,STD
86773758000,0.130074,0.274786659773604,9.76611783905091,0.791934238985665,0.008857546,-0.0711658,-0.0015271631,3.4043877,-86.12482,2.5120068,STD
86778763000,0.135079,0.297062112903792,9.75554348279559,0.798097416542548,0.006414085,-0.057421334,-0.0067195175,3.1565566,-86.118324,2.480956,STD
86783765000,0.140081,0.325078403154304,9.75087400682328,0.802766790124768,-0.007941248,-0.05681047,-0.004886922,2.929223,-86.10507,2.4537554,STD
86788755000,0.145071,0.327734879263024,9.7566423545108,0.794017054345616,-0.0106901415,-0.028710667,-0.006414085,2.7210386,-86.090935,2.427788,STD
86793713000,0.150029,0.316132442046721,9.76824478203499,0.77777364127358,-0.0070249503,-0.009468411,0.005192355,2.5308769,-86.0724,2.407225,STD
86798724000,0.15504,0.304405977163523,9.77997123712247,0.761356589457531,0.0036651916,0.004276057,0.007330383,2.3926594,-86.0509,2.3924105,STD
86803732000,0.160048,0.2926865327143,9.79169067178184,0.744949366249633,0.008552114,0.016493361,0.009162978,2.2585855,-86.02741,2.381053,STD
86808714000,0.16503,0.283432088780905,9.797073,0.73870480239196,0.0067195175,0.0290161,0.022907447,2.128747,-86.00288,2.3739522,STD
86813735000,0.170051,0.276183069231658,9.797073,0.741121139718593,0.013133603,0.05375614,0.014966198,1.999886,-85.985176,2.361201,STD
86818720000,0.175036,0.268986024329648,9.797073,0.743520152180905,0.015577064,0.056199603,0.020463986,1.8612372,-85.9733,2.3500109,STD
86823692000,0.180008,0.261807748050251,9.797073,0.745912908442211,0.023823744,0.04337143,0.008246681,1.7271818,-85.96865,2.3318958,STD
86828695000,0.185011,0.266433391593069,9.80755270336634,0.705072945526733,0.013133603,0.029932396,0.00580322,1.5983404,-85.9577,2.318616,STD
86833731000,0.190047,0.280758782234654,9.82665360316832,0.628670911966337,0.014660766,0.019547688,0.0018325958,1.479238,-85.953865,2.3021247,STD
86838718000,0.195034,0.310699653311505,9.84239953387904,0.542292030988631,0.006414085,0.00061086525,-0.01282817,1.3534731,-85.94848,2.2789702,STD
86843706000,0.200022,0.354145863705321,9.85543320736699,0.446710346346521,-0.009468411,-0.010995574,-0.00030543262,1.2354696,-85.93784,2.2631576,STD
86848817000,0.205133,0.403555352885075,9.87342148881164,0.338381884538345,-0.04062254,-0.017104227,-0.0076358155,1.1751349,-85.94112,2.2422247,STD
86853732000,0.210048,0.45979803530415,9.89898632261568,0.215670602195307,-0.058337633,-0.03634648,0.0021380284,1.124038,-85.9389,2.230622,STD
86858715000,0.215031,0.49768136070837,9.92125915024847,0.118488140279061,-0.07086037,-0.032375857,0.0030543262,1.1618124,-85.94812,2.2270381,STD
86863707000,0.220023,0.516314293768879,9.9398919617071,0.0486146824035857,-0.084910266,-0.036957346,0.0018325958,1.2063248,-85.951256,2.2261145,STD
86869387000,0.225703,0.55553453182575,9.96077835389273,-0.0480434804446126,-0.10048734,-0.02687807,0.00580322,1.342253,-85.966034,2.2401583,STD
86873725000,0.230041,0.598764677747611,9.97649832040488,-0.134503807990351,-0.103847094,-0.0290161,0.0106901415,1.4792806,-85.97968,2.2540424,STD
86878707000,0.235023,0.637001499527897,9.99025312017167,-0.227418333991416,-0.10048734,-0.032070424,0.015577064,1.653811,-86.0016,2.2734437,STD
86883715000,0.240031,0.6520629664765,9.99527370176908,-0.307746024911546,-0.087659165,-0.016187929,0.02107485,1.8189569,-86.022995,2.2936513,STD
86888697000,0.245013,0.648832768663391,9.99419704787928,-0.374286739313145,-0.07147124,-0.010995574,0.02687807,2.0681608,-86.05646,2.3283174,STD
86893722000,0.250038,0.61988051542966,9.98454635726462,-0.422540479586885,-0.042760566,0.0030543262,0.028710667,2.3003514,-86.09343,2.3621113,STD
86898715000,0.255031,0.593651554950901,9.97709510530079,-0.452047385391362,-0.018020526,-0.0018325958,0.023518313,2.5587711,-86.14293,2.3985586,STD
86903760000,0.260076,0.57062028583087,9.97248899961865,-0.456653635367528,-0.0061086523,-0.004276057,0.0290161,2.7976987,-86.19067,2.437239,STD
86908644000,0.26496,0.550944560321608,9.96644911075377,-0.45517648561206,0.023823744,-0.004276057,0.026572637,2.89789637312087,-86.2272388153939,2.44998463451593,STD
86913738000,0.270054,0.536235750512563,9.95664303276382,-0.440467660444221,0.04795292,0.017104227,0.023518313,3.0024023,-86.26538,2.4632783,STD
86918659000,0.274975,0.525288709295126,9.94599501483461,-0.406549695936607,0.054367006,0.019547688,0.017104227,3.1997137,-86.327644,2.49006,STD
86923720000,0.280036,0.520822802314567,9.93259756436009,-0.330629706283977,0.06994407,0.027488936,0.023823744,3.357012,-86.402275,2.512162,STD
86928682000,0.284998,0.514719061812493,9.91914347025135,-0.247913259512143,0.07574729,0.012217305,0.018020526,3.4944153,-86.47568,2.5251558,STD
86933735000,0.290051,0.49932244916322,9.90374653070315,-0.119608012981228,0.08124508,0.008857546,0.019547688,3.616854,-86.545166,2.5413973,STD
86939489000,0.295805,0.487391670480504,9.89181560614415,0.0215181107207562,0.071776666,-0.008857546,0.015577064,3.7185035,-86.59975,2.5531237,STD
86943706000,0.300022,0.485403418924774,9.88982752067743,0.11894250338716,0.07086037,-0.017104227,0.016493361,3.8124967,-86.652565,2.5662138,STD
86948735000,0.305051,0.483032321681765,9.88745662150453,0.235126347522647,0.065973446,-0.040011674,0.01160644,3.8766627,-86.68777,2.573097,STD
86953725000,0.310041,0.480679612347381,9.88510410870421,0.350409183521071,0.058948494,-0.04520403,0.009162978,3.9352956,-86.720116,2.5806043,STD
86958715000,0.315031,0.473679450311758,9.88016839875297,0.454983614815914,0.04795292,-0.050701816,0.013744468,3.9977572,-86.748924,2.5887578,STD
86963748000,0.320064,0.449827468557007,9.86585692577197,0.521769143804434,0.04550946,-0.059864793,0.014966198,4.0601287,-86.77793,2.5951498,STD
86968720000,0.325036,0.43236521250743,9.85312510857935,0.582592234109372,0.03390302,-0.07513642,0.01985312,4.0711274,-86.770836,2.602428,STD
86973718000,0.330034,0.439478085954032,9.84601234158906,0.622898499643353,0.015271631,-0.06536258,0.021685716,4.077077,-86.76267,2.6088998,STD
86978717000,0.335033,0.446592382544581,9.83889815147612,0.663212829656231,0.013133603,-0.052839845,0.015271631,4.062952,-86.75164,2.6090999,STD
86983737000,0.340053,0.453736565158015,9.8317540757876,0.703696513725976,-0.008552114,-0.04642576,0.01985312,4.0480804,-86.73137,2.6129062,STD
86988704000,0.34502,0.457592399923487,9.82336060245769,0.738461264127058,-0.0143553335,-0.035430185,0.024740042,4.0291123,-86.71504,2.6148014,STD
86993711000,0.350027,0.444251037718525,9.80779560055646,0.745131939424994,-0.021380283,-0.0290161,0.03145956,4.010116,-86.69355,2.6184924,STD
86999120000,0.355436,0.429838529596568,9.79098092204962,0.752338187215395,-0.02443461,-0.01160644,0.0290161,3.973101,-86.65938,2.623898,STD
87003725000,0.360041,0.417568313308602,9.776665596754,0.758473290020867,-0.03390302,-0.0070249503,0.03481932,3.938063,-86.61984,2.633498,STD
87009018000,0.365334,0.403464892068166,9.76021152144679,0.765524994504985,-0.03359759,0.006414085,0.042455133,3.896032,-86.58208,2.6425104,STD
87013719000,0.370035,0.37272235345039,9.76719575002597,0.740855778046753,-0.026572637,0.020158553,0.03756821,3.852893,-86.545784,2.6493733,STD
87018697000,0.375013,0.33805083428987,9.77710209932467,0.711137350784416,-0.021685716,0.005497787,0.042455133,3.813639,-86.505844,2.6611822,STD
87023719000,0.380035,0.308908540214243,9.77353996161476,0.699923806169411,-0.013133603,0.0021380284,0.03268129,3.7550447,-86.474884,2.6610065,STD
87028681000,0.384997,0.280628368811744,9.76882650456259,0.690497088930768,-0.016493361,-0.009468411,0.02687807,3.7029705,-86.44101,2.6635563,STD
87033732000,0.390048,0.269126728970835,9.75974216282748,0.676629113662877,-0.01160644,-0.022602014,0.03145956,3.6483064,-86.420166,2.658979,STD
87038693000,0.395009,0.259732645092437,9.75034789747899,0.662538009915966,-0.012217305,-0.037873644,0.031154128,3.5988238,-86.40001,2.651674,STD
87043744000,0.40006,0.242262427114628,9.76550067501199,0.611865654311751,-0.02107485,-0.03848451,0.020158553,3.5426767,-86.38643,2.6365707,STD
87048788000,0.405104,0.22372797937554,9.78403550014388,0.556262291741007,-0.023518313,-0.057421334,0.02076942,3.4971285,-86.37157,2.625372,STD
87053747000,0.410063,0.234154645915162,9.80138501615523,0.424357133551444,-0.02321288,-0.06078109,0.022296581,3.449092,-86.36101,2.6094546,STD
87058733000,0.415049,0.251392894915162,9.81862316615523,0.273522421051444,-0.028405234,-0.06352998,0.017104227,3.407601,-86.34999,2.5923486,STD
87063761000,0.420077,0.267249491071885,9.83447974371962,0.174540917988232,-0.04153884,-0.056505036,0.016798794,3.3722508,-86.34784,2.57307,STD
87068755000,0.425071,0.281931480578153,9.84916177155283,0.113365971506779,-0.03176499,-0.04917465,0.00580322,3.3386629,-86.35226,2.5496888,STD
87073719000,0.430035,0.296525272310054,9.86375560138143,0.0525585156930161,-0.03359759,-0.036957346,0.009468411,3.346775,-86.371506,2.5348673,STD
87078849000,0.435165,0.311607091726784,9.87883746016884,-0.0102823884819647,-0.026572637,-0.030543262,0.010079277,3.3540878,-86.3969,2.5163705,STD
87083697000,0.440013,0.329153053864125,9.87998532646787,-0.0648061028527513,-0.020463986,-0.016798794,0.01863139,3.355175,-86.418945,2.5012858,STD
87088724000,0.44504,0.348885659200738,9.87505207726201,-0.119070752075008,-0.017715093,-0.007330383,0.019242255,3.35543,-86.44274,2.4844103,STD
87093708000,0.450024,0.380600900373832,9.88353499790196,-0.140640060093458,0.004581489,-0.008246681,0.014660766,3.3900108,-86.48479,2.4748318,STD
87098773000,0.455089,0.417607589158879,9.89741230574099,-0.14989173228972,0.0076358155,-0.0061086523,0.017715093,3.4200435,-86.52088,2.4676156,STD
87103822000,0.460138,0.442458104383562,9.89379177131675,-0.150353457402852,0.01863139,-0.014660766,0.006414085,3.4698944,-86.5707,2.4595213,STD
87108718000,0.465034,0.459935706575342,9.88068375901593,-0.145984054573665,0.038789943,-0.01282817,0.0070249503,3.5145903,-86.6185,2.4556267,STD
87113754000,0.47007,0.476557509091576,9.87611937793378,-0.121770140341576,0.03756821,-0.01740966,-0.0021380284,3.5750825,-86.662796,2.4540353,STD
87118731000,0.475047,0.491539838315172,9.88111358675608,-0.0768231683151718,0.05497787,-0.03023783,-0.0018325958,3.6345322,-86.71089,2.4553387,STD
87123715000,0.480031,0.507564498735736,9.88463210601719,-0.0355853015010305,0.040927973,-0.036651913,-0.012217305,3.694627,-86.75147,2.455118,STD
87128711000,0.485027,0.524400576722968,9.88703705730659,0.00289715988659328,0.046120327,-0.038789943,-0.00061086525,3.753472,-86.792465,2.4612684,STD
87133701000,0.490017,0.54121643524104,9.88943912034384,0.0413334053478108,0.03726278,-0.018020526,0.0076358155,3.7998962,-86.82167,2.4662237,STD
87138721000,0.495037,0.558133391104911,9.89185562464183,0.0800007304410597,0.015882496,-0.005497787,0.008552114,3.8465621,-86.847466,2.472363,STD
87143708000,0.500024,0.559470785898385,9.88728021493112,0.131913381209302,0.015577064,0.008552114,0.007941248,3.884694,-86.87284,2.4800317,STD
87148750000,0.505066,0.549934178857453,9.87774365768034,0.193901370790698,-0.004276057,0.015882496,0.004886922,3.9195101,-86.89052,2.4870431,STD
87153719000,0.510035,0.540535646452377,9.86834517434454,0.254991874604651,-0.010995574,0.025045475,0.004276057,3.9421601,-86.89407,2.501215,STD
87158709000,0.515025,0.531097393946576,9.85890697111539,0.316340559255814,-0.016493361,0.03634648,0.005192355,3.9610934,-86.89458,2.5146031,STD
87163751000,0.520067,0.52439565431549,9.85686277972744,0.361066167389329,-0.02443461,0.032375857,0.014660766,3.9808507,-86.8915,2.5300732,STD
87168756000,0.525072,0.52012628722722,9.86113220922775,0.3909515676031,-0.03145956,0.022296581,0.013133603,3.998519,-86.8899,2.5423656,STD
87173851000,0.530167,0.518425677255849,9.86027666563983,0.418193332913995,-0.028405234,-0.0012217305,0.007941248,3.9993343,-86.875435,2.552257,STD
87178777000,0.535093,0.522353377893597,9.84849380159853,0.437831733571726,-0.03390302,-0.018325957,0.008857546,4.001418,-86.85763,2.5632935,STD
87184851000,0.541167,0.527757183605064,9.83796295901266,0.459170338197468,-0.035124753,-0.03573562,0.0027488936,4.00496,-86.84098,2.5698006,STD
87188724000,0.54504,0.534513891210493,9.85485472802623,0.455791984394754,-0.03848451,-0.046731193,0.0076358155,4.0118546,-86.82059,2.5796614,STD
87194598000,0.550914,0.544761477183714,9.88047369295929,0.450668191408143,-0.051923547,-0.059864793,0.00580322,4.0227604,-86.79764,2.5870328,STD
87198785000,0.555101,0.535701565261134,9.88665703570002,0.445021711745057,-0.062308256,-0.06994407,0.0106901415,4.0363426,-86.772255,2.5976384,STD
87203761000,0.560077,0.521425292562912,9.89141564005392,0.437883574153685,-0.052534413,-0.0729984,0.011301007,4.0524135,-86.74979,2.6064024,STD
87208803000,0.565119,0.506959664157679,9.89623736094468,0.430650758692331,-0.058643065,-0.07574729,0.004276057,4.074674,-86.72313,2.616074,STD
87213890000,0.570206,0.492364929588576,9.90110211583783,0.423353390137807,-0.057726767,-0.0711658,0.012217305,4.0960526,-86.696205,2.6299534,STD
87218756000,0.575072,0.475207763793103,9.88260386206897,0.388356031034483,-0.061086524,-0.06261369,0.0106901415,4.117926,-86.67161,2.63893,STD
87223629000,0.579945,0.456763827120838,9.85493787520996,0.342246184539077,-0.044898596,-0.052839845,0.0106901415,4.138528,-86.64884,2.6503515,STD
87228624000,0.58494,0.437317134348499,9.8417590724234,0.328809634738471,-0.036957346,-0.044593163,0.015271631,4.1516004,-86.63043,2.6562994,STD
87233638000,0.589954,0.417501540466316,9.83680559424327,0.33376352674301,-0.02687807,-0.04062254,0.013744468,4.163385,-86.61687,2.660361,STD
87238633000,0.594949,0.405014376678304,9.81841024169576,0.352159005392519,-0.015882496,-0.03940081,0.008857546,4.1745806,-86.61375,2.660943,STD
87243652000,0.599968,0.395425157885287,9.79443719471322,0.37613206238803,-0.004581489,-0.032375857,0.024740042,4.182778,-86.60819,2.6669064,STD
87248701000,0.605017,0.385835029988128,9.79431082944203,0.379665238551642,0.013133603,-0.032375857,0.025045475,4.1869044,-86.61281,2.6631143,STD
87253657000,0.609973,0.376443919905026,9.80370163553621,0.374969688413138,0.019547688,-0.04428773,0.018325957,4.1924267,-86.61543,2.661901,STD
87258653000,0.614969,0.375111163384012,9.81149721137813,0.381573983668465,0.020158553,-0.06047566,0.0030543262,4.1939073,-86.62018,2.6565754,STD
87264158000,0.620474,0.377696758479647,9.8192541586562,0.394501969946052,0.03359759,-0.06963864,0.009162978,4.196954,-86.624954,2.6555536,STD
87268657000,0.624973,0.379809854271702,9.8255935784208,0.405067457732222,0.035430185,-0.07391469,0.0021380284,4.2021194,-86.636345,2.6445637,STD
87273652000,0.629968,0.382155911947033,9.8326318984306,0.416797755907798,0.03940081,-0.0720821,0.009162978,4.2085395,-86.64576,2.639508,STD
87278745000,0.635061,0.378855569192825,9.83256981408819,0.405918288632287,0.027794369,-0.058643065,0.015271631,4.2135735,-86.65432,2.6322682,STD
87283760000,0.640076,0.372125236793722,9.82808283211883,0.381240384428251,0.026572637,-0.057421334,0.009162978,4.222212,-86.666374,2.6237745,STD
87288732000,0.645048,0.365452612130045,9.82363432277653,0.356774075414798,0.017715093,-0.04153884,0.014049901,4.220997,-86.66739,2.6208227,STD
87293749000,0.650065,0.358719595650224,9.81914555138266,0.332086329573991,0.0061086523,-0.025961773,0.01038471,4.2201457,-86.670906,2.6137753,STD
87298781000,0.655097,0.356100255850622,9.81534778371369,0.315155422074689,0.0018325958,-0.02076942,0.01282817,4.217958,-86.67163,2.6099057,STD
87303782000,0.660098,0.361068469211618,9.8128636251556,0.312671315394191,0.0027488936,-0.017104227,0.012217305,4.2121425,-86.67269,2.6040735,STD
87308745000,0.665061,0.365998931701245,9.81039834242739,0.310206084149378,-0.0033597588,-0.0125227375,0.011301007,4.2086706,-86.68023,2.5960321,STD
87313841000,0.670157,0.371061522240664,9.80786699429461,0.307674788879668,0.00061086525,-0.014049901,0.010079277,4.206118,-86.689766,2.5878959,STD
87318740000,0.675056,0.380376038777626,9.82041119587326,0.29728371655975,-0.0021380284,-0.01863139,0.009468411,4.2032824,-86.69695,2.5798032,STD
87323756000,0.680072,0.394468722790925,9.84859664238216,0.27849347447878,-0.021380283,-0.022907447,0.016798794,4.2009044,-86.700226,2.5737953,STD
87328736000,0.685052,0.400135488577612,9.87665339218965,0.249337061919142,-0.028099801,-0.036651913,0.006414085,4.2050724,-86.70822,2.5648663,STD
87334064000,0.69038,0.395116288262837,9.90676869889829,0.204164222399174,-0.038789943,-0.038789943,0.014660766,4.206867,-86.70621,2.5633655,STD
87338705000,0.695021,0.396545315331992,9.9157275249497,0.170270615867203,-0.040317107,-0.048258353,0.009468411,4.2195206,-86.71041,2.558101,STD
87343752000,0.700068,0.406270488289738,9.90113946086519,0.141095076684105,-0.04734206,-0.064751714,0.01038471,4.234578,-86.708496,2.5570698,STD
87348798000,0.705114,0.419416521611076,9.89474449766974,0.105463896903957,-0.043066,-0.06872234,0.01160644,4.2526546,-86.71611,2.553428,STD
87353857000,0.710173,0.437126142167596,9.899171989491,0.0611898709394133,-0.04153884,-0.062308256,0.018020526,4.272171,-86.7205,2.5516636,STD
87358649000,0.714965,0.449580166648789,9.902418,0.0255518476371437,-0.055283304,-0.05100725,0.013133603,4.2966347,-86.72704,2.5492,STD
87363736000,0.720052,0.447091795302891,9.902418,0.0106216559382981,-0.051618114,-0.028099801,0.007941248,4.315785,-86.73547,2.548287,STD
87368689000,0.725005,0.444668971776995,9.902418,-0.0039152497987537,-0.04734206,-0.019242255,0.016493361,4.3451285,-86.74254,2.5539112,STD
87373738000,0.730054,0.442199188618858,9.902418,-0.0187339126427623,-0.042455133,-0.008246681,0.020463986,4.3669424,-86.75228,2.5564563,STD
87378657000,0.734973,0.438334469406707,9.89875361822872,-0.0184701433877902,-0.042760566,-0.008857546,0.026267206,4.389258,-86.75927,2.5619328,STD
87383625000,0.739941,0.431115172124829,9.88672146446816,0.0152199122694856,-0.03726278,-0.00580322,0.02687807,4.4073005,-86.76814,2.5668292,STD
87388610000,0.744926,0.42387117112842,9.87464813787871,0.0490252519336402,-0.01740966,-0.013133603,0.022907447,4.4307394,-86.78326,2.5711043,STD
87393639000,0.749955,0.416563231106166,9.86246824632037,0.0831289737332457,-0.014049901,-0.029321533,0.008857546,4.4559917,-86.79825,2.5726256,STD
87398624000,0.75494,0.413403343606846,9.8513327797555,0.113348186334474,-0.00030543262,-0.03604105,0.018325957,4.480304,-86.81336,2.579642,STD
87403636000,0.759952,0.418097624471394,9.84194453173594,0.136819556345232,0.0125227375,-0.044593163,0.01160644,4.509421,-86.83529,2.578154,STD
87408638000,0.764954,0.424262837634409,9.83826424731183,0.15899558827957,0.02687807,-0.046731193,0.0036651916,4.526767,-86.8515,2.5761619,STD
87413696000,0.770012,0.433998432931364,9.84799953763441,0.178466789039293,0.03634648,-0.046731193,0.012217305,4.545688,-86.86631,2.5770488,STD
87418648000,0.774964,0.437757138425021,9.85592200977381,0.198476041184027,0.033292156,-0.04886922,0.0067195175,4.564085,-86.882416,2.5727975,STD
87423653000,0.779969,0.428833768044308,9.86038378814111,0.220784490430048,0.036957346,-0.03145956,0.009162978,4.5765796,-86.89687,2.573095,STD
87428638000,0.784954,0.424663326945303,9.86246905352383,0.249271659978676,0.03970624,-0.016798794,0.01038471,4.5900426,-86.90819,2.5734124,STD
87433660000,0.789976,0.445174992267832,9.85221301471372,0.310806650591748,0.043676864,-0.0030543262,0.014049901,4.5984707,-86.9188,2.5749733,STD
87438648000,0.794964,0.454232457814159,9.84904771464008,0.361841482386764,0.04734206,-0.0033597588,0.013744468,4.602002,-86.92918,2.5736864,STD
87443640000,0.799956,0.435258432203205,9.86327827037754,0.387930761100858,0.03970624,-0.006414085,0.016493361,4.602303,-86.936584,2.5742347,STD
87448665000,0.804981,0.416158977336409,9.87760289829836,0.41419250499876,0.033292156,-0.00061086525,0.016187929,4.5967193,-86.93555,2.5777578,STD
87453664000,0.80998,0.397158345519671,9.89185340874138,0.440318367236692,0.033292156,0.0027488936,0.01985312,4.592456,-86.932724,2.5831718,STD
87458645000,0.814961,0.38065147887391,9.90604924752181,0.456055554519231,0.022602014,-0.007330383,0.016493361,4.5902925,-86.92908,2.5864756,STD
87463682000,0.819998,0.371087969436955,9.9203948112609,0.441710275384615,0.015882496,-0.013439035,0.018020526,4.585776,-86.92404,2.5920744,STD
87468649000,0.824965,0.361654445466998,9.9288847405459,0.426427873298263,0.00580322,-0.017715093,0.022296581,4.5728536,-86.918175,2.5893128,STD
87473662000,0.829978,0.352124212508189,9.91935431851117,0.40736741733201,-0.020158553,-0.021380283,0.009468411,4.5619416,-86.91251,2.5822046,STD
87478634000,0.83495,0.341642106598875,9.91095400118472,0.390567123674598,-0.014966198,-0.01863139,0.014049901,4.5509715,-86.908424,2.5792322,STD
87483657000,0.839973,0.327394609347418,9.90620473955968,0.381068788867608,-0.028099801,-0.022602014,0.01160644,4.543394,-86.90206,2.5708084,STD
87488646000,0.844962,0.316964885634748,9.89776668153998,0.372565196307996,-0.032986723,-0.02443461,0.0076358155,4.5357165,-86.900764,2.561468,STD
87493637000,0.849953,0.321683336633761,9.87417447581441,0.367846755162883,-0.03604105,-0.027488936,0.01038471,4.5295525,-86.89656,2.5535583,STD
87498665000,0.854981,0.328491834710109,9.85412250669357,0.356100444866129,-0.048258353,-0.030848695,0.0076358155,4.5234423,-86.895676,2.5402317,STD
87503698000,0.860014,0.345097821624176,9.85175017472192,0.311027046505562,-0.052839845,-0.041233405,0.0125227375,4.520057,-86.89296,2.5301802,STD
87508686000,0.865002,0.361555334584113,9.84939905374545,0.266356648925091,-0.0580322,-0.04550946,0.007330383,4.5171213,-86.890465,2.5178568,STD
87513806000,0.870122,0.378448371142829,9.84698571384979,0.220504115723004,-0.053450707,-0.04642576,0.013439035,4.5158257,-86.88502,2.510398,STD
87518683000,0.874999,0.393169568134307,9.84599799800816,0.178836399020203,-0.042760566,-0.029321533,0.01863139,4.510438,-86.88107,2.5012507,STD
87523751000,0.880067,0.397773117636346,9.85520528929147,0.151215082780044,-0.036651913,-0.03145956,0.02107485,4.5105925,-86.87632,2.493406,STD
87529015000,0.885331,0.401889100904087,9.86377422582734,0.124835269095913,-0.04428773,-0.028099801,0.015882496,4.5202785,-86.87728,2.4917789,STD
87533755000,0.890071,0.397479341471407,9.8593645308594,0.129245028528593,-0.019242255,-0.014966198,0.016187929,4.5276732,-86.88309,2.492343,STD
87538718000,0.895034,0.392862118673013,9.85474737555858,0.133862251326987,-0.012217305,-0.004581489,0.02076942,4.538918,-86.8875,2.4935758,STD
87543755000,0.900071,0.388176051529046,9.85006137691859,0.138548318470954,0.0018325958,0.019547688,0.021685716,4.542365,-86.89798,2.493598,STD
87548743000,0.905059,0.383535570505796,9.84542096373292,0.143188799494204,0.005497787,0.019547688,0.018936822,4.549697,-86.90746,2.493989,STD
87553819000,0.910135,0.378813220531054,9.84069868279257,0.147911149468946,0.015271631,0.029321533,0.02107485,4.5472183,-86.918755,2.4957116,STD
87558655000,0.914971,0.374314149514928,9.83619967754679,0.152410220485072,0.007941248,0.027183503,0.020463986,4.5481153,-86.92877,2.4959617,STD
87563767000,0.920083,0.369461517768488,9.84344863173087,0.161296798675226,0.006414085,0.021380283,0.023823744,4.547152,-86.93966,2.497892,STD
87568660000,0.924976,0.364797510363293,9.85277635433463,0.170624818355728,0.013439035,0.014660766,0.020463986,4.547059,-86.95216,2.497738,STD
87573754000,0.93007,0.360135990052544,9.84886008,0.185621862841183,0.020158553,0.014660766,0.02107485,4.5424333,-86.962975,2.4968095,STD
87578693000,0.935009,0.35565789636355,9.84214304,0.201295188414675,0.011301007,0.004276057,0.01863139,4.5428333,-86.97364,2.4942293,STD
87583757000,0.940073,0.35106646764497,9.835256,0.217365186532544,0.0076358155,0.008552114,0.019242255,4.5371084,-86.98492,2.4915268,STD
87589307000,0.945623,0.346034392331361,9.827708,0.234977447502959,0.0021380284,0.005192355,0.014660766,4.536696,-86.99604,2.4868534,STD
87593705000,0.950021,0.347960155330514,9.83858436790563,0.245810393979524,0.0070249503,-0.0033597588,0.023823744,4.536492,-87.00463,2.4863567,STD
87598742000,0.955058,0.353328332755397,9.86005692065435,0.256546720802359,0.015271631,-0.01160644,0.023823744,4.5372734,-87.01594,2.4820275,STD
87603725000,0.960041,0.371456332887155,9.87780250110806,0.261996673870224,0.008857546,-0.018936822,0.013439035,4.53477,-87.023476,2.4755816,STD
87608711000,0.965027,0.392620212305647,9.89473350917472,0.266229461245457,0.010079277,-0.018020526,0.015882496,4.532381,-87.03036,2.4728696,STD
87613783000,0.970099,0.399370122972399,9.896706664862,0.276717877046709,0.007330383,-0.007941248,0.018020526,4.5291243,-87.03628,2.4680004,STD
87618734000,0.97505,0.394336711422505,9.88664015711253,0.291818122208068,0.014049901,-0.023823744,0.012217305,4.5332465,-87.04509,2.4618468,STD
87623719000,0.980035,0.411603179826389,9.88642375,0.306358068263889,0.0015271631,-0.027488936,0.01740966,4.5335298,-87.04276,2.464091,STD
87628696000,0.985012,0.439974474513889,9.8911519,0.320543713138889,0.009468411,-0.020158553,0.013744468,4.535345,-87.04817,2.4621916,STD
87633724000,0.99004,0.45626285749827,9.89591752960364,0.300999694670357,0.0012217305,-0.022602014,0.011911872,4.538553,-87.046455,2.461495,STD
87638728000,0.995044,0.465736472637145,9.90065443856875,0.263105179707423,0.0027488936,-0.0143553335,0.009468411,4.536708,-87.04853,2.4594514,STD
87643707000,1.000023,0.460457304308479,9.89948253551053,0.234319944869172,-0.0033597588,-0.008552114,0.016187929,4.5379086,-87.039856,2.4654267,STD
87648759000,1.005075,0.446179704284871,9.89472323942554,0.210523946486327,-0.003970624,0.009468411,0.018020526,4.5333242,-87.034134,2.469077,STD
87653799000,1.010115,0.420279996327341,9.87837450600854,0.198219638180554,-0.005192355,0.02687807,0.022907447,4.533055,-87.02791,2.4773345,STD
87658999000,1.015315,0.385659306288609,9.85364545645049,0.193273823104578,-0.0125227375,0.033292156,0.025961773,4.5306826,-87.020706,2.4854023,STD
87663779000,1.020095,0.370746063694342,9.84770645372351,0.205283125882753,-0.0030543262,0.041233405,0.020463986,4.524192,-87.02205,2.4892244,STD
87668740000,1.025056,0.366127115142913,9.85232549873615,0.228377892755201,-0.01038471,0.05100725,0.014966198,4.515306,-87.018906,2.4937427,STD
87673716000,1.030032,0.353907419446006,9.84952853914091,0.249431420553994,-0.009468411,0.054061573,0.018936822,4.502617,-87.02362,2.4926515,STD
87678696000,1.035012,0.334761498570855,9.83995588358089,0.268577341429145,0.00030543262,0.038789943,0.01740966,4.4923863,-87.031105,2.4885497,STD
87683703000,1.040019,0.328027714836727,9.84021339829043,0.272894842757395,-0.0106901415,0.028099801,0.013744468,4.4762354,-87.033165,2.483917,STD
87688722000,1.045038,0.33264411506723,9.84944590952747,0.26366202783519,-0.012217305,0.0033597588,0.01160644,4.468535,-87.03814,2.4795933,STD
87693699000,1.050015,0.341501394305307,9.85769064087656,0.244895270836315,-0.009468411,0.0009162979,0.0125227375,4.452735,-87.04318,2.4712288,STD
87698771000,1.055087,0.355983673200159,9.86493192650566,0.213517004098092,-0.01038471,-0.015577064,0.009468411,4.4481716,-87.04876,2.461588,STD
87703734000,1.06005,0.370154720155039,9.87201759302326,0.182813073139535,-0.016798794,-0.018936822,0.01863139,4.4423122,-87.05102,2.456676,STD
87708725000,1.065041,0.384405716599086,9.87914323509243,0.151935918310972,-0.018325957,-0.021380283,0.018325957,4.4410725,-87.05677,2.4484513,STD
87713694000,1.07001,0.396592888141225,9.88425086915888,0.133089347449933,-0.014660766,-0.027488936,0.012217305,4.441824,-87.06147,2.4413426,STD
87718730000,1.075046,0.40613228189685,9.88663551713396,0.13070449776591,-0.015882496,-0.013133603,0.016798794,4.4373226,-87.06262,2.437157,STD
87723644000,1.07996,0.415440578345448,9.88896239563863,0.128377422438807,-0.006414085,-0.01160644,0.016493361,4.44993,-87.07095,2.4359126,STD
87729091000,1.085407,0.425758504832122,9.89154166043614,0.125797939470405,-0.002443461,0.013439035,0.021991149,4.4514804,-87.07561,2.4373343,STD
87733679000,1.089995,0.425183562157467,9.88706831726908,0.134394613861026,-0.0125227375,0.01038471,0.019547688,4.460593,-87.08136,2.4366102,STD
87738721000,1.095037,0.409399319097786,9.8712842248996,0.16145332129448,-0.012217305,0.021380283,0.025961773,4.4583306,-87.0858,2.4396598,STD
87743667000,1.099983,0.393915609027739,9.8558006626506,0.18799682922107,-0.003970624,0.034513887,0.023823744,4.4595137,-87.0897,2.4434533,STD
87748773000,1.105089,0.377931010641636,9.83981621686747,0.215399002992435,0.009162978,0.03023783,0.022296581,4.4624496,-87.09263,2.4491997,STD
87753718000,1.110034,0.363212112520581,9.82415538052541,0.239655695416601,0.009468411,0.02321288,0.028405234,4.4622645,-87.09341,2.4563432,STD
87758755000,1.115071,0.35562388298149,9.80644941827906,0.242185100860993,0.016493361,0.014049901,0.022907447,4.463846,-87.10024,2.4596887,STD
87763726000,1.120042,0.348135082298778,9.7889754579204,0.244681363410938,0.013133603,0.003970624,0.01740966,4.45556,-87.1032,2.4581127,STD
87768726000,1.125042,0.340602593179173,9.77139955733837,0.247192188747837,0.025045475,0.006414085,0.016798794,4.4464307,-87.10961,2.4563642,STD
87773706000,1.130022,0.338973805369332,9.76255164179105,0.2502588242447,0.02565634,0.008857546,0.01863139,4.4403133,-87.11444,2.453872,STD
87778699000,1.135015,0.35261112707862,9.77618923880597,0.254804594983363,0.027183503,0.01740966,0.014966198,4.4319267,-87.12257,2.4496226,STD
87783725000,1.140041,0.365664733628974,9.79186218407244,0.260319846363823,0.025961773,0.017104227,0.014049901,4.4233384,-87.13077,2.4441257,STD
87788719000,1.145035,0.375506597853689,9.81646684463422,0.270161726003704,0.023823744,0.021991149,0.015271631,4.4110823,-87.13927,2.438198,STD
87793727000,1.150043,0.391610135636797,9.84178431172545,0.278794633479504,0.013744468,0.007330383,0.0030543262,4.405531,-87.14687,2.4312425,STD
87799026000,1.155342,0.430311763523356,9.87081010200191,0.283632332545281,0.016187929,0.014049901,0.0125227375,4.392405,-87.15034,2.4307075,STD
87803738000,1.160054,0.459031045141893,9.89218536991467,0.284681458513594,0.0021380284,0.0033597588,0.016493361,4.38825,-87.15158,2.427206,STD
87808712000,1.165028,0.454304412556063,9.88745913216908,0.265774913363763,0.009162978,-0.0021380284,0.018936822,4.380706,-87.15436,2.4259262,STD
87813712000,1.170028,0.451207632077262,9.88381380547677,0.246801563553056,0.011911872,0.0030543262,0.016187929,4.3755417,-87.14779,2.4319227,STD
87818729000,1.175045,0.460605535356479,9.88851236704157,0.228005737368215,0.005497787,-0.0033597588,0.018936822,4.3751245,-87.139084,2.440186,STD
87823723000,1.180039,0.469940686922638,9.8921638553507,0.209674000499905,0.012217305,0.0036651916,0.02443461,4.3714404,-87.13568,2.4472597,STD
87828705000,1.185021,0.47900962673066,9.88309521383767,0.196070602624976,0.009773844,0.013439035,0.023823744,4.3687534,-87.13087,2.4532847,STD
87834057000,1.190373,0.487434016516535,9.87377737756137,0.182495584635829,0.01282817,0.034513887,0.025350908,4.3638225,-87.12645,2.4631526,STD
87838719000,1.195035,0.462524406190911,9.87604193294786,0.196082645028403,0.017104227,0.03573562,0.021991149,4.3616776,-87.12325,2.4713554,STD
87843703000,1.200019,0.435894312269223,9.87846289906675,0.210608151033678,0.011911872,0.04795292,0.02321288,4.3526635,-87.117355,2.4829607,STD
87848763000,1.205079,0.40885814147393,9.88092078200446,0.225355153518969,0.011301007,0.056199603,0.023518313,4.3442035,-87.11379,2.4931808,STD
87853992000,1.210308,0.383813180412747,9.88215359733154,0.24053156023229,0.010079277,0.04734206,0.026572637,4.3369265,-87.10843,2.5043886,STD
87858717000,1.215033,0.392500150512574,9.86912288366289,0.253562010846612,0.003970624,0.04795292,0.01985312,4.324464,-87.10466,2.5125754,STD
87864191000,1.220507,0.402576309161778,9.85400836412449,0.268325814397932,0.0030543262,0.03268129,0.019242255,4.3121986,-87.10574,2.5125134,STD
87868726000,1.225042,0.411213245295814,9.84105315382321,0.272644277955653,-0.013744468,0.030848695,0.012217305,4.2960167,-87.10693,2.5086226,STD
87873655000,1.229971,0.42060055691757,9.82697239713632,0.277337928865467,-0.016187929,0.013439035,0.009162978,4.2870855,-87.10585,2.5080407,STD
87878710000,1.235026,0.428728750335965,9.83315324726636,0.245390689005979,-0.01985312,0.01038471,0.016493361,4.274601,-87.10139,2.5083609,STD
87883666000,1.239982,0.436568372519573,9.84099286617555,0.210896341247399,-0.021380283,0.003970624,0.02076942,4.268182,-87.0984,2.5071266,STD
87888720000,1.245036,0.444563015480823,9.84898750579763,0.175719901866473,-0.016493361,-0.003970624,0.011301007,4.263075,-87.095116,2.5061877,STD
87893707000,1.250023,0.452451674849196,9.8568761618711,0.141009790431436,-0.0125227375,0.0012217305,0.012217305,4.256003,-87.08797,2.5093455,STD
87898724000,1.25504,0.460387789557662,9.86481227326484,0.106090875438539,-0.021685716,0.007330383,0.02321288,4.251036,-87.07954,2.512723,STD
87903663000,1.259979,0.468200520381884,9.87262500082587,0.0717148496960788,-0.012217305,0.00580322,0.015577064,4.2469835,-87.07883,2.5110369,STD
87908713000,1.265029,0.473078566564149,9.88894805878071,0.0594075736029117,-0.004581489,0.02321288,0.023823744,4.235603,-87.07003,2.516796,STD
87914070000,1.270386,0.47774672655596,9.90762054276615,0.0500712740919017,-0.006414085,0.016493361,0.01740966,4.2318068,-87.06679,2.5163376,STD
87918731000,1.275047,0.493056332691218,9.90488685835694,0.0585460299660057,-0.00061086525,0.013439035,0.0290161,4.2383556,-87.06648,2.527927,STD
87923655000,1.279971,0.513608152647636,9.8946107310961,0.0739599107600784,0.0067195175,0.00580322,0.028099801,4.2480397,-87.0706,2.5340643,STD
87928709000,1.285025,0.525113553444082,9.90877330970039,0.0805974507404331,0.015882496,0.0027488936,0.024740042,4.2589126,-87.07371,2.5434527,STD
87933671000,1.289987,0.534511403826758,9.92756934411154,0.0852963641560368,0.01740966,-0.006414085,0.025961773,4.273544,-87.07562,2.5538096,STD
87938725000,1.295041,0.5363012,9.92532857506286,0.0920115674387418,0.040011674,-0.014660766,0.022907447,4.2878537,-87.07837,2.565843,STD
87943711000,1.300027,0.5363012,9.91826587398314,0.0990741259419218,0.03145956,-0.010079277,0.021380283,4.300718,-87.07616,2.5784001,STD
87948795000,1.305111,0.5363012,9.91106435527289,0.106275499273283,0.041233405,-0.021380283,0.021380283,4.3197136,-87.07756,2.5922441,STD
87953732000,1.310048,0.5363012,9.90407106300843,0.113268650362372,0.059253927,-0.008552114,0.016798794,4.329869,-87.08017,2.6039,STD
87958714000,1.31503,0.539966845831243,9.89325388542189,0.125918625148992,0.064751714,-0.003970624,0.02107485,4.3448133,-87.07982,2.617986,STD
87963728000,1.320044,0.544784551780877,9.88120962054781,0.140371753059095,0.06780604,0.0012217305,0.013439035,4.3549876,-87.0853,2.6270497,STD
87968709000,1.325025,0.549570549653858,9.86924462586536,0.154729756673021,0.06658431,0.0015271631,0.016493361,4.3619885,-87.08524,2.6403089,STD
87973713000,1.330029,0.554378647095415,9.85722438226146,0.169154059038828,0.07147124,0.0070249503,0.015271631,4.365054,-87.08902,2.6499093,STD
87978703000,1.335019,0.511506136769133,9.82748883170665,0.223092510604761,0.07086037,0.016187929,0.012217305,4.3660393,-87.09134,2.6596432,STD
87984025000,1.340341,0.451068207643893,9.79029648399161,0.292828575203868,0.06414085,0.020158553,0.01740966,4.365937,-87.09134,2.671206,STD
87988719000,1.345035,0.425151935059873,9.77646887921829,0.334898808328236,0.04520403,0.018020526,0.017104227,4.3593745,-87.08749,2.6823316,STD
87993700000,1.350016,0.415260884164636,9.77399606614484,0.367044727610803,0.043676864,0.015577064,0.01863139,4.3509293,-87.0829,2.6952283,STD
87998756000,1.355072,0.405220901565497,9.77148601938728,0.399674674989373,0.03481932,0.007941248,0.022296581,4.3375187,-87.080696,2.6961026,STD
88003789000,1.360105,0.395226591355554,9.76898739095951,0.432156187085169,0.029321533,-0.009162978,0.023518313,4.327653,-87.07894,2.6967776,STD
88008724000,1.36504,0.401241224690907,9.77693514110218,0.423348807029454,0.007330383,-0.01038471,0.018936822,4.315512,-87.07499,2.6967697,STD
88013727000,1.370043,0.413060443796931,9.7887543552716,0.399710363880803,-0.0021380284,-0.016493361,0.018325957,4.3097086,-87.07049,2.6983428,STD
88018714000,1.37503,0.424841864081109,9.80053577063496,0.376147518391633,-0.02107485,-0.008857546,0.009468411,4.292935,-87.06438,2.6922843,STD
88023721000,1.380037,0.436670532892595,9.81236443450589,0.352490175828112,-0.03604105,-0.0067195175,0.007330383,4.2796755,-87.055855,2.6881022,STD
88028688000,1.385004,0.438434247919887,9.82042468224422,0.318529371465781,-0.054061573,-0.017104227,0.0030543262,4.26825,-87.04741,2.6809044,STD
88033730000,1.390046,0.435258253865886,9.8267766371888,0.278829419260039,-0.06536258,-0.016187929,0.0061086523,4.253295,-87.03632,2.6752234,STD
88038719000,1.395035,0.432115644914,9.83306182227776,0.239546781109613,-0.061391957,-0.01160644,0.012217305,4.2462444,-87.02512,2.6740468,STD
88043691000,1.400007,0.428983744391094,9.83932559062058,0.200397998410892,-0.074830994,-0.011301007,0.017104227,4.2405295,-87.00977,2.6734495,STD
88048719000,1.405035,0.425816569043312,9.84565990824481,0.160808280106554,-0.08002335,-0.013439035,0.01160644,4.234519,-86.99702,2.6716163,STD
88053681000,1.409997,0.422690967596277,9.85191107850166,0.121738235908837,-0.07819075,-0.010079277,0.010079277,4.2270226,-86.98116,2.6722581,STD
88058715000,1.415031,0.4115437587833,9.85031874353877,0.0926989248691849,-0.08032878,-0.0067195175,0.01740966,4.2204156,-86.96324,2.673881,STD
88063789000,1.420105,0.394637745594433,9.84307341451292,0.0709626185230616,-0.07391469,-0.00061086525,0.013744468,4.212454,-86.94987,2.6718862,STD
88068722000,1.425038,0.378201528988072,9.83602942395626,0.0498303364565606,-0.0720821,0.014049901,0.020463986,4.21657,-86.945076,2.672748,STD
88073721000,1.430037,0.36154540759841,9.82889118986084,0.0284153196208747,-0.06169739,0.030543262,0.018325957,4.2182198,-86.9455,2.6700037,STD
88078690000,1.435006,0.341044422299169,9.82846354085873,0.0138346394750693,-0.052839845,0.0290161,0.017715093,4.220596,-86.94396,2.6696506,STD
88083706000,1.440022,0.317282417487139,9.83321603709933,0.00432983854273842,-0.051923547,0.039095376,0.019547688,4.214713,-86.942696,2.6691952,STD
88088723000,1.445039,0.303864901421139,9.83408451498935,0.0181504246370348,-0.048258353,0.049785517,0.019547688,4.2109246,-86.953804,2.6613414,STD
88093699000,1.450015,0.299142221022744,9.83172312794212,0.0512091775630544,-0.032070424,0.04153884,0.015271631,4.2091494,-86.96719,2.6529844,STD
88098789000,1.455105,0.294311344168277,9.82930764159358,0.0850253054556266,-0.016798794,0.036651913,0.01282817,4.2009697,-86.98561,2.6402125,STD
88103808000,1.460124,0.289547852825925,9.82692584866954,0.118369734904118,-0.016493361,0.022602014,0.0036651916,4.1973014,-87.006615,2.6246524,STD
88108715000,1.465031,0.298734699739041,9.83037605284896,0.129503099149535,-0.0061086523,0.011301007,0.004581489,4.193801,-87.02878,2.611538,STD
88113704000,1.47002,0.321159695098094,9.83934576250821,0.120533099132639,0.00580322,0.0021380284,0.010079277,4.193184,-87.05187,2.597477,STD
88118720000,1.475036,0.351875248346955,9.85237359787495,0.11121345540662,0.0076358155,-0.016187929,0.010079277,4.188366,-87.0709,2.5805488,STD
88123844000,1.48016,0.396996214452391,9.87242776542705,0.101186572653862,0.01740966,-0.029321533,0.007941248,4.1848855,-87.09144,2.5648808,STD
88128736000,1.485052,0.436992139407756,9.8842407078134,0.0928406945950278,0.01160644,-0.029321533,0.0021380284,4.187535,-87.10738,2.5533094,STD
88133771000,1.490087,0.474019760424266,9.88655473929737,0.0858980168022653,0.008552114,-0.033292156,0.0076358155,4.1951685,-87.12238,2.5446625,STD
88138740000,1.495056,0.510562014412555,9.88883843789595,0.079046345312248,0.016493361,-0.026267206,0.0070249503,4.206222,-87.134,2.5414355,STD
88143759000,1.500075,0.547471970694951,9.89114511595316,0.0721257296534844,0.010079277,-0.021380283,0.014966198,4.2187095,-87.139534,2.5422964,STD
88148757000,1.505073,0.583558607287945,9.89156250576707,0.0747092615872206,0.010995574,-0.011301007,0.01038471,4.2275476,-87.15018,2.5393414,STD
88153825000,1.510141,0.618237239195672,9.88660882933551,0.104433823914464,0.017104227,-0.0009162979,0.005192355,4.2347164,-87.15861,2.5384405,STD
88158656000,1.514972,0.636284360929124,9.88058412447885,0.129189926986301,0.023518313,0.013439035,0.0070249503,4.2475715,-87.153595,2.5538728,STD
88163822000,1.520138,0.616640227992853,9.87076185288863,0.146378553561644,0.029626964,0.018020526,0.006414085,4.2594657,-87.15112,2.5668707,STD
88168651000,1.524967,0.59827756482033,9.86158032956125,0.162445893424658,0.027183503,0.029626964,0.010995574,4.264459,-87.13765,2.5884178,STD
88173754000,1.53007,0.578872994480842,9.8518778417709,0.17942490260274,0.019547688,0.032070424,0.02107485,4.269602,-87.12305,2.6110313,STD
88178696000,1.535012,0.562500852364522,9.84116093139842,0.200393752009336,0.021991149,0.03604105,0.016798794,4.2700577,-87.11195,2.630389,STD
88183744000,1.54006,0.552688859995941,9.82644314775726,0.234735745790542,0.021685716,0.027794369,0.022602014,4.272508,-87.0945,2.6551583,STD
88188688000,1.545004,0.535012838369116,9.81215262536931,0.262648205611582,0.012217305,0.0421497,0.014966198,4.260405,-87.08526,2.666621,STD
88193764000,1.55008,0.496713143620248,9.79779045479614,0.277010591142407,0.013744468,0.040317107,0.02107485,4.2547827,-87.0723,2.6835546,STD
88198795000,1.555111,0.469920106484398,9.79077992213801,0.2886173702264,0.013744468,0.037873644,0.023518313,4.240852,-87.06012,2.6951046,STD
88203838000,1.560154,0.472297109815927,9.80266490156511,0.293371366961315,0.015882496,0.025961773,0.008552114,4.230029,-87.051544,2.7032635,STD
88208757000,1.565073,0.474615666109361,9.81425764671719,0.29800846986416,-0.004886922,0.012217305,0.014049901,4.2162185,-87.040436,2.7100515,STD
88213764000,1.57008,0.476975700945959,9.82605778393543,0.302728529680087,-0.015271631,0.006414085,0.015882496,4.2037606,-87.03568,2.7115111,STD
88218739000,1.575055,0.480789373207509,9.83927902606351,0.301585256893349,-0.021380283,-0.003970624,0.014660766,4.1966486,-87.02849,2.713734,STD
88223752000,1.580068,0.490377649300979,9.85845547813062,0.277614541629718,-0.029321533,-0.014049901,0.021991149,4.191165,-87.01724,2.71891,STD
88228711000,1.585027,0.502542143355046,9.87459765671787,0.25220630215244,-0.040011674,-0.02565634,0.013744468,4.1885962,-87.00798,2.720043,STD
88233758000,1.590074,0.526037262969084,9.87929677386739,0.219313149412794,-0.051618114,-0.042455133,0.014660766,4.1904097,-86.99349,2.7258976,STD
88239452000,1.595768,0.548455330877655,9.87939892294681,0.187670132337906,-0.061391957,-0.055588737,0.017715093,4.198099,-86.98014,2.7317846,STD
88243752000,1.600068,0.55619452275888,9.86778989268934,0.176061340475475,-0.064751714,-0.06536258,0.014660766,4.209954,-86.96766,2.7361803,STD
88249030000,1.605346,0.564678042375602,9.85488756500802,0.15891658317817,-0.058643065,-0.062308256,0.021685716,4.228175,-86.95053,2.7491186,STD
88253753000,1.610069,0.560140399277689,9.85942530286918,0.109002471195827,-0.058643065,-0.043982297,0.01863139,4.245401,-86.93588,2.7580836,STD
88259006000,1.615322,0.556141793570543,9.86479800791758,0.0529953785633883,-0.04428773,-0.034513887,0.02076942,4.2674437,-86.92026,2.7724981,STD
88263752000,1.620068,0.564813260288086,9.87346965572832,-0.0033691958466088,-0.048563786,-0.016187929,0.0290161,4.282132,-86.9018,2.7873833,STD
88268698000,1.625014,0.573850149117619,9.88250673328246,-0.0621090157016121,-0.033292156,-0.0018325958,0.038179077,4.300769,-86.892654,2.8018732,STD
88273750000,1.630066,0.539336239093527,9.87003767206116,-0.0846737327551628,-0.021685716,0.007941248,0.0290161,4.3158855,-86.88528,2.8131368,STD
88278677000,1.634993,0.501858141878475,9.85598310127085,-0.103412783808578,-0.005497787,0.011301007,0.029626964,4.3289056,-86.87557,2.8294814,STD
88283757000,1.640073,0.484836028938195,9.84137627586898,-0.0614851554927377,0.00030543262,0.040317107,0.021991149,4.3410273,-86.874214,2.8422844,STD
88288656000,1.644972,0.470737022971051,9.82727748091756,-0.0144884821854152,0.0012217305,0.03359759,0.027488936,4.3621593,-86.87037,2.8589644,STD
88293750000,1.650066,0.447988955892563,9.83005899990303,0.0329723332108019,0.015882496,0.013133603,0.024129177,4.375118,-86.88139,2.8628812,STD
88298720000,1.655036,0.424912879154465,9.8346743097062,0.0791244996987298,0.031154128,-0.0070249503,0.020463986,4.3897357,-86.8907,2.8682098,STD
88303776000,1.660092,0.413197204605132,9.83333538556793,0.104601418230555,0.03176499,-0.018325957,0.019242255,4.399153,-86.898575,2.8704143,STD
88309472000,1.665788,0.402345899699622,9.83062250552019,0.129016845769843,0.04428773,-0.03940081,0.0143553335,4.417016,-86.91093,2.870662,STD
88313753000,1.670069,0.394190275349115,9.8285835589815,0.147366994171474,0.043676864,-0.049785517,0.017104227,4.425425,-86.92087,2.8677232,STD
88318668000,1.674984,0.384826833703998,9.82624265212851,0.168434730540084,0.030848695,-0.053145275,0.0125227375,4.4381056,-86.93378,2.8614507,STD
88323752000,1.680068,0.396965022853943,9.83374267189367,0.17238252,0.035124753,-0.049785517,0.018325957,4.451951,-86.94455,2.859028,STD
88328715000,1.685031,0.413527545564516,9.84320691129032,0.17238252,0.023518313,-0.043982297,0.015577064,4.466214,-86.955635,2.8529398,STD
88333695000,1.690011,0.430146800672043,9.85270356899641,0.17238252,0.025350908,-0.04337143,0.025350908,4.4737005,-86.96391,2.848267,STD
88338673000,1.694989,0.446759381379928,9.86219641278375,0.17238252,0.015882496,-0.03940081,0.009773844,4.4790206,-86.977264,2.8356438,STD
88343708000,1.700024,0.459522808407295,9.87540648868624,0.162969639626938,-0.0027488936,-0.040927973,0.011301007,4.4859033,-86.982544,2.8308372,STD
88348757000,1.705073,0.471312841421048,9.88955457163757,0.15117960415098,-0.014966198,-0.032375857,0.017104227,4.4890485,-86.990364,2.8228922,STD
88353775000,1.710091,0.4830304856403,9.90361578776943,0.139461957484639,-0.01985312,-0.03481932,0.021991149,4.4982924,-86.9905,2.8220363,STD
88358705000,1.715021,0.494542639088072,9.91743041422023,0.127949801632693,-0.023823744,-0.018325957,0.029626964,4.4996176,-86.987236,2.8234985,STD
88363730000,1.720046,0.490987884288955,9.91806889398783,0.128001526513355,-0.028405234,-0.008552114,0.02565634,4.5036077,-86.98525,2.8230698,STD
88368697000,1.725013,0.4811770220429,9.91316336042075,0.132906962758585,-0.03145956,-0.0021380284,0.02687807,4.503755,-86.97966,2.8261967,STD
88373683000,1.729999,0.464727933866124,9.90493865378281,0.11643478812167,-0.027488936,0.0143553335,0.029626964,4.503527,-86.97249,2.8331206,STD
88379234000,1.73555,0.44412892730311,9.89463894885208,0.0906860420168556,-0.025961773,0.032375857,0.026267206,4.5011225,-86.96621,2.8384857,STD
88383688000,1.740004,0.423433416661543,9.87574132380367,0.113550763340506,-0.02107485,0.04153884,0.025350908,4.4949555,-86.960846,2.8432531,STD
88388677000,1.744993,0.398954128232401,9.85126204559894,0.152717639141305,-0.016493361,0.03726278,0.021991149,4.487523,-86.957245,2.846262,STD
88393699000,1.750015,0.389266100609698,9.84157413011627,0.1729546528722,-0.010995574,0.043982297,0.020463986,4.4756966,-86.95937,2.8455424,STD
88398682000,1.754998,0.384755159667265,9.83706333519236,0.186487468634086,-0.0067195175,0.036957346,0.021991149,4.4689627,-86.96185,2.844855,STD
88403686000,1.760002,0.380225208136875,9.83253353029587,0.200077316130069,-0.0015271631,0.031154128,0.017715093,4.451775,-86.968475,2.8373666,STD
88408691000,1.765007,0.375694351340391,9.82800282016259,0.213669879422913,0.0036651916,0.022296581,0.02321288,4.43747,-86.972404,2.8332705,STD
88413688000,1.770004,0.378056099421419,9.82808436495132,0.227107506751043,0.007330383,0.007330383,0.021380283,4.426733,-86.9797,2.8260362,STD
88423626000,1.779942,0.398139924288728,9.83355068162132,0.241675845555802,0.0070249503,-0.02076942,0.0033597588,4.4093146,-86.99568,2.8086407,STD
88428628000,1.784944,0.41409878723598,9.82823095324819,0.220397365329262,-0.0018325958,-0.031154128,-0.007330383,4.4036245,-87.00538,2.7958665,STD
88433635000,1.789951,0.426599900080016,9.83624474564913,0.200248941663333,-0.0036651916,-0.043066,-0.0018325958,4.401567,-87.011116,2.7874877,STD
88438639000,1.794955,0.436186278795759,9.8554174029806,0.181076169216843,-0.01038471,-0.053145275,0.0036651916,4.402445,-87.018074,2.776325,STD
88443624000,1.79994,0.44313079003096,9.86930647228603,0.161991787000899,-0.02321288,-0.06536258,0.0021380284,4.4117074,-87.02307,2.7680056,STD
88448668000,1.804984,0.447955071517028,9.87895520653151,0.14269471143114,-0.023518313,-0.061086524,-0.0015271631,4.4192476,-87.02769,2.7607265,STD
88453635000,1.809951,0.455093908671141,9.88575690997124,0.125353335373921,-0.020158553,-0.05589417,0.0036651916,4.4334745,-87.02915,2.757509,STD
88458629000,1.814945,0.464264870161074,9.89034224467881,0.109304149175455,-0.013133603,-0.043066,0.0076358155,4.4443316,-87.0322,2.752929,STD
88463640000,1.819956,0.47346705038255,9.89494318825503,0.0932003301845638,-0.029321533,-0.022907447,0.005497787,4.4544334,-87.03397,2.7489886,STD
88468639000,1.824955,0.482647193852349,9.89953311380633,0.0771350755177373,-0.020463986,-0.016187929,0.009773844,4.464595,-87.036385,2.7480636,STD
88473714000,1.83003,0.482901069163687,9.89690199980135,0.0725537296843465,-0.016493361,-0.005192355,0.008246681,4.4677324,-87.03861,2.7447796,STD
88478703000,1.835019,0.468664272840683,9.88266541160111,0.0867905230341677,-0.004886922,-0.002443461,-0.0033597588,4.4712934,-87.044136,2.7398708,STD
88483692000,1.840008,0.4528982468375,9.87538515490385,0.105950788920962,-0.007330383,0.015882496,0.008246681,4.473182,-87.041794,2.7449174,STD
88488723000,1.845039,0.434367124325,9.88001802865385,0.133747473173462,-0.009468411,0.019547688,0.004886922,4.47829,-87.04768,2.742445,STD
88493724000,1.85004,0.422308338769069,9.88233614183325,0.158337526139532,0.0009162979,0.02107485,0.004886922,4.4752164,-87.052086,2.741328,STD
88498718000,1.855034,0.425453166438716,9.87919124848764,0.175634088173987,0.0012217305,0.026572637,0.008857546,4.46981,-87.05496,2.7403817,STD
88503709000,1.860025,0.428596104944766,9.87604824434508,0.192920259802735,-0.010079277,0.018936822,-0.0015271631,4.4623427,-87.062996,2.73143,STD
88508725000,1.865041,0.4317547864808,9.87288949684377,0.210293018145713,-0.0067195175,0.007941248,0.002443461,4.4542065,-87.06762,2.7278037,STD
88513697000,1.870013,0.434885760284061,9.86975845765387,0.227513383871646,-0.0125227375,0.011911872,0.005192355,4.4440365,-87.07307,2.7209508,STD
88518728000,1.875044,0.438053887638085,9.8665902641373,0.244938094243161,-0.0061086523,0.004581489,0.004276057,4.440279,-87.079956,2.71442,STD
88523719000,1.880035,0.443456341884352,9.86313656636741,0.256624944451202,-0.0027488936,0.00061086525,0.0030543262,4.4344096,-87.08518,2.7086475,STD
88528708000,1.885024,0.457293205035235,9.85852418553914,0.247400380254851,-0.004276057,0.007330383,0.0030543262,4.4275985,-87.090385,2.703045,STD
88533721000,1.890037,0.471118556283465,9.85607986141732,0.238801834464567,-0.01863139,-0.0009162979,0.008246681,4.4226933,-87.08749,2.7008255,STD
88538722000,1.895038,0.484428508153775,9.86717147253358,0.234365183069013,-0.015882496,0.006414085,0.005192355,4.411644,-87.0884,2.6961884,STD
88543759000,1.900075,0.497834272515053,9.87834292728115,0.229896594170912,-0.01985312,0.0067195175,0.009468411,4.4076595,-87.081696,2.6982589,STD
88548784000,1.9051,0.511208099379342,9.88948776748495,0.225438651106994,-0.02687807,0.006414085,0.006414085,4.401934,-87.077736,2.6973188,STD
88553712000,1.910028,0.524323764809634,9.90041747345994,0.221066761869384,-0.036957346,0.00030543262,0.011911872,4.3978148,-87.06965,2.7000635,STD
88558718000,1.915034,0.534769264844949,9.89839548357384,0.188087069619282,-0.04428773,0.0021380284,0.01282817,4.391684,-87.06315,2.7005723,STD
88563840000,1.920156,0.544809663903387,9.89337517920377,0.147925447175315,-0.037873644,0.008552114,0.02076942,4.38603,-87.05385,2.7046425,STD
88568756000,1.925072,0.512672061271195,9.90114264938027,0.110446174273674,-0.032986723,0.010995574,0.016493361,4.3860164,-87.04226,2.711117,STD
88573655000,1.929971,0.475454972771443,9.91044710609816,0.0732291003470501,-0.043066,0.0012217305,0.01985312,4.3877106,-87.02582,2.721911,STD
88578752000,1.935068,0.473417489414506,9.9036869136953,0.0587297293885737,-0.034513887,0.010079277,0.015882496,4.3882923,-87.01665,2.731136,STD
88583656000,1.939972,0.47817486120543,9.89417200121556,0.0492150066705835,-0.02076942,0.024129177,0.011301007,4.3903666,-87.00642,2.740974,STD
88588753000,1.945069,0.462215666829004,9.86790435497836,0.0603525376515152,-0.021380283,0.025045475,0.0125227375,4.3905077,-87.005684,2.74324,STD
88593675000,1.949991,0.443665068196576,9.84007888075561,0.0742654791198347,-0.009773844,0.023518313,0.0125227375,4.387245,-87.009384,2.743766,STD
88598838000,1.955154,0.423973188110967,9.83331096886538,0.101454325291887,-0.0009162979,0.028099801,0.009162978,4.3835955,-87.01296,2.7447085,STD
88603733000,1.960049,0.405261099307454,9.83097191013871,0.12952246240495,0.00580322,0.026572637,0.014660766,4.3819404,-87.015175,2.7482004,STD
88608747000,1.965063,0.386094109877258,9.82857598767588,0.158272950553039,0.0143553335,0.023518313,0.010995574,4.3749633,-87.02391,2.7444181,STD
88613675000,1.969991,0.367255872160463,9.82622116001397,0.186530311062369,0.01740966,0.017715093,0.002443461,4.3691955,-87.03247,2.7408566,STD
88618749000,1.975065,0.367818256471843,9.84140230444897,0.222732930278182,0.01863139,0.0015271631,-0.0027488936,4.3672476,-87.041664,2.7373228,STD
88623669000,1.979985,0.372385267812349,9.85967025443443,0.259269054384026,0.014966198,-0.014049901,-0.003970624,4.366713,-87.05164,2.732585,STD
88628751000,1.985067,0.401656282422439,9.86974308293397,0.266273207002976,0.01282817,-0.016493361,-0.01038471,4.3567166,-87.06727,2.7171483,STD
88633752000,1.990068,0.437897217300106,9.8769911649599,0.263857138454825,0.00580322,-0.021685716,-0.0125227375,4.352392,-87.08092,2.7029328,STD
88638751000,1.995067,0.474123658702517,9.88423634833275,0.261442036140846,-0.0012217305,-0.024740042,-0.01160644,4.346521,-87.09126,2.6888115,STD
88643731000,2.000047,0.510212412089996,9.89145399450134,0.259036113051506,-0.013439035,-0.028710667,-0.00061086525,4.342934,-87.09791,2.6772676,STD
88648833000,2.005149,0.556560354247676,9.88567526437404,0.247824826101634,-0.025961773,-0.026572637,0.00061086525,4.339008,-87.10583,2.6634269,STD
88653834000,2.01015,0.604112461377381,9.87702970493727,0.234856076177453,-0.043676864,-0.02443461,0.0018325958,4.336409,-87.10868,2.6529539,STD
88658754000,2.01507,0.633739119157657,9.87087627413013,0.204538338020444,-0.042760566,-0.01038471,0.008552114,4.340204,-87.097336,2.6591215,STD
88663767000,2.020083,0.652614128447022,9.8661574318852,0.162069615160212,-0.050701816,0.014049901,0.013439035,4.3407,-87.08324,2.664957,STD
88669319000,2.025635,0.650517728640746,9.87096577402267,0.129942831098633,-0.053450707,0.022907447,0.0143553335,4.3508186,-87.060524,2.6823921,STD
88673751000,2.030067,0.637027587413921,9.8799593674118,0.11195601056256,-0.06566802,0.03390302,0.016493361,4.3537874,-87.03457,2.7010918,STD
88678747000,2.035063,0.606793824766804,9.87378652880658,0.0990260245679012,-0.0580322,0.035124753,0.02565634,4.3630834,-87.00896,2.725751,STD
88683758000,2.040074,0.569177235630022,9.85968001881246,0.0896218711463845,-0.062002823,0.04795292,0.024740042,4.366803,-86.98306,2.7476025,STD
88688752000,2.045068,0.534217937892736,9.86666927736642,0.0801235864698819,-0.057726767,0.053450707,0.027488936,4.3711014,-86.96058,2.7696886,STD
88693766000,2.050082,0.500585080468281,9.88588793836302,0.0705142007844707,-0.050396383,0.056505036,0.032986723,4.373051,-86.93789,2.7918682,STD
88698788000,2.055104,0.472259834685408,9.88696564830752,0.0787884224039013,-0.04153884,0.050701816,0.032375857,4.3691034,-86.92498,2.805,STD
88703847000,2.060163,0.446779829019411,9.87770024799197,0.09731933187751,-0.03604105,0.055283304,0.0290161,4.3615923,-86.91206,2.8185773,STD
88708743000,2.065059,0.422120784200134,9.86873337707975,0.115253179037579,-0.024129177,0.038179077,0.03359759,4.3550014,-86.90655,2.8270772,STD
88713736000,2.070052,0.396973192128514,9.85958885370052,0.133542333218589,-0.024129177,0.022907447,0.024129177,4.346784,-86.9049,2.8304448,STD
88718754000,2.07507,0.373832039643201,9.85684410212584,0.155202376652067,-0.005192355,0.028099801,0.018936822,4.3376684,-86.90454,2.8362002,STD
88723757000,2.080073,0.353358690464694,9.8619625436385,0.180794065797458,0.015271631,0.03604105,0.021685716,4.332176,-86.904724,2.8415163,STD
88728745000,2.085061,0.372046373328073,9.85592671907674,0.207904931136319,0.0061086523,0.018020526,0.023518313,4.317326,-86.911865,2.8344786,STD
88733758000,2.090074,0.419401402404814,9.84172041704478,0.236317950560268,0.0143553335,0.012217305,0.022296581,4.2971487,-86.9232,2.8273575,STD
88739108000,2.095424,0.458231291951123,9.8471797227664,0.234248480300782,0.016187929,-0.0067195175,0.020463986,4.279885,-86.934044,2.8168797,STD
88743750000,2.100066,0.484622235425942,9.8647735779163,0.212256032763431,0.010995574,-0.012217305,0.025045475,4.2610154,-86.94344,2.8080313,STD
88748798000,2.105114,0.506834800383995,9.87873988436139,0.194798047622169,0.010079277,-0.0143553335,0.020463986,4.2549796,-86.9447,2.8063047,STD
88753800000,2.110116,0.523237594753705,9.88811285378858,0.183081767327692,0.0125227375,-0.018325957,0.013744468,4.2510953,-86.94513,2.805307,STD
88758746000,2.115062,0.539456751281612,9.8973808879323,0.171496656904564,-0.004886922,-0.027794369,0.01160644,4.2573123,-86.93994,2.8100927,STD
88763750000,2.120066,0.555866104145673,9.90675760504818,0.159775691971824,-0.014966198,-0.023823744,0.0067195175,4.2607465,-86.93838,2.8120463,STD
88768748000,2.125064,0.558561239010427,9.90768133592312,0.148915333754856,-0.0030543262,-0.017715093,0.005192355,4.266224,-86.93707,2.8143454,STD
88773752000,2.130068,0.543864150316909,9.89788307217338,0.139117269510325,-0.014049901,-0.011911872,0.0012217305,4.2707014,-86.934006,2.8144982,STD
88778731000,2.135047,0.534028706939098,9.88602361573389,0.120440330719179,-0.01038471,0.0009162979,0.013439035,4.279662,-86.925934,2.825462,STD
88783750000,2.140066,0.529284263231665,9.87179048277564,0.0919736456857171,-0.005192355,0.01160644,0.017104227,4.287464,-86.92017,2.8327029,STD
88788727000,2.145043,0.516108971621886,9.85986474440645,0.0851067935988275,-0.01160644,0.025961773,0.01863139,4.288449,-86.914375,2.8397093,STD
88793734000,2.15005,0.492683916580361,9.85049453649243,0.103846830783195,0.009773844,0.042455133,0.021685716,4.2855535,-86.91096,2.8479912,STD
88798735000,2.155051,0.467065632920221,9.84888198424486,0.134546205734069,0.008246681,0.04642576,0.020463986,4.2837553,-86.90809,2.8545177,STD
88803849000,2.160165,0.437576943818364,9.85871174400401,0.183694014061214,0.016187929,0.04428773,0.020158553,4.278744,-86.907524,2.8619869,STD
88808702000,2.165018,0.417752485058366,9.85867055901427,0.23063832460441,0.028405234,0.053145275,0.019547688,4.263255,-86.91056,2.8639755,STD
88813751000,2.170067,0.408793190322401,9.84523181804706,0.27991442694182,0.03573562,0.04184427,0.018936822,4.2541223,-86.91391,2.8659704,STD
88818695000,2.175011,0.401088051439495,9.83082959070923,0.325137255612694,0.044593163,0.034513887,0.015577064,4.2319713,-86.92147,2.8608706,STD
88823756000,2.180072,0.396455267574078,9.81229806824699,0.362199555561078,0.04886922,0.023823744,0.009162978,4.214375,-86.93017,2.8548844,STD
88828715000,2.185031,0.394170050913056,9.80011500535342,0.393409565456528,0.0290161,0.017715093,0.013744468,4.191664,-86.93277,2.8493526,STD
88833760000,2.190076,0.403749699173193,9.81927470199266,0.398199389586597,0.011911872,0.014049901,0.020463986,4.172046,-86.937096,2.8428,STD
88838716000,2.195032,0.415872870271448,9.83741606538538,0.401547515426986,0.0125227375,0.0018325958,0.015271631,4.153129,-86.94079,2.8335564,STD
88843734000,2.20005,0.444438205631068,9.85169852427184,0.396786629514563,0.0015271631,0.01038471,0.01160644,4.1295505,-86.93911,2.8266773,STD
88848746000,2.205062,0.469863108029429,9.86590973341027,0.392049492596653,-0.014049901,0.0030543262,0.01160644,4.1150527,-86.93526,2.8214166,STD
88853822000,2.210138,0.474538236811887,9.87993488055395,0.387374368695903,-0.026267206,0.009468411,0.018325957,4.09452,-86.9296,2.8170104,STD
88858862000,2.215178,0.480233819352327,9.89214428696767,0.380285319112776,-0.03756821,0.018325957,0.020463986,4.079479,-86.91851,2.817178,STD
88863753000,2.220069,0.498703896865142,9.88290953509464,0.343345135157729,-0.042455133,0.02107485,0.024129177,4.064406,-86.90462,2.8196752,STD
88869015000,2.225331,0.516785500756076,9.87477410261026,0.304647621890189,-0.049785517,0.030543262,0.024740042,4.045935,-86.889046,2.822606,STD
88873758000,2.230074,0.512242770243024,9.88840210441044,0.281933945607561,-0.0711658,0.036651913,0.024740042,4.027646,-86.87042,2.8263397,STD
88879019000,2.235335,0.5079247516205,9.90206398098639,0.254325627966413,-0.06780604,0.043066,0.023518313,4.013116,-86.85392,2.83381,STD
88883759000,2.240075,0.512305992041309,9.89768264906862,0.201750710892771,-0.07574729,0.04062254,0.02687807,3.9996057,-86.83238,2.842465,STD
88889210000,2.245526,0.516211223442578,9.89302826714404,0.142153993156155,-0.09040806,0.038789943,0.028710667,3.9858608,-86.81451,2.8490317,STD
88893736000,2.250052,0.496315595560452,9.89700747415772,0.110320981065822,-0.07727446,0.045814894,0.03145956,3.9704444,-86.79829,2.8566477,STD
88898755000,2.255071,0.474252812453869,9.90142012108694,0.0750205198017075,-0.07086037,0.046120327,0.027794369,3.9647825,-86.785126,2.8639545,STD
88903830000,2.260146,0.447965711006585,9.89176925117592,0.0315413004421449,-0.055283304,0.04886922,0.02687807,3.956638,-86.77369,2.8726068,STD
88908737000,2.265053,0.421440749399812,9.87850696425212,-0.0126669704412041,-0.043676864,0.044593163,0.011301007,3.9507573,-86.767456,2.875921,STD
88913746000,2.270062,0.397722624286004,9.86430126787523,-0.0177792629601985,-0.016187929,0.03604105,0.007941248,3.944054,-86.7706,2.8774042,STD
88918740000,2.275056,0.375926034628317,9.8497701642698,-0.00082635587502532,-0.01282817,0.035430185,0.016187929,3.9361207,-86.773026,2.877761,STD
88924348000,2.280664,0.351449607956249,9.83345249726555,0.0182108693820134,0.00030543262,0.03268129,0.014966198,3.9296362,-86.792854,2.8688486,STD
88928745000,2.285061,0.332258657871177,9.82065849194855,0.0331371674303727,0.02565634,0.01282817,0.011301007,3.9280982,-86.81276,2.861836,STD
88933759000,2.290075,0.332265357563937,9.81289997173848,0.12148125664902,0.04153884,-0.0009162979,0.00061086525,3.9256117,-86.83475,2.8525522,STD
88938749000,2.295065,0.341776399856702,9.80814435127873,0.240369371214648,0.0571159,-0.008857546,-0.0036651916,3.9271696,-86.85851,2.8442822,STD
88943741000,2.300057,0.372659073482042,9.80974939962193,0.28392607626465,0.0580322,-0.01863139,-0.005192355,3.9207008,-86.88863,2.825417,STD
88948866000,2.305182,0.414410510863894,9.81438854187146,0.293204176689981,0.069027774,-0.031154128,-0.008552114,3.9181905,-86.92267,2.805219,STD
88953812000,2.310128,0.445487010571518,9.83075769539871,0.288162596691651,0.07360926,-0.03481932,-0.009162978,3.9069738,-86.94318,2.7876723,STD
88958880000,2.315196,0.470750009259838,9.85602066770768,0.273004802754528,0.074830994,-0.04153884,-0.011301007,3.9017,-86.96546,2.7691534,STD
88963749000,2.320065,0.484520805513933,9.87263156464139,0.273831055513933,0.070249505,-0.03970624,-0.006414085,3.9020119,-86.97669,2.7615685,STD
88968768000,2.325084,0.4933039867291,9.88580615303792,0.2826142367291,0.06414085,-0.025045475,-0.010995574,3.9012573,-86.99068,2.750792,STD
88973750000,2.330066,0.500371878009923,9.89046326814799,0.28254833901413,0.050701816,-0.016798794,-0.0030543262,3.9060256,-86.99545,2.7498546,STD
88978746000,2.335062,0.505532663560565,9.88530290831626,0.272226757135153,0.03176499,0.0036651916,0.0070249503,3.903173,-86.99936,2.7481344,STD
88983738000,2.340054,0.521760176311347,9.87475117108363,0.259636942954456,0.008246681,0.02321288,-0.0061086523,3.8984902,-87.00268,2.743854,STD
88988760000,2.345076,0.545363803060463,9.86058871702002,0.245474774791912,-0.017715093,0.05009095,0.012217305,3.8855305,-86.99267,2.75126,STD
88994206000,2.350522,0.540964090568078,9.85349892848251,0.2373500769542,-0.03145956,0.060170226,0.013439035,3.8731704,-86.98914,2.7510471,STD
88998846000,2.355162,0.520583098823876,9.85204311404141,0.234438504316276,-0.04917465,0.08002335,0.011911872,3.850305,-86.97817,2.7549858,STD
89003827000,2.360143,0.498704279884681,9.85048030978902,0.231312956189228,-0.056505036,0.08093964,0.028710667,3.8331394,-86.95843,2.769546,STD
89008755000,2.365071,0.477058261066702,9.84893413445158,0.22822066524964,-0.07360926,0.08093964,0.024740042,3.8111055,-86.941475,2.777433,STD
89013737000,2.370053,0.455175049672389,9.84737101644608,0.225094489628489,-0.080634214,0.07696902,0.027794369,3.7901862,-86.918945,2.791912,STD
89018761000,2.375077,0.43310735516315,9.84579472080986,0.221941959255012,-0.07849618,0.07941248,0.029321533,3.7680023,-86.8972,2.804547,STD
89023751000,2.380067,0.418091974752158,9.84714872774353,0.218074866882861,-0.05467244,0.06719518,0.0290161,3.751712,-86.87728,2.8174157,STD
89028746000,2.385062,0.411013876212084,9.85186755536375,0.21335613534402,-0.046120327,0.056505036,0.01985312,3.7348356,-86.85799,2.8279185,STD
89033743000,2.390059,0.40393294359852,9.85658827240444,0.208635514423181,-0.042455133,0.037873644,0.022296581,3.7137213,-86.851616,2.8278391,STD
89038744000,2.39506,0.396846342837978,9.86131276828607,0.203911114738348,-0.030848695,0.023823744,0.01038471,3.6944232,-86.85337,2.8211236,STD
89043727000,2.400043,0.394625664232026,9.86806425102124,0.199136353704044,-0.003970624,0.022907447,0.0125227375,3.6765113,-86.85332,2.819211,STD
89048821000,2.405137,0.399607712761438,9.8780285561683,0.194154299972426,-0.005497787,0.003970624,0.0070249503,3.6679451,-86.85611,2.8120253,STD
89053812000,2.410128,0.408865467723959,9.88547800948767,0.17604376018476,0.004276057,-0.009468411,0.0030543262,3.656276,-86.86637,2.8029,STD
89058759000,2.415075,0.423059953666234,9.89020910626186,0.142923296279836,-0.0021380284,-0.014660766,-0.0061086523,3.6479206,-86.87694,2.7909584,STD
89064106000,2.420422,0.43787624299703,9.90668091971413,0.11527190174587,-0.006414085,-0.032375857,-0.0067195175,3.6483643,-86.88732,2.7815862,STD
89068721000,2.425037,0.450182808288472,9.93129411026545,0.0988631523074067,-0.009162978,-0.042455133,-0.008857546,3.648328,-86.8996,2.7693467,STD
89073673000,2.429989,0.462358343361471,9.94495880675309,0.0821838413526279,-0.009468411,-0.048258353,-0.006414085,3.6570187,-86.910904,2.761468,STD
89078695000,2.435011,0.472024656258668,9.92562630208019,0.0676843770535625,-0.008857546,-0.04184427,-0.0033597588,3.6649768,-86.92215,2.753298,STD
89083665000,2.439981,0.484325967247219,9.90788084327087,0.0478610005809199,-0.0106901415,-0.029626964,0.0009162979,3.6762652,-86.93131,2.7489963,STD
89088725000,2.445041,0.503750196268163,9.89331287052811,0.013868567088586,-0.0030543262,-0.02321288,-0.0015271631,3.6871972,-86.9425,2.743721,STD
89093705000,2.450021,0.515836974974284,9.8806438152094,-0.00564510904904482,0.006414085,-0.006414085,0.0106901415,3.6939335,-86.94792,2.7459412,STD
89098803000,2.455119,0.51135290752388,9.87167549301984,0.00780710313482733,0.01038471,0.018020526,0.017715093,3.6964192,-86.95534,2.7459147,STD
89103716000,2.460032,0.506944879416844,9.86098169381663,0.0247863694432836,0.018936822,0.036651913,0.01740966,3.700654,-86.9622,2.7512832,STD
89108713000,2.465029,0.501843043635394,9.83547248827292,0.0707029745820896,0.025350908,0.05131268,0.014660766,3.6988146,-86.96777,2.7577028,STD
89113683000,2.469999,0.494708752039163,9.81458442531802,0.117938137039402,0.032375857,0.053145275,0.01985312,3.6935363,-86.97168,2.7652583,STD
89118731000,2.475047,0.480889019283911,9.80767466115584,0.170913771651818,0.048563786,0.058337633,0.016798794,3.6829045,-86.97991,2.7694654,STD
89123683000,2.479999,0.467332102365525,9.80089630296822,0.222881945701082,0.056505036,0.064446285,0.020463986,3.668139,-86.981705,2.7761986,STD
89128698000,2.485014,0.453602712554195,9.7940317096098,0.275511265744914,0.062308256,0.060170226,0.011301007,3.654708,-86.98901,2.7783349,STD
89133878000,2.490194,0.440960796950831,9.78835236442636,0.329033006674733,0.06414085,0.0580322,0.01038471,3.6386,-86.993355,2.7837398,STD
89138720000,2.495036,0.446061557137829,9.79855353327467,0.369838981647784,0.0580322,0.04886922,0.016798794,3.6254323,-86.99762,2.7886364,STD
89143713000,2.500029,0.452300762355281,9.80993631887806,0.406607549285856,0.026572637,0.0290161,0.01863139,3.606484,-86.997604,2.7862008,STD
89148723000,2.505039,0.461845171137856,9.82425323851204,0.42569638678337,0.009162978,0.01038471,0.0030543262,3.5900385,-87.00131,2.7806826,STD
89153718000,2.510034,0.471360591065036,9.83852655787589,0.434241892279236,-0.013744468,0.002443461,0.013744468,3.574065,-86.98984,2.7841458,STD
89158721000,2.515037,0.480889788647574,9.85282013285601,0.405654324407319,-0.03145956,-0.0036651916,0.008857546,3.563443,-86.98519,2.7788503,STD
89163685000,2.520001,0.493176865018171,9.8631590381102,0.366889234902269,-0.04550946,-0.018936822,0.017104227,3.5571506,-86.968864,2.7823055,STD
89168726000,2.525042,0.516886077870543,9.85841710146351,0.286277940912484,-0.065973446,-0.021991149,0.01282817,3.5494447,-86.95424,2.7807453,STD
89173704000,2.53002,0.534717174800545,9.85611805331777,0.210762422786534,-0.073303826,-0.021991149,0.014049901,3.54463785460467,-86.9444127026756,2.78303476096803,STD
89178705000,2.535021,0.525397515950574,9.86543787760265,0.154844610792956,-0.08674286,0.005497787,0.015882496,3.5398088,-86.93454,2.7853348,STD
89183703000,2.540019,0.512165740421095,9.87424154458953,0.100916612294767,-0.0888809,0.018936822,0.01985312,3.5353007,-86.91548,2.7890167,STD
89188717000,2.545033,0.468420130808786,9.8791022671323,0.0620316135661504,-0.087659165,0.032375857,0.02076942,3.530908,-86.897064,2.797454,STD
89193701000,2.550017,0.427434226658968,9.88091690370436,0.0263823710855468,-0.07666359,0.046120327,0.02443461,3.5254216,-86.8851,2.8055193,STD
89198802000,2.555118,0.401396406205916,9.86355800630719,0.00902382396579906,-0.056199603,0.053145275,0.023518313,3.518394,-86.875626,2.8123622,STD
89203764000,2.56008,0.376068104875189,9.84667213120725,-0.00786171040161677,-0.04184427,0.046731193,0.02565634,3.507287,-86.87666,2.8120942,STD
89208709000,2.565025,0.350041954670784,9.8355758956656,0.0232581097670674,-0.020158553,0.03268129,0.009162978,3.4964304,-86.886154,2.8062563,STD
89213709000,2.570025,0.32667690128706,9.82615916093208,0.0599469164600892,-0.020158553,0.02076942,0.008246681,3.49502633690726,-86.8911684753918,2.80440290077868,STD
89218726000,2.575042,0.340969466199306,9.83092344541398,0.0932962362469013,0.006414085,-0.0030543262,-0.0027488936,3.4936175,-86.8962,2.8025432,STD
89223816000,2.580132,0.355048476880939,9.83608759474567,0.125558416059251,0.03023783,-0.021991149,-0.005192355,3.4863572,-86.91694,2.7911828,STD
89228706000,2.585022,0.363774124728899,9.84481296925657,0.138646896942426,0.044593163,-0.035430185,-0.013439035,3.4814541,-86.9453,2.7703478,STD
89233676000,2.589992,0.372642523461897,9.85368109018073,0.151949504302217,0.03726278,-0.042455133,-0.009162978,3.4807088,-86.96526,2.7557116,STD
89238721000,2.595037,0.410923959580679,9.87116878834268,0.174022517018161,0.035124753,-0.042760566,-0.008246681,3.4825358,-86.990105,2.7381139,STD
89243703000,2.600019,0.45175355995531,9.88931516791861,0.196705624126652,0.03970624,-0.038179077,-0.009468411,3.4854639,-87.01386,2.721435,STD
89249532000,2.605848,0.503733803535534,9.89773521751472,0.191324704275652,0.029626964,-0.029321533,-0.0030543262,3.4881384,-87.030075,2.709334,STD
89253708000,2.610024,0.541573873291632,9.90193975410009,0.182915802324432,0.030543262,-0.03145956,-0.0070249503,3.4931567,-87.05077,2.6941996,STD
89258715000,2.615031,0.592849968398268,9.91095852813853,0.186229504891775,0.022602014,-0.013133603,0.0070249503,3.4938023,-87.05268,2.6947615,STD
89263685000,2.620001,0.644361593053916,9.92032446477765,0.190912375415191,0.014660766,0.009773844,0.01160644,3.4938517,-87.05808,2.6915393,STD
89268722000,2.625038,0.649157284859988,9.9133096688523,0.199798510755768,0.007330383,0.023823744,0.010079277,3.4959676,-87.05323,2.6993449,STD
89273656000,2.629972,0.646827743122658,9.90399164785052,0.209116587704102,-0.00061086525,0.050701816,0.0061086523,3.4875674,-87.046936,2.7073812,STD
89278700000,2.635016,0.644446265918951,9.89446588823703,0.218642404511438,-0.0106901415,0.064751714,0.012217305,3.4834585,-87.02723,2.7284079,STD
89283674000,2.63999,0.642097838557484,9.88507232592191,0.228036023226681,-0.025961773,0.074830994,0.02076942,3.472581,-87.00673,2.7485335,STD
89288715000,2.645031,0.629794000985859,9.8714127369697,0.245646063854545,-0.02565634,0.0729984,0.01740966,3.4611084,-86.988716,2.7666345,STD
89293718000,2.650034,0.615275011987879,9.85689342454545,0.265004763018182,-0.038789943,0.06566802,0.013439035,3.4485226,-86.965775,2.7865946,STD
89298789000,2.655105,0.530424648411521,9.84667796744052,0.279935026197861,-0.03359759,0.044593163,0.017715093,3.439345,-86.94318,2.8068964,STD
89303807000,2.660123,0.433210041602928,9.83741973085445,0.293822825789423,-0.03604105,0.018020526,0.013133603,3.4343414,-86.92199,2.8232825,STD
89308716000,2.665032,0.404875479543639,9.84230798345693,0.279563000775813,-0.037873644,0.0018325958,0.007330383,3.430159,-86.90202,2.8374717,STD
89313721000,2.670037,0.395761221319642,9.85142195617037,0.256777331423274,-0.040011674,-0.008857546,0.004276057,3.4322793,-86.882545,2.8510077,STD
89319395000,2.675711,0.388812740204082,9.86220682380279,0.245160642221661,-0.027488936,-0.03176499,-0.0076358155,3.4292438,-86.8862,2.8397672,STD
89323720000,2.680036,0.384628082040816,9.87057629743382,0.240975997167104,-0.022602014,-0.042455133,-0.005192355,3.4256928,-86.88563,2.8319092,STD
89328698000,2.685014,0.395884427407701,9.86728178920206,0.226608012592299,-0.026572637,-0.06352998,-0.005192355,3.4315546,-86.89299,2.8183086,STD
89333730000,2.690046,0.415015236427154,9.85771619491862,0.207477203572846,-0.02321288,-0.07269296,-0.008857546,3.4371984,-86.90193,2.8045793,STD
89338719000,2.695035,0.447205908557047,9.87067549481391,0.191428036369738,-0.0143553335,-0.06261369,-0.009468411,3.442861,-86.9115,2.7908826,STD
89343734000,2.70005,0.486276629194631,9.89509467927598,0.176776515493187,-0.011911872,-0.054367006,-0.013744468,3.4518554,-86.92236,2.775416,STD
89348815000,2.705131,0.517850723302096,9.89910847154864,0.152525750153608,-0.013439035,-0.04734206,-0.00061086525,3.461809,-86.927315,2.7689927,STD
89353884000,2.7102,0.545989941604676,9.89441850797024,0.12438653674814,-0.005497787,-0.0290161,-0.0061086523,3.4664016,-86.939476,2.7560802,STD
89358717000,2.715033,0.5692189313288,9.88733552453593,0.10941602746848,-0.0070249503,-0.014049901,-0.006414085,3.4756646,-86.93989,2.7561536,STD
89363713000,2.720029,0.591202818834773,9.87854225234332,0.100622472466091,-0.010079277,0.01282817,-0.006414085,3.47338607108168,-86.9391430563917,2.75753559606663,STD
89368683000,2.724999,0.593424375330213,9.87589114279771,0.0990728847130525,-0.009773844,0.03023783,0.009162978,3.4711194,-86.9384,2.7589104,STD
89373690000,2.730006,0.570982366016641,9.88087809396776,0.106553552574831,-0.014049901,0.05497787,0.021991149,3.4725223,-86.93443,2.7668052,STD
89378708000,2.735024,0.548491053307332,9.88587600109204,0.11405065489766,-0.013744468,0.06719518,0.022602014,3.4683745,-86.926155,2.780316,STD
89383694000,2.74001,0.526143168658346,9.89084203634945,0.121499947879251,-0.020158553,0.06811147,0.02443461,3.4603016,-86.91304,2.797465,STD
89389193000,2.745509,0.503961851262691,9.88624819349433,0.140980602642681,-0.03359759,0.048563786,0.020463986,3.454646,-86.900635,2.8128862,STD
89393690000,2.750006,0.486981312244455,9.87775797274519,0.162206278631838,-0.027794369,0.048258353,0.019547688,3.4432833,-86.88868,2.829279,STD
89398711000,2.755027,0.468022164721538,9.86827845342533,0.185905215510104,-0.018020526,0.02107485,0.019242255,3.4383419,-86.88361,2.8357825,STD
89403698000,2.760014,0.449191400193199,9.85886312523411,0.209443673628388,-0.01740966,0.0067195175,0.008552114,3.429943,-86.88118,2.8388596,STD
89408692000,2.765008,0.435426604134505,9.85538509982562,0.22026655,-0.0036651916,-0.006414085,0.017104227,3.4288883,-86.87659,2.847419,STD
89413706000,2.770022,0.425947163086895,9.85696503856151,0.22026655,-0.0009162979,-0.022907447,0.013133603,3.43302,-86.87682,2.84939,STD
89418714000,2.77503,0.416479065606554,9.85854308666469,0.22026655,0.004886922,-0.040317107,0.0076358155,3.4335313,-86.88017,2.845685,STD
89423707000,2.780023,0.407039327044385,9.86011640818609,0.22026655,0.013439035,-0.040927973,0.010079277,3.43892410627543,-86.8848749743248,2.84131946310103,STD
89433709000,2.790025,0.388129600407331,9.86326809291613,0.22026655,0.010995574,-0.05589417,0.0021380284,3.449727,-86.8943,2.8325744,STD
89438681000,2.794997,0.38520301896358,9.86624179901201,0.222397306738667,0.016187929,-0.050396383,0.004886922,3.454641,-86.90093,2.8276894,STD
89443785000,2.800101,0.389937626604029,9.87097649564122,0.227131909435296,0.01038471,-0.03970624,0.009773844,3.4620855,-86.90538,2.8232245,STD
89448718000,2.805034,0.393571603147704,9.87092037275951,0.238146074109077,0.004276057,-0.032986723,0.008857546,3.4654002,-86.91652,2.8120205,STD
89453739000,2.810055,0.395876075150005,9.8640068123742,0.258886336567622,0.00580322,-0.02321288,0.014049901,3.4650173,-86.92483,2.8040488,STD
89458857000,2.815173,0.3982250669261,9.85695968987827,0.280027277269242,0.0027488936,-0.016798794,0.01282817,3.464395,-86.93238,2.7950616,STD
89463709000,2.820025,0.400451973549315,9.85027883048979,0.300069450830058,0.0067195175,-0.0009162979,0.008552114,3.4584472,-86.94027,2.7866924,STD
89468710000,2.825026,0.40430763586682,9.845997898584,0.313952866306927,-0.0067195175,0.016493361,0.002443461,3.4504197,-86.94641,2.7775304,STD
89473720000,2.830036,0.413488619047072,9.85058848124761,0.304771892713356,-0.013744468,0.007941248,0.0036651916,3.4454787,-86.952835,2.7694614,STD
89478708000,2.835024,0.423007623523781,9.85518526273806,0.293624771592382,-0.021380283,0.01038471,0.007330383,3.43181,-86.95362,2.7614577,STD
89483726000,2.840042,0.43498698399641,9.85997710499551,0.269666040640144,-0.034513887,0.01282817,0.011301007,3.4207234,-86.952354,2.7540963,STD
89488730000,2.845046,0.446932922578522,9.86475557822315,0.245774153496859,-0.047036625,0.017104227,0.0125227375,3.4098938,-86.949005,2.7490172,STD
89493781000,2.850097,0.458991063221657,9.86957893319374,0.2216578621378,-0.042455133,0.024129177,0.009468411,3.3975255,-86.94619,2.7438886,STD
89498761000,2.855077,0.467346176184139,9.87400756375376,0.196000023113214,-0.049480084,0.028405234,0.012217305,3.3845613,-86.938515,2.740825,STD
89503737000,2.860053,0.453253557531667,9.87635638094534,0.158419706379615,-0.058948494,0.038179077,0.016798794,3.3679607,-86.93135,2.7374048,STD
89508705000,2.865021,0.439183595822367,9.87870142190349,0.120899808161664,-0.050701816,0.040011674,0.015271631,3.357396,-86.92661,2.73795,STD
89513710000,2.870026,0.425008845750899,9.88106392794125,0.0831004743088373,-0.047036625,0.041233405,0.01740966,3.344167,-86.91806,2.7407506,STD
89518732000,2.875048,0.409991420505751,9.88266123443674,0.0475821553650891,-0.040317107,0.047647487,0.011911872,3.329006,-86.91342,2.7408438,STD
89523719000,2.880035,0.38483055393801,9.87427410668188,0.0433886768740012,-0.018936822,0.044593163,0.003970624,3.3162262,-86.911385,2.740866,STD
89528675000,2.884991,0.35982609139345,9.86593911467205,0.0392212657246466,-0.004276057,0.03634648,0.0033597588,3.3006542,-86.92146,2.7354655,STD
89533715000,2.890031,0.348581787460567,9.86219093705939,0.0651875654505249,-0.009468411,0.01863139,0.004276057,3.2886238,-86.93313,2.728452,STD
89538680000,2.894996,0.341347089722574,9.85977932246285,0.098949488143886,0.0067195175,0.0021380284,0.004581489,3.278594,-86.9495,2.7212725,STD
89543720000,2.900036,0.334003106520262,9.85733127864279,0.133221409669473,0.014966198,-0.013744468,-0.0033597588,3.2685764,-86.97135,2.7064247,STD
89548721000,2.905037,0.326715951759395,9.85490217801897,0.167228131802303,0.025350908,-0.025961773,-0.0061086523,3.2624571,-86.99373,2.69346,STD
89553787000,2.910103,0.342487143421618,9.85031498824011,0.176601448058084,0.025350908,-0.040927973,-0.0021380284,3.261918,-87.015656,2.680524,STD
89558651000,2.914967,0.36154086241947,9.84555146149913,0.181364880294509,0.029932396,-0.03940081,-0.0106901415,3.2605443,-87.04287,2.663449,STD
89563699000,2.920015,0.387014854868681,9.84705669673183,0.200856221294925,0.02321288,-0.046731193,-0.007941248,3.2623847,-87.06092,2.6482158,STD
89568660000,2.924976,0.412815400408768,9.84940224851896,0.221965763675948,0.0125227375,-0.03634648,-0.0033597588,3.2594204,-87.080376,2.6312644,STD
89573734000,2.93005,0.439203622152449,9.85180122650079,0.243556132158373,0.015577064,-0.03726278,-0.0030543262,3.2650092,-87.096725,2.61828,STD
89578672000,2.934988,0.46488455218207,9.8541359039297,0.264567807279818,0.0143553335,-0.02565634,-0.0033597588,3.264299,-87.10995,2.6064975,STD
89583762000,2.940078,0.477293979952625,9.8665799226214,0.256104920552704,0.0012217305,-0.011911872,-0.009773844,3.2635794,-87.12333,2.5932496,STD
89588698000,2.945014,0.486625041705488,9.88057678562969,0.242108340102645,-0.0033597588,-0.0018325958,-0.011911872,3.2608397,-87.13637,2.5812926,STD
89593776000,2.950092,0.50753189255751,9.89855669824087,0.227951334465494,-0.013439035,0.0018325958,-0.011911872,3.2602952701581,-87.1321575681818,2.5830427537747,STD
89598818000,2.955134,0.530867614585347,9.91722515890199,0.213949901248792,-0.023518313,0.01038471,0.008246681,3.2597547,-87.127975,2.5847805,STD
89603782000,2.960098,0.528939637136193,9.90684899726194,0.184924341471453,-0.032375857,0.036651913,0.0076358155,3.2520165,-87.126305,2.5816069,STD
89608726000,2.965042,0.519336585210425,9.88764305384849,0.151313739950309,-0.047036625,0.039095376,0.013133603,3.248661,-87.1144,2.5878093,STD
89613759000,2.970075,0.498414068233173,9.88701137980769,0.128665321021635,-0.058337633,0.06261369,0.01985312,3.2349074,-87.098885,2.5985446,STD
89618745000,2.975061,0.4745008346875,9.891793625,0.1095347321875,-0.058643065,0.04795292,0.02321288,3.2316027,-87.08261,2.60993,STD
89623754000,2.98007,0.44391244490056,9.88559806690481,0.108966459996138,-0.053450707,0.06169739,0.02443461,3.2126763,-87.06936,2.6203,STD
89628738000,2.985054,0.411655677401043,9.87638214182275,0.113574566889361,-0.049480084,0.06047566,0.026267206,3.2025115,-87.05515,2.6318,STD
89633755000,2.990071,0.388532366273722,9.85999456491616,0.108074920992067,-0.046731193,0.052534413,0.021685716,3.1868756,-87.049225,2.6366084,STD
89638755000,2.995071,0.369299903175018,9.84076221227031,0.0984586864303645,-0.03604105,0.037873644,0.022907447,3.1736305,-87.04301,2.6435394,STD
89644308000,3.000624,0.349107770956813,9.8316782023455,0.117984403750931,-0.034208454,0.017104227,0.018020526,3.1584957,-87.044464,2.640608,STD
89648841000,3.005157,0.332945575474684,9.82763757120253,0.142227703724684,-0.021685716,0.010995574,0.009468411,3.143423,-87.04927,2.6369987,STD
89653814000,3.01013,0.316926191739581,9.8344891212938,0.164809238998549,-0.016493361,0.0009162979,0.005192355,3.1322374,-87.05767,2.6296673,STD
89658754000,3.01507,0.302212499556293,9.84920259838275,0.184427491828737,-0.004886922,-0.02443461,0.009773844,3.1272478,-87.06825,2.6227129,STD
89663752000,3.020068,0.313701800990493,9.85912157891593,0.185419482657409,0.004581489,-0.04153884,0.003970624,3.118623,-87.0836,2.6078346,STD
89668765000,3.025081,0.339986892980937,9.86629038599373,0.17586126784182,0.009468411,-0.03481932,0.0036651916,3.1106918,-87.09705,2.596062,STD
89673749000,3.030065,0.36611992678911,9.87341772181574,0.166358346908068,0.005192355,-0.027183503,0.00580322,3.1045852,-87.11216,2.5805693,STD
89678782000,3.035098,0.392509886491464,9.88061512975959,0.156761998380867,0.0070249503,-0.02107485,0.0067195175,3.0975907,-87.12877,2.564895,STD
89683803000,3.040119,0.420014115641765,9.88771199467435,0.14878185031563,0.007330383,-0.020463986,0.0030543262,3.090503,-87.14497,2.5487792,STD
89688746000,3.045062,0.44776892901842,9.89465059779157,0.141843145763913,0.0021380284,-0.010995574,0.01038471,3.0795522,-87.15738,2.5362442,STD
89693805000,3.050121,0.4761750793062,9.90175203278448,0.134741606956076,0.01038471,0.0036651916,0.010995574,3.0767286,-87.16618,2.5316834,STD
89698799000,3.055115,0.504216256324815,9.90876222577808,0.127731311481409,0.00580322,0.025045475,0.009773844,3.0693185,-87.17116,2.5286424,STD
89703767000,3.060083,0.509507698715825,9.89926192676113,0.1295917219547,-0.004276057,0.038179077,0.0070249503,3.0601823,-87.1766,2.525344,STD
89708758000,3.065074,0.495199838359609,9.87541548453402,0.139130303825584,-0.015271631,0.04520403,0.014660766,3.0466945,-87.17888,2.5246263,STD
89714382000,3.070698,0.464171405147159,9.85501898057309,0.152744252341914,-0.02076942,0.056505036,0.0143553335,3.0376577,-87.17411,2.5324857,STD
89718764000,3.07508,0.431560952739194,9.84279024235066,0.164973169334628,-0.017104227,0.06627888,0.014049901,3.0269392,-87.16725,2.5423174,STD
89723751000,3.080067,0.401710393814019,9.83650227093794,0.177989346569592,-0.016493361,0.06047566,0.014049901,3.0150332,-87.16097,2.5492702,STD
89728735000,3.085051,0.38014094512151,9.83889867503515,0.189972375567383,-0.014660766,0.053145275,0.013439035,3.0007403,-87.15565,2.5557885,STD
89733750000,3.090066,0.358437336535449,9.84130998453505,0.202029937851476,-0.01038471,0.046731193,0.011301007,2.9812407,-87.15683,2.5540385,STD
89738757000,3.095073,0.336768349857401,9.84371744747942,0.214068265739104,-0.004886922,0.036957346,0.005497787,2.9648557,-87.15949,2.5511527,STD
89743779000,3.100095,0.327915944425737,9.84726155255255,0.221418803416039,-0.01160644,0.02076942,0.009773844,2.9521313,-87.15909,2.550653,STD
89748864000,3.10518,0.332710709157682,9.85205641741742,0.223816188285335,-0.00061086525,0.015271631,-0.004581489,2.9393394,-87.16782,2.543211,STD
89753747000,3.110063,0.337315003392901,9.85666080780781,0.226118337806823,-0.0009162979,0.0018325958,-0.005192355,2.9256153,-87.17545,2.5322025,STD
89758739000,3.115055,0.342022076262492,9.86136797897898,0.228471876699158,-0.0070249503,-0.018936822,0.0012217305,2.915953,-87.18538,2.51944,STD
89763705000,3.120021,0.358124507688433,9.86220246589808,0.218392386556869,-0.0018325958,-0.011301007,0.0018325958,2.9023705,-87.198105,2.5050094,STD
89768761000,3.125077,0.39096139083511,9.85751138742492,0.190246483917845,-0.004581489,-0.008246681,-0.00030543262,2.8962731,-87.20789,2.4920099,STD
89773679000,3.129995,0.423185429928465,9.85616013939394,0.16750420030005,-0.01038471,-0.004276057,0.0021380284,2.8893223,-87.214325,2.482543,STD
89778735000,3.135051,0.456860786065574,9.860971,0.153071909836066,-0.019547688,0.013744468,0.009162978,2.8776727,-87.21917,2.4738586,STD
89784102000,3.140418,0.479798911115685,9.86123535668975,0.137900729302213,-0.022907447,0.016187929,0.00580322,2.875286,-87.22241,2.470091,STD
89788744000,3.14506,0.481951615856375,9.854777332381,0.124984491866738,-0.021991149,0.029626964,0.014049901,2.8644712,-87.22027,2.4714923,STD
89793759000,3.150075,0.48427729751828,9.84780038453344,0.111030392181492,-0.026267206,0.025350908,0.01038471,2.863699,-87.21616,2.475502,STD
89798812000,3.155128,0.486620601493874,9.84077057048085,0.0969705585405065,-0.02565634,0.032986723,0.004886922,2.8556144,-87.21129,2.4810598,STD
89803779000,3.160095,0.491535862510676,9.83746007726686,0.0882704045684775,-0.019547688,0.026572637,0.007941248,2.8527596,-87.20543,2.4880242,STD
89808758000,3.165074,0.505742696536895,9.84693100655477,0.0977416404389711,-0.005192355,0.02687807,0.01160644,2.8458028,-87.20205,2.4934196,STD
89813720000,3.170036,0.511719810786022,9.85724792081049,0.111677233425998,-0.009468411,0.03634648,0.010995574,2.8394132,-87.19904,2.4994807,STD
89818768000,3.175084,0.483326881177565,9.8714446796202,0.14480233196946,-0.00030543262,0.029626964,0.010995574,2.837435,-87.198524,2.5067394,STD
89823723000,3.180039,0.458995781750935,9.88257403732131,0.166163981429531,-0.0070249503,0.020158553,0.0125227375,2.8356142,-87.19175,2.5169604,STD
89828722000,3.185038,0.454402629760146,9.87798078940804,0.124825584735681,-0.0021380284,0.014049901,0.01038471,2.834564,-87.18858,2.5259807,STD
89833768000,3.190084,0.449739226789485,9.87405870979093,0.0869326648726972,-0.0030543262,0.010079277,0.013744468,2.8299346,-87.18454,2.5308259,STD
89838755000,3.195071,0.444796186920927,9.87900183740426,0.0968187239639826,0.01282817,0.017715093,0.017104227,2.8236802,-87.183784,2.5349672,STD
89843784000,3.2001,0.439914693897463,9.88079132393117,0.106581692850807,0.015271631,0.015271631,0.01160644,2.8215659,-87.187355,2.5366158,STD
89848782000,3.205098,0.435669098155047,9.86380858630477,0.115072888768849,0.0067195175,0.013439035,0.010079277,2.8170319,-87.18954,2.5402422,STD
89853661000,3.209977,0.431524588025546,9.84723019957424,0.123361913355508,0.0067195175,0.029626964,0.022296581,2.8069456,-87.19088,2.5450637,STD
89858749000,3.215065,0.42168374886284,9.83104838146363,0.152316133729185,0.002443461,0.021380283,0.014966198,2.8044925,-87.196014,2.5439892,STD
89863837000,3.220153,0.41144202745628,9.81586633992448,0.18340194092806,-0.0009162979,0.013744468,0.01985312,2.7971237,-87.19486,2.5497367,STD
89868771000,3.225087,0.406746883259141,9.81117109767488,0.20218252752186,0.0076358155,0.019242255,0.022296581,2.787578,-87.19698,2.55181,STD
89873899000,3.230215,0.402562864655591,9.80766097507933,0.221277504670525,0.005192355,0.015882496,0.016798794,2.7807033,-87.19738,2.5512116,STD
89878740000,3.235056,0.406890033668098,9.82064275322008,0.23425902074482,0.003970624,0.01863139,0.019242255,2.7704751,-87.19624,2.5534925,STD
89883807000,3.240123,0.411419214702259,9.83423058008214,0.247846573305955,-0.00061086525,0.018936822,0.019547688,2.7607446,-87.19562,2.5526729,STD
89888755000,3.245071,0.446742713295994,9.85285090947623,0.235894460364315,0.0009162979,0.01160644,0.014966198,2.7524602,-87.19622,2.5511866,STD
89893707000,3.250023,0.485030618779897,9.87199474477747,0.221536498931275,-0.0015271631,-0.0125227375,0.01282817,2.7489069,-87.195114,2.5505853,STD
89898764000,3.25508,0.492849538697395,9.89141746222445,0.202536985953908,-0.0033597588,-0.008552114,0.01160644,2.7394876,-87.19323,2.5496836,STD
89903710000,3.260026,0.497595716332665,9.91040207364729,0.183552265501002,-0.004276057,-0.015577064,0.017104227,2.7401493,-87.189995,2.5503175,STD
89908749000,3.265065,0.502346522927069,9.90764233162965,0.155843846988402,-0.015882496,-0.013744468,0.0067195175,2.742673,-87.184,2.553702,STD
89913685000,3.270001,0.50699278157067,9.90299597110281,0.127966246610969,-0.0061086523,-0.003970624,0.009468411,2.7447112,-87.1758,2.562274,STD
89918757000,3.275073,0.503343259079117,9.89396329418754,0.107588535416378,-0.018020526,0.004276057,0.0125227375,2.747998,-87.167274,2.5686812,STD
89923656000,3.279972,0.498697581862561,9.884672221111,0.0890057925933261,-0.018936822,0.020463986,0.015577064,2.7461038,-87.16066,2.575656,STD
89928734000,3.28505,0.493908049694972,9.86692105746335,0.0984489694479976,-0.006414085,0.029932396,0.015271631,2.7455435,-87.15596,2.5834467,STD
89933773000,3.290089,0.489159698302667,9.8479272552396,0.112694033541277,-0.009468411,0.042455133,0.014660766,2.7394488,-87.14869,2.5917547,STD
89938753000,3.295069,0.46815981448683,9.83280278060349,0.143281941257443,-0.015882496,0.03023783,0.014966198,2.7378457,-87.14485,2.5992937,STD
89943680000,3.299996,0.444350679927339,9.81851751367444,0.176614719696236,-0.02443461,0.03268129,0.015271631,2.7283945,-87.14059,2.6063707,STD
89948778000,3.305094,0.421170948868031,9.82009950948001,0.201321485175521,-0.02443461,0.0076358155,0.0027488936,2.7292206,-87.13939,2.6091633,STD
89953783000,3.310099,0.398676156292472,9.82459856007134,0.223816282448845,-0.007330383,-0.0076358155,0.0061086523,2.7264714,-87.13505,2.616409,STD
89958748000,3.315064,0.385736151120406,9.83271670510905,0.209104580579624,-0.01282817,-0.017715093,0.0061086523,2.72761725327065,-87.1359637427485,2.61383462912583,STD
89963781000,3.320097,0.376135496856887,9.84231704860074,0.180302627813963,-0.01160644,-0.03145956,-0.005192355,2.7287788,-87.13689,2.611225,STD
89969264000,3.32558,0.389262233248318,9.85284054714329,0.144790664757506,-0.013744468,-0.026267206,0.004886922,2.7270114,-87.13451,2.613064,STD
89973753000,3.330069,0.406529138618335,9.86147417562004,0.114573578106236,-0.01985312,-0.03145956,-0.004276057,2.7309551,-87.14157,2.601455,STD
89978734000,3.33505,0.42199097353962,9.86524305533726,0.0996847167910937,-0.0143553335,-0.03145956,0.0033597588,2.7315388,-87.14701,2.5955403,STD
89983789000,3.340105,0.436257406737066,9.86682824639817,0.0917589203863785,-0.021991149,-0.02107485,0.0021380284,2.7307806,-87.15469,2.584622,STD
89988752000,3.345068,0.450264193672561,9.86838458729535,0.083977371908317,-0.020463986,-0.017715093,-0.0018325958,2.7359095,-87.16211,2.5791488,STD
89993767000,3.350083,0.464417737190897,9.86995723480681,0.0761142919934512,-0.014660766,-0.0030543262,0.0067195175,2.7347052,-87.166084,2.5768673,STD
89998752000,3.355068,0.478486613449902,9.87152047465619,0.0682982494459725,-0.029932396,0.00061086525,0.0143553335,2.735653,-87.168884,2.573334,STD
90003860000,3.360176,0.492902625472168,9.8731222859201,0.0602893536922069,-0.0290161,0.012217305,0.01985312,2.7300794,-87.17254,2.5715644,STD
90008747000,3.365063,0.489960581988935,9.87904340531471,0.041394109570107,-0.027794369,0.004886922,0.016798794,2.728894,-87.17463,2.5696406,STD
90013747000,3.370063,0.476932090242155,9.88772878532559,0.0153371351460185,-0.01985312,0.0067195175,0.015271631,2.7217464,-87.175804,2.569601,STD
90018758000,3.375074,0.467126388056545,9.89711535761304,0.0170970854507392,-0.012217305,0.010079277,0.018325957,2.7239027,-87.17066,2.5788677,STD
90023756000,3.380072,0.46196130805007,9.90744574414589,0.0584177977731736,-0.0125227375,0.030543262,0.021380283,2.7206256,-87.165955,2.5874474,STD
90028738000,3.385054,0.454415453896091,9.90145251934686,0.0950639041262741,-0.002443461,0.013133603,0.021380283,2.7259362,-87.16852,2.5930364,STD
90033770000,3.390086,0.444877495839683,9.88237673270658,0.128446727943394,0.0012217305,0.016493361,0.020463986,2.7194831,-87.169624,2.598893,STD
90039414000,3.39573,0.437339880702278,9.85772190351139,0.156424987193872,0.013439035,-0.002443461,0.017715093,2.722043,-87.171104,2.6032503,STD
90043773000,3.400089,0.433187361931762,9.83695930965881,0.173035075283995,0.027794369,-0.004276057,0.0143553335,2.718737,-87.17355,2.6069715,STD
90048855000,3.405171,0.418202740612394,9.82070260607533,0.192162176444714,0.03145956,-0.00030543262,0.013744468,2.7162907,-87.17506,2.6088984,STD
90053785000,3.410101,0.395255642882139,9.81152382065614,0.210519852712029,0.03023783,-0.006414085,0.014966198,2.7172596,-87.1779,2.6104321,STD
90058744000,3.41506,0.372173562224058,9.80229104238153,0.228985515310328,0.025961773,-0.0030543262,0.009468411,2.712989,-87.18184,2.6090157,STD
90063754000,3.42007,0.348854097796355,9.79296331115431,0.247641084904496,0.029626964,0.0009162979,0.015271631,2.7102544,-87.18311,2.611207,STD
90068754000,3.42507,0.329045751199503,9.7915918614046,0.260621271255438,0.01740966,-0.0018325958,0.017104227,2.7085745,-87.18467,2.6107213,STD
90073753000,3.430069,0.314168667132795,9.80150959985498,0.265580311360058,0.009162978,-0.003970624,0.007941248,2.7056317,-87.18837,2.6087143,STD
90078726000,3.435042,0.313067425991887,9.80444675352521,0.274760205991887,-0.0018325958,0.00061086525,0.002443461,2.6943965,-87.19499,2.5985765,STD
90083788000,3.440104,0.327113532428047,9.79976462352714,0.288806312428047,-0.0021380284,-0.0070249503,0.00061086525,2.6876342,-87.20316,2.5871336,STD
90088719000,3.445035,0.339062673592233,9.8125708395556,0.281383287653888,-0.009468411,-0.012217305,0.005192355,2.677309,-87.21137,2.5730927,STD
90093775000,3.450091,0.348755467378641,9.85134227785007,0.242612117568812,-0.014660766,-0.02076942,0.0036651916,2.670516,-87.221596,2.5571146,STD
90098772000,3.455088,0.358337948621795,9.87968204947917,0.20428218508113,-0.032375857,-0.021380283,0.0076358155,2.6640034,-87.22273,2.5472507,STD
90103772000,3.460088,0.367930096057692,9.8940700703125,0.165913570297476,-0.030543262,-0.013744468,0.008552114,2.6577747,-87.22649,2.5362744,STD
90109003000,3.465319,0.379736545082976,9.90345820184598,0.137411014917024,-0.023518313,-0.00580322,0.014049901,2.6540873,-87.22822,2.5295508,STD
90113758000,3.470074,0.392473180091367,9.90558101720119,0.124674379908633,-0.027488936,0.0018325958,0.01038471,2.6483002,-87.23092,2.5205665,STD
90118729000,3.475045,0.405788387794145,9.90780026328548,0.111359172205855,-0.026572637,0.006414085,0.004886922,2.6438005,-87.235596,2.5145648,STD
90123755000,3.480071,0.419250917247809,9.91004406349058,0.097896642752191,-0.012217305,0.01985312,0.014660766,2.634463,-87.238304,2.5118918,STD
90128714000,3.48503,0.430677138602395,9.91004085855686,0.0867495833782045,-0.02107485,0.0290161,0.010995574,2.6250975,-87.243195,2.5039163,STD
90133829000,3.490145,0.428252842254776,9.89307068286648,0.0915981811362962,-0.0125227375,0.03176499,0.01740966,2.6136425,-87.246635,2.501663,STD
90138728000,3.495044,0.425930920884886,9.87681713629615,0.0962420287251312,0.0009162979,0.03848451,0.011301007,2.6034608,-87.25088,2.5006607,STD
90143780000,3.500096,0.423536483905771,9.86005597743245,0.101030907683856,-0.00030543262,0.05009095,0.01985312,2.590982,-87.24886,2.5056064,STD
90148856000,3.505172,0.421881378618487,9.84294949600719,0.105846758618487,-0.00030543262,0.052839845,0.020158553,2.5847593316,-87.251250796,2.50584857596,STD
90153780000,3.510096,0.426588522080256,9.82412102046317,0.110553902080256,0.008246681,0.054367006,0.018936822,2.578723,-87.25357,2.5060835,STD
90158725000,3.515041,0.430064993116832,9.8064717350495,0.116526032166337,0.0021380284,0.05100725,0.021685716,2.5652719,-87.25316,2.5099828,STD
90163756000,3.520072,0.418139022560396,9.80408649311881,0.137992776179208,0.0021380284,0.036957346,0.018020526,2.55848772406894,-87.2552230289223,2.51048146498613,STD
90168821000,3.525137,0.406132455104951,9.80168513148515,0.159604594590099,0.012217305,0.040927973,0.017715093,2.5516577,-87.2573,2.5109835,STD
90173756000,3.530072,0.394434052263366,9.7993454040099,0.180661716773267,0.0076358155,0.027794369,0.015882496,2.5403266,-87.25625,2.5145261,STD
90178918000,3.535234,0.38307226,9.79759182837428,0.202323515342077,0.017715093,0.015271631,0.019547688,2.5316732,-87.25757,2.5185087,STD
90183767000,3.540083,0.38307226,9.80440971126554,0.218231590772242,0.008246681,0.0018325958,0.015882496,2.527068,-87.25851,2.519901,STD
90189063000,3.545379,0.38307226,9.81185609356954,0.235606135519233,0.002443461,-0.01740966,0.010079277,2.5227168,-87.261566,2.5168808,STD
90193784000,3.5501,0.38307226,9.8184940034746,0.251094282375453,0.0036651916,-0.03359759,0.01038471,2.5214167,-87.263664,2.5146585,STD
90199174000,3.55549,0.384324871521229,9.8266987215809,0.267971655123264,0.0021380284,-0.04153884,0.0021380284,2.523439,-87.26853,2.5084527,STD
90203770000,3.560086,0.414466246136764,9.84822825239679,0.263665735471532,-0.011301007,-0.05681047,-0.0030543262,2.532278,-87.271225,2.503402,STD
90208652000,3.564968,0.44648325894639,9.87109752338094,0.259091866946781,-0.020463986,-0.0580322,0.0076358155,2.5376596,-87.26953,2.5004716,STD
90213757000,3.570073,0.476234740938873,9.88239599600479,0.236803088913304,-0.024129177,-0.05375614,0.005497787,2.5461524,-87.27154,2.492566,STD
90218659000,3.574975,0.50436826976628,9.89177354354774,0.213358475844986,-0.021380283,-0.03970624,0.009468411,2.5521681,-87.26879,2.4895003,STD
90223731000,3.580047,0.515957549704142,9.89703447928994,0.168755802189349,-0.02076942,-0.025045475,0.013133603,2.5606897,-87.26034,2.4924686,STD
90228671000,3.584987,0.525135848317005,9.90162371005917,0.122864419339412,-0.023823744,-0.009162978,0.014049901,2.5648785,-87.25156,2.495647,STD
90233768000,3.590084,0.506771144587426,9.8904460175835,0.0989590812953831,-0.025045475,0.004886922,0.013744468,2.5698092,-87.23936,2.505206,STD
90238667000,3.594983,0.483727533492141,9.87661981723969,0.0805241989158644,-0.01863139,0.014660766,0.018325957,2.5714228,-87.226425,2.5161843,STD
90243784000,3.6001,0.459658507573674,9.86217836650295,0.0612689849668959,-0.02076942,0.023823744,0.01160644,2.5728145,-87.21793,2.5255294,STD
90248751000,3.605067,0.43629504231336,9.84816025319254,0.0425782193455305,-0.005497787,0.03145956,0.003970624,2.571828,-87.211525,2.5356524,STD
90253795000,3.610111,0.419564960941272,9.8373630171417,0.0686841310244447,-0.0143553335,0.029932396,0.011301007,2.5707853,-87.19996,2.5479512,STD
90258661000,3.614977,0.405384798275687,9.82790987808094,0.106497897968151,-0.009773844,0.03145956,0.010079277,2.5665836,-87.19609,2.5554097,STD
90263753000,3.620069,0.38291811821328,9.83352685955734,0.126506340297787,-0.010079277,0.030543262,0.0067195175,2.5593858,-87.20125,2.5546465,STD
90268691000,3.625007,0.359130262,9.8430417,0.140779058,-0.003970624,0.0290161,0.008246681,2.5518315,-87.20659,2.5549324,STD
90273757000,3.630073,0.357982671278125,9.83403471823359,0.165496982875548,-0.0036651916,0.027488936,0.01160644,2.540818,-87.21093,2.5519304,STD
90278734000,3.63505,0.362432651074596,9.82068496470918,0.192196880240874,-0.0021380284,0.038789943,0.009162978,2.5265934,-87.21713,2.5477042,STD
90283775000,3.640091,0.365514478483085,9.82101438879574,0.217071138161554,0.0076358155,0.03268129,0.014660766,2.5140076,-87.22469,2.5418506,STD
90288721000,3.645037,0.367850352474603,9.82802191320643,0.240429897589506,0.012217305,0.029626964,0.006414085,2.4974995,-87.23592,2.531425,STD
90294420000,3.650736,0.370541849821481,9.83609629282967,0.267344893541769,0.013133603,0.022602014,0.016187929,2.4832041,-87.23814,2.5290148,STD
90298739000,3.655055,0.372581607154552,9.8422154796331,0.287742483911628,0.012217305,0.0027488936,0.0036651916,2.4738367,-87.24854,2.5180783,STD
90303720000,3.660036,0.392553777445975,9.84935516192582,0.283686799052166,0.0021380284,-0.009468411,0.009162978,2.4643037,-87.250626,2.515181,STD
90308685000,3.665001,0.4236189600196,9.85652419474319,0.262180132274098,0.007330383,-0.019547688,0.0021380284,2.4601917,-87.26079,2.5053496,STD
90313757000,3.670073,0.455353623869233,9.86384772635441,0.240209978417429,-0.0143553335,-0.024740042,0.0030543262,2.4564927,-87.25828,2.50036,STD
90318765000,3.675081,0.486687850320133,9.87107884747211,0.218517050476932,-0.03604105,-0.032070424,0.0067195175,2.4565885,-87.25734,2.4943426,STD
90323751000,3.680067,0.50716127917294,9.87979935069758,0.167908924346683,-0.04428773,-0.025961773,0.0106901415,2.454471,-87.25499,2.4887512,STD
90328846000,3.685162,0.521853805796447,9.88959404456489,0.0993438703348389,-0.055283304,-0.015271631,0.017104227,2.4531295,-87.24802,2.4850233,STD
90333813000,3.690129,0.532418713513513,9.89568821621622,0.0452957076756757,-0.061086524,0.007941248,0.017715093,2.4556334,-87.233505,2.4934192,STD
90338722000,3.695038,0.540946286740432,9.89995209187375,-0.00160597801868311,-0.06352998,0.006414085,0.018020526,2.4623764,-87.21672,2.5034695,STD
90343785000,3.700101,0.548149145574749,9.91150253486884,-0.037815009413521,-0.062002823,0.019242255,0.02107485,2.4635968,-87.20255,2.5169697,STD
90348776000,3.705092,0.553245947536788,9.93188963627639,-0.0582022332277671,-0.07238753,0.033292156,0.02107485,2.4653385,-87.18755,2.5294578,STD
90353758000,3.710074,0.542507831396029,9.9342515204297,-0.0644482557384424,-0.06078109,0.040927973,0.024740042,2.4696336,-87.17695,2.5455449,STD
90358729000,3.715045,0.519677259941492,9.92283624304623,-0.0598821404939574,-0.04428773,0.044593163,0.014660766,2.4717114,-87.16937,2.557373,STD
90364397000,3.720713,0.493645540165931,9.90982039267217,-0.0546757954515634,-0.03970624,0.030543262,0.020463986,2.478781,-87.1578,2.575398,STD
90368829000,3.725145,0.47329046217629,9.89964286111644,-0.0506047790034529,-0.01863139,0.02687807,0.022907447,2.4819968,-87.15366,2.5892541,STD
90373666000,3.729982,0.452765070922232,9.88764983203238,-0.0340407152899682,0.007330383,0.025350908,0.023823744,2.488746,-87.14943,2.6041436,STD
90378712000,3.735028,0.434137502012142,9.87367936079792,0.00321441864006939,0.015882496,0.014660766,0.018325957,2.4991422,-87.14649,2.6176968,STD
90383704000,3.74002,0.41846403470221,9.8597378675057,0.0418500092736101,0.04550946,0.013133603,0.017715093,2.4977365,-87.15513,2.6229684,STD
90388724000,3.74504,0.408935625981568,9.84544546833812,0.08472783359231,0.056199603,-0.004276057,0.0143553335,2.5039067,-87.1643,2.6259558,STD
90393824000,3.75014,0.406363028069719,9.8365630350763,0.117581274658701,0.064751714,-0.002443461,0.015271631,2.4993496,-87.17554,2.626015,STD
90398705000,3.755021,0.419266171666075,9.84024962498521,0.125876151035135,0.074830994,-0.00030543262,0.013744468,2.4998128,-87.18908,2.6245236,STD
90403681000,3.759997,0.432420452046216,9.84400796782207,0.13433247245475,0.073303826,0.009773844,0.013744468,2.4936204,-87.19973,2.6218526,STD
90408694000,3.76501,0.445672543594779,9.84779425653614,0.142851672470129,0.06047566,0.003970624,0.011301007,2.4916701,-87.21095,2.6181688,STD
90413735000,3.770051,0.458998654405931,9.85160169348161,0.151418456287709,0.045814894,-0.0061086523,0.0106901415,2.488309,-87.22102,2.6150362,STD
90418746000,3.775062,0.472245458864309,9.85538647160771,0.159934257460073,0.027183503,-0.015577064,0.017715093,2.486621,-87.227776,2.6134799,STD
90438749000,3.795065,0.525124291349028,9.87049461705903,0.193927785867739,-0.040927973,-0.018325957,0.013439035,2.4893522,-87.22157,2.6128953,STD
90443765000,3.800081,0.537821449476229,9.87520820185334,0.193511687856567,-0.052839845,-0.0125227375,0.017715093,2.4895322,-87.20561,2.6193755,STD
90448784000,3.8051,0.547504358259468,9.88489080731265,0.145097113607977,-0.04550946,0.003970624,0.021685716,2.487585,-87.18907,2.629163,STD
90453726000,3.810042,0.551586763129335,9.8920674174251,0.101476843008166,-0.06505715,0.0076358155,0.024129177,2.4909956,-87.16878,2.6414797,STD
90458758000,3.815074,0.527879136414129,9.8873260440793,0.0777692155503026,-0.060170226,0.034208454,0.026572637,2.4833372,-87.15093,2.6545098,STD
90463710000,3.820026,0.504548419503616,9.88266005027796,0.0544384979089389,-0.06078109,0.035430185,0.023823744,2.4866345,-87.13338,2.668519,STD
90468762000,3.825078,0.480746565337236,9.87789983204605,0.0306366429969499,-0.047647487,0.05375614,0.022907447,2.477843,-87.116936,2.683256,STD
90473709000,3.830025,0.457037510451382,9.87412954542818,0.0117844895576068,-0.03390302,0.059864793,0.023823744,2.4726322,-87.10106,2.697533,STD
90478721000,3.835037,0.429201266473033,9.87876901227527,0.034981355341098,-0.018325957,0.058337633,0.01740966,2.4646702,-87.08921,2.7091498,STD
90483952000,3.840268,0.39935360648757,9.8825469170008,0.0606921482638332,-0.0036651916,0.048563786,0.023518313,2.453898,-87.087975,2.7146673,STD
90488751000,3.845067,0.362497882995188,9.87333279851644,0.102154844408581,0.012217305,0.047036625,0.02321288,2.4412093,-87.0918,2.7164457,STD
90493808000,3.850124,0.325850683393164,9.86387175161052,0.144489452500615,0.020158553,0.028710667,0.009468411,2.4299939,-87.10199,2.71024,STD
90498779000,3.855095,0.330532883816081,9.85918945340546,0.16087716620359,0.019547688,0.011301007,0.00580322,2.4190607,-87.110146,2.706882,STD
90503787000,3.860103,0.335249934654537,9.85447230405704,0.17738685645193,0.020463986,-0.0033597588,0.01038471,2.403999,-87.124664,2.6943505,STD
90508750000,3.865066,0.339924599852471,9.84979754123433,0.193748196847799,0.014660766,-0.019547688,0.012217305,2.3948781,-87.13988,2.6803427,STD
90514254000,3.87057,0.346643533568323,9.84581085998339,0.209494345131663,0.0067195175,-0.021685716,0.010995574,2.3863955,-87.15429,2.6670117,STD
90518757000,3.875073,0.369818482987933,9.85634491890175,0.194746651646392,0.0009162979,-0.03390302,-0.005497787,2.3859088,-87.17169,2.6501822,STD
90523686000,3.880002,0.395185865996873,9.86787553769114,0.178603773301089,-0.008552114,-0.034513887,-0.005497787,2.38463069539355,-87.1735587356299,2.64657098932506,STD
90528743000,3.885059,0.421212008394157,9.87970559231032,0.162041684481411,-0.019242255,-0.04062254,0.004581489,2.3833194,-87.175476,2.642866,STD
90533673000,3.889989,0.446584537960819,9.89123855044213,0.145895531054277,-0.02565634,-0.037873644,0.0070249503,2.3820043,-87.18627,2.6289155,STD
90538756000,3.895072,0.47914877652615,9.88869294051019,0.114613237879641,-0.01863139,-0.027794369,0.01160644,2.3805802,-87.19295,2.6186676,STD
90543669000,3.899985,0.511588033684625,9.88405914872451,0.0821739633008963,-0.03176499,-0.029932396,0.007941248,2.38196,-87.198235,2.6069968,STD
90548827000,3.905143,0.529163108348837,9.87124920581395,0.0686040859744186,-0.025350908,-0.023518313,0.01038471,2.3868997,-87.19601,2.6090598,STD
90553742000,3.910058,0.542846268319767,9.85756578866279,0.0594819917098837,-0.022602014,-0.003970624,0.014049901,2.388719,-87.1927,2.6103609,STD
90558754000,3.91507,0.526169244158688,9.84837501862295,0.0722424055947541,-0.016187929,0.022907447,0.018936822,2.3933551,-87.18559,2.6195657,STD
90563684000,3.92,0.501401422007869,9.8406350802623,0.0908182705914754,-0.005192355,0.040317107,0.01863139,2.3950758,-87.17976,2.6281233,STD
90568766000,3.925082,0.475869967206557,9.83265650688525,0.10996686002623,-0.003970624,0.051923547,0.028405234,2.3933194,-87.1675,2.6437776,STD
90573656000,3.929972,0.451303101016393,9.82497936721311,0.128392008065574,0.011301007,0.0580322,0.032070424,2.3880033,-87.1596,2.657312,STD
90578735000,3.935051,0.425786717912131,9.8170055037377,0.147529293728525,0.021380283,0.05375614,0.027794369,2.3822172,-87.150894,2.671097,STD
90583907000,3.940223,0.399803112199344,9.80888563331148,0.167016996317377,0.026572637,0.053145275,0.029932396,2.373348,-87.14059,2.68744,STD
90588750000,3.945066,0.37936991694819,9.80996985835952,0.218859601080807,0.026267206,0.047647487,0.021685716,2.3668292,-87.13469,2.6993747,STD
90593789000,3.950105,0.359798784272534,9.81486274115381,0.287358580772584,0.02687807,0.03390302,0.0125227375,2.362473,-87.12906,2.7114408,STD
90598778000,3.955094,0.364526801008902,9.8264117992087,0.320037748435213,0.015271631,0.011911872,0.013744468,2.3481674,-87.13245,2.7084527,STD
90603842000,3.960158,0.378917577032641,9.84080237487636,0.339225459818002,0.014660766,0.0015271631,0.007941248,2.3347895,-87.14117,2.700944,STD
90608753000,3.965069,0.3987131401932,9.85121347750734,0.335380513190643,0.005497787,-0.02321288,-0.0018325958,2.3245008,-87.147865,2.6889124,STD
90613756000,3.970072,0.421401259534047,9.86028890718818,0.32176764348139,-0.00580322,-0.042760566,-0.005192355,2.3161824,-87.153915,2.6772754,STD
90619397000,3.975713,0.449784443255955,9.86753436701563,0.280089991973904,-0.02321288,-0.05375614,-0.006414085,2.3129702,-87.15627,2.6665745,STD
90623757000,3.980073,0.473013278738684,9.87175787584079,0.23574404455065,-0.03176499,-0.05497787,-0.0033597588,2.3131118,-87.15786,2.6563864,STD
90628740000,3.985056,0.499561280392454,9.87658488145451,0.185061508768523,-0.04184427,-0.052839845,0.005497787,2.319273,-87.1526,2.6525812,STD
90633809000,3.990125,0.526567465498407,9.88149519481111,0.133504259344561,-0.05681047,-0.03634648,0.015577064,2.3219857,-87.14464,2.6500337,STD
90638752000,3.995068,0.542344397407857,9.8742000145808,0.102835276980964,-0.06291912,-0.02687807,0.009773844,2.3263264,-87.138275,2.6455514,STD
90643803000,4.000119,0.552140350587282,9.85950577794654,0.0832433573246253,-0.059864793,-0.007330383,0.007330383,2.323009,-87.127655,2.6447752,STD
90648832000,4.005148,0.536604007312253,9.86710111857708,0.0640472609525692,-0.05375614,-0.0021380284,0.011301007,2.3346393,-87.11476,2.6549988,STD
90653779000,4.010095,0.508515190617589,9.88582688231225,0.0453213862520751,-0.04642576,-0.0021380284,0.020158553,2.33767979040266,-87.1079153769301,2.66089146630336,STD
90658741000,4.015057,0.489173678317863,9.87961063468944,0.0397772717686877,-0.044593163,0.0036651916,0.024129177,2.3407295,-87.10105,2.666802,STD
90663744000,4.02006,0.474980105070603,9.85832034274711,0.0421428664865212,-0.034208454,0.008246681,0.021380283,2.3486838,-87.091,2.6772134,STD
90668749000,4.025065,0.46078085779846,9.83702153979461,0.0445094068748395,-0.02321288,0.01985312,0.021991149,2.349981,-87.08518,2.6858418,STD
90673753000,4.030069,0.446584447538758,9.81572699234719,0.0468754744279155,-0.0030543262,0.01985312,0.02107485,2.3533726,-87.08272,2.6931503,STD
90678731000,4.035047,0.429679196912658,9.81750384075291,0.0560244612988746,0.002443461,0.028710667,0.015271631,2.3509226,-87.08099,2.6989837,STD
90683802000,4.040118,0.410332925364008,9.8368500011951,0.0705341684955682,0.005192355,0.0143553335,0.013133603,2.35501,-87.0804,2.7056055,STD
90689419000,4.045735,0.395631085470321,9.84001097554723,0.106291033859594,0.022602014,0.013133603,0.018325957,2.3480916,-87.086105,2.7069647,STD
90693831000,4.050147,0.387298830755275,9.83376187477815,0.143786185732597,0.018936822,0.0070249503,0.004581489,2.346752,-87.0953,2.7024043,STD
90698786000,4.055102,0.377941096822126,9.82674367570499,0.18589599478308,0.03390302,0.0027488936,0.01282817,2.3411689,-87.10362,2.7014797,STD
90703846000,4.060162,0.368385065802603,9.81957675596529,0.228898140856833,0.039095376,0.0012217305,0.007941248,2.336765,-87.11744,2.6930025,STD
90708750000,4.065066,0.366270027875447,9.82798383937724,0.256051080992167,0.029626964,-0.0036651916,0.0070249503,2.3346593,-87.12776,2.6881485,STD
90713755000,4.070071,0.370905158327048,9.85115949163524,0.269956486866841,0.025350908,-0.0106901415,0.004886922,2.333792,-87.140465,2.6816695,STD
90718751000,4.075067,0.379725743869632,9.85995750199694,0.286034445882353,0.032986723,-0.0033597588,0.018020526,2.3220928,-87.14672,2.6755388,STD
90723775000,4.080091,0.393959916748681,9.85046810956067,0.305013344705882,0.028405234,-0.014660766,0.014966198,2.3183005,-87.15609,2.6644716,STD
90728762000,4.085078,0.40808925993097,9.84104860317539,0.323852470588235,0.008246681,-0.01863139,0.020463986,2.309965,-87.15701,2.6604073,STD
90733823000,4.090139,0.42242826250678,9.83148932468813,0.342971142352941,0.008246681,-0.02107485,0.014049901,2.3048415,-87.16341,2.6522224,STD
90738744000,4.09506,0.438462975289171,9.83518733921247,0.348711852553322,-0.00030543262,-0.01740966,0.016493361,2.2991743,-87.162994,2.6482239,STD
90743739000,4.100055,0.458084033933552,9.85971364971288,0.333996056009024,-0.011911872,-0.008552114,0.008246681,2.293019,-87.16672,2.6394286,STD
90748808000,4.105124,0.473473795832097,9.87789813734797,0.310875482281222,-0.01985312,-0.018020526,0.015882496,2.2909942,-87.15638,2.6421309,STD
90753792000,4.110108,0.482913298642342,9.88733732967468,0.277837239694453,-0.02687807,-0.0070249503,0.023823744,2.2808251,-87.14698,2.6424396,STD
90759157000,4.115473,0.490538522056572,9.89920524907666,0.228874543487073,-0.04520403,0.0067195175,0.023823744,2.2753701,-87.13329,2.6463945,STD
90763756000,4.120072,0.494506065809387,9.9111081289073,0.173328897804702,-0.04184427,0.01282817,0.028405234,2.2688704,-87.118034,2.6538055,STD
90768685000,4.125001,0.497083635141079,9.9170204257054,0.119036597044309,-0.04917465,0.029932396,0.03604105,2.2587647,-87.099884,2.6637273,STD
90773759000,4.130075,0.491870387292136,9.89095418646068,0.0877570881761614,-0.06414085,0.028405234,0.02443461,2.2523887,-87.08528,2.669356,STD
90778668000,4.134984,0.48261994826376,9.86934001016717,0.059791146165021,-0.061391957,0.027488936,0.03390302,2.2467542,-87.06937,2.6837807,STD
90783790000,4.140106,0.463438251046046,9.85495344432496,0.0358140191348128,-0.05467244,0.03970624,0.03145956,2.238161,-87.05857,2.6912508,STD
90788680000,4.144996,0.443665676152679,9.84366825824065,0.0139982125371082,-0.048563786,0.043066,0.027488936,2.2344964,-87.0492,2.7001252,STD
90793750000,4.150066,0.419118443240647,9.83875922689585,-0.00563956764084934,-0.03359759,0.04428773,0.022296581,2.2281644,-87.042755,2.707729,STD
