timestamp,rel_time,acc_x,acc_y,acc_z,gyro_x,gyro_y,gyro_z,azimuth,pitch,roll,label
3507096828000,0,1.25729028031807,9.80119301031325,0.0848002023620241,-0.026572637,0.01740966,-0.011911872,213.73534,-97.82583,5.6830416,STD
3507101823000,0.004995,1.2613810281561,9.79983072524882,0.0732047963305396,-0.032375857,0.010995574,-0.009162978,213.8639,-97.670265,5.8463144,STD
3507106844000,0.010016,1.27817349832373,9.78303838658984,0.0648085770277632,-0.032375857,0.009468411,-0.003970624,213.98833,-97.54196,6.0058985,STD
3507111791000,0.014963,1.29369848267725,9.7680665,0.0577373345144617,-0.02687807,0.002443461,-0.005192355,214.11328,-97.440636,6.159676,STD
3507116814000,0.019986,1.30123282533152,9.765555,0.0602487846883158,-0.022602014,-0.0018325958,-0.004276057,214.23598,-97.36635,6.3129663,STD
3507121869000,0.025041,1.3088151669834,9.7630275,0.0627762345447426,-0.02107485,-0.004886922,-0.006414085,214.37015,-97.31792,6.4654307,STD
3507126872000,0.030044,1.31631951026417,9.760526,0.0652776849169886,-0.017104227,-0.00580322,-0.008552114,214.50273,-97.29396,6.615557,STD
3507132482000,0.035654,1.33268130967334,9.77618046254845,0.0464569457288618,-0.014966198,-0.003970624,-0.01282817,214.63321,-97.2906,6.761938,STD
3507136851000,0.040023,1.35584727300482,9.81258418832556,0.00343441129795144,-0.013133603,0.0015271631,-0.0070249503,214.76093,-97.3099,6.908156,STD
3507141832000,0.045004,1.38225827400142,9.85408726868623,-0.0456146260104406,-0.005192355,0.015577064,0.0033597588,214.88649,-97.349976,7.05387,STD
3507146862000,0.050034,1.40388105085786,9.86792208235416,-0.0917598887698867,-0.0018325958,0.02443461,0.004886922,215.00987,-97.405624,7.1961627,STD
3507151806000,0.054978,1.42357443665384,9.87284551876885,-0.136069921986066,-0.007941248,0.030848695,0.0027488936,215.12804,-97.47793,7.3378544,STD
3507156833000,0.060005,1.41454902205139,9.86542436631926,-0.135388634577443,-0.017715093,0.036651913,0.0030543262,215.25143,-97.56985,7.4816256,STD
3507161766000,0.064938,1.39992431357961,9.85567442493035,-0.125638891709834,-0.0125227375,0.039095376,0.004581489,215.3723,-97.672615,7.622586,STD
3507166809000,0.069981,1.36434658490547,9.85876748332178,-0.111798293769573,-0.0021380284,0.034513887,0.009162978,215.49423,-97.7889,7.7647157,STD
3507171778000,0.07495,1.32666505895279,9.86347777858062,-0.0976676903058498,-0.009162978,0.029626964,0.009162978,215.554393580838,-97.8484387365269,7.83227421408184,STD
3507176829000,0.080001,1.3139952126087,9.86030882690217,-0.0805596796891304,-0.0106901415,0.024740042,0.00030543262,215.61555,-97.90896,7.9009476,STD
3507181808000,0.08498,1.3053570084058,9.85598963460145,-0.0632832604594203,-0.0030543262,0.025045475,0.004276057,215.7301,-98.03811,8.037321,STD
3507186828000,0.09,1.30915699010275,9.86124533025792,-0.0775944243237576,-0.0106901415,0.032070424,0.0067195175,215.84038,-81.83834,8.160597,STD
3507191790000,0.094962,1.31912136032711,9.87120990857622,-0.107487555806249,-0.009468411,0.028710667,0.00580322,215.95226,-81.7101,8.281935,STD
3507196823000,0.099995,1.32811951885305,9.85412757535842,-0.10188143344319,-0.004581489,0.028405234,0.0018325958,216.05734,-81.58204,8.397249,STD
3507202587000,0.105759,1.33801211297491,9.82444968969534,-0.0820962317707885,-0.0067195175,0.030543262,0.009162978,216.16142,-81.44781,8.513536,STD
3507206869000,0.110041,1.33503185015018,9.80192412537546,0.037808624839693,-0.005497787,0.021991149,0.0021380284,216.26913,-81.31624,8.623784,STD
3507211851000,0.115023,1.32441629389254,9.77538523473134,0.250119901852486,-0.006414085,0.02443461,0.00580322,216.37186,-81.17784,8.737187,STD
3507216809000,0.119981,1.31199971847087,9.75874345212277,-0.0775297151516265,-0.0070249503,0.020463986,0.006414085,216.4835,-81.03873,8.847765,STD
3507221815000,0.124987,1.29878299522147,9.74552691288366,-0.606199022348833,-0.0027488936,0.017715093,0.0061086523,216.59285,-80.898254,8.957242,STD
3507226831000,0.130003,1.35987323342381,9.75249841915471,-0.737098490275301,-0.0036651916,0.020463986,0.006414085,216.69427,-80.74545,9.067622,STD
3507231825000,0.134997,1.48041327006592,9.77567917681272,-0.547016146772005,-0.0070249503,0.014049901,0.0021380284,216.7973,-80.593185,9.174439,STD
3507236798000,0.13997,1.48510397739572,9.77841489430497,-0.154947445649116,-0.00030543262,0.010995574,0.0030543262,216.91821,-80.480934,9.269925,STD
3507241846000,0.145018,1.36704271241575,9.75952471319722,0.458971063210902,-0.008552114,0.013744468,0.008552114,217.03893,-80.36853,9.364563,STD
3507246827000,0.149999,1.31088959425847,9.75974374282309,0.495120060013907,-0.013439035,0.011301007,-0.0021380284,217.16077,-80.22315,9.48167,STD
3507251825000,0.154997,1.32990810877123,9.78351688596404,-0.18003768676865,-0.0070249503,0.021991149,-0.0012217305,217.27698,-80.07515,9.601601,STD
3507256799000,0.159971,1.37032395867709,9.80261767054334,-0.509586013883336,-0.007941248,0.016187929,-0.0009162979,217.36015,-79.90127,9.70706,STD
3507261834000,0.165006,1.44042272371434,9.81576146347447,-0.37815073794294,-0.011301007,0.025045475,0.0061086523,217.43314,-79.725746,9.811214,STD
3507266765000,0.169937,1.47483651139076,9.82355156606639,-0.160603199132133,-0.008552114,0.022907447,0.0036651916,217.53978,-79.61375,9.899941,STD
3507271799000,0.174971,1.38592748661315,9.81309146235626,0.383311217075287,-0.014966198,0.03023783,0.0030543262,217.64041,-79.49993,9.989702,STD
3507276804000,0.179976,1.33806260332169,9.808371636784,0.485844226101727,-0.0018325958,0.028405234,0.002443461,217.74117,-79.362724,10.095075,STD
3507281818000,0.18499,1.35618776146079,9.81290302094932,-0.125880286930263,-0.0061086523,0.02443461,0.004581489,217.83952,-79.22517,10.199156,STD
3507286815000,0.189987,1.37185623726871,9.80910846341693,-0.55562568946182,-0.010079277,0.021991149,-0.0012217305,217.9063,-79.06058,10.292464,STD
3507291811000,0.194983,1.38084387562694,9.78214545449422,-0.48372453567202,-0.013133603,0.014966198,-0.006414085,217.97334,-78.89699,10.3838625,STD
3507296792000,0.199964,1.39184541585794,9.76004939314474,-0.414962664263886,-0.004581489,0.01038471,-0.0012217305,218.07408,-78.79342,10.469368,STD
3507301864000,0.205036,1.41691950712368,9.77007923910799,-0.364814450313855,-0.005497787,0.005192355,-0.0033597588,218.17674,-78.69364,10.550406,STD
3507306833000,0.210005,1.44374836611858,9.77882343963168,-0.326514860764822,0.00061086525,0.003970624,-0.0033597588,218.224684391248,-78.6393645351802,10.5932995970089,STD
3507311827000,0.214999,1.47969803384384,9.78331724194306,-0.33100856923048,-0.0018325958,0.01160644,-0.00061086525,218.27287,-78.584816,10.636409,STD
3507316832000,0.220004,1.51467838925886,9.78873138238453,-0.341360189301826,0.005192355,0.0070249503,0.003970624,218.37302,-78.47825,10.721465,STD
3507321811000,0.224983,1.53601878792517,9.80580357653061,-0.426721677006803,0.005192355,0.011301007,-0.0012217305,218.415764292458,-78.4205617068394,10.7664210145626,STD
3507326789000,0.229961,1.5573549005102,9.82287234183673,-0.512066020408163,0.0012217305,0.020158553,0.011301007,218.4585,-78.362885,10.811368,STD
3507331820000,0.234992,1.57420287732988,9.82768737894985,-0.532374418855663,0.007330383,0.018020526,0.004276057,218.54703,-78.247154,10.905262,STD
3507337155000,0.240327,1.59104514697904,9.83009346771839,-0.53959253441959,0.0036651916,0.02107485,0.003970624,218.62941,-78.12864,11.001134,STD
3507341820000,0.244992,1.60577226748764,9.83219738601366,-0.545904157494702,0.0015271631,0.011911872,0.0012217305,218.72415,-78.020134,11.096807,STD
3507346845000,0.250017,1.62163588604191,9.83446366456322,-0.552702851160819,0.008552114,0.00580322,-0.002443461,218.8167,-77.91469,11.1905155,STD
3507351821000,0.254993,1.62189662211654,9.84462158817099,-0.506170938336066,0.0070249503,0.007330383,0.0015271631,218.90907,-77.808876,11.284221,STD
3507356851000,0.260023,1.61136392199628,9.86042041838854,-0.421909271385154,0.004886922,-0.0067195175,0.008246681,219.00725,-77.70599,11.376788,STD
3507361828000,0.265,1.60658188852297,9.85830697130742,-0.34650716576402,0.01038471,-0.0143553335,0.0009162979,219.10735,-77.60121,11.472895,STD
3507366847000,0.270019,1.60351714154685,9.85064510386712,-0.272953187134249,0.008246681,-0.031154128,-0.002443461,219.21333,-77.494736,11.57103,STD
3507371863000,0.275035,1.60045422645774,9.84298781614435,-0.199443173823445,0.009773844,-0.03573562,0.0061086523,219.30518,-77.386734,11.666323,STD
3507376865000,0.280037,1.59739986017471,9.83535190043676,-0.126138332001148,0.0125227375,-0.040927973,-0.00061086525,219.40175,-77.28583,11.755169,STD
3507381811000,0.284983,1.59437968911595,9.82780147278987,-0.0536541761328785,0.0070249503,-0.042455133,0.0036651916,219.49731,-77.18127,11.8480425,STD
3507386912000,0.290084,1.59126487056142,9.82001442640354,0.02110152121529,0.008857546,-0.04153884,-0.0036651916,219.5933,-77.08481,11.934258,STD
3507391888000,0.29506,1.58713680769904,9.80838783223972,0.0757524997495626,0.002443461,-0.04153884,0.0012217305,219.68878,-76.984634,12.023745,STD
3507396825000,0.299997,1.58196613167104,9.79287602012248,0.111947258941382,0.008246681,-0.039095376,0.0012217305,219.78271,-76.89127,12.108232,STD
3507401858000,0.30503,1.56104059058552,9.79068547964708,0.19146220635753,0.011911872,-0.043066,-0.009162978,219.85843,-76.78187,12.189081,STD
3507406882000,0.310054,1.53209698104071,9.79550900320834,0.292764739022458,0.009773844,-0.047647487,-0.0106901415,219.93234,-76.67276,12.270628,STD
3507411872000,0.315044,1.5106024841234,9.78799083954101,0.371022899826937,0.0027488936,-0.04917465,-0.0067195175,220.00961,-76.56406,12.348956,STD
3507416818000,0.31999,1.49278199774266,9.77462566083521,0.437849760970655,0.0015271631,-0.047036625,-0.010079277,220.0862,-76.46059,12.423149,STD
3507421809000,0.324981,1.46398365856829,9.75813239592082,0.49223752044791,-0.00061086525,-0.05131268,-0.009468411,220.1534,-76.35059,12.494207,STD
3507426829000,0.330001,1.42553087012597,9.73890612717457,0.535496891133773,0.004581489,-0.050701816,-0.0021380284,220.21716,-76.243034,12.564325,STD
3507431814000,0.334986,1.40208787119732,9.72813508182945,0.54785127949182,0.0033597588,-0.046731193,-0.005192355,220.27287,-76.13511,12.627433,STD
3507436837000,0.340009,1.39135564771443,9.7245575951413,0.533541619127417,-0.0015271631,-0.05589417,-0.0036651916,220.33061,-76.02692,12.692535,STD
3507441835000,0.345007,1.38067683963808,9.72099791398116,0.519303179449678,0.0061086523,-0.054367006,-0.0076358155,220.37758,-75.92996,12.744201,STD
3507446825000,0.349997,1.37001512449182,9.71744393058998,0.505087530391671,-0.00061086525,-0.049480084,-0.011911872,220.425,-75.83272,12.794892,STD
3507451861000,0.355033,1.35925512499752,9.71385718502727,0.490740835270203,-0.0012217305,-0.05222898,-0.0143553335,220.4724,-75.739,12.844436,STD
3507457561000,0.360733,1.3470764123054,9.70979752464056,0.474502518710957,-0.0021380284,-0.050396383,-0.003970624,220.51567,-75.644394,12.894787,STD
3507461825000,0.364997,1.3379658805652,9.70676061378285,0.462355118393654,0.005192355,-0.049785517,-0.004581489,220.5595,-75.55636,12.940162,STD
3507466822000,0.369994,1.32728920910511,9.70320164484383,0.448119527543381,0.0106901415,-0.058643065,0.00061086525,220.60402,-75.465996,12.989089,STD
3507471840000,0.375012,1.31538177366752,9.69923252641978,0.419807700893678,0.018936822,-0.06505715,-0.0027488936,220.64702,-75.38142,13.034054,STD
3507476829000,0.380001,1.30220991049439,9.69484205054218,0.375901536927035,0.009773844,-0.06505715,0.0027488936,220.68929,-75.2938,13.08186,STD
3507481810000,0.384982,1.28905916876953,9.69045861491454,0.332065777713196,0.009162978,-0.06811147,-0.002443461,220.74188,-75.22764,13.116065,STD
3507486951000,0.390123,1.2754859980794,9.68593437428781,0.286821923443301,0.0036651916,-0.069027774,-0.0021380284,220.79247,-75.15846,13.152469,STD
3507491868000,0.39504,1.26298034053922,9.6838892150044,0.243206169068086,0.017715093,-0.06811147,-0.0036651916,220.85013,-75.094444,13.1863,STD
3507496831000,0.400003,1.25369448366709,9.69781780638859,0.196776855618834,0.017715093,-0.063224554,-0.00061086525,220.90556,-75.02816,13.220644,STD
3507501856000,0.405028,1.24533352416372,9.71192789433294,0.14765091937623,0.008552114,-0.07147124,-0.011911872,220.9703,-74.98311,13.24462,STD
3507506849000,0.410021,1.25003806591893,9.72604181434475,0.0723781972560016,0.0030543262,-0.067500606,-0.005497787,221.02837,-74.93431,13.273429,STD
3507512017000,0.415189,1.25504563703415,9.73993561570589,-0.005323329609877,0.009468411,-0.06078109,-0.005192355,221.09122,-74.89852,13.294719,STD
3507516815000,0.419987,1.26137242147512,9.74415335455297,-0.0749182491417294,0.005497787,-0.06291912,-0.002443461,221.15425,-74.859184,13.318382,STD
3507521776000,0.424948,1.267914142528,9.74851438048467,-0.146877481279603,0.00061086525,-0.059253927,-0.0067195175,221.22142,-74.82995,13.340483,STD
3507527514000,0.430686,1.27548043871856,9.75355843748853,-0.230107087005691,0.004886922,-0.050396383,0.0012217305,221.2863,-74.79823,13.366461,STD
3507531819000,0.434991,1.28115713880576,9.75734279883422,-0.292551048778227,0.003970624,-0.04795292,-0.00580322,221.35187,-74.770584,13.386843,STD
3507536952000,0.440124,1.2897371262281,9.78132384085033,-0.361150069520253,0.0076358155,-0.03848451,-0.00580322,221.38280736674,-74.7540065312438,13.400241165003,STD
3507541837000,0.445009,1.29869684211434,9.81268270611893,-0.423867477291008,0.0021380284,-0.0421497,0.0021380284,221.41225,-74.73823,13.412992,STD
3507546829000,0.450001,1.30674799023721,9.825804,-0.45010993,0.0070249503,-0.04153884,-0.0018325958,221.47334,-74.71199,13.4336195,STD
3507551849000,0.455021,1.3140739722558,9.825804,-0.45010993,0.0125227375,-0.038179077,0.0009162979,221.54762,-74.69494,13.461986,STD
3507556842000,0.460014,1.32136055158226,9.825804,-0.45010993,0.002443461,-0.036957346,-0.0061086523,221.6332,-74.68389,13.488871,STD
3507561830000,0.465002,1.32863983411388,9.825804,-0.45010993,0.008246681,-0.03481932,-0.0027488936,221.71619,-74.67237,13.519104,STD
3507566815000,0.469987,1.34738040510683,9.82285771936141,-0.435378823680894,0.0076358155,-0.038789943,-0.005497787,221.8003,-74.66195,13.54559,STD
3507571844000,0.475016,1.37247770953622,9.81829447780568,-0.412563075704676,0.0015271631,-0.038789943,-0.00030543262,221.8814,-74.64869,13.574855,STD
3507576808000,0.47998,1.39725063043252,9.81379021630584,-0.390042222064996,0.003970624,-0.03359759,-0.0018325958,221.96288,-74.63622,13.604135,STD
3507581810000,0.484982,1.42221319093278,9.80925147415794,-0.36734896865934,0.0106901415,-0.03481932,-0.0070249503,222.0454,-74.623215,13.6337805,STD
3507586888000,0.49006,1.44067323155211,9.80457384086675,-0.331504566952642,0.0009162979,-0.029932396,-0.009468411,222.12373,-74.608116,13.663096,STD
3507591864000,0.495036,1.45001810002941,9.79990130904991,-0.280107746417296,-0.005192355,-0.032986723,-0.004276057,222.20386,-74.59378,13.693185,STD
3507597108000,0.50028,1.45734651377395,9.80376079475948,-0.240637395892843,-0.005192355,-0.025045475,-0.0106901415,222.28264,-74.56892,13.728599,STD
3507601821000,0.504993,1.46087685858428,9.81788246890888,-0.222985660782167,0.00030543262,-0.02321288,-0.008857546,222.36273,-74.541,13.767658,STD
3507606829000,0.510001,1.46462817766132,9.83288805858428,-0.204229053645679,0.004276057,-0.009773844,0.0021380284,222.43306,-74.503845,13.809417,STD
3507611828000,0.515,1.46114029197486,9.83949176460287,-0.160001833991965,0.0106901415,-0.011911872,0.00030543262,222.50694,-74.471214,13.8479595,STD
3507616792000,0.519964,1.45624287411147,9.84438877335943,-0.111027624674977,0.008857546,-0.008857546,0.005497787,222.57396,-74.434166,13.890305,STD
3507621825000,0.524997,1.44522873666977,9.8407787942832,-0.0552048036410357,0.0070249503,-0.007941248,0.0012217305,222.63963,-74.39933,13.928941,STD
3507626849000,0.530021,1.43345399640253,9.83606905555284,0.00131387341246146,0.0106901415,-0.006414085,-0.00030543262,222.70319,-74.363716,13.969029,STD
3507631812000,0.534984,1.42182222173168,9.83141650115021,0.0571463165288043,0.002443461,-0.004276057,-0.0015271631,222.76302,-74.326004,14.004828,STD
3507636880000,0.540052,1.40994435873917,9.82666551470804,0.114159981995986,0.0036651916,-0.015882496,0.0036651916,222.82545,-74.28952,14.041845,STD
3507641835000,0.545007,1.37512115876387,9.8094693933439,0.181669945898574,0.0012217305,-0.0015271631,0.007330383,222.88594,-74.25223,14.076868,STD
3507646768000,0.54994,1.33519106453249,9.7895044244057,0.25154774370523,0.007330383,-0.009773844,-0.0012217305,222.9558,-74.21881,14.110506,STD
3507651838000,0.55501,1.31443624272475,9.76238697668864,0.31297867047387,0.008552114,-0.006414085,-0.0030543262,223.00275,-74.17622,14.140059,STD
3507656791000,0.559963,1.29630921859176,9.73519634584886,0.37189154149422,0.004581489,-0.009468411,0.0106901415,223.0529,-74.132965,14.171547,STD
3507661831000,0.565003,1.28900850594828,9.72810572274113,0.375351308176187,0.0067195175,-0.004276057,0.007941248,223.08406,-74.09786,14.188288,STD
3507667114000,0.570286,1.28403411812506,9.72561848987317,0.365402579277357,0.013133603,-0.007330383,0.00580322,223.11734,-74.06019,14.208954,STD
3507671882000,0.575054,1.27954464601809,9.7233737186609,0.356423677253957,0.017715093,-0.005497787,0.004886922,223.1389,-74.02008,14.225264,STD
3507676811000,0.579983,1.2749035789008,9.72105314875627,0.347141586634549,0.016187929,0.00030543262,0.003970624,223.1597,-73.9816,14.240408,STD
3507681827000,0.584999,1.26365664561903,9.72213547740732,0.316265499998135,0.007941248,-0.0021380284,0.00061086525,223.18195,-73.944695,14.254344,STD
3507686895000,0.590067,1.25007719425973,9.72439876656563,0.277790361817673,0.005192355,-0.004581489,0.010995574,223.20148,-73.906006,14.271237,STD
3507691829000,0.595001,1.23685678916764,9.7266022134297,0.240332522081604,0.017715093,-0.0027488936,0.0067195175,223.22333,-73.87774,14.280422,STD
3507696816000,0.599988,1.22349437323852,9.7288293292609,0.20247231803544,0.01160644,-0.0009162979,0.00580322,223.24484,-73.84405,14.293199,STD
3507701886000,0.605058,1.21135647356372,9.72268880691145,0.147673119885097,0.014966198,-0.01985312,0.008857546,223.27141,-73.81412,14.306252,STD
3507706728000,0.6099,1.20134116781857,9.70766553455724,0.077565928425486,0.008246681,-0.014660766,-0.005192355,223.29063,-73.78739,14.312865,STD
3507711736000,0.614908,1.20546469521701,9.71245695984647,0.00327709157130204,0.0009162979,-0.022602014,-0.0143553335,223.32626,-73.77211,14.317825,STD
3507716746000,0.619918,1.21963055527015,9.73134516770003,-0.0722742172683791,-0.00061086525,-0.026267206,-0.00580322,223.3584,-73.7561,14.323437,STD
3507721758000,0.62493,1.22856116492745,9.74370774038121,-0.128548748986299,-0.0021380284,-0.029321533,-0.004886922,223.39961,-73.75096,14.323982,STD
3507726749000,0.629921,1.23339435253046,9.7509574208504,-0.169630873892512,0.004581489,-0.025350908,0.00061086525,223.43867,-73.743515,14.328187,STD
3507731736000,0.634908,1.23822366661105,9.75820129111684,-0.210680073833864,0.004886922,-0.016798794,-0.0067195175,223.48701,-73.743355,14.332187,STD
3507736791000,0.639963,1.24311883057283,9.76554393482987,-0.252288998177865,0.004276057,-0.0125227375,-0.00580322,223.53424,-73.74046,14.340115,STD
3507741749000,0.644921,1.24777491161092,9.76555293012303,-0.304420774248366,0.0030543262,-0.003970624,0.00030543262,223.57718,-73.738,14.347,STD
3507746747000,0.649919,1.25237553121876,9.76095221443676,-0.364228867581699,0.010995574,-0.002443461,0.0015271631,223.6205,-73.737625,14.352921,STD
3507751799000,0.654971,1.24962151431737,9.76617643327874,-0.42229020957125,0.014966198,0.002443461,0.008246681,223.66182,-73.74038,14.3639765,STD
3507756776000,0.659948,1.24043686577705,9.7799536938048,-0.477398129584738,0.014049901,0.010995574,0.004581489,223.70145,-73.7456,14.372233,STD
3507761776000,0.664948,1.2439104297561,9.79599928536585,-0.524575421707317,0.008246681,0.012217305,0.010079277,223.74637,-73.75286,14.385724,STD
3507766758000,0.66993,1.2625295976,9.814618356,-0.561813806,0.0030543262,0.008552114,0.00030543262,223.79048,-73.76444,14.393701,STD
3507771775000,0.674947,1.27961949302129,9.82646003438589,-0.572376856697465,0.009773844,0.019242255,-0.00061086525,223.83504,-73.77981,14.4036,STD
3507776771000,0.679943,1.29419328172403,9.82807937618032,-0.543229286055437,0.003970624,0.020463986,0.0030543262,223.8831,-73.79354,14.412606,STD
3507781756000,0.684928,1.30873498242123,9.82969515257048,-0.514145891409619,0.01160644,0.025045475,0.007941248,223.93181,-73.81235,14.423143,STD
3507786816000,0.689988,1.32349546497445,9.83133523853521,-0.484624933153281,0.00580322,0.02443461,0.003970624,223.98132,-73.82926,14.432396,STD
3507791773000,0.694945,1.33795548711206,9.83294193935087,-0.455704895588723,0.009162978,0.02443461,0.011301007,224.02817,-73.84347,14.446056,STD
3507796798000,0.69997,1.3526138714658,9.83457068084746,-0.426388133683961,0.0061086523,0.014966198,0.009773844,224.07794,-73.85873,14.45646,STD
3507801877000,0.705049,1.36469219160047,9.8305952834722,-0.397445825245108,0.01282817,0.02107485,0.0027488936,224.12256,-73.87453,14.466799,STD
3507806902000,0.710074,1.37401658004263,9.8212706516179,-0.369472504134858,0.0076358155,0.018936822,0.0015271631,224.17168,-73.886734,14.478975,STD
3507811789000,0.714961,1.37805439348794,9.81220415294858,-0.321153174080711,0.008552114,0.016187929,0.0061086523,224.21164,-73.885895,14.497783,STD
3507816818000,0.71999,1.3757225824925,9.8028768602692,-0.244202550987993,0.00061086525,0.013744468,0.007941248,224.25183,-73.88415,14.51535,STD
3507821771000,0.724943,1.37342601063716,9.79369052488622,-0.168414832519464,0.005497787,0.0143553335,0.008857546,224.2821,-73.88019,14.534609,STD
3507826789000,0.729961,1.37109930004358,9.78438363392079,-0.0916325245697202,0.014049901,0.014049901,0.008552114,224.313,-73.8755,14.55389,STD
3507831821000,0.734993,1.36881520093812,9.78059278229298,-0.0296206331253383,0.00580322,0.016493361,-0.0070249503,224.34311,-73.873055,14.568706,STD
3507836827000,0.739999,1.36665294851164,9.78924174684287,-0.00151133193816525,-0.008552114,0.008857546,0.0036651916,224.37502,-73.86411,14.591004,STD
3507841927000,0.745099,1.36445009446148,9.79805311703951,0.0271257907255548,0.007941248,0.016798794,0.0030543262,224.38113,-73.85375,14.601368,STD
3507846785000,0.749957,1.36235176799567,9.80644637908172,0.0544040538432708,-0.007941248,0.017715093,0.008552114,224.39082,-73.8338,14.616694,STD
3507852851000,0.756023,1.35771632950588,9.81513188,0.0887465774823529,0.005192355,0.02443461,0.010995574,224.39832,-73.82254,14.628787,STD
3507856849000,0.760021,1.33609484448,9.804321288,0.11397166216,-0.0030543262,0.024740042,0.009468411,224.40724,-73.80677,14.641209,STD
3507861800000,0.764972,1.30931946369882,9.790933784,0.145209629703529,-0.0009162979,0.021991149,0.0067195175,224.4066,-73.7905,14.6509695,STD
3507866843000,0.770015,1.29417652355538,9.78867822476209,0.148503612522646,-0.0021380284,0.019242255,0.01038471,224.40573,-73.77203,14.661805,STD
3507871787000,0.774959,1.28333789610517,9.79022646845875,0.142310115510972,0.004276057,0.02565634,0.006414085,224.40334,-73.75791,14.669192,STD
3507881838000,0.78501,1.2613032997253,9.79337400029432,0.129718926501194,-0.0015271631,0.028405234,0.005497787,224.39378,-73.7303,14.674811,STD
3507886893000,0.790065,1.25022132930442,9.79495700431669,0.123386376461951,-0.0033597588,0.017104227,0.011911872,224.39075,-73.71793,14.677191,STD
3507891835000,0.795007,1.23938708641224,9.79650462170117,0.117195384910233,0.0067195175,0.028710667,0.0061086523,224.38168,-73.71163,14.674096,STD
3507896827000,0.799999,1.22300471899715,9.79087150377089,0.118022528488585,-0.004276057,0.025045475,0.004276057,224.38464,-73.70208,14.673262,STD
3507901777000,0.804949,1.20367933783123,9.78120911587852,0.122853878824908,0.0018325958,0.02565634,0.004581489,224.38304,-73.696976,14.670824,STD
3507906751000,0.809923,1.20363984440523,9.77465045951837,0.0950732186685696,0.00061086525,0.01985312,0.00580322,224.38394,-73.69479,14.664235,STD
3507911748000,0.81492,1.2135745069753,9.76968302449657,0.0503672044261989,0.005192355,0.01282817,-0.00030543262,224.38524,-73.69593,14.655789,STD
3507916737000,0.819909,1.21961992117556,9.77170849145835,0.00465299169964289,0.002443461,0.016798794,-0.003970624,224.38272,-73.69773,14.644717,STD
3507921915000,0.825087,1.22440601039475,9.77649468062928,-0.0432079339760641,-0.0027488936,0.0061086523,-0.004276057,224.3866,-73.700455,14.633856,STD
3507926749000,0.829921,1.22738794966178,9.77636331782946,-0.0917071585661383,-0.0015271631,0.011911872,-0.0061086523,224.39378,-73.69999,14.628498,STD
3507931745000,0.834917,1.22975034993828,9.77400086821705,-0.143680004117908,-0.0021380284,0.009162978,0.0027488936,224.40602,-73.696,14.626902,STD
3507936770000,0.839942,1.2321264631067,9.77162470542636,-0.19595453352096,-0.0018325958,0.013439035,-0.00030543262,224.42113,-73.69916,14.622528,STD
3507941751000,0.844923,1.23448177050807,9.76926934883721,-0.247771335701378,0.0009162979,0.017715093,-0.007941248,224.43663,-73.701416,14.619538,STD
3507946750000,0.849922,1.24110155301652,9.77261303031192,-0.288077697447932,-0.011301007,0.011911872,-0.0036651916,224.45308,-73.698326,14.620243,STD
3507951857000,0.855029,1.25066617951501,9.7797864003129,-0.321553910167204,-0.00030543262,0.015882496,-0.0012217305,224.46553,-73.70085,14.617859,STD
3507956831000,0.860003,1.25998171744402,9.78677295648773,-0.35415831237313,-0.003970624,0.008552114,-0.0012217305,224.4973,-73.705284,14.620806,STD
3507961828000,0.865,1.26934033083993,9.79379181881295,-0.386913478803168,-0.003970624,0.012217305,-0.00030543262,224.510074285714,-73.707686567619,14.6225212609524,STD
3507966806000,0.869978,1.27612261056563,9.79827667413539,-0.399818579489082,-0.00580322,0.016798794,0.00030543262,224.5228,-73.71008,14.62423,STD
3507971822000,0.874994,1.28069303819514,9.80056192374292,-0.395248170949051,0.00061086525,0.01282817,0.0070249503,224.5524,-73.715645,14.628647,STD
3507976809000,0.879981,1.28523704190096,9.80283396118167,-0.390704186222349,-0.0012217305,0.0106901415,0.0061086523,224.58879,-73.7237,14.635536,STD
3507981821000,0.884993,1.28980382485134,9.8051173884211,-0.386137422346225,-0.00580322,0.01038471,-0.00061086525,224.62532,-73.73165,14.642749,STD
3507986804000,0.889976,1.29582793877863,9.80369115391222,-0.380113321221374,0.0015271631,0.013133603,0.00030543262,224.6619,-73.73588,14.653932,STD
3507991956000,0.895128,1.3052439070229,9.79427548062977,-0.370697352977099,-0.0027488936,0.011301007,0.012217305,224.69931,-73.736755,14.6664715,STD
3507996808000,0.89998,1.31355978331695,9.78852175677573,-0.35981950127791,0.004276057,0.008552114,0.00580322,224.74104,-73.7408,14.676257,STD
3508001943000,0.905115,1.32046567687123,9.7931255415906,-0.341403770711042,-0.003970624,0.008857546,-0.008246681,224.78178,-73.74126,14.687063,STD
3508006811000,0.909983,1.32701249085803,9.7974899475261,-0.32394558640734,-0.008552114,0.011301007,-0.0009162979,224.82121,-73.7352,14.704912,STD
3508011864000,0.915036,1.3338081052942,9.80202021523194,-0.305823933719047,-0.004886922,0.0106901415,0.0033597588,224.86157,-73.73347,14.717907,STD
3508017396000,0.920568,1.34013874947277,9.80649643416122,-0.28438650807146,-0.007330383,0.005192355,0.0015271631,224.90215,-73.73009,14.731202,STD
3508021889000,0.925061,1.33263921789978,9.80462151211329,-0.248763709606972,-0.0015271631,0.0018325958,-0.00030543262,224.94167,-73.727,14.745495,STD
3508026833000,0.930005,1.32438689559913,9.80255838845316,-0.209565152827887,0.00061086525,0.0027488936,0.00030543262,224.97977,-73.71797,14.7616415,STD
3508031810000,0.934982,1.31607949105011,9.80048149394336,-0.170104955196514,0.0036651916,-0.0012217305,-0.0018325958,225.01999,-73.71102,14.776582,STD
3508036928000,0.9401,1.30753673507625,9.79834576034858,-0.129526837559913,-0.0125227375,-0.004886922,-0.00580322,225.05945,-73.70245,14.790931,STD
3508041880000,0.945052,1.30430866291675,9.80079880364083,-0.107207742916752,-0.009468411,-0.0036651916,0.0018325958,225.0978,-73.69412,14.807767,STD
3508046826000,0.949998,1.30915289003886,9.81048746021681,-0.112051970038863,-0.0015271631,-0.0067195175,0.0012217305,225.13844,-73.68772,14.821242,STD
3508051829000,0.955001,1.30993394072593,9.81413829710679,-0.108655697815886,0.0021380284,-0.007330383,-0.0061086523,225.16444,-73.677284,14.829585,STD
3508056839000,0.960011,1.30488609559179,9.80909034655445,-0.0935121518716465,-0.005497787,-0.010079277,0.0027488936,225.19107,-73.66264,14.84237,STD
3508061799000,0.964971,1.30360025608435,9.81011344058136,-0.0885001745796523,-0.0036651916,-0.011911872,-0.002443461,225.2157,-73.65207,14.852029,STD
3508066814000,0.969986,1.30588142127862,9.81695707908236,-0.0930625097321174,-0.013439035,-0.0076358155,0.0030543262,225.23836,-73.63445,14.866893,STD
3508071785000,0.974957,1.3081425722618,9.82374067369621,-0.0975848164206327,0.0012217305,-0.003970624,-0.011301007,225.2603,-73.627235,14.87284,STD
3508076832000,0.980004,1.31043829324594,9.83062798047877,-0.102176263183243,-0.0067195175,0.003970624,0.004276057,225.2782,-73.60729,14.888352,STD
3508081816000,0.984988,1.31456523320067,9.83283831369948,-0.109158832456001,-0.0076358155,0.004886922,-0.005497787,225.29823,-73.60049,14.892572,STD
3508086849000,0.990021,1.32309093133457,9.82431243751658,-0.1219473885593,-0.005192355,0.0015271631,-0.005192355,225.31606,-73.58678,14.90374,STD
3508091989000,0.995161,1.32982724963059,9.81538390711956,-0.133569443919593,-0.0070249503,0.00030543262,-0.00030543262,225.3387,-73.573654,14.914302,STD
3508096826000,0.999998,1.3120483042986,9.80427208079063,-0.126902343481098,0.0061086523,0.0076358155,0.00580322,225.35942,-73.56248,14.9249525,STD
3508102422000,1.005594,1.29147956787565,9.7914166373057,-0.119189072020725,-0.00061086525,0.0030543262,0.008246681,225.38637,-73.54756,14.9388685,STD
3508106832000,1.010004,1.2752701097582,9.78128573920553,-0.113110528929188,0.0033597588,0.00580322,0.009773844,225.40852,-73.534424,14.953484,STD
3508111766000,1.014938,1.25713462985991,9.76995107906352,-0.106309728109768,-0.0009162979,-0.004276057,0.009773844,225.419270608643,-73.5273542256091,14.960609184799,STD
3508116805000,1.019977,1.25849708547211,9.76440753234208,-0.0974741008372005,0.0027488936,0.004886922,0.004581489,225.43025,-73.520134,14.967886,STD
3508121774000,1.024946,1.26300386823563,9.7599006554598,-0.0884605258982858,0.0030543262,0.005192355,0.009162978,225.45016,-73.50383,14.985052,STD
3508126819000,1.029991,1.25743659477082,9.77552076307295,-0.0895422140142027,0.005192355,0.0021380284,0.0067195175,225.46672,-73.496124,14.9914665,STD
3508131812000,1.034984,1.24861671791017,9.79757045522457,-0.0939521542864521,-0.0012217305,0.0067195175,0.01038471,225.48035,-73.48487,15.000497,STD
3508136901000,1.040073,1.24795609828151,9.80367873966858,-0.104681666911007,-0.01160644,0.003970624,0.0015271631,225.49962,-73.478134,15.004646,STD
3508141907000,1.045079,1.25286009386252,9.79877464167349,-0.119393666967881,-0.0067195175,0.005192355,0.0070249503,225.5155,-73.46796,15.013491,STD
3508146823000,1.049995,1.26005563615447,9.80256705088875,-0.135486370914012,0.0036651916,0.0061086523,0.0015271631,225.5354,-73.46833,15.011815,STD
3508151857000,1.055029,1.26875537651358,9.81126697293152,-0.152885865258504,-0.005192355,0.006414085,0.0015271631,225.544827437076,-73.4656400379544,15.0136783643628,STD
3508156835000,1.060007,1.26714728316885,9.82060576933088,-0.158427037540397,0.0021380284,0.006414085,0.009468411,225.55415,-73.46298,15.015521,STD
3508161829000,1.065001,1.25158719016376,9.83097938130355,-0.148053631371869,0.00061086525,0.002443461,-0.0009162979,225.57678,-73.46506,15.014069,STD
3508166807000,1.069979,1.23951981592814,9.82991580179641,-0.157314818739521,-0.009468411,0.008552114,0.004886922,225.59676,-73.45791,15.022425,STD
3508171810000,1.074982,1.22995639668663,9.82035218283433,-0.181223381822355,-0.009468411,0.00030543262,-0.00030543262,225.608481448567,-73.4579945974636,15.0239087455143,STD
3508177452000,1.080624,1.23245539593012,9.81953911713321,-0.174975879799484,-0.00061086525,0.0030543262,0.0009162979,225.6217,-73.45809,15.025582,STD
3508181822000,1.084994,1.24076403519952,9.82369352352591,-0.154204268612269,-0.011301007,0.0018325958,0.00030543262,225.64049,-73.454834,15.027355,STD
3508186887000,1.090059,1.24228914497873,9.82310818868111,-0.140956344978728,-0.018936822,0.007330383,0.0009162979,225.6613,-73.458084,15.026237,STD
3508191900000,1.095072,1.2375391204017,9.81835806490551,-0.136206320401702,-0.006414085,0.00030543262,-0.0070249503,225.68614,-73.464714,15.023105,STD
3508196823000,1.099995,1.239465826148,9.81947317074948,-0.135698394696245,-0.008552114,0.009773844,-0.0021380284,225.70134,-73.4617,15.024543,STD
3508201831000,1.105003,1.24706533719854,9.82555276054508,-0.138738207051814,-0.005497787,0.005192355,-0.003970624,225.72299,-73.46452,15.022652,STD
3508206827000,1.109999,1.25464663855807,9.8316177826335,-0.141770735511963,-0.0018325958,0.009773844,0.003970624,225.73341,-73.464096,15.023186,STD
3508211828000,1.115,1.26223552728886,9.8376888745999,-0.144806298928537,-0.0027488936,0.01160644,0.0033597588,225.74615,-73.46613,15.021107,STD
3508216794000,1.119966,1.26977130442085,9.84371747742038,-0.147820617650135,-0.004276057,0.01740966,-0.0027488936,225.75499,-73.47072,15.017328,STD
3508221842000,1.125014,1.27743151444145,9.8498456262399,-0.150884709657107,-0.013744468,0.015577064,0.003970624,225.76494,-73.47097,15.017312,STD
3508226789000,1.129961,1.28041605429468,9.85261675625058,-0.151311605188671,-0.0012217305,0.015882496,0.005192355,225.77283,-73.47654,15.013842,STD
3508231827000,1.134999,1.26706212391365,9.8437143838915,-0.142408949299751,0.005192355,0.027794369,0.0067195175,225.77747,-73.478386,15.012098,STD
3508236845000,1.140017,1.25443017687131,9.8352494741246,-0.13381225346794,-0.0021380284,0.032986723,0.0067195175,225.78693,-73.477264,15.014827,STD
3508241831000,1.145003,1.25225873872669,9.83307799063211,-0.129469372643929,-0.01038471,0.027794369,0.0076358155,225.79576,-73.476135,15.018169,STD
3508247202000,1.150374,1.24991963036835,9.83073883342428,-0.124791151042292,-0.006414085,0.021685716,0.004581489,225.79736,-73.48091,15.01544,STD
3508251821000,1.154993,1.2479080233106,9.82872718435653,-0.120767932725784,-0.014049901,0.027183503,0.01038471,225.7967,-73.48071,15.015324,STD
3508256834000,1.160006,1.24572482647567,9.82654394192815,-0.116401534496589,-0.021380283,0.02687807,0.011911872,225.79977,-73.48284,15.013604,STD
3508261826000,1.164998,1.2541979886357,9.81659071895998,-0.102637553481546,-0.004886922,0.022602014,-0.00030543262,225.80263,-73.48891,15.009604,STD
3508266812000,1.169984,1.26814771834648,9.8026406979258,-0.084037901243159,-0.004886922,0.027183503,0.0061086523,225.80225,-73.48691,15.011053,STD
3508271816000,1.174988,1.28198791297349,9.79845179522331,-0.0793719882985431,-0.014049901,0.021380283,0.004886922,225.80804,-73.49318,15.004657,STD
3508276834000,1.180006,1.29576096270838,9.80074734745641,-0.0839629992839742,-0.012217305,0.02107485,0.0106901415,225.81032,-73.4971,15.001861,STD
3508281818000,1.18499,1.3094406916599,9.80302734592787,-0.088522903379508,-0.015271631,0.024129177,0.0027488936,225.81514,-73.49844,14.998217,STD
3508286926000,1.190098,1.32346076699785,9.80536406988297,-0.0931962561323143,-0.0076358155,0.01740966,0.0061086523,225.8222,-73.49682,14.999804,STD
3508291829000,1.195001,1.33018039177892,9.80266678791192,-0.092780637881008,-0.011911872,0.02107485,0.004276057,225.82567,-73.496864,14.997231,STD
3508296861000,1.200033,1.32778512076147,9.79308575386451,-0.0855948213271037,-0.0125227375,0.01863139,0.005192355,225.83258,-73.49663,14.996879,STD
3508301803000,1.204975,1.32543269044187,9.7836760817138,-0.0785375269293702,-0.016493361,0.016493361,0.0021380284,225.84445,-73.489075,15.003325,STD
3508306836000,1.210008,1.32303694341667,9.77409314364531,-0.0713502823515085,-0.01038471,0.01863139,0.004886922,225.85536,-73.48108,15.01147,STD
3508311761000,1.214933,1.32337512552073,9.77367010239439,-0.0794677379160989,-0.015271631,0.010079277,0.00030543262,225.86607,-73.47349,15.017583,STD
3508317280000,1.220452,1.32851960276426,9.78910331925248,-0.115479105479852,-0.009468411,0.01038471,0.0027488936,225.8731,-73.46552,15.025933,STD
3508321783000,1.224955,1.33274590256817,9.80178220604859,-0.140354113550818,-0.008552114,0.016493361,0.0036651916,225.87883,-73.457016,15.0321865,STD
3508326830000,1.230002,1.33753857580565,9.81616052602875,-0.159524816509668,-0.009468411,0.009468411,0.0036651916,225.882793269806,-73.4508993703851,15.0368626044203,STD
3508331805000,1.234977,1.34144906472847,9.8271960858475,-0.17168645527153,-0.023518313,0.013439035,0.012217305,225.8867,-73.44487,15.041472,STD
3508336885000,1.240057,1.3436729696471,9.831643756354,-0.169462550352898,-0.028710667,0.015577064,0.009468411,225.89253,-73.439835,15.047778,STD
3508342139000,1.245311,1.34597304768696,9.83624376833059,-0.167162472313037,-0.02107485,0.009773844,0.0061086523,225.90413,-73.43393,15.057176,STD
3508346825000,1.249997,1.34802446864143,9.84034648171512,-0.165111051358566,-0.016798794,0.012217305,0.009773844,225.91241,-73.42606,15.067254,STD
3508352453000,1.255625,1.3504930665348,9.84463047715927,-0.163132253240087,-0.015271631,-0.00030543262,0.009468411,225.92696,-73.420784,15.07583,STD
3508356831000,1.260003,1.35246759937836,9.84068153517943,-0.16708132098898,-0.01282817,-0.003970624,0.0070249503,225.93799,-73.41582,15.0842905,STD
3508361765000,1.264937,1.35469289518696,9.83623108298013,-0.17153191492983,-0.006414085,-0.016187929,0.0018325958,225.9547,-73.41159,15.092951,STD
3508366809000,1.269981,1.35696780237355,9.83168141113309,-0.17608173167844,-0.00580322,-0.011911872,0.0033597588,225.96732,-73.40594,15.102235,STD
3508371826000,1.274998,1.35923053222191,9.82715609319959,-0.180607193737873,-0.008246681,-0.011911872,0.0009162979,225.98488,-73.4031,15.1093855,STD
3508376831000,1.280003,1.35030881225345,9.8194053412101,-0.172361535572177,-0.003970624,-0.0125227375,0.008857546,226.00073,-73.39803,15.119683,STD
3508381810000,1.284982,1.33667863963792,9.81031836969986,-0.158731353468318,-0.0030543262,-0.0061086523,0.007941248,226.01471,-73.39527,15.126425,STD
3508386928000,1.2901,1.32315633317167,9.8056474970193,-0.154231393091846,-0.013133603,-0.014049901,0.003970624,226.03252,-73.38686,15.138838,STD
3508391859000,1.295031,1.31043240674615,9.80405697507662,-0.155821883479842,-0.0076358155,-0.015577064,0.0030543262,226.04634,-73.37996,15.151187,STD
3508396821000,1.299993,1.29762848808393,9.80245645390859,-0.157422372894817,-0.0018325958,-0.014049901,0.0030543262,226.053639979984,-73.3779189851882,15.1545896845476,STD
3508401851000,1.305023,1.28464910257991,9.80083399895591,-0.159044795659291,-0.002443461,-0.021685716,-0.004276057,226.06104,-73.37585,15.158039,STD
3508406829000,1.310001,1.27180389760197,9.79922831689738,-0.160650445862383,-0.004581489,-0.02687807,-0.004886922,226.07552,-73.3701,15.1664295,STD
3508411834000,1.315006,1.25888902196625,9.79761392583611,-0.162264804895423,-0.009162978,-0.02565634,-0.0018325958,226.09381,-73.36637,15.173091,STD
3508416803000,1.319975,1.26334351500464,9.80000034298978,-0.174514853541318,-0.0018325958,-0.024129177,0.00030543262,226.1138,-73.3654,15.178497,STD
3508421844000,1.325016,1.27679100268338,9.80448294809656,-0.19244490888208,-0.0061086523,-0.028099801,-0.00030543262,226.13474,-73.3625,15.18408,STD
3508426831000,1.330003,1.28092221979622,9.80901985443959,-0.196373327627365,-0.014966198,-0.022296581,-0.002443461,226.14528,-73.367516,15.181426,STD
3508431810000,1.334982,1.27629510778263,9.81364711140223,-0.187119002135856,-0.013744468,-0.022602014,-0.004886922,226.15863,-73.373276,15.178962,STD
3508436807000,1.339979,1.26698284395442,9.81847119888162,-0.179715175641486,-0.0018325958,-0.014049901,-0.0018325958,226.1696,-73.37421,15.182421,STD
3508441836000,1.345008,1.25173857495252,9.82355272800169,-0.174633747334881,-0.01038471,-0.0125227375,0.004581489,226.1825,-73.37263,15.1863985,STD
3508446828000,1.35,1.2423653774666,9.82842357723899,-0.167143472197922,-0.012217305,-0.016798794,-0.008857546,226.19333,-73.37791,15.184144,STD
3508451832000,1.355004,1.23762294231569,9.83316611142999,-0.157658596944087,-0.005192355,-0.01160644,-0.0030543262,226.19989,-73.37649,15.188783,STD
3508456796000,1.359968,1.23762059262158,9.83316846117316,-0.157653897553425,-0.017715093,-0.01740966,0.002443461,226.20657,-73.37858,15.186923,STD
3508461829000,1.365001,1.24185944886993,9.82892951640137,-0.166131614476299,-0.0125227375,-0.011911872,0.0036651916,226.20831,-73.382996,15.185007,STD
3508466819000,1.369991,1.24622607346484,9.82414911068702,-0.170727621182868,-0.009468411,-0.016187929,-0.0021380284,226.21288,-73.386475,15.181865,STD
3508471823000,1.374995,1.25108207973384,9.81767446946565,-0.16425294277714,-0.0061086523,-0.02076942,0.009162978,226.21524,-73.38573,15.183801,STD
3508476801000,1.379973,1.25591285495508,9.81123346946565,-0.157811905785989,-0.0143553335,-0.013133603,0.008246681,226.22342,-73.39076,15.179756,STD
3508481815000,1.384987,1.26077856547321,9.80474588931298,-0.151324288374654,-0.01038471,-0.0070249503,0.008857546,226.2328,-73.39411,15.179625,STD
3508486826000,1.389998,1.26564136471661,9.79826219083969,-0.144840552665,-0.0076358155,-0.0067195175,0.0015271631,226.2418,-73.39862,15.176962,STD
3508491833000,1.395005,1.27050028226035,9.79178366793893,-0.13836199255759,-0.0076358155,-0.00030543262,0.007941248,226.245439071874,-73.3990358219247,15.1776353795047,STD
3508496760000,1.399932,1.27004608023074,9.78529542216208,-0.131873766605897,-0.007330383,-0.008552114,0.007941248,226.24902,-73.399445,15.178298,STD
3508502543000,1.405715,1.25689917940939,9.77740711693491,-0.123985620621944,-0.0012217305,-0.00580322,0.007330383,226.24936,-73.40472,15.175698,STD
3508506764000,1.409936,1.24730328309832,9.77164945890899,-0.118228078827328,-0.0027488936,-0.004886922,0.004886922,226.2484,-73.40405,15.177216,STD
3508511827000,1.414999,1.23579320893985,9.76474327018943,-0.111322029524759,-0.004581489,-0.002443461,0.0070249503,226.24608,-73.40302,15.179675,STD
3508516816000,1.419988,1.22415733639854,9.75988199904012,-0.106460856316951,-0.01863139,-0.0030543262,0.006414085,226.24493,-73.402985,15.17978,STD
3508521840000,1.425012,1.21030232299866,9.76911886753695,-0.115697536739297,-0.009773844,-0.004581489,0.009773844,226.24316,-73.403725,15.18156,STD
3508527026000,1.430198,1.19769786034995,9.7776812108733,-0.124737274264646,-0.007330383,-0.0012217305,0.005192355,226.23676,-73.40711,15.176195,STD
3508531815000,1.434987,1.20486288069052,9.77481514288392,-0.127603283897204,-0.015271631,0.005192355,0.012217305,226.22945,-73.40634,15.175095,STD
3508537447000,1.440619,1.21328914808624,9.77144456553664,-0.130973792615216,-0.017104227,0.00030543262,0.0125227375,226.22514,-73.41331,15.167834,STD
3508541843000,1.445015,1.21986618492423,9.76881369586002,-0.133604608723949,-0.016493361,-0.006414085,0.009162978,226.2195,-73.418655,15.161483,STD
3508546802000,1.449974,1.22728554927355,9.76584588814248,-0.136572356013123,-0.011301007,0.0027488936,0.010995574,226.21384,-73.42524,15.1545,STD
3508551824000,1.454996,1.23479917052023,9.76284037687861,-0.139577806080925,-0.011911872,0.007941248,0.013133603,226.21143,-73.43185,15.147193,STD
3508556841000,1.460013,1.24230531106077,9.75983785795969,-0.142580263864709,-0.014049901,0.01160644,0.013744468,226.20676,-73.43861,15.139886,STD
3508561826000,1.464998,1.24814517473913,9.76508668147536,-0.13733154722182,-0.016798794,0.01038471,0.01863139,226.20714,-73.443665,15.134249,STD
3508566827000,1.469999,1.25309336946999,9.77498327761132,-0.127435152593243,-0.015882496,0.0030543262,0.017715093,226.20839,-73.450096,15.127382,STD
3508572690000,1.475862,1.26062191116089,9.77994011960501,-0.132578806000482,-0.023823744,0.010079277,0.017715093,226.20628,-73.4492,15.127567,STD
3508576864000,1.480036,1.2663984175289,9.78186566864162,-0.140280847330925,-0.018020526,0.008552114,0.019242255,226.2088,-73.449814,15.128471,STD
3508581814000,1.484986,1.27324885033237,9.78414920187861,-0.149414796680636,-0.0143553335,0.018936822,0.014049901,226.20053,-73.449165,15.12785,STD
3508586919000,1.490091,1.28031379163776,9.78650423969171,-0.158834758585742,-0.018936822,0.013133603,0.016187929,226.19724,-73.44596,15.1303,STD
3508591896000,1.495068,1.283292,9.79305886847921,-0.158634293957959,-0.018325957,0.01863139,0.01740966,226.1879,-73.445404,15.130249,STD
3508596830000,1.500002,1.283292,9.80277294248856,-0.151348695341522,-0.020463986,0.020463986,0.01740966,226.18141,-73.4438,15.130754,STD
3508601826000,1.504998,1.283292,9.81260908228401,-0.143971546843809,-0.019242255,0.007330383,0.01985312,226.18144,-73.440735,15.135645,STD
3508606834000,1.510006,1.283292,9.82246884771547,-0.136576679014237,-0.021685716,0.005192355,0.017104227,226.17796,-73.438416,15.138539,STD
3508611827000,1.514999,1.28609020414489,9.82020759171021,-0.125680857029493,-0.022296581,0.01160644,0.009468411,226.18066,-73.4366,15.141145,STD
3508616807000,1.519979,1.29031422858914,9.81175954282172,-0.113009039511115,-0.016187929,0.016798794,0.013744468,226.184,-73.43294,15.146394,STD
3508621851000,1.525023,1.29491419785602,9.80255973242249,-0.111480477839201,-0.013744468,0.008552114,0.009162978,226.18782,-73.432976,15.14606,STD
3508626824000,1.529996,1.29991949753022,9.79254944666316,-0.126496387314766,-0.01282817,0.010995574,0.0067195175,226.18674,-73.43189,15.146976,STD
3508631809000,1.534981,1.3024458,9.78592705199364,-0.135645216040204,-0.026572637,0.0033597588,0.010079277,226.18965,-73.42907,15.148241,STD
3508636936000,1.540108,1.3024458,9.78267488091138,-0.138897320904093,-0.023518313,0.0018325958,0.017715093,226.18997,-73.42777,15.14976,STD
3508642374000,1.545546,1.3024458,9.77922543555438,-0.142346696025964,-0.025961773,0.00061086525,0.02321288,226.1948,-73.42372,15.1535225,STD
3508646825000,1.549997,1.3024458,9.77640206643264,-0.145170007660286,-0.016493361,0.009162978,0.016493361,226.19727,-73.422676,15.155625,STD
3508651820000,1.554992,1.3024458,9.77323362591072,-0.148338383668698,-0.025350908,-0.005497787,0.016493361,226.20645,-73.41615,15.161915,STD
3508656837000,1.560009,1.3024458,9.7700512302954,-0.151520714486356,-0.015271631,-0.007330383,0.010079277,226.20978,-73.4164,15.163674,STD
3508661817000,1.564989,1.29831132707881,9.77041025804625,-0.157363341908447,-0.018325957,-0.0036651916,0.010995574,226.21555,-73.40985,15.169601,STD
3508666813000,1.569985,1.28927948330345,9.77492622708825,-0.166395096090609,-0.020463986,-0.0036651916,0.015271631,226.219315,-73.40826,15.1719365,STD
3508671809000,1.574981,1.28664386523953,9.78294767536111,-0.180762100850047,-0.013744468,-0.003970624,0.013439035,226.22308,-73.40667,15.174272,STD
3508676830000,1.580002,1.29663775797568,9.79793814922581,-0.205746587458173,-0.014049901,-0.0036651916,0.008857546,226.23087,-73.40451,15.177585,STD
3508681812000,1.584984,1.30056522521168,9.80570970278756,-0.211804046908001,-0.01863139,-0.003970624,0.010079277,226.23961,-73.40068,15.182879,STD
3508686930000,1.590102,1.29590205575112,9.80337809371135,-0.190819991275806,-0.01985312,-0.004581489,0.0070249503,226.24855,-73.39955,15.185616,STD
3508691921000,1.595093,1.29135459995243,9.80110434207021,-0.170356641986966,-0.0143553335,-0.010079277,0.009773844,226.25893,-73.39794,15.191919,STD
3508696821000,1.599993,1.28689005709257,9.79887204733137,-0.150266397243364,-0.0033597588,-0.012217305,0.013133603,226.26846,-73.39745,15.19738,STD
3508701822000,1.604994,1.2818660575769,9.799924904699,-0.135025932087186,-0.008552114,-0.009773844,0.01160644,226.27905,-73.3946,15.203465,STD
3508706835000,1.610007,1.27507114372995,9.81351482699566,-0.139555892784016,-0.014049901,-0.0027488936,0.0070249503,226.28879,-73.39288,15.209454,STD
3508712288000,1.61546,1.26767982810908,9.82829756114361,-0.144483456254954,-0.007330383,-0.011301007,0.01160644,226.29532,-73.38839,15.215491,STD
3508716811000,1.619983,1.2615490889649,9.8405591247877,-0.148570632044254,-0.0061086523,-0.008857546,0.006414085,226.29703,-73.38649,15.216784,STD
3508722169000,1.625341,1.25512749849631,9.85396820741172,-0.153606110507373,-0.009773844,-0.0030543262,0.010079277,226.2914,-73.37876,15.224101,STD
3508726829000,1.630001,1.26811577924913,9.84098006228172,-0.162264999001746,-0.011911872,-0.0033597588,0.012217305,226.28717,-73.37324,15.229505,STD
3508731807000,1.634979,1.28199038474001,9.82710560166861,-0.171514773019985,-0.0076358155,-0.00030543262,0.014660766,226.28314,-73.369774,15.232987,STD
3508736839000,1.640011,1.27873758144078,9.81669516288155,-0.165550851737681,-0.0061086523,-0.0076358155,0.013133603,226.28238,-73.36635,15.2362175,STD
3508741841000,1.645013,1.27374717582561,9.80671435165121,-0.158065199021773,-0.0076358155,-0.0067195175,0.010079277,226.27834,-73.362915,15.239229,STD
3508746823000,1.649995,1.26877672385144,9.79677344770289,-0.150609476944473,-0.009162978,-0.014049901,0.015271631,226.28418,-73.35769,15.246524,STD
3508751875000,1.655047,1.26450297542261,9.78786146590802,-0.142923144968363,-0.011911872,-0.007941248,0.0106901415,226.2862,-73.35558,15.2495985,STD
3508756834000,1.660006,1.26898792237227,9.79234629577864,-0.133953199554254,-0.01038471,-0.011911872,0.0076358155,226.29306,-73.352104,15.255062,STD
3508761920000,1.665092,1.27358772882236,9.79694598215129,-0.124753533820002,-0.009773844,0.003970624,0.019547688,226.28455,-73.347984,15.25926,STD
3508766812000,1.669984,1.27801208060251,9.80137021843422,-0.115904779440929,-0.026572637,-0.008552114,0.01740966,226.28622,-73.34658,15.259659,STD
3508771805000,1.674977,1.28252777733969,9.80588579728964,-0.106873334098593,-0.020158553,-0.0030543262,0.014966198,226.27762,-73.34488,15.26214,STD
3508776827000,1.679999,1.283292,9.80405429963337,-0.110536446073132,-0.019547688,-0.0030543262,0.0061086523,226.275120271322,-73.3436075930175,15.2634053937157,STD
3508781830000,1.685002,1.283292,9.80094530060673,-0.116754642162162,-0.0076358155,0.0030543262,0.013744468,226.27263,-73.34234,15.264666,STD
3508786827000,1.689999,1.283292,9.79784003014179,-0.122965380890302,-0.014966198,0.0009162979,0.009162978,226.2687,-73.33987,15.265569,STD
3508791804000,1.694976,1.283292,9.79474718821583,-0.129151261748808,-0.014966198,-0.0018325958,0.013133603,226.26097,-73.33497,15.269609,STD
3508796855000,1.700027,1.283292,9.79160836069563,-0.13542911672496,-0.0125227375,0.0070249503,0.008857546,226.25371,-73.33308,15.2695055,STD
3508801789000,1.704961,1.283292,9.78854224012848,-0.141561553163752,-0.028405234,0.0018325958,0.014049901,226.25102,-73.32569,15.273709,STD
3508806833000,1.710005,1.28636707165847,9.78903439133757,-0.146727142760136,-0.02076942,0.003970624,0.006414085,226.24425,-73.32581,15.272462,STD
3508811836000,1.715008,1.29094309292775,9.79132218695382,-0.151303121025739,-0.016798794,0.0009162979,0.008552114,226.2401,-73.319954,15.275722,STD
3508816816000,1.719988,1.29549807712144,9.79359946502077,-0.155858062413447,-0.016493361,-0.00580322,0.009162978,226.23953,-73.318,15.277122,STD
3508821825000,1.724997,1.30007958632348,9.79589000434554,-0.160439528560241,-0.004581489,-0.0015271631,0.0143553335,226.23642,-73.3161,15.280125,STD
3508827574000,1.730746,1.29841760969072,9.79808006597938,-0.16280572,-0.007941248,0.004581489,0.018936822,226.24055,-73.31862,15.278519,STD
3508831827000,1.734999,1.29299955359162,9.79943460475557,-0.16280572,-0.0061086523,-0.004886922,0.007941248,226.24829,-73.32569,15.274405,STD
3508836876000,1.740048,1.28656744325906,9.80104266172265,-0.16280572,-0.008246681,-0.0015271631,0.008552114,226.25613,-73.327415,15.275623,STD
3508841846000,1.745018,1.28023597398736,9.80262555796475,-0.16280572,-0.014660766,-0.008552114,0.013439035,226.2699,-73.33045,15.275702,STD
3508846794000,1.749966,1.27393253134021,9.80420144742268,-0.16280572,-0.010995574,-0.0125227375,0.009162978,226.28189,-73.336494,15.273223,STD
3508851968000,1.75514,1.26734117882275,9.80584931566345,-0.16280572,-0.002443461,-0.005497787,0.011911872,226.29211,-73.33913,15.274048,STD
3508856724000,1.759896,1.2621382032234,9.8086503385504,-0.158805122269424,-0.008246681,-0.005192355,0.013439035,226.31223,-73.34271,15.272995,STD
3508861773000,1.764945,1.25763352060742,9.81315511524129,-0.149795747629961,-0.014966198,-0.0036651916,0.014660766,226.32954,-73.346344,15.272459,STD
3508866723000,1.769895,1.25602816726617,9.81696024894579,-0.14438533439872,-0.009468411,0.003970624,0.008552114,226.3433,-73.35588,15.265959,STD
3508871758000,1.77493,1.26092774436316,9.81941008865519,-0.146835125505258,-0.013744468,0.0018325958,0.015271631,226.35876,-73.359665,15.263892,STD
3508876693000,1.779865,1.26573001109079,9.8218112721638,-0.149236261376315,-0.004276057,0.0027488936,0.014049901,226.37125,-73.37123,15.254955,STD
3508881735000,1.784907,1.27063639991363,9.82426451780724,-0.151689458349337,-0.004581489,0.004886922,0.017715093,226.38338,-73.377914,15.249564,STD
3508886717000,1.789889,1.27022619731463,9.82405941222445,-0.151484356835671,-0.018936822,0.0067195175,0.018325957,226.39525,-73.384964,15.243142,STD
3508891750000,1.794922,1.26056687178357,9.81922964859719,-0.146654689027054,-0.015577064,0.024740042,0.019242255,226.4014,-73.39269,15.237424,STD
3508897076000,1.800248,1.25258330511519,9.81424856379878,-0.141673705115186,-0.0125227375,0.007941248,0.011911872,226.41873,-73.39941,15.232638,STD
3508901788000,1.80496,1.24834015686883,9.81000532693935,-0.137430556868829,-0.014966198,0.0067195175,0.010079277,226.42581,-73.40405,15.228672,STD
3508906747000,1.809919,1.24613523554798,9.80780035957136,-0.129473953483877,-0.020463986,0.005192355,0.013439035,226.43346,-73.407875,15.224877,STD
3508911772000,1.814944,1.25082334270823,9.81248856463712,-0.110721507219873,-0.020158553,0.017104227,0.016187929,226.43748,-73.41256,15.220133,STD
3508916758000,1.81993,1.25595384827262,9.8171551214611,-0.0966961668540883,-0.009773844,0.011911872,0.011301007,226.446,-73.41791,15.214975,STD
3508921781000,1.824953,1.26309660697882,9.82191707661849,-0.101458026543655,-0.008552114,0.01740966,0.009162978,226.4476,-73.42075,15.210722,STD
3508926753000,1.829925,1.27016684314987,9.82663068224114,-0.106171537667789,-0.017715093,0.020463986,0.013439035,226.44907,-73.42102,15.207745,STD
3508932097000,1.835269,1.27776606722431,9.8316969550584,-0.111237708916254,-0.010079277,0.010995574,0.008857546,226.45293,-73.42614,15.201982,STD
3508936790000,1.839962,1.283292,9.8338689160675,-0.115677706966985,-0.004276057,0.015577064,0.0143553335,226.45386,-73.42633,15.199678,STD
3508941774000,1.844946,1.283292,9.82453034565908,-0.120346899536317,-0.0106901415,0.02076942,0.0070249503,226.45789,-73.4305,15.19284,STD
3508946769000,1.849941,1.283292,9.81517116444118,-0.125026397305943,-0.009162978,0.016493361,0.01038471,226.4651,-73.430374,15.193548,STD
3508951894000,1.855066,1.283292,9.80556840092932,-0.12982768380631,-0.021991149,0.0018325958,0.0125227375,226.47404,-73.43009,15.192073,STD
3508956826000,1.859998,1.28366213458924,9.79744313458924,-0.131854537064673,-0.01985312,0.009468411,0.008552114,226.47658,-73.43053,15.190691,STD
3508961830000,1.865002,1.2883157865605,9.8020967865605,-0.103933185988347,-0.013439035,0.007941248,0.010079277,226.48573,-73.42805,15.192266,STD
3508967089000,1.870261,1.292869,9.80680951413233,-0.0775715195730017,-0.01282817,0.013744468,0.014049901,226.49187,-73.42536,15.193963,STD
3508971848000,1.87502,1.292869,9.80890077516748,-0.0901188337931541,-0.019242255,0.00580322,0.008857546,226.50264,-73.42463,15.193997,STD
3508977172000,1.880344,1.292869,9.81124031577498,-0.104155795530513,-0.01038471,0.008552114,0.017715093,226.50427,-73.418236,15.198899,STD
3508981842000,1.885014,1.292869,9.81329246728457,-0.116468457309902,-0.02107485,0.009162978,0.015271631,226.50937,-73.413345,15.199423,STD
3508986881000,1.890053,1.292869,9.81550676952372,-0.129754003927962,-0.017715093,0.01740966,0.02107485,226.50752,-73.4042,15.206331,STD
3508991834000,1.895006,1.29392751699963,9.81199295410733,-0.128782710580662,-0.0125227375,0.015882496,0.023518313,226.50858,-73.39579,15.211768,STD
3508996801000,1.899973,1.29551401486843,9.80564699576427,-0.120850214610279,-0.01282817,0.012217305,0.011301007,226.50816,-73.38972,15.214312,STD
3509002241000,1.905413,1.29725159256245,9.79869672127539,-0.1121623188827,-0.01282817,0.008246681,0.004886922,226.51059,-73.38063,15.222444,STD
3509006824000,1.909996,1.29871543788814,9.79284137054331,-0.104843086140146,-0.0061086523,0.008857546,0.0106901415,226.51271,-73.37243,15.230406,STD
3509011826000,1.914998,1.30031311502518,9.7864506953607,-0.0968546937818097,-0.013439035,0.005192355,0.010995574,226.51765,-73.36591,15.23516,STD
3509016829000,1.920001,1.30191111156989,9.78005874255411,-0.0888647043838175,-0.013133603,0.007330383,0.02076942,226.52013,-73.35715,15.243914,STD
3509021866000,1.925038,1.31184786638447,9.77948704378923,-0.0940263218654211,-0.013744468,0.018020526,0.022602014,226.52388,-73.35198,15.248359,STD
3509026835000,1.930007,1.32573988775361,9.78180242903712,-0.105603016010315,-0.019547688,0.0143553335,0.014660766,226.53117,-73.34642,15.253071,STD
3509031813000,1.934985,1.33965707076339,9.78412200797937,-0.117200678206588,-0.013439035,0.018020526,0.0125227375,226.52734,-73.338974,15.259029,STD
3509036928000,1.9401,1.35395726985841,9.78650542426896,-0.129117520740525,-0.021685716,0.01740966,0.015577064,226.52599,-73.330154,15.264344,STD
3509041853000,1.945025,1.35266836105206,9.79232234147,-0.136488046315979,-0.021380283,0.01863139,0.019547688,226.52307,-73.32347,15.269029,STD
3509046845000,1.950017,1.33974977369843,9.80093446324986,-0.140794242100522,-0.015882496,0.011301007,0.018936822,226.52296,-73.31704,15.273457,STD
3509051805000,1.954977,1.33448741855778,9.80830564385431,-0.137029659426892,-0.0143553335,0.018020526,0.020158553,226.52368,-73.305504,15.284998,STD
3509056832000,1.960004,1.34459397331794,9.81335902676603,-0.116816539353417,-0.015882496,0.010995574,0.019547688,226.53067,-73.29514,15.296311,STD
3509061826000,1.964998,1.34828859255351,9.81214449985067,-0.0971800438198109,-0.02107485,0.0036651916,0.016493361,226.53818,-73.2887,15.303332,STD
3509066805000,1.969977,1.34354166500747,9.80265044649079,-0.078192318765555,-0.018020526,0.003970624,0.018325957,226.54529,-73.282036,15.311402,STD
3509071912000,1.975084,1.33880985534685,9.8009593704668,-0.0728670868000744,-0.019547688,0.0015271631,0.016798794,226.55325,-73.27434,15.318406,STD
3509076831000,1.980003,1.33442931980658,9.80972062451181,-0.0860086998246234,-0.005497787,0.010995574,0.0143553335,226.55746,-73.2687,15.325092,STD
3509081831000,1.985003,1.33000560566243,9.81798286705989,-0.0998651476039927,-0.015271631,0.007330383,0.019242255,226.56468,-73.25604,15.33431,STD
3509086948000,1.99012,1.32555873764065,9.82465307622505,-0.11542919868167,-0.01160644,0.007330383,0.0106901415,226.56854,-73.2509,15.338403,STD
3509091859000,1.995031,1.32129089147005,9.83105475635209,-0.130366672756806,-0.019547688,0.015882496,0.010079277,226.57198,-73.24263,15.344568,STD
3509096827000,1.999999,1.31697351012704,9.83753073820327,-0.145477520080218,-0.013133603,0.018325957,0.014049901,226.57727,-73.237564,15.3497305,STD
3509101846000,2.005018,1.31261180784029,9.84407320054447,-0.160743490836298,-0.015577064,0.01740966,0.014660766,226.58112,-73.231766,15.3535,STD
3509106838000,2.01001,1.31402883101054,9.84094466367212,-0.164811951010538,-0.011911872,0.018020526,0.011911872,226.5813,-73.22611,15.358211,STD
3509111762000,2.014934,1.31631874327199,9.83636498261545,-0.167101863271986,-0.011301007,0.015271631,0.008246681,226.58276,-73.22009,15.362839,STD
3509116806000,2.019978,1.31866446168115,9.83167369275968,-0.169447581681154,-0.013744468,0.016187929,0.00580322,226.58682,-73.219604,15.364668,STD
3509121780000,2.024952,1.32097762650415,9.82704750803671,-0.171760746504152,-0.009162978,0.019242255,0.0106901415,226.59087,-73.219,15.367553,STD
3509126848000,2.03002,1.32516092911039,9.82046159476701,-0.161697925230999,-0.016187929,0.0143553335,0.010079277,226.59291,-73.21929,15.368158,STD
3509131830000,2.035002,1.32991663482681,9.81332788721655,-0.147430798150012,-0.01282817,0.0067195175,0.01160644,226.59467,-73.21942,15.370726,STD
3509136940000,2.040112,1.33479452647894,9.80601089693496,-0.132797113006728,-0.021380283,0.005497787,0.010079277,226.59344,-73.21665,15.374274,STD
3509141866000,2.045038,1.33949677584849,9.79895737557937,-0.118690355077997,-0.012217305,0.009162978,0.017104227,226.59271,-73.21366,15.3807,STD
3509146822000,2.049994,1.34421060285658,9.80053067506447,-0.125294495790518,-0.020158553,0.01282817,0.004276057,226.5931,-73.21344,15.3810005,STD
3509151866000,2.055038,1.34900185252926,9.80532202479667,-0.139668254814521,-0.017104227,0.019547688,0.015271631,226.59044,-73.20744,15.389737,STD
3509156835000,2.060007,1.35372186038484,9.81004213122396,-0.153828288238445,-0.013744468,0.024129177,0.013133603,226.58502,-73.20284,15.393201,STD
3509161829000,2.065001,1.3584656155128,9.81478598541956,-0.168059563529062,-0.017104227,0.022296581,0.02076942,226.57892,-73.192566,15.402382,STD
3509166804000,2.069976,1.35379991100867,9.82233381652222,-0.184595907547483,-0.0036651916,0.021685716,0.0143553335,226.57458,-73.19262,15.403784,STD
3509171817000,2.074989,1.34494715452701,9.83118675788309,-0.202301434376729,-0.011301007,0.020463986,0.022602014,226.57028,-73.18417,15.41148,STD
3509176831000,2.080003,1.33906050542776,9.83368847008204,-0.204766014578939,-0.015577064,0.021685716,0.015577064,226.56714,-73.18458,15.414596,STD
3509181841000,2.085013,1.33584739523188,9.8304752927842,-0.193520120505609,-0.015577064,0.015271631,0.018020526,226.56609,-73.18002,15.422889,STD
3509187632000,2.090804,1.33213339899548,9.82676121898543,-0.180521123982923,-0.01160644,0.013439035,0.015577064,226.5657,-73.1822,15.425401,STD
3509191843000,2.095015,1.3294327189486,9.82406048253809,-0.171068736768793,-0.027488936,0.007941248,0.014660766,226.56818,-73.18104,15.429325,STD
3509196856000,2.100028,1.32621768473464,9.82084538118199,-0.159816108627156,-0.017104227,-0.004581489,0.019547688,226.56781,-73.17871,15.437322,STD
3509201819000,2.104991,1.3230347174887,9.81766234746359,-0.148675714957308,-0.0143553335,0.002443461,0.01740966,226.56363,-73.175896,15.442454,STD
3509206835000,2.110007,1.32419760795937,9.81362873778016,-0.141053890684115,-0.014966198,0.01038471,0.014660766,226.56273,-73.17281,15.449045,STD
3509211832000,2.115004,1.3288712023341,9.80895504580302,-0.13638029386933,-0.014660766,0.015271631,0.023823744,226.56036,-73.1676,15.458153,STD
3509216845000,2.120017,1.33355976118951,9.80426638903267,-0.131691732566043,-0.021685716,0.011911872,0.0106901415,226.55362,-73.167046,15.457971,STD
3509221925000,2.125097,1.3383109838078,9.79951506719078,-0.126940507467161,-0.013439035,0.01038471,0.018020526,226.54402,-73.16056,15.465833,STD
3509226833000,2.130005,1.3386135417623,9.79065471464695,-0.120219571290605,-0.016798794,0.010995574,0.009773844,226.5291,-73.15998,15.465341,STD
3509231853000,2.135025,1.33393784287104,9.7766278132659,-0.110868168625754,-0.018936822,0.016187929,0.013439035,226.51283,-73.15548,15.470098,STD
3509236896000,2.140068,1.33549490451389,9.77482096657986,-0.111822941280382,-0.009162978,0.023823744,0.013744468,226.49564,-73.1521,15.47366,STD
3509241840000,2.145012,1.34577001284722,9.79023341449653,-0.127235614509549,-0.013133603,0.022296581,0.009162978,226.47993,-73.147415,15.476861,STD
3509246825000,2.149997,1.3554719409773,9.79193102010388,-0.128933153653328,-0.019547688,0.021380283,0.021685716,226.45984,-73.13857,15.484133,STD
3509251817000,2.154989,1.36466920638707,9.78273404280493,-0.119735878639861,-0.025961773,0.009468411,0.016493361,226.44453,-73.1353,15.485359,STD
3509257413000,2.160585,1.37240140777324,9.78667399284985,-0.123675800823289,-0.02107485,0.02321288,0.01985312,226.42186,-73.12828,15.492288,STD
3509261830000,2.165002,1.37672217221655,9.79963624106231,-0.136638238529111,-0.016493361,0.010995574,0.013744468,226.41112,-73.12454,15.496158,STD
3509266803000,2.169975,1.36943488216926,9.80183752928015,-0.131620537257977,-0.013744468,0.015271631,0.016493361,226.39104,-73.11631,15.50369,STD
3509271874000,2.175046,1.35053845180934,9.79238958540856,-0.107999919888716,-0.02443461,0.008857546,0.007941248,226.37856,-73.111824,15.506881,STD
3509276830000,2.180002,1.34518036984127,9.79856542460317,-0.111263871388889,-0.015882496,0.008246681,0.009162978,226.36528,-73.1075,15.513656,STD
3509281880000,2.185052,1.35477617142857,9.82255492857143,-0.144849205,-0.011911872,0.0067195175,0.01038471,226.35463,-73.10382,15.518127,STD
3509286879000,2.190051,1.3556393137901,9.83324731233647,-0.156404786229286,-0.012217305,0.0012217305,0.007941248,226.33974,-73.10209,15.518551,STD
3509291854000,2.195026,1.34640497325322,9.82863004564396,-0.142553265781568,-0.011301007,0.011911872,0.018936822,226.32024,-73.09713,15.522575,STD
3509296791000,2.199963,1.33724116637271,9.82404804651613,-0.128807545892044,-0.01985312,0.007330383,0.0143553335,226.31853,-73.097855,15.523289,STD
3509301823000,2.204995,1.32790102535129,9.8193778784766,-0.114797324607036,-0.0106901415,0.02076942,0.015271631,226.30786,-73.096344,15.527624,STD
3509306761000,2.209933,1.32453207226991,9.816227,-0.103878542333912,-0.02565634,0.0106901415,0.016187929,226.30576,-73.09244,15.531518,STD
3509311831000,2.215003,1.33416826696105,9.816227,-0.0990604399573307,-0.011301007,-0.00061086525,0.008857546,226.30045,-73.09479,15.532843,STD
3509316771000,2.219943,1.34355737973704,9.816227,-0.0943658786673282,-0.008857546,-0.0009162979,0.01740966,226.28894,-73.09081,15.534859,STD
3509321840000,2.225012,1.35319167379806,9.816227,-0.0895487266067973,-0.017715093,0.0067195175,0.015271631,226.27917,-73.091896,15.531892,STD
3509327188000,2.23036,1.36150684783649,9.82102767667096,-0.0893917590149144,-0.01160644,0.010079277,0.01038471,226.27055,-73.09227,15.531584,STD
3509331873000,2.235045,1.36563751511692,9.83341950598416,-0.0976531022021727,-0.014660766,0.01038471,0.011301007,226.2606,-73.08972,15.532123,STD
3509336890000,2.240062,1.36909082222361,9.84397555555903,-0.107111481018556,-0.01863139,-0.0018325958,0.006414085,226.25107,-73.086205,15.533876,STD
3509341860000,2.245032,1.36611202596614,9.83652856491535,-0.12051607195325,-0.01282817,0.0009162979,0.013439035,226.23677,-73.0802,15.538652,STD
3509346785000,2.249957,1.36316020070094,9.82914900175236,-0.133799293352317,-0.012217305,0.007330383,0.01160644,226.2315,-73.07813,15.539574,STD
3509351825000,2.254997,1.36013944956661,9.82159712391651,-0.147392681342429,-0.01282817,0.0030543262,0.012217305,226.22832,-73.074165,15.543369,STD
3509356805000,2.259977,1.3571546597553,9.81413514938824,-0.160824243285039,-0.01740966,-0.004886922,0.009468411,226.22461,-73.07126,15.5455265,STD
3509361832000,2.265004,1.35414170024095,9.80660275060237,-0.174382568964859,-0.009468411,-0.002443461,0.009468411,226.21904,-73.068886,15.5483465,STD
3509366785000,2.269957,1.351173093025,9.79918123256251,-0.187741309186094,-0.013133603,-0.002443461,0.011911872,226.21661,-73.06486,15.551374,STD
3509371878000,2.27505,1.35378855806388,9.8005318302959,-0.174242328845777,-0.015882496,-0.00030543262,0.016493361,226.21924,-73.06092,15.554993,STD
3509376819000,2.279991,1.35842494536547,9.80516831442289,-0.151060377814031,-0.016798794,-0.004276057,0.016187929,226.2237,-73.057495,15.558065,STD
3509381891000,2.285063,1.35515740274478,9.80981619762434,-0.135736765290426,-0.02107485,0.0009162979,0.016187929,226.23004,-73.05592,15.561887,STD
3509386928000,2.2901,1.34830893249728,9.81438193980408,-0.124322639629928,-0.026267206,-0.00580322,0.01160644,226.24115,-73.055405,15.564822,STD
3509391829000,2.295001,1.34164537230609,9.81882440603852,-0.113216697628319,-0.021380283,0.00030543262,0.0143553335,226.24765,-73.05083,15.569824,STD
3509396966000,2.300138,1.33466093878188,9.82348079229568,-0.101575966336283,-0.020463986,0.004886922,0.0106901415,226.25685,-73.04818,15.571942,STD
3509401804000,2.304976,1.32427859974673,9.81430799957788,-0.0865712579003799,-0.01985312,0.0015271631,0.018936822,226.26595,-73.04225,15.5782385,STD
3509406834000,2.310006,1.30902808138455,9.78889046897425,-0.0662372206779232,-0.029626964,0.0033597588,0.018936822,226.27248,-73.03847,15.580773,STD
3509411826000,2.314998,1.29745661534626,9.78041461837488,-0.0599554088836565,-0.03145956,0.004276057,0.021685716,226.27528,-73.03426,15.582689,STD
3509416807000,2.319979,1.28864728221607,9.7848193309326,-0.0643600340554017,-0.024129177,0.00061086525,0.010079277,226.27937,-73.033875,15.580588,STD
3509421842000,2.325014,1.28935788619819,9.78143102934988,-0.0589498517031349,-0.017104227,0.0021380284,0.018936822,226.2772,-73.02738,15.582688,STD
3509426833000,2.330005,1.30444250902588,9.76634619650747,-0.0388371455249316,-0.019242255,-0.008857546,0.012217305,226.28075,-73.02788,15.577665,STD
3509431834000,2.335006,1.31674470490506,9.76584930528086,-0.0428967445767405,-0.02076942,0.008552114,0.01160644,226.27722,-73.02779,15.573659,STD
3509436921000,2.340093,1.32638022341772,9.78030288488924,-0.0718033202373418,-0.019242255,0.002443461,0.012217305,226.28398,-73.02922,15.569376,STD
3509441846000,2.345018,1.33015035924799,9.78852275505819,-0.0872171011804834,-0.022602014,-0.0018325958,0.004886922,226.28392,-73.02735,15.565481,STD
3509446825000,2.349997,1.32801594173679,9.79065699427037,-0.0893515195831692,-0.00580322,0.00580322,0.008552114,226.28171,-73.024956,15.564702,STD
3509451816000,2.354988,1.32587638001791,9.79279637726052,-0.0914910821957028,-0.018936822,-0.0033597588,0.014660766,226.28767,-73.022255,15.564278,STD
3509456843000,2.360015,1.32372138567592,9.7949511915846,-0.0936460774377798,-0.02076942,-0.005192355,0.014966198,226.28929,-73.02324,15.562788,STD
3509462188000,2.36536,1.32044445312436,9.7966880498677,-0.0942281338676979,-0.017715093,-0.0015271631,0.016798794,226.29164,-73.021324,15.563585,STD
3509466815000,2.369987,1.30691549314065,9.79217877325463,-0.0761895092546306,-0.01740966,-0.004276057,0.014049901,226.29651,-73.020065,15.563449,STD
3509471990000,2.375162,1.29385393609314,9.78716868111255,-0.05910240152652,-0.018020526,-0.013439035,0.015577064,226.29932,-73.01887,15.5641,STD
3509476832000,2.380004,1.30670854677509,9.78288372140085,-0.0805267705599704,-0.021991149,-0.013133603,0.006414085,226.30061,-73.02084,15.560723,STD
3509482806000,2.385978,1.32126525106586,9.77792,-0.104787964644553,-0.016798794,-0.01038471,0.014660766,226.29982,-73.020996,15.559039,STD
3509486900000,2.390072,1.31751729014435,9.77792,-0.0985413578905777,-0.021991149,-0.0067195175,0.018325957,226.29912,-73.023056,15.553544,STD
3509491766000,2.394938,1.31306258134022,9.77792,-0.0911168370149444,-0.027183503,-0.003970624,0.02107485,226.30208,-73.02257,15.553745,STD
3509496822000,2.399994,1.30843393199503,9.77792,-0.0834024149953797,-0.026572637,-0.015882496,0.020158553,226.30826,-73.022156,15.554323,STD
3509501794000,2.404966,1.30388218267852,9.77792,-0.0758161597973425,-0.020158553,-0.0030543262,0.015882496,226.3063,-73.02201,15.553769,STD
3509506831000,2.410003,1.29927092738744,9.77792,-0.0681307278921709,-0.018020526,-0.0027488936,0.014660766,226.31142,-73.02091,15.55465,STD
3509512473000,2.415645,1.29410580879457,9.77792,-0.0595221897129019,-0.022602014,0.0018325958,0.019547688,226.31137,-73.01928,15.555485,STD
3509516812000,2.419984,1.29581510093689,9.78381201729641,-0.0810296659528467,-0.028099801,-0.0021380284,0.020158553,226.31393,-73.01921,15.555069,STD
3509521873000,2.425045,1.30080513334706,9.7937917694842,-0.120949956497478,-0.022907447,0.0018325958,0.015882496,226.3128,-73.019844,15.554216,STD
3509526834000,2.430006,1.30552966927985,9.79810097789426,-0.127907556502735,-0.023518313,0.009468411,0.021380283,226.30577,-73.01563,15.554335,STD
3509531840000,2.435012,1.31021206224769,9.79966180814559,-0.118542763070126,-0.021380283,0.0021380284,0.013439035,226.3027,-73.01701,15.5498295,STD
3509536854000,2.440026,1.31490193806485,9.80122513273212,-0.109163003926879,-0.009773844,0.003970624,0.011301007,226.29453,-73.01755,15.550214,STD
3509541841000,2.445013,1.31956655926553,9.80278003893736,-0.0998337540570387,-0.0125227375,-0.004886922,0.018325957,226.29169,-73.01635,15.551574,STD
3509546836000,2.450008,1.32423866331554,9.80433743947779,-0.0904895384765595,-0.01985312,-0.00580322,0.01160644,226.28905,-73.02014,15.548018,STD
3509551824000,2.454996,1.32890421987238,9.80589265747493,-0.0811584178928897,-0.0070249503,0.005497787,0.015577064,226.2848,-73.02122,15.549381,STD
3509556833000,2.460005,1.33361578767773,9.8078698193128,-0.0741748645390995,-0.016187929,-0.0012217305,0.015577064,226.2824,-73.02217,15.548116,STD
3509561828000,2.465,1.338338942891,9.81023144623815,-0.069451705873519,-0.01282817,0.0012217305,0.008857546,226.27415,-73.026665,15.545378,STD
3509566813000,2.469985,1.34305264233807,9.81258834518167,-0.0647380029810427,-0.009162978,0.0036651916,0.014660766,226.26447,-73.02227,15.548746,STD
3509571837000,2.475009,1.3478032192733,9.81496368325434,-0.0599874225734597,-0.0143553335,0.0067195175,0.009773844,226.25462,-73.021866,15.547031,STD
3509576832000,2.480004,1.35480919321454,9.8207064867613,-0.0619402364886741,-0.010079277,-0.0012217305,0.011301007,226.24669,-73.02099,15.548127,STD
3509582518000,2.48569,1.36577339029498,9.83167091281587,-0.0729044415832075,-0.0143553335,-0.0012217305,0.0015271631,226.241325214434,-73.0215281603076,15.5469430473233,STD
3509586975000,2.490147,1.36194906899265,9.83286950388239,-0.0715915629903717,-0.008552114,-0.004886922,0.007330383,226.23712,-73.02195,15.546015,STD
3509591862000,2.495034,1.34741283700176,9.82802399202816,-0.0619007345797702,-0.0018325958,-0.0061086523,0.014660766,226.22816,-73.018364,15.549348,STD
3509596858000,2.50003,1.33687757983267,9.82063680008807,-0.0561690321984442,-0.011301007,0.002443461,0.008552114,226.22015,-73.017136,15.549166,STD
3509601818000,2.50499,1.32990547826215,9.81134071319536,-0.0538449964002153,-0.009773844,0.00030543262,0.00580322,226.21538,-73.015175,15.552342,STD
3509606838000,2.51001,1.32284903675327,9.80193217363863,-0.0514928472657175,-0.022296581,-0.0018325958,0.006414085,226.20836,-73.01194,15.552282,STD
3509611827000,2.514999,1.3158361708792,9.79258173462498,-0.0491552233549587,-0.014660766,-0.002443461,0.011911872,226.20155,-73.01064,15.55285,STD
3509616822000,2.519994,1.32497710954357,9.78533786998617,-0.0414067731701245,-0.016493361,-0.00061086525,0.004581489,226.19516,-73.010124,15.549914,STD
3509621872000,2.525044,1.35364506449318,9.78055977771191,-0.0270727867148785,-0.011911872,0.0015271631,0.007330383,226.18842,-73.007195,15.551381,STD
3509626800000,2.529972,1.36846937472266,9.77994798702457,-0.0262517958120048,-0.013439035,0.013133603,0.0021380284,226.17732,-73.00879,15.545956,STD
3509631847000,2.535019,1.36607564900951,9.78473528848059,-0.0430078873018027,-0.018936822,0.00580322,0.013439035,226.17064,-73.0054,15.546622,STD
3509636869000,2.540041,1.36369378046751,9.78949887633716,-0.0596809785365491,-0.022907447,0.00580322,0.0076358155,226.16672,-73.00082,15.546504,STD
3509641911000,2.545083,1.36130242618859,9.79428143507329,-0.0764204699753368,-0.016187929,0.0061086523,0.01282817,226.16414,-72.991196,15.552827,STD
3509646757000,2.549929,1.36247429601277,9.79964074963603,-0.0896148573648617,-0.007941248,0.009773844,0.005497787,226.16122,-72.98633,15.553712,STD
3509652339000,2.555511,1.37000602441178,9.80717263532616,-0.0996571697614239,-0.0070249503,0.008552114,0.0061086523,226.15923,-72.97816,15.55836,STD
3509656760000,2.559932,1.37597122886395,9.81313796435448,-0.107610781926455,-0.0125227375,0.010995574,0.01160644,226.1618,-72.973755,15.561847,STD
3509661828000,2.565,1.38280942297469,9.81997630127272,-0.116728381214484,-0.016493361,0.008552114,0.010995574,226.16632,-72.97112,15.563949,STD
3509666799000,2.569971,1.38684837966199,9.82461156153919,-0.121517453862122,-0.013439035,0.004581489,0.0076358155,226.17044,-72.96805,15.566721,STD
3509671848000,2.57502,1.3729975451733,9.81537747904134,-0.0984327123588275,-0.004276057,0.0012217305,-0.0021380284,226.1753,-72.96717,15.56748,STD
3509677001000,2.580173,1.35932010037372,9.80621013140446,-0.0769077039662447,-0.007941248,0.003970624,0.009468411,226.18356,-72.9582,15.577184,STD
3509681800000,2.584972,1.35193266807314,9.80066963431786,-0.080601422045007,-0.013744468,0.01282817,0.015271631,226.19144,-72.95413,15.582324,STD
3509686936000,2.590108,1.34402646838658,9.7947400671087,-0.08455452395218,-0.0061086523,0.008552114,0.00580322,226.19235,-72.953705,15.583062,STD
3509691832000,2.595004,1.3364897172835,9.78908758247941,-0.0883229014711674,-0.0070249503,0.0030543262,0.0067195175,226.19049,-72.94754,15.588014,STD
3509696797000,2.599969,1.32884674971268,9.7833554366084,-0.0921443872517581,-0.009162978,-0.0033597588,0.008552114,226.19052,-72.94442,15.590657,STD
3509701881000,2.605053,1.32089306873284,9.77968582816791,-0.0950617323640643,-0.004886922,0.004886922,0.00580322,226.18799,-72.94296,15.591888,STD
3509706853000,2.610025,1.31155296484896,9.8030360878776,-0.0857216236037662,-0.014966198,0.00061086525,0.0018325958,226.191,-72.93953,15.593882,STD
3509711998000,2.61517,1.3025287680182,9.82555509074733,-0.0768633582798553,-0.002443461,0.0018325958,0.0012217305,226.18993,-72.94267,15.592359,STD
3509716848000,2.62002,1.3038836329619,9.82149041103203,-0.0809279567892772,-0.009468411,-0.0027488936,0.0012217305,226.19193,-72.94325,15.590284,STD
3509722145000,2.625317,1.3053633689633,9.81705111032028,-0.0853671688108045,-0.014049901,0.004886922,0.0070249503,226.19487,-72.94837,15.584364,STD
3509726836000,2.630008,1.30667381668514,9.81311968505338,-0.0892985155340412,-0.013133603,0.004886922,0.0061086523,226.198591411125,-72.9525439501232,15.580266596367,STD
3509731889000,2.635061,1.30808539040896,9.80888487544484,-0.0935332405377749,-0.00580322,0.0018325958,0.0012217305,226.2026,-72.95704,15.575853,STD
3509736793000,2.639965,1.30945534044688,9.80477493950178,-0.0976430943708068,-0.01863139,-0.0009162979,0.0030543262,226.20743,-72.95912,15.5710335,STD
3509741839000,2.645011,1.31086495869553,9.80054599644128,-0.101871952943702,-0.0143553335,0.004886922,0.0076358155,226.21062,-72.96474,15.5653305,STD
3509746779000,2.649951,1.31436457628264,9.797853675064,-0.103783560847926,-0.008857546,0.003970624,0.002443461,226.21654,-72.97103,15.557835,STD
3509751816000,2.654988,1.32918434328725,9.80279370056324,-0.0939037058617512,-0.013744468,0.008246681,0.01282817,226.21838,-72.97123,15.555813,STD
3509756789000,2.659961,1.33986694491401,9.80753607359019,-0.0857482321794427,-0.01740966,0.0106901415,0.01038471,226.22408,-72.97627,15.550813,STD
3509761825000,2.664997,1.33558051512243,9.81182259289873,-0.0836050159408968,-0.015271631,0.01160644,0.010079277,226.22841,-72.97808,15.549327,STD
3509766807000,2.669979,1.33134004784251,9.81606314873572,-0.0814847809725814,-0.005192355,0.01160644,0.0067195175,226.23665,-72.98183,15.546384,STD
3509771908000,2.67508,1.3269982928054,9.82040499444518,-0.079313902093943,-0.01282817,0.009773844,0.016187929,226.24455,-72.98042,15.547114,STD
3509776820000,2.679992,1.32281740655913,9.82458596800427,-0.0772234576611119,-0.015577064,0.013744468,0.012217305,226.25122,-72.98503,15.542969,STD
3509781823000,2.684995,1.31673680872779,9.8241831023928,-0.0749935895656006,-0.010995574,0.015882496,0.0143553335,226.26384,-72.984436,15.54411,STD
3509786895000,2.690067,1.30983225583511,9.82188153669746,-0.0726920709734186,-0.01038471,0.00580322,0.012217305,226.27899,-72.985214,15.543249,STD
3509791927000,2.695099,1.30298215525231,9.81959812215115,-0.0704087031587775,-0.0027488936,0.009773844,0.0067195175,226.29323,-72.98978,15.53871,STD
3509796869000,2.700041,1.29625457236674,9.81735554769012,-0.0681661745936034,-0.009162978,0.018020526,0.0125227375,226.30853,-72.990295,15.537104,STD
3509801810000,2.704982,1.29366926789253,9.81382622974768,-0.0702387240770252,-0.014049901,0.02107485,0.0061086523,226.32448,-72.99511,15.531613,STD
3509806833000,2.710005,1.2953073060442,9.80891218370961,-0.0767908818149624,-0.003970624,0.015882496,0.013133603,226.33948,-72.995804,15.531689,STD
3509811832000,2.715004,1.29693751761501,9.80402161708721,-0.083311733204958,-0.007330383,0.013744468,0.0067195175,226.35138,-73.0016,15.523197,STD
3509816830000,2.720002,1.29856740307829,9.79913202877379,-0.0898312801637893,-0.008857546,0.009773844,0.01038471,226.3645,-73.00417,15.519955,STD
3509821817000,2.724989,1.30019370135867,9.79425320185923,-0.0963364783798141,-0.005192355,0.014660766,0.007330383,226.37167,-73.01073,15.512632,STD
3509826793000,2.729965,1.30181641245616,9.78938513634352,-0.102827327853032,-0.00580322,0.017104227,0.010079277,226.38022,-73.014015,15.50837,STD
3509831863000,2.735035,1.3081254962886,9.78465709254887,-0.0968253278572103,-0.010995574,0.014966198,0.007330383,226.38882,-73.019295,15.501831,STD
3509837608000,2.74078,1.31851716991217,9.77946114722826,-0.081237803315705,-0.005497787,0.011911872,-0.0009162979,226.39693,-73.026344,15.494589,STD
3509841840000,2.745012,1.31791967301652,9.77914660127673,-0.0778410304296281,-0.009468411,0.006414085,0.016798794,226.41014,-73.02714,15.494835,STD
3509846853000,2.750025,1.31062280934239,9.78157893996352,-0.0802733198448678,0.0070249503,0.008857546,0.010079277,226.42285,-73.03925,15.485839,STD
3509851858000,2.75503,1.3033375903739,9.78400739700071,-0.0827017276891276,0.0021380284,0.011301007,0.0036651916,226.43518,-73.04055,15.4842005,STD
3509856857000,2.760029,1.29606110493464,9.78643294280069,-0.0851272243551525,-0.005497787,0.008246681,0.00030543262,226.44833,-73.04427,15.481719,STD
3509861815000,2.764987,1.29662092726586,9.79124887502952,-0.08619126,-0.0009162979,0.013439035,0.00030543262,226.45825,-73.0495,15.478122,STD
3509866847000,2.770019,1.303449027809,9.79807688050819,-0.08619126,-0.007941248,0.016187929,0.0067195175,226.46947,-73.05157,15.475726,STD
3509871807000,2.774979,1.31017942898031,9.80480718797525,-0.08619126,-0.009468411,0.01160644,-0.0009162979,226.48108,-73.06156,15.466446,STD
3509876852000,2.780024,1.31702516968781,9.81165283337269,-0.08619126,-0.0125227375,0.011301007,0.002443461,226.48984,-73.06586,15.462027,STD
3509881876000,2.785048,1.32792019446496,9.81543688316031,-0.0846110584962068,-0.002443461,0.013744468,0.0036651916,226.50069,-73.07327,15.455513,STD
3509886805000,2.789977,1.34676786289679,9.81308087232981,-0.0798991327779996,0.0009162979,0.011301007,0.007330383,226.51265,-73.077896,15.450997,STD
3509891701000,2.794873,1.36548934486924,9.81074063515672,-0.0752187537322819,-0.0012217305,0.018325957,0.009773844,226.51753,-73.08021,15.449142,STD
3509896772000,2.799944,1.38487999745957,9.80831674980036,-0.0703710817263925,-0.008857546,0.015882496,0.005192355,226.52592,-73.08308,15.446811,STD
3509901773000,2.804945,1.39255435677205,9.80523513095238,-0.0656228090222482,-0.014966198,0.01160644,0.0030543262,226.5324,-73.08583,15.444737,STD
3509907400000,2.810572,1.37152058904176,9.79997656547619,-0.0603643478717799,-0.01282817,0.01282817,0.007941248,226.53778,-73.08791,15.443349,STD
3509911766000,2.814938,1.36105808421354,9.79822450826091,-0.0540063849546366,-0.0015271631,0.02107485,0.01160644,226.53711,-73.08214,15.44986,STD
3509916784000,2.819956,1.36564755822749,9.80281407812052,-0.0402379533282399,0.0021380284,0.014660766,0.004276057,226.54063,-73.07749,15.454942,STD
3509921829000,2.825001,1.36876762125417,9.80450269365888,-0.0301619783885473,-0.008857546,0.01282817,0.0067195175,226.53784,-73.07207,15.459392,STD
3509926871000,2.830043,1.36452677937818,9.79178034516072,-0.0386436674544177,-0.009468411,0.010995574,0.009468411,226.53723,-73.07013,15.462028,STD
3509932772000,2.835944,1.35972059845766,9.77847799685819,-0.0491860437286619,-0.005497787,0.0012217305,0.004581489,226.53802,-73.06715,15.464022,STD
3509936831000,2.840003,1.35787015664302,9.78402924501357,-0.0621391457057171,-0.005497787,0.014660766,0.002443461,226.53235,-73.06234,15.466723,STD
3509941894000,2.845066,1.35556200515066,9.79095360308469,-0.0782962177209502,-0.005192355,0.013744468,0.009162978,226.52473,-73.05577,15.473022,STD
3509946807000,2.849979,1.35332223657828,9.79767281525206,-0.0939746089535869,-0.0033597588,0.014049901,0.008857546,226.5133,-73.0519,15.47609,STD
3509953576000,2.856748,1.35072689627832,9.8068485522856,-0.114723131860841,-0.01863139,0.007941248,0.011911872,226.4999,-73.04285,15.482778,STD
3509956784000,2.859956,1.35694096877023,9.80995565341829,-0.111616095614887,-0.004886922,0.016493361,0.0106901415,226.4825,-73.03873,15.487465,STD
3509961808000,2.86498,1.36667273317152,9.81482163723705,-0.106750213414239,-0.009468411,0.015271631,0.018020526,226.46797,-73.03188,15.494889,STD
3509966785000,2.869957,1.3660303069639,9.81968016514981,-0.101891781194805,-0.0036651916,0.007330383,0.015271631,226.45361,-73.03085,15.498893,STD
3509971838000,2.87501,1.361081787647,9.82462878781061,-0.0969432536103896,-0.0070249503,-0.0027488936,0.009468411,226.4404,-73.027245,15.504035,STD
3509977268000,2.88044,1.35602187963176,9.81803439700806,-0.0646902807721519,-0.0033597588,-0.0030543262,0.014660766,226.42654,-73.021126,15.512999,STD
3509981838000,2.88501,1.35182491223629,9.80964028691983,-0.0311145196962025,-0.008857546,-0.0012217305,0.010995574,226.41574,-73.01752,15.517901,STD
3509986851000,2.890023,1.3536026387683,9.79028580615851,-0.0387906602796567,-0.009773844,-0.007330383,0.013744468,226.40761,-73.0109,15.526248,STD
3509991837000,2.895009,1.35842342875315,9.76618185623423,-0.0677154203240787,-0.007941248,-0.010079277,0.013439035,226.39835,-73.00588,15.532339,STD
3509996803000,2.899975,1.35670094530381,9.76838316492734,-0.0798201107045743,-0.012217305,-0.010079277,0.008246681,226.38452,-72.99826,15.536672,STD
3510001886000,2.905058,1.35195317641666,9.78262676904321,-0.0845678825662733,-0.004886922,-0.007941248,0.013133603,226.37074,-72.989845,15.543618,STD
3510006863000,2.910035,1.35338648655893,9.78444024960583,-0.0770211939396925,-0.009162978,-0.0012217305,0.013133603,226.36003,-72.981766,15.550552,STD
3510011865000,2.915037,1.35810693921955,9.77971969836421,-0.0628598260997241,-0.008552114,0.0009162979,0.011301007,226.35014,-72.974495,15.558221,STD
3510016846000,2.920018,1.35707809469639,9.78074856437356,-0.068774868302844,-0.010995574,-0.003970624,0.009468411,226.34082,-72.96858,15.564064,STD
3510021943000,2.925115,1.35238814950038,9.78543860751345,-0.087534660840123,-0.0076358155,0.00580322,0.017104227,226.32648,-72.96155,15.571331,STD
3510026865000,2.930037,1.33987175912557,9.79011129181495,-0.0826955041708185,-0.003970624,0.004581489,0.015882496,226.31618,-72.95612,15.576113,STD
3510031864000,2.935036,1.32040071766141,9.7949786455516,-0.0583566860754448,-0.012217305,0.01282817,0.020158553,226.29999,-72.94648,15.58375,STD
3510036942000,2.940114,1.30924887215516,9.80123367865624,-0.0631395464422125,-0.015577064,0.0033597588,0.014660766,226.29237,-72.94348,15.587791,STD
3510041913000,2.945085,1.30453817823075,9.80829986710865,-0.0890483822099743,-0.011301007,0.0012217305,0.011301007,226.28015,-72.93887,15.592942,STD
3510047051000,2.950223,1.29966922924995,9.81560344310311,-0.115827621432416,-0.0067195175,0.004276057,0.018936822,226.26436,-72.9346,15.595107,STD
3510051824000,2.954996,1.29514616706907,9.82238817806254,-0.140704481846725,-0.0015271631,0.007941248,0.01985312,226.24956,-72.93359,15.59442,STD
3510056804000,2.959976,1.30263577263418,9.82336225584962,-0.154449757854069,-0.014049901,-0.0018325958,0.0067195175,226.2365,-72.93068,15.593885,STD
3510061831000,2.965003,1.32168799072966,9.81859910185506,-0.15683128760277,-0.013744468,-0.00030543262,0.0033597588,226.21892,-72.92718,15.595727,STD
3510066812000,2.969984,1.34056586984912,9.81387953351472,-0.159191024956715,-0.011911872,0.004886922,0.010079277,226.21025,-72.92979,15.5949745,STD
3510071863000,2.975035,1.35970904741034,9.80909363917883,-0.161583924650507,-0.008857546,0.008552114,0.004276057,226.20227,-72.93661,15.589782,STD
3510076829000,2.980001,1.36043896019782,9.80438884282888,-0.160544607688427,-0.013439035,0.007941248,0.008857546,226.2009,-72.93785,15.589577,STD
3510081879000,2.985051,1.34130430540059,9.79960507922849,-0.155760938994065,-0.0067195175,0.016493361,0.00030543262,226.19646,-72.94558,15.583623,STD
3510086875000,2.990047,1.3311762,9.80031858028594,-0.146737879789049,-0.0106901415,0.009468411,0.015271631,226.19276,-72.93609,15.595457,STD
3510091851000,2.995023,1.3311762,9.80727080047656,-0.132833718648415,-0.004886922,0.01038471,0.01160644,226.1853,-72.93567,15.598873,STD
3510096812000,2.999984,1.3311762,9.81420206341179,-0.118971471176814,-0.003970624,0.0030543262,0.008857546,226.17987,-72.93319,15.603301,STD
3510101865000,3.005037,1.3311762,9.82126186418012,-0.104852153201809,-0.01160644,-0.0012217305,0.004581489,226.1736,-72.9318,15.606018,STD
3510106786000,3.009958,1.33049325286532,9.82512103860278,-0.0930362737497651,-0.0061086523,0.00030543262,0.012217305,226.16463,-72.92826,15.6124115,STD
3510111864000,3.015036,1.32841660283543,9.82304434520454,-0.0847296684259971,-0.0027488936,-0.008552114,0.010079277,226.16061,-72.92732,15.615241,STD
3510116859000,3.020031,1.32637389568708,9.8210015953967,-0.0765588347134683,-0.005192355,-0.0009162979,0.014660766,226.14667,-72.921196,15.620294,STD
3510121897000,3.025069,1.32431360367239,9.81894126035528,-0.0683176614915023,-0.004886922,0.0021380284,0.007330383,226.13736,-72.91956,15.621713,STD
3510126849000,3.030021,1.32228848139038,9.81691609578102,-0.0602171672884106,-0.008857546,-0.008857546,0.0021380284,226.12985,-72.915535,15.625122,STD
3510131861000,3.035033,1.32450095847373,9.80752244576997,-0.0545592791024497,-0.007330383,-0.003970624,0.005192355,226.11691,-72.91202,15.62804,STD
3510136916000,3.040088,1.32890954821965,9.79429686066843,-0.0501506856738002,-0.00030543262,-0.006414085,0.007941248,226.1097,-72.91018,15.629983,STD
3510141872000,3.045044,1.33599835714591,9.77785248429823,-0.0575283533411664,-0.0070249503,-0.006414085,0.0067195175,226.103353811389,-72.909097414884,15.6296928174149,STD
3510146873000,3.050045,1.34622984118778,9.7573890888699,-0.0779913363819697,0.0021380284,0.004276057,0.005497787,226.09695,-72.908005,15.6294,STD
3510151860000,3.055032,1.35174740591505,9.75344190656014,-0.0904440807056372,-0.010995574,0.004276057,0.002443461,226.08815,-72.90439,15.629806,STD
3510156874000,3.060046,1.35413020043668,9.76059043941048,-0.0975924692467249,0.00030543262,0.004886922,0.01160644,226.07559,-72.89937,15.6341715,STD
3510161849000,3.065021,1.35649446105597,9.76768336939262,-0.10468525604208,-0.0030543262,0.0106901415,0.009162978,226.06192,-72.89681,15.635121,STD
3510166862000,3.070034,1.35887678034934,9.77483047652838,-0.11183221889738,-0.013744468,0.010079277,0.008246681,226.04979,-72.892006,15.639186,STD
3510171849000,3.075021,1.36056276832694,9.77857618203022,-0.11164083630983,-0.0125227375,0.013133603,0.0015271631,226.03539,-72.89046,15.640449,STD
3510176869000,3.080041,1.3617308410224,9.77974427911949,-0.105800469173429,-0.007941248,0.009468411,0.014049901,226.02269,-72.883385,15.647066,STD
3510181908000,3.08508,1.36290333471014,9.78091679729336,-0.0999379970618106,-0.014966198,0.009162978,0.013133603,226.01138,-72.88141,15.648173,STD
3510186986000,3.090158,1.36408490306623,9.78209839032509,-0.0940301515800087,-0.015577064,0.0027488936,0.0030543262,226.00304,-72.87991,15.650443,STD
3510191860000,3.095032,1.36521900392633,9.78323251486953,-0.0883596437268575,-0.008246681,-0.008246681,0.0106901415,225.99739,-72.8749,15.656993,STD
3510196870000,3.100042,1.36638474978376,9.78439828507216,-0.0825309107879392,-0.01282817,-0.005192355,0.016798794,225.98999,-72.87154,15.659927,STD
3510201853000,3.105025,1.36754421317848,9.78555777268089,-0.0767335901822246,-0.00580322,-0.002443461,0.007941248,225.98882,-72.8724,15.660984,STD
3510206854000,3.110026,1.36870786488168,9.78672144868555,-0.0709153280210409,0.0009162979,0.0012217305,0.007941248,225.98596,-72.86887,15.666037,STD
3510211860000,3.115032,1.37166414650538,9.78804214250714,-0.0692184039060161,-0.0036651916,-0.0061086523,0.008246681,225.9859,-72.86713,15.66889,STD
3510216864000,3.120036,1.37818683360215,9.78967268231931,-0.0757411131383558,0.00030543262,0.0036651916,0.004581489,225.97993,-72.86817,15.669837,STD
3510221845000,3.125017,1.38467954032258,9.79129572764394,-0.0822338418926092,-0.008857546,-0.00030543262,0.0125227375,225.9767,-72.86161,15.675274,STD
3510226865000,3.130037,1.39122308333333,9.79293148101266,-0.0887774071097046,-0.003970624,0.0030543262,0.007330383,225.96915,-72.86157,15.675278,STD
3510232474000,3.135646,1.39853438467742,9.79475915843201,-0.0960887332656186,-0.013744468,0.006414085,0.009162978,225.96233,-72.855034,15.679555,STD
3510236871000,3.140043,1.40426585053763,9.79619190894243,-0.10182021857629,-0.0061086523,0.00580322,0.005192355,225.9562,-72.854004,15.680656,STD
3510241910000,3.145082,1.40336506733624,9.79486045695626,-0.111983068274293,-0.007330383,-0.0012217305,0.008246681,225.95891,-72.84768,15.684885,STD
3510246872000,3.150044,1.39396078601821,9.79015868454383,-0.126089573720562,-0.0033597588,0.0009162979,0.007941248,225.95934,-72.84485,15.686677,STD
3510251818000,3.15499,1.3806301057903,9.79350208705008,-0.138078749195031,-0.005497787,0.00030543262,0.0018325958,225.97258,-72.84027,15.691779,STD
3510256877000,3.160049,1.361675085759,9.80771815414711,-0.147556264158842,-0.007941248,0.00030543262,0.014049901,225.978947011066,-72.8362390865191,15.6966634288732,STD
3510261758000,3.16493,1.35119854285994,9.81275204670289,-0.150622679605914,-0.004581489,-0.002443461,0.012217305,225.98509,-72.83235,15.701376,STD
3510266983000,3.170155,1.35364818206296,9.80295354104861,-0.143273756881089,-0.0036651916,-0.007330383,0.007941248,226.0022,-72.83422,15.702084,STD
3510271815000,3.174987,1.35591357089147,9.7938920330445,-0.136477585664562,-0.007330383,-0.0018325958,0.0067195175,226.0121,-72.841156,15.698811,STD
3510276848000,3.18002,1.35827319464434,9.78445358731091,-0.129398709478142,-0.004581489,-0.0070249503,0.0067195175,226.020229691665,-72.8448453982494,15.6975464925403,STD
3510281869000,3.185041,1.36400332741442,9.78065106605436,-0.129960797496985,-0.007330383,-0.013439035,0.009162978,226.02834,-72.848526,15.696285,STD
3510286935000,3.190107,1.37750626891177,9.78965274505984,-0.147964733593098,-0.0021380284,-0.0143553335,0.011911872,226.03963,-72.85608,15.693084,STD
3510291779000,3.194951,1.38744802083449,9.79677578003903,-0.163697454684509,-0.013133603,-0.009773844,0.007941248,226.05252,-72.85807,15.691986,STD
3510296865000,3.200037,1.3783954040145,9.79451281488709,-0.170486919662671,-0.00061086525,-0.0125227375,0.007941248,226.0674,-72.86148,15.693117,STD
3510302501000,3.205673,1.36836383728278,9.79200513270142,-0.178010597330174,-0.004886922,0.003970624,0.008552114,226.07884,-72.861725,15.695367,STD
3510306869000,3.210041,1.36058919507481,9.79006163451352,-0.183841581015705,-0.009468411,0.004581489,0.012217305,226.09546,-72.86244,15.699154,STD
3510311825000,3.214997,1.35176796641576,9.78785651156956,-0.19045750481275,-0.0015271631,0.00030543262,0.01038471,226.11226,-72.86125,15.704168,STD
3510316846000,3.220018,1.35429160856245,9.79542036891202,-0.179650700175766,-0.004886922,0.004581489,0.013439035,226.12584,-72.85608,15.711209,STD
3510321827000,3.224999,1.35897562670856,9.80478811174391,-0.165598640846426,-0.010079277,-0.0036651916,0.01038471,226.14447,-72.85371,15.716507,STD
3510326870000,3.230042,1.34825401206845,9.81247641564095,-0.158921519966977,-0.010079277,0.0012217305,0.003970624,226.151699493152,-72.854715776767,15.7175304219734,STD
3510331830000,3.235002,1.33399375148604,9.81960669483638,-0.154168094809367,-0.005497787,-0.0012217305,0.007330383,226.15881,-72.855705,15.718537,STD
3510336882000,3.240054,1.31946898607025,9.82686922921045,-0.149326501281897,-0.0036651916,0.006414085,0.007330383,226.17383,-72.85675,15.720683,STD
3510341772000,3.244944,1.30540997916542,9.83389887946563,-0.144640160753527,-0.004886922,-0.0036651916,0.0076358155,226.19157,-72.857124,15.722927,STD
3510346846000,3.250018,1.2986243429925,9.82773792637189,-0.109258962990525,-0.0061086523,-0.0036651916,0.007941248,226.196801502146,-72.8569042060086,15.7236157553648,STD
3510351791000,3.254963,1.29395031259376,9.81838967035136,-0.0671926601184366,-0.00580322,0.003970624,-0.0015271631,226.2019,-72.85669,15.724287,STD
3510356873000,3.260045,1.3097463582517,9.816227,-0.0612113711487246,-0.010995574,-0.0033597588,0.00580322,226.21883,-72.85124,15.731239,STD
3510361769000,3.264941,1.3307294831883,9.816227,-0.0658742966195614,-0.009468411,-0.0036651916,0.0015271631,226.22827,-72.85731,15.724976,STD
3510366847000,3.270019,1.35249261807966,9.816227,-0.0707105579637015,-0.004886922,0.00030543262,0.007941248,226.22629,-72.85542,15.723038,STD
3510372126000,3.275298,1.37511719253642,9.816227,-0.0757382506844016,0.0015271631,0.006414085,0.011911872,226.22398,-72.85569,15.719205,STD
3510376867000,3.280039,1.37559292445518,9.80582550956983,-0.090483310409513,-0.007941248,0.005192355,0.0030543262,226.22292,-72.856384,15.713723,STD
3510381838000,3.28501,1.37108223886678,9.79229349990525,-0.108526253411787,-0.013439035,0.010079277,0.003970624,226.21777,-72.85466,15.711748,STD
3510386982000,3.290154,1.37275892582929,9.79077228640777,-0.12147280690534,-0.009773844,0.010995574,0.007330383,226.21393,-72.84828,15.716604,STD
3510391836000,3.295008,1.37746010926375,9.79547312621359,-0.130875281771845,-0.008552114,0.0076358155,0.008552114,226.21004,-72.8415,15.720977,STD
3510396864000,3.300036,1.36965421435221,9.79080258417378,-0.146616531062839,-0.00580322,0.0070249503,0.006414085,226.2076,-72.837105,15.725055,STD
3510401868000,3.30504,1.35571255209465,9.78150840147401,-0.165205488479441,-0.014660766,0.0018325958,-0.00030543262,226.20766,-72.83255,15.7283325,STD
3510406868000,3.31004,1.34885363327974,9.78087224095659,-0.162049346792605,-0.011911872,0.002443461,0.013744468,226.20723,-72.82487,15.73754,STD
3510411887000,3.315059,1.34643874385048,9.78570186851889,-0.145145110701367,-0.011911872,0.002443461,0.010079277,226.209216025911,-72.8246078849051,15.7382235155167,STD
3510416825000,3.319997,1.34406282753215,9.79045355230105,-0.128513686549437,-0.004581489,-0.0030543262,0.00580322,226.21117,-72.82435,15.738896,STD
3510421975000,3.325147,1.34158490751608,9.79540923708802,-0.111168236087219,-0.004581489,-0.0033597588,0.0036651916,226.22342,-72.82151,15.743433,STD
3510426873000,3.330045,1.34691394193565,9.797073,-0.103804637922046,-0.007330383,-0.00580322,0.003970624,226.23795,-72.82061,15.74666,STD
3510431922000,3.335094,1.35672984469143,9.797073,-0.101350651727162,-0.011301007,-0.007941248,0.0033597588,226.25238,-72.82034,15.749021,STD
3510436889000,3.340061,1.36638632894336,9.797073,-0.0989365203288672,-0.007330383,-0.004581489,-0.0030543262,226.26051,-72.81795,15.750061,STD
3510441954000,3.345126,1.37623333774868,9.797073,-0.0964747575883069,-0.0033597588,-0.0027488936,0.01160644,226.26886,-72.80982,15.757008,STD
3510446867000,3.350039,1.36949899670002,9.80026011208389,-0.114890352465846,-0.0076358155,0.0033597588,0.011911872,226.27553,-72.807816,15.756955,STD
3510451865000,3.355037,1.35568390728305,9.8048652540889,-0.142520649589956,-0.013133603,-0.003970624,0.013133603,226.28497,-72.802124,15.761661,STD
3510456870000,3.360042,1.34016864341683,9.80810161978163,-0.1474225475851,-0.0067195175,0.009162978,0.007330383,226.28757,-72.79521,15.767394,STD
3510461852000,3.365024,1.32366835590139,9.81045884590682,-0.137993832607579,-0.0106901415,-0.004886922,0.00030543262,226.30028,-72.786736,15.774151,STD
3510466849000,3.370021,1.30711838867645,9.81282316926041,-0.128536729287091,-0.012217305,0.0015271631,0.006414085,226.30559,-72.78219,15.779201,STD
3510471936000,3.375108,1.29027034319451,9.81523007598439,-0.118909295908799,-0.010995574,-0.0015271631,0.009773844,226.31804,-72.780106,15.782274,STD
3510476867000,3.380039,1.27794824540605,9.82958645623395,-0.117593574036752,-0.0070249503,-0.0070249503,0.004886922,226.32927,-72.77878,15.784555,STD
3510481956000,3.385128,1.26831851200356,9.85366091543173,-0.122408470903972,-0.0036651916,-0.0027488936,0.0076358155,226.33798,-72.77469,15.789665,STD
3510486899000,3.390071,1.27191026085881,9.85374874235678,-0.129679648577224,-0.004581489,0.003970624,0.006414085,226.3424,-72.77805,15.784811,STD
3510491878000,3.39505,1.28606373463936,9.83487760819234,-0.13911526984862,-0.0125227375,-0.006414085,0.011911872,226.35022,-72.778435,15.7831955,STD
3510496860000,3.400032,1.30228480716117,9.82109599810048,-0.13894419396144,-0.009773844,-0.004886922,0.00580322,226.35066,-72.79003,15.771698,STD
3510501865000,3.405037,1.32049427966569,9.81199107170671,-0.129839452955646,-0.00061086525,0.0033597588,0.0076358155,226.35164,-72.79773,15.764339,STD
3510506865000,3.410037,1.33017753808922,9.80565131723337,-0.121502501556409,-0.008857546,0.010995574,0.0106901415,226.35504,-72.80193,15.759816,STD
3510511866000,3.415038,1.32775781511646,9.80323154372758,-0.114243326068812,-0.01282817,0.005497787,0.007330383,226.36,-72.808685,15.754291,STD
3510516799000,3.419971,1.32537099379579,9.80084467256101,-0.107082855626838,-0.009162978,0.005497787,0.009773844,226.35909409867,-72.8084621972404,15.7545755019853,STD
3510521940000,3.425112,1.32288353212752,9.79835715894508,-0.0996204638688425,-0.01160644,-0.00030543262,0.005497787,226.35815,-72.80823,15.754872,STD
3510526839000,3.430011,1.32358921175382,9.79309350115687,-0.0977578790782045,-0.00580322,0.0036651916,0.003970624,226.35518,-72.80866,15.754431,STD
3510531852000,3.435024,1.32803238606201,9.78420743091161,-0.102201060809625,-0.01282817,0.002443461,0.008552114,226.3553,-72.806656,15.75559,STD
3510536830000,3.440002,1.33557004443732,9.77938464539917,-0.0994864161622315,-0.0030543262,0.01038471,0.0067195175,226.35207,-72.80893,15.752978,STD
3510541830000,3.445002,1.35092240096185,9.78450220444587,-0.0790165914320829,-0.005497787,0.00580322,0.013133603,226.35242,-72.80568,15.754493,STD
3510546765000,3.449937,1.35433523189189,9.78378267702703,-0.0707518973445946,-0.018936822,0.004581489,0.005192355,226.35118,-72.80553,15.75256,STD
3510551865000,3.455037,1.34019188826255,9.77435358436293,-0.0801807980202703,-0.004581489,0.017104227,0.011911872,226.3465,-72.80279,15.756236,STD
3510557432000,3.460604,1.33336572307996,9.77272213761105,-0.0883807839944719,-0.016187929,0.011301007,0.010079277,226.34183,-72.79488,15.759355,STD
3510561872000,3.465044,1.33756325437315,9.78111737551826,-0.0925783170408687,-0.014049901,0.002443461,0.0061086523,226.33437,-72.78915,15.763296,STD
3510566779000,3.469951,1.34001890157508,9.78823103710186,-0.0979703612677634,-0.01985312,0.005497787,0.0027488936,226.32564,-72.784676,15.764131,STD
3510571974000,3.475146,1.33753120339017,9.79071852747637,-0.105433462576329,-0.0076358155,0.007941248,0.005192355,226.31972,-72.78211,15.765763,STD
3510576755000,3.479927,1.33524175487774,9.79300778473924,-0.112301814329216,-0.013133603,0.004886922,0.009468411,226.31563,-72.77729,15.7676325,STD
3510581923000,3.485095,1.3327669860193,9.79548234686734,-0.119726127623281,-0.013744468,0.004276057,0.009468411,226.31026,-72.77496,15.7687645,STD
3510586806000,3.489978,1.33558214895373,9.79854168032223,-0.114217934773553,-0.0106901415,0.011911872,0.011911872,226.29561,-72.77219,15.7705765,STD
3510591922000,3.495094,1.35002214565281,9.80335511307594,-0.0805245840121819,-0.0067195175,0.010995574,0.015577064,226.28381,-72.76922,15.772976,STD
3510596815000,3.499987,1.35741103446984,9.80914561764706,-0.0624519741873361,-0.013439035,0.007941248,0.01282817,226.27951,-72.768364,15.7731285,STD
3510601846000,3.505018,1.34838501708505,9.81817182352941,-0.0805040202667666,-0.017104227,0.009468411,0.018936822,226.27374,-72.765045,15.776665,STD
3510606831000,3.510003,1.34352004447628,9.82511222262846,-0.0985351183,-0.016187929,0.01038471,0.01740966,226.2669,-72.76108,15.778211,STD
3510611866000,3.515038,1.36257896231225,9.8203473812253,-0.1175941038,-0.0143553335,0.007330383,0.014966198,226.26073,-72.755615,15.781199,STD
3510616837000,3.520009,1.37820904641605,9.81594330856018,-0.133791614188391,-0.003970624,0.0076358155,0.013744468,226.25237,-72.75508,15.78179,STD
3510621869000,3.525041,1.3712682009794,9.8136296370445,-0.131477988574103,-0.0036651916,0.013744468,0.0033597588,226.24374,-72.75671,15.778949,STD
3510627518000,3.53069,1.36347630195881,9.81103227408901,-0.128880677148207,-0.01038471,0.013133603,0.0143553335,226.2406,-72.75103,15.786555,STD
3510631874000,3.535046,1.35746789124298,9.80902942171972,-0.126877864513899,-0.024740042,0.00061086525,0.0076358155,226.2403,-72.75188,15.786351,STD
3510637254000,3.540426,1.3506097292538,9.80646338569392,-0.124405179826521,-0.015271631,0.005192355,0.008552114,226.23422,-72.75106,15.789834,STD
3510641880000,3.545052,1.35692657182985,9.80225227457224,-0.122299556106939,-0.019242255,0.010079277,0.008857546,226.23204,-72.74905,15.791622,STD
3510646766000,3.549938,1.36359844663023,9.79780448189164,-0.120075587777091,-0.013744468,0.0067195175,0.0125227375,226.2291,-72.75015,15.791877,STD
3510651872000,3.555044,1.37057073331274,9.79315642019962,-0.117751481700095,-0.010079277,0.01038471,0.0143553335,226.22276,-72.750984,15.791291,STD
3510656773000,3.559945,1.37726309074144,9.78869497281369,-0.115520685796578,-0.0143553335,0.011301007,0.009468411,226.21841,-72.75234,15.790032,STD
3510661857000,3.565029,1.35436586791475,9.79808011076351,-0.111393927296901,-0.015271631,0.005192355,0.014660766,226.21472,-72.751335,15.792269,STD
3510666821000,3.569993,1.32183344539056,9.81202240424284,-0.106746431432203,-0.015271631,0.005497787,0.008552114,226.20955,-72.75419,15.789645,STD
3510671924000,3.575096,1.31369786636267,9.81120127088387,-0.112045948949258,-0.01740966,0.014049901,0.02076942,226.20758,-72.745995,15.797691,STD
3510676802000,3.579974,1.31596407526923,9.80440273881828,-0.121110789308237,-0.023518313,0.009773844,0.015577064,226.21014,-72.743614,15.799414,STD
3510681844000,3.585016,1.31830647488115,9.79737563781896,-0.130480392647715,-0.02076942,0.007941248,0.011911872,226.21268,-72.746735,15.795476,STD
3510686925000,3.590097,1.32066699301446,9.79029418201223,-0.139922470110604,-0.01985312,0.008857546,0.015271631,226.21553,-72.748405,15.792212,STD
3510691964000,3.595136,1.32452989983348,9.78456643896654,-0.142186850083262,-0.021991149,0.011911872,0.02076942,226.21825,-72.75035,15.788626,STD
3510697212000,3.600384,1.32960221616794,9.77949401670283,-0.139650691916032,-0.025045475,0.010079277,0.008246681,226.22261,-72.75608,15.781112,STD
3510701864000,3.605036,1.3340984843821,9.77499765458949,-0.137402557808952,-0.019547688,0.013439035,0.014660766,226.22954,-72.75496,15.782978,STD
3510706872000,3.610044,1.33893883503053,9.77015720285613,-0.134982382484735,-0.015577064,0.017104227,0.009773844,226.23766,-72.7595,15.778231,STD
3510711861000,3.615033,1.33638711275941,9.77561947873431,-0.14135178329313,-0.014966198,0.009773844,0.011911872,226.24739,-72.76069,15.777629,STD
3510716817000,3.619989,1.32943424091997,9.78720759846672,-0.152939910285659,-0.01282817,0.011911872,0.0018325958,226.25375,-72.76691,15.771793,STD
3510721927000,3.625099,1.3222653193906,9.79915580101567,-0.164888120320328,-0.013744468,0.007941248,0.0015271631,226.2637,-72.767006,15.772274,STD
3510726872000,3.630044,1.31532787967186,9.8107182005469,-0.176450527095561,-0.010995574,0.008246681,0.0070249503,226.27174,-72.768814,15.771392,STD
3510731852000,3.635024,1.32199364382502,9.80874882124789,-0.179466566440829,-0.019242255,0.013744468,0.014660766,226.2792,-72.77427,15.7668295,STD
3510736875000,3.640047,1.34108074486658,9.79443369477234,-0.174694786197798,-0.016493361,0.010995574,0.0125227375,226.28903,-72.78221,15.761478,STD
3510741849000,3.645021,1.35632886806748,9.78869671589228,-0.166383435645655,-0.016187929,0.006414085,0.0067195175,226.29951,-72.79331,15.753554,STD
3510746878000,3.65005,1.36820655047351,9.79107205889316,-0.154505720992897,-0.018020526,-0.0015271631,0.0070249503,226.3115,-72.80316,15.747182,STD
3510751862000,3.655034,1.37997795017757,9.79342614708494,-0.14273428933067,-0.021685716,0.003970624,0.0030543262,226.31796,-72.80911,15.743606,STD
3510756875000,3.660047,1.39181784317846,9.79579393282036,-0.130894364185657,-0.0125227375,0.009773844,0.0070249503,226.32622,-72.81399,15.742728,STD
3510761861000,3.665033,1.39679431480807,9.79920212225114,-0.121659717392973,-0.021685716,0.009162978,0.008552114,226.33485,-72.81791,15.740167,STD
3510766966000,3.670138,1.39361347134678,9.80397348708523,-0.115298025488289,-0.01863139,0.014966198,0.013133603,226.33954,-72.82225,15.7392645,STD
3510771878000,3.67505,1.39055288308393,9.80856446535459,-0.109176844168835,-0.014966198,0.019242255,0.012217305,226.34334,-72.820595,15.741714,STD
3510776870000,3.680042,1.3874424481067,9.81323021525699,-0.10295596934255,-0.02443461,0.01863139,0.014049901,226.34657,-72.81594,15.746139,STD
3510781864000,3.685036,1.38433076696161,9.81789783445023,-0.0967326021785947,-0.01740966,0.025045475,0.014660766,226.35355,-72.81126,15.751617,STD
3510786963000,3.690135,1.3811536620039,9.82266359141184,-0.0903783872869226,-0.029626964,0.015271631,0.0106901415,226.36545,-72.8042,15.756782,STD
3510791832000,3.695004,1.37136993342912,9.8211897940613,-0.0877292971685824,-0.018936822,0.012217305,0.015271631,226.37305,-72.79826,15.763974,STD
3510796876000,3.700048,1.34566469805236,9.80576629853129,-0.0928703571277139,-0.01740966,0.01038471,0.010995574,226.38351,-72.79343,15.767726,STD
3510801810000,3.704982,1.33444762504411,9.79969020015683,-0.0951137773514997,-0.0143553335,0.01282817,0.014049901,226.38377,-72.78521,15.773993,STD
3510806891000,3.710063,1.34239698451284,9.80604983382343,-0.0935239014734366,-0.021685716,0.009468411,0.007330383,226.38678,-72.779854,15.776415,STD
3510811762000,3.714934,1.35001779340325,9.81214662098935,-0.0919997358757106,-0.021380283,0.004276057,0.01038471,226.38805,-72.776665,15.7780905,STD
3510816865000,3.720037,1.35800157245638,9.81853379095602,-0.090402976063517,-0.014660766,0.011301007,0.008246681,226.38708,-72.77655,15.776079,STD
3510821781000,3.724953,1.36569278504215,9.82468690237208,-0.0888647296914331,-0.02076942,0.006414085,0.011301007,226.38838,-72.77527,15.775248,STD
3510826841000,3.730013,1.37360928945305,9.83102025138862,-0.0872814248414037,-0.016187929,0.022296581,0.01038471,226.3817,-72.77751,15.77177,STD
3510831797000,3.734969,1.3764281029873,9.82880097311426,-0.084875253798357,-0.018020526,0.01038471,0.008246681,226.38461,-72.77787,15.769976,STD
3510836843000,3.740015,1.36740564583645,9.80624471247199,-0.08036399884354,-0.017104227,0.0070249503,0.014660766,226.38008,-72.77705,15.769534,STD
3510841790000,3.744962,1.36067654772582,9.78903684721332,-0.0796942469935938,-0.017104227,0.007330383,0.009773844,226.37894,-72.77494,15.770063,STD
3510846981000,3.750153,1.36598438125133,9.79965218172112,-0.100925595505872,-0.014660766,0.009468411,0.017715093,226.37756,-72.76829,15.77602,STD
3510851802000,3.754974,1.36817372813294,9.8014113398827,-0.113612008132942,-0.0143553335,0.02321288,0.018020526,226.3721,-72.76389,15.777868,STD
3510856747000,3.759919,1.36354447339198,9.78289441759531,-0.108982753391984,-0.020463986,0.009468411,0.010079277,226.3742,-72.75928,15.780404,STD
3510861739000,3.764911,1.35884677002201,9.77258229777867,-0.107464541062638,-0.020158553,0.016187929,0.0106901415,226.36668,-72.75423,15.785041,STD
3510866764000,3.769936,1.35403153888333,9.79184312177306,-0.117095008368021,-0.015882496,0.01985312,0.01740966,226.36421,-72.7495,15.789683,STD
3510871751000,3.774923,1.35674030390074,9.80558155851117,-0.123430069708189,-0.0290161,0.016187929,0.018020526,226.36128,-72.74394,15.792548,STD
3510876749000,3.779921,1.38524537373697,9.80083060605459,-0.1186792115067,-0.022602014,0.018020526,0.01863139,226.35547,-72.73946,15.7968855,STD
3510882080000,3.785252,1.40715874020298,9.79770477299057,-0.114289920202978,-0.01985312,0.014660766,0.015271631,226.35333,-72.736664,15.79871,STD
3510886780000,3.789952,1.40500397166451,9.7998595865288,-0.112135151664512,-0.025350908,0.015271631,0.016493361,226.34937,-72.732376,15.801732,STD
3510891747000,3.794919,1.40272679393461,9.80213681181483,-0.109857973934607,-0.02076942,0.013744468,0.013744468,226.35454,-72.72808,15.806949,STD
3510896748000,3.79992,1.4004340285174,9.80442962511369,-0.107565208517402,-0.013744468,0.01038471,0.011301007,226.35999,-72.72319,15.812508,STD
3510901968000,3.80514,1.39747754879193,9.80076078264859,-0.106449107580793,-0.017715093,0.008857546,0.009162978,226.36514,-72.72061,15.81551,STD
3510906825000,3.809997,1.38799349993883,9.72488829279233,-0.120675190763584,-0.017715093,0.009773844,0.01160644,226.37039,-72.718735,15.819114,STD
3510911791000,3.814963,1.37893636839044,9.65515327095794,-0.133085436012292,-0.013133603,0.015271631,0.010995574,226.3795,-72.720406,15.818702,STD
3510916772000,3.819944,1.3773601352774,9.67722089663946,-0.120475429560189,-0.027183503,0.009773844,0.01160644,226.39128,-72.71897,15.819709,STD
3510922039000,3.825211,1.37569339771338,9.70055560542577,-0.107141379372832,-0.013439035,0.01740966,0.016187929,226.3991,-72.719284,15.822984,STD
3510926775000,3.829947,1.37419469463702,9.72153779278327,-0.0951516201764531,-0.015271631,0.0106901415,0.01160644,226.41293,-72.71849,15.824508,STD
3510931961000,3.835133,1.37255358945247,9.74451364236857,-0.0820226313267026,-0.013744468,0.018020526,0.0106901415,226.41418,-72.71382,15.830459,STD
3510936810000,3.839982,1.37101912762449,9.76599646046327,-0.0697467989062552,-0.0076358155,0.017715093,0.01038471,226.41977,-72.71059,15.835692,STD
3510942020000,3.845192,1.36932449144318,9.78765589528236,-0.0582553834478271,-0.020463986,0.020158553,0.01038471,226.4224,-72.7056,15.840314,STD
3510946772000,3.849944,1.36720927166163,9.78977093836858,-0.0688314911903323,-0.020158553,0.0143553335,0.014049901,226.42737,-72.70196,15.846109,STD
3510952538000,3.85571,1.36464269816407,9.79233729746688,-0.0816643693980944,-0.017715093,0.007941248,0.01038471,226.41852,-72.700874,15.844693,STD
3510956830000,3.860002,1.36273223450616,9.79424760153381,-0.0912166956672089,-0.009162978,0.01282817,0.0125227375,226.40785,-72.69812,15.845721,STD
3510961814000,3.864986,1.36051374641878,9.79646590429933,-0.102309145370207,-0.021991149,0.0036651916,0.009773844,226.40363,-72.695526,15.845015,STD
3510966802000,3.869974,1.36668381968366,9.7869072589338,-0.101956246804921,-0.018325957,0.004886922,0.013439035,226.39471,-72.69357,15.846171,STD
3510971922000,3.875094,1.37625869958992,9.77254506404999,-0.0971687738582308,-0.01038471,0.005192355,0.015271631,226.38904,-72.69191,15.846364,STD
3510976833000,3.880005,1.37293234451631,9.76527904227597,-0.0927041689820022,-0.016187929,0.008552114,0.0076358155,226.38544,-72.69362,15.843868,STD
3510981827000,3.884999,1.36396603602362,9.76079577099738,-0.0882209894566929,-0.0021380284,0.013744468,0.016493361,226.38058,-72.69363,15.84651,STD
3510986851000,3.890023,1.35166253569426,9.76151407882438,-0.0971833543493613,-0.010079277,0.009162978,0.005497787,226.38043,-72.692444,15.845977,STD
3510991832000,3.895004,1.33680054354554,9.76646817966559,-0.11699935939973,-0.016798794,0.0033597588,0.004581489,226.3785,-72.68812,15.850575,STD
3510996830000,3.900002,1.33410935411255,9.77127621536797,-0.106899553073593,-0.008552114,0.002443461,0.008857546,226.37534,-72.68736,15.851624,STD
3511001806000,3.904978,1.33879787800079,9.77596483717041,-0.0787683901613538,-0.015271631,0.005192355,0.0125227375,226.37288,-72.68457,15.852302,STD
3511006839000,3.910011,1.338598274633,9.77576522963414,-0.0584187417821556,-0.017715093,0.0030543262,0.004886922,226.3779,-72.69025,15.84757,STD
3511012025000,3.915197,1.33482058506123,9.77198746116985,-0.0433079716612155,-0.0067195175,-0.003970624,-0.00061086525,226.38329,-72.69509,15.844614,STD
3511017353000,3.920525,1.33150837289221,9.7696716846318,-0.0277339006296692,-0.009773844,-0.00061086525,-0.00061086525,226.381579033742,-72.6939101993865,15.8439257829755,STD
3511022457000,3.925629,1.33672502040555,9.79053816574173,-0.0120839471953042,-0.016493361,0.0070249503,0.0076358155,226.37994,-72.69278,15.8432665,STD
3511026813000,3.929985,1.34153504879969,9.80743206513184,-0.00195512330578512,-0.013133603,0.0070249503,0.010079277,226.38228,-72.6961,15.839442,STD
3511031860000,3.935032,1.35104589287682,9.81694310783156,-0.0257322493884297,-0.014049901,0.01038471,0.01038471,226.3769,-72.69666,15.834898,STD
3511037022000,3.940194,1.35971770038163,9.82561509643669,-0.0484507312890528,-0.01740966,0.009773844,0.0076358155,226.37099,-72.696465,15.830244,STD
3511041826000,3.944998,1.3577449313237,9.82364228617984,-0.0543690429947258,-0.02321288,0.0125227375,0.014660766,226.36278,-72.693275,15.828258,STD
3511046836000,3.950008,1.35568756808885,9.82158487997942,-0.0605411374254963,-0.019242255,0.018325957,0.013439035,226.35867,-72.69174,15.826921,STD
3511051789000,3.954961,1.35365361198062,9.81955088139445,-0.0666430104226234,-0.010995574,0.019242255,0.0143553335,226.35492,-72.68776,15.828205,STD
3511056793000,3.959965,1.35159871265383,9.81749593915355,-0.0728077131235367,-0.016493361,0.005192355,0.013439035,226.35405,-72.68358,15.828893,STD
3511061709000,3.964881,1.35384906681425,9.81446732984504,-0.0757346369289595,-0.014966198,0.01160644,0.015882496,226.3468,-72.68012,15.829991,STD
3511066766000,3.969938,1.36359547003421,9.80959402646408,-0.0732980351062588,-0.013439035,0.008857546,0.017104227,226.34648,-72.67668,15.831273,STD
3511071739000,3.974911,1.37317997927148,9.80480167176494,-0.070901906796136,-0.015271631,0.0012217305,0.014966198,226.34749,-72.67513,15.831637,STD
3511076763000,3.979935,1.38286278128396,9.79996016965184,-0.0684812052819481,-0.021991149,-0.005497787,0.016493361,226.34886,-72.67196,15.833421,STD
3511081744000,3.984916,1.3895329678324,9.79617709765754,-0.071517538747231,-0.023823744,-0.0106901415,0.013133603,226.34268,-72.67159,15.833121,STD
3511086785000,3.989957,1.39180831989442,9.79390191191026,-0.0828944249813829,-0.007330383,0.002443461,0.01863139,226.33278,-72.66991,15.83531,STD
3511092027000,3.995199,1.39417439716265,9.79153600758825,-0.0947249422675213,-0.01985312,0.0012217305,0.011301007,226.3301,-72.66456,15.837938,STD
3511096796000,3.999968,1.39632697680633,9.78938358528539,-0.105487959615403,-0.008552114,-0.00580322,0.013133603,226.32484,-72.66015,15.844316,STD
3511102113000,4.005285,1.39657513904996,9.78804314325843,-0.113283112206059,-0.009468411,-0.004581489,0.009162978,226.31934,-72.65883,15.844786,STD
3511107028000,4.0102,1.38949200178571,9.790404,-0.106199945357143,-0.0125227375,-0.0018325958,0.013744468,226.31514,-72.65587,15.848349,STD
3511111715000,4.014887,1.38273744138744,9.79265533988764,-0.0994453567465891,-0.017104227,0.0012217305,0.016798794,226.31297,-72.655815,15.851069,STD
3511116753000,4.019925,1.37547704555076,9.79507527808989,-0.0921849305848716,-0.021380283,0.0125227375,0.011301007,226.30774,-72.6565,15.852204,STD
3511121809000,4.024981,1.36664203629548,9.79612595788313,-0.0880855044476296,-0.015577064,0.008857546,0.01160644,226.31001,-72.65692,15.855058,STD
3511126713000,4.029885,1.35110798099228,9.79094837199559,-0.0984415521300992,-0.01160644,0.0021380284,0.012217305,226.31006,-72.65799,15.856122,STD
3511131731000,4.034903,1.3391105384193,9.78585450411845,-0.0987750285320651,-0.020158553,0.00061086525,0.0061086523,226.30656,-72.65869,15.854204,STD
