timestamp,rel_time,acc_x,acc_y,acc_z,gyro_x,gyro_y,gyro_z,azimuth,pitch,roll,label
3568575290000,0,-2.05900983553374,9.65102432976922,-0.842161614675436,0.007330383,-0.06780604,0.0021380284,281.59235,-95.03015,-3.6387885,STD
3568580252000,0.004962,-2.06270847684951,9.65379831679055,-0.841005790772883,-0.0015271631,-0.059253927,-0.0036651916,281.63342,-95.091896,-3.6635897,STD
3568585316000,0.010026,-2.06648314827697,9.65662932651969,-0.839826207491438,-0.0015271631,-0.055283304,-0.0067195175,281.6756,-95.15318,-3.6875672,STD
3568590321000,0.015031,-2.07021384150257,9.65942735252568,-0.838660367380137,0.002443461,-0.06291912,-0.013439035,281.7183,-95.214615,-3.7139692,STD
3568595259000,0.019969,-2.07389459338029,9.66218792243929,-0.837510133919676,-0.013744468,-0.07238753,-0.004886922,281.76044,-95.26863,-3.736475,STD
3568600305000,0.025015,-2.07765584772922,9.66500886933764,-0.836334743469801,-0.015577064,-0.08735373,-0.004276057,281.80582,-95.32842,-3.7630308,STD
3568605260000,0.02997,-2.08134927129222,9.66777894303588,-0.835180550112858,-0.008246681,-0.10903945,0.006414085,281.8559,-95.38226,-3.7842338,STD
3568610306000,0.035016,-2.08511052564115,9.67059988993423,-0.834005159662983,-0.006414085,-0.122783914,0.01282817,281.90753,-95.43465,-3.8063028,STD
3568615247000,0.039957,-2.08275633670467,9.6727098043927,-0.830553567337835,-0.0021380284,-0.13744467,0.018020526,281.9654,-95.4865,-3.8258803,STD
3568620288000,0.044998,-2.06489922685258,9.67319243858562,-0.821142390313708,0.0021380284,-0.15485434,0.03634648,282.02783,-95.534294,-3.8400447,STD
3568625257000,0.049967,-2.04729716796445,9.67366817937208,-0.811865632005259,0.010995574,-0.18142697,0.04550946,282.1101,-95.58075,-3.8595088,STD
3568630250000,0.05496,-2.02961009208833,9.6741462179607,-0.80254406745825,0.008552114,-0.21319197,0.034208454,282.1979,-95.62584,-3.8798993,STD
3568635285000,0.059995,-2.01177423648324,9.67462827770308,-0.793144091993762,0.011301007,-0.22296582,0.030543262,282.28635,-95.670265,-3.8955307,STD
3568640299000,0.065009,-1.99401277074263,9.67510832686857,-0.783783321988013,0.0012217305,-0.25167647,0.029626964,282.38797,-95.71294,-3.9144804,STD
3568645254000,0.069964,-1.9764603050975,9.67558272727046,-0.774532700652058,-0.0027488936,-0.2864958,0.029932396,282.49292,-95.75764,-3.934293,STD
3568650277000,0.074987,-1.95866695798639,9.67606363811176,-0.76515512830685,-0.017715093,-0.2947425,0.023823744,282.597,-95.799194,-3.9561336,STD
3568655298000,0.080008,-1.94088069562429,9.67654435746955,-0.755781289814855,-0.020158553,-0.30207285,0.022296581,282.70935,-95.84149,-3.9772074,STD
3568660259000,0.084969,-1.92330697573216,9.67701933232197,-0.746519466919259,-0.02565634,-0.3005457,0.02107485,282.81992,-95.88106,-3.9997582,STD
3568665249000,0.089959,-1.90563052697954,9.67749708368531,-0.73720350315207,-0.021685716,-0.2843578,0.027794369,282.92697,-95.92079,-4.0201693,STD
3568670245000,0.094955,-1.88793282397993,9.6779754094992,-0.727876337825242,-0.040317107,-0.2770274,0.021380283,283.0343,-95.95735,-4.044664,STD
3568675253000,0.099963,-1.87019261248632,9.67845488421416,-0.718526769379133,-0.029932396,-0.26358834,0.019242255,283.13403,-95.99864,-4.065443,STD
3568680255000,0.104965,-1.8524736552397,9.67893378447858,-0.709188402492665,-0.0290161,-0.26053402,0.01863139,283.23315,-96.03491,-4.0874977,STD
3568685321000,0.110031,-1.83452798602512,9.6794188122154,-0.69973055230337,-0.025350908,-0.24556783,0.019242255,283.32367,-96.073975,-4.109078,STD
3568690358000,0.115068,-1.81668504567103,9.67990106344129,-0.690326842985669,-0.02107485,-0.25625798,0.0106901415,283.4192,-96.115105,-4.1337786,STD
3568695288000,0.119998,-1.79922113938838,9.68037307029926,-0.68112289481488,-0.01038471,-0.25411993,0.019547688,283.50598,-96.15468,-4.1525493,STD
3568700300000,0.12501,-1.78146675839677,9.68085292798125,-0.671765858662345,-0.007330383,-0.2415972,0.023518313,283.59137,-96.195885,-4.1749277,STD
3568705282000,0.129992,-1.76381864864015,9.68132991341054,-0.662464830308009,-0.002443461,-0.23396139,0.020463986,283.67645,-96.23915,-4.1966987,STD
3568710262000,0.134972,-1.74617762363253,9.68180670735633,-0.653167535806887,-0.004886922,-0.2312125,0.03145956,283.7587,-96.27779,-4.2130456,STD
3568715249000,0.139959,-1.72851180200341,9.68228417149441,-0.643857172819518,-0.00061086525,-0.22510384,0.03390302,283.83652,-96.32082,-4.232322,STD
3568720285000,0.144995,-1.71067240402381,9.68276632697854,-0.634455330428424,-0.003970624,-0.19914207,0.02107485,283.90677,-96.362305,-4.252251,STD
3568725911000,0.150621,-1.6907430050895,9.68330497009882,-0.623952001339405,-0.003970624,-0.17654006,0.022907447,283.97568,-96.401886,-4.267209,STD
3568730262000,0.154972,-1.67533013364208,9.68372154247997,-0.615829003673866,-0.0033597588,-0.1591304,0.015882496,284.03735,-96.444664,-4.2877336,STD
3568735410000,0.16012,-1.65709398971853,9.68421442104079,-0.606218065502827,-0.0061086523,-0.1432479,0.016187929,284.09253,-96.48459,-4.305031,STD
3568740300000,0.16501,-1.63977177841587,9.68468259822852,-0.597088794396303,-0.005192355,-0.13775012,0.012217305,284.14484,-96.52712,-4.3252106,STD
3568745292000,0.170002,-1.62208824491425,9.68516054107538,-0.587769096775901,-0.0076358155,-0.12583824,0.004886922,284.19016,-96.56844,-4.345555,STD
3568750290000,0.175,-1.60438345716564,9.68563905837278,-0.578438197595859,-0.008552114,-0.11575896,-0.0021380284,284.23386,-96.61048,-4.366659,STD
3568755294000,0.180004,-1.58665741517002,9.68611815012071,-0.569096096856177,-0.008246681,-0.0983493,0.01038471,284.27194,-96.64938,-4.3835344,STD
3568760263000,0.184973,-1.5690553562819,9.68659389090718,-0.559819338547728,-0.019547688,-0.093767814,0.010079277,284.30994,-96.68874,-4.4058423,STD
3568765324000,0.190034,-1.55112739893981,9.68707843993522,-0.550370822991468,-0.009468411,-0.087964594,0.004276057,284.34253,-96.730896,-4.4254727,STD
3568770353000,0.195063,-1.53331279758171,9.68755992522706,-0.54098204908662,-0.008857546,-0.093767814,0.0106901415,284.37714,-96.765816,-4.4416795,STD
3568775297000,0.200007,-1.51579929805607,9.68803327246962,-0.531751963943337,0.00061086525,-0.0870483,0.014966198,284.40607,-96.805756,-4.45945,STD
3568780293000,0.205003,-1.49810159505646,9.68851159828351,-0.522424798616508,0.004276057,-0.08307768,0.015577064,284.43726,-96.84352,-4.476464,STD
3568785291000,0.210001,-1.48039680730784,9.6889901155809,-0.513093899436466,-0.0021380284,-0.09437868,0.010995574,284.47067,-96.880775,-4.493828,STD
3568790296000,0.215006,-1.46266722293773,9.6894693030706,-0.503749931770178,-0.005192355,-0.08399397,0.008857546,284.4966,-96.91843,-4.509526,STD
3568795938000,0.220648,-1.44268114601143,9.69000947805897,-0.493216731855453,0.0009162979,-0.086132,0.0021380284,284.52887,-96.95786,-4.5282974,STD
3568800312000,0.225022,-1.42718679995051,9.69042825250051,-0.485050794877961,-0.014049901,-0.08368854,0.0036651916,284.55682,-96.99038,-4.5447426,STD
3568805241000,0.229951,-1.40972643604237,9.69090016361673,-0.475848713633778,-0.016798794,-0.087964594,0.003970624,284.58688,-97.02777,-4.563449,STD
3568810256000,0.234966,-1.39196142792726,9.69138030852399,-0.466486076701423,-0.03176499,-0.08460484,-0.00061086525,284.61374,-97.05937,-4.58263,STD
3568815241000,0.239951,-1.39094275830724,9.68908835718319,-0.467608497839142,-0.03481932,-0.0852157,-0.00061086525,284.629285105979,-97.07462104979,-4.59071225894821,STD
3568820258000,0.244968,-1.43533240590771,9.67922379648925,-0.497201579930709,-0.036957346,-0.09193522,0.005497787,284.64493,-97.08997,-4.5988464,STD
3568825205000,0.249915,-1.47910270422933,9.66949687168301,-0.526381762730586,-0.021991149,-0.09437868,0.0021380284,284.67313,-97.12388,-4.618584,STD
3568830298000,0.255008,-1.5241647881897,9.65948287773957,-0.556423135481702,-0.031154128,-0.089491755,0.007330383,284.69064,-97.07269,-4.5681076,STD
3568835259000,0.259969,-1.57412490634459,9.66563455878929,-0.604269741152503,-0.03481932,-0.09285152,0.007330383,284.72168,-97.0237,-4.5162277,STD
3568840301000,0.265011,-1.63502143690338,9.69842516763679,-0.683903650679084,-0.03023783,-0.08277224,0.010079277,284.74625,-96.97507,-4.463938,STD
3568845205000,0.269915,-1.68305737919812,9.7176124688756,-0.750223231473385,-0.022296581,-0.0720821,0.013744468,284.79333,-96.938736,-4.417456,STD
3568850302000,0.275012,-1.70698295002451,9.70804204068229,-0.7932892889403,-0.029321533,-0.08307768,0.013133603,284.8419,-96.90228,-4.373932,STD
3568855232000,0.279942,-1.72006086543324,9.70067766331462,-0.842427048556505,-0.030543262,-0.077579886,0.01863139,284.90808,-96.88394,-4.341007,STD
3568860247000,0.284957,-1.70599369862826,9.69833333136441,-0.912762941336588,-0.026267206,-0.076358154,0.024740042,284.97684,-96.866646,-4.3099976,STD
3568865451000,0.290161,-1.69139638336344,9.69590064871857,-0.985749578630217,-0.032375857,-0.07727446,0.01985312,285.0643,-96.855965,-4.290055,STD
3568870301000,0.295011,-1.67779204457896,9.69363344832805,-1.05377132937466,-0.033292156,-0.074830994,0.022907447,285.14914,-96.84594,-4.2670894,STD
3568875251000,0.299961,-1.66553171743921,9.69006360009926,-1.12673058604467,-0.040317107,-0.08460484,0.023518313,285.24646,-96.832985,-4.248337,STD
3568880292000,0.305002,-1.66073999051117,9.68047994610422,-1.2177734977469,-0.03268129,-0.09010262,0.027183503,285.34055,-96.823006,-4.2285533,STD
3568885299000,0.310009,-1.65517499673741,9.67338131426021,-1.30980124585482,-0.025045475,-0.090713486,0.022602014,285.45752,-96.83457,-4.2167735,STD
3568890297000,0.315007,-1.64568172099365,9.67812802647759,-1.40948012074574,-0.02687807,-0.086132,0.012217305,285.57278,-96.846756,-4.20644,STD
3568895280000,0.31999,-1.63546743094107,9.68287417143435,-1.49542611270595,-0.030543262,-0.083383106,0.020158553,285.7091,-96.87127,-4.1981587,STD
3568900311000,0.325021,-1.62085683330638,9.68774447235419,-1.50516651112908,-0.03940081,-0.07941248,0.01160644,285.84116,-96.89919,-4.1979175,STD
3568905258000,0.329968,-1.60373144889054,9.69025123804661,-1.51091880336088,-0.03634648,-0.06505715,0.0106901415,285.99307,-96.93673,-4.190743,STD
3568910244000,0.334954,-1.57269914223378,9.68138466632625,-1.49761922352614,-0.044593163,-0.06719518,0.0067195175,286.14636,-96.97188,-4.187799,STD
3568915579000,0.340289,-1.53962657272913,9.67145530585106,-1.48291205757979,-0.05009095,-0.062308256,0.006414085,286.30566,-97.005806,-4.1864896,STD
3568920252000,0.344962,-1.51215979153028,9.65772215425532,-1.46460098164894,-0.054061573,-0.058948494,0.007941248,286.46414,-97.03864,-4.186334,STD
3568925403000,0.350113,-1.48252010626243,9.64510159145129,-1.44327055119284,-0.05467244,-0.052839845,0.0076358155,286.62103,-97.0661,-4.1862955,STD
3568930318000,0.355028,-1.46092511157669,9.65949820446551,-1.41087796520875,-0.046120327,-0.032070424,0.00061086525,286.77106,-97.0957,-4.1876035,STD
3568935467000,0.360177,-1.4383019930341,9.67458023099862,-1.3769431889662,-0.045814894,-0.03145956,0.0061086523,286.93338,-97.112366,-4.18269,STD
3568940253000,0.364963,-1.41126521915388,9.68411192347745,-1.35206706980939,-0.0421497,-0.029626964,0.009773844,287.0879,-97.13333,-4.180012,STD
3568945249000,0.369959,-1.37567562900976,9.68856070934449,-1.33427229796374,-0.04428773,-0.017715093,0.00580322,287.2379,-97.15351,-4.1780367,STD
3568950252000,0.374962,-1.34761637333333,9.687658775,-1.3121023925,-0.038789943,-0.008246681,0.0106901415,287.39038,-97.1613,-4.167675,STD
3568955302000,0.380012,-1.33813346352941,9.6734341132353,-1.27891215867647,-0.03390302,-0.004276057,0.010995574,287.53967,-97.17016,-4.1600056,STD
3568960262000,0.384972,-1.33787642237708,9.66031798940796,-1.23982116599398,-0.026267206,0.004581489,0.015882496,287.69385,-97.1687,-4.1438417,STD
3568965389000,0.390099,-1.36524856590478,9.64936945211283,-1.17960226730962,-0.028099801,0.013133603,0.01282817,287.84567,-97.16786,-4.130308,STD
3568970373000,0.395083,-1.38585571563055,9.63931449496744,-1.11750390340438,-0.025045475,0.016493361,0.011911872,287.99875,-97.16134,-4.1143584,STD
3568975258000,0.399968,-1.39970493647128,9.63008148825735,-1.05287415794356,-0.018325957,0.030848695,0.008246681,288.14526,-97.15664,-4.100016,STD
3568980256000,0.404966,-1.41980093064186,9.6186858787377,-0.98711718970488,-0.02443461,0.032986723,0.015577064,288.28613,-97.14366,-4.08716,STD
3568985299000,0.410009,-1.44802488298432,9.60457412359988,-0.921261366397195,-0.028405234,0.032986723,0.013439035,288.42255,-97.13536,-4.0780907,STD
3568990251000,0.414961,-1.47054860283353,9.59949235792995,-0.838688558894136,-0.030543262,0.033292156,0.007330383,288.54877,-97.11785,-4.0703955,STD
3568995259000,0.419969,-1.4847046283353,9.60892941263282,-0.725440305608028,-0.02321288,0.037873644,0.008552114,288.6734,-97.10144,-4.0614443,STD
3569000259000,0.424969,-1.50378788187146,9.61838275653124,-0.628342054814741,-0.026572637,0.04886922,0.007941248,288.78955,-97.075424,-4.055067,STD
3569005277000,0.429987,-1.53242986023642,9.62793026542168,-0.561510808516936,-0.03359759,0.04550946,0.009773844,288.9081,-97.05047,-4.048246,STD
3569010211000,0.434921,-1.55366402982202,9.6357488401582,-0.512704879582791,-0.028710667,0.042760566,0.005497787,289.01593,-97.01007,-4.041277,STD
3569015248000,0.439958,-1.56064396638692,9.64040198543385,-0.498745004023537,-0.03756821,0.045814894,0.0070249503,289.12286,-96.96485,-4.0323954,STD
3569020249000,0.444959,-1.56757401656779,9.64502187416196,-0.484884901249699,-0.043066,0.03970624,-0.00061086525,289.22604,-96.91802,-4.0340414,STD
3569025261000,0.449971,-1.57451930981045,9.64965192461294,-0.470994312346983,-0.036957346,0.043676864,0.0012217305,289.32538,-96.87151,-4.0323563,STD
3569030288000,0.454998,-1.57927413289885,9.6538704929375,-0.467327955053278,-0.04734206,0.05467244,0.0009162979,289.42365,-96.82307,-4.0335455,STD
3569035447000,0.460157,-1.57437680314715,9.65631920895079,-0.508955283511424,-0.040317107,0.056505036,-0.0076358155,289.52264,-96.78264,-4.036833,STD
3569040318000,0.465028,-1.56975286571344,9.65863122595034,-0.548258775839322,-0.044593163,0.058643065,-0.002443461,289.61475,-96.73358,-4.0380406,STD
3569045293000,0.470003,-1.56503020327601,9.66099260648263,-0.588401431214254,-0.049480084,0.062308256,-0.0027488936,289.705,-96.689896,-4.043241,STD
3569051070000,0.47578,-1.56468580330538,9.67033063213287,-0.638379753256043,-0.043982297,0.05497787,-0.0030543262,289.79977,-96.64874,-4.0509615,STD
3569055300000,0.48001,-1.5746783696596,9.69031583440224,-0.681680898470646,-0.041233405,0.062002823,-0.005497787,289.88885,-96.60777,-4.0589294,STD
3569060264000,0.484974,-1.58640487069561,9.71376891810558,-0.732495764864332,-0.04642576,0.062002823,-0.0076358155,289.99454,-96.57673,-4.0644746,STD
3569065329000,0.490039,-1.59675095042572,9.72395959831714,-0.838004628638686,-0.032070424,0.074830994,-0.0009162979,290.09393,-96.55073,-4.067778,STD
3569070334000,0.495044,-1.60635365181809,9.72876104928378,-0.962839847009917,-0.04550946,0.07360926,0.0033597588,290.1965,-96.519325,-4.072825,STD
3569075399000,0.500109,-1.61258938902854,9.71160655485732,-1.04390449585866,-0.03970624,0.079107046,0.0021380284,290.3034,-96.50472,-4.0775785,STD
3569080321000,0.505031,-1.61744537023797,9.68732664881014,-1.10703230228701,-0.047647487,0.08368854,0.00580322,290.41022,-96.48339,-4.0799637,STD
3569085381000,0.510091,-1.61471915784784,9.69719649006169,-1.14305329218643,-0.041233405,0.089186326,0.01160644,290.5287,-96.4864,-4.0843005,STD
3569090327000,0.515037,-1.61008125979634,9.71574798541075,-1.17088072892392,-0.04337143,0.0852157,0.003970624,290.64716,-96.48811,-4.091723,STD
3569095290000,0.52,-1.62330706936809,9.71685803245765,-1.19595176171011,-0.03940081,0.089186326,0.006414085,290.76846,-96.50045,-4.095918,STD
3569100342000,0.525052,-1.64293664380769,9.71195053636271,-1.22048872975961,-0.045814894,0.08032878,0.0036651916,290.893,-96.51271,-4.104376,STD
3569105297000,0.530007,-1.65828077271364,9.70719191154423,-1.26273145247376,-0.041233405,0.07880162,0.0015271631,291.01657,-96.53107,-4.110891,STD
3569110303000,0.535013,-1.67265607336332,9.70240006126936,-1.31064900455772,-0.04642576,0.0720821,0.00030543262,291.14276,-96.54649,-4.1185036,STD
3569115279000,0.539989,-1.68897905330846,9.68826721476152,-1.33789671663558,-0.038179077,0.079107046,0.004276057,291.26913,-96.5733,-4.1348753,STD
3569120786000,0.545496,-1.70771586389555,9.6695305019984,-1.36131772986944,-0.04550946,0.08093964,0.0027488936,291.39737,-96.59684,-4.153429,STD
3569125294000,0.550004,-1.7169077088412,9.65767954892704,-1.38277997197425,-0.049480084,0.0852157,0.0036651916,291.52716,-96.63072,-4.17263,STD
3569130288000,0.554998,-1.72203931175966,9.64741666459227,-1.40843804015021,-0.043982297,0.092240654,-0.0012217305,291.65402,-96.66636,-4.1937213,STD
3569135420000,0.56013,-1.7259784018946,9.64169175313835,-1.38937585288662,-0.04184427,0.0888809,-0.005192355,291.78268,-96.708374,-4.222558,STD
3569140318000,0.565028,-1.72908576279024,9.63858432734921,-1.34898012879666,-0.027183503,0.0983493,-0.005192355,291.842025350344,-96.7305012952612,-4.23640625684488,STD
3569145296000,0.570006,-1.73224387682422,9.6354261473618,-1.30792461337816,-0.032375857,0.105374254,-0.004581489,291.90234,-96.75299,-4.2504807,STD
3569150296000,0.575006,-1.73541594797125,9.63225400996986,-1.26668765534431,-0.03176499,0.09682214,-0.007330383,292.03143,-96.80141,-4.2820144,STD
3569155295000,0.580005,-1.73858738470405,9.6290825070054,-1.22545894470206,-0.02565634,0.09865474,-0.0061086523,292.1555,-96.850426,-4.3102474,STD
3569160290000,0.585,-1.74175628377993,9.62591354175085,-1.18426322362625,-0.03145956,0.1020145,-0.0030543262,292.28027,-96.896706,-4.338631,STD
3569165276000,0.589986,-1.74847874014832,9.63294079536281,-1.12987086153196,-0.0290161,0.09315695,-0.003970624,292.40488,-96.94658,-4.3672037,STD
3569170336000,0.595046,-1.75757638550643,9.64658707340655,-1.06618724902844,-0.02076942,0.09773844,-0.01282817,292.52332,-96.99695,-4.3964868,STD
3569175266000,0.599976,-1.75758413185332,9.65796936313181,-0.997908931080278,-0.016798794,0.099265605,-0.01160644,292.63007,-97.028656,-4.424144,STD
3569180281000,0.604991,-1.74806428011893,9.66748941367691,-0.921750067502478,-0.027183503,0.09560041,-0.014049901,292.73575,-97.06109,-4.4550104,STD
3569185347000,0.610057,-1.74072460203136,9.65679552006706,-0.854015800838182,-0.029932396,0.087659165,-0.008857546,292.83405,-97.08554,-4.483878,STD
3569190652000,0.615362,-1.73571474856523,9.62172633655458,-0.793897506932255,-0.032375857,0.0852157,-0.003970624,292.9309,-97.10826,-4.5130324,STD
3569195222000,0.619932,-1.73273793589643,9.60819331188701,-0.746886630595332,-0.03573562,0.08124508,-0.0015271631,293.00916,-97.11936,-4.534712,STD
3569200314000,0.625024,-1.7311436811037,9.61457046423434,-0.700653216635609,-0.034208454,0.081855945,-0.002443461,293.0863,-97.13091,-4.555659,STD
3569205207000,0.629917,-1.72961173124101,9.62069839165686,-0.656226646622859,-0.025961773,0.07971791,-0.0076358155,293.1631,-97.1344,-4.575828,STD
3569210293000,0.635003,-1.72801935498888,9.62706802968484,-0.61004771037008,-0.043676864,0.0729984,-0.00580322,293.24057,-97.13181,-4.594089,STD
3569215234000,0.639944,-1.72647237680136,9.63325607166209,-0.565185318701779,-0.037873644,0.076052725,-0.004886922,293.31506,-97.13765,-4.6135964,STD
3569220251000,0.644961,-1.72490160376618,9.63953929501766,-0.519632876078854,-0.045814894,0.08093964,-0.007330383,293.39026,-97.13733,-4.6334085,STD
3569225198000,0.649908,-1.71804464352,9.6423998307,-0.491307426731,-0.051618114,0.07941248,-0.00061086525,293.46387,-97.138145,-4.650944,STD
3569230281000,0.654991,-1.69857309376,9.6375318416,-0.501043196528,-0.046731193,0.07544186,-0.004886922,293.53568,-97.14246,-4.6719875,STD
3569235293000,0.660003,-1.68688812774383,9.63563808482362,-0.519216837267984,-0.04520403,0.076052725,-0.008246681,293.58252,-97.12665,-4.6912994,STD
3569240344000,0.665054,-1.69120266342595,9.63995248534986,-0.555890426607501,-0.043982297,0.07360926,-0.0076358155,293.6309,-97.112595,-4.710524,STD
3569245196000,0.669906,-1.69534721443161,9.64409690652455,-0.591119144777238,-0.04337143,0.084910266,-0.004886922,293.67325,-97.09914,-4.726125,STD
3569250284000,0.674994,-1.69969335530482,9.64844291125184,-0.628061378505106,-0.043982297,0.07941248,-0.0125227375,293.72028,-97.08819,-4.7446904,STD
3569255274000,0.679984,-1.70395578513134,9.65270520755474,-0.664292067636801,-0.048258353,0.08277224,-0.0061086523,293.76154,-97.07397,-4.7576466,STD
3569260466000,0.685176,-1.72500782083496,9.66562298731955,-0.739519693308623,-0.044898596,0.07819075,-0.005192355,293.80576,-97.06433,-4.774408,STD
3569265236000,0.689946,-1.74728705220445,9.67899080530628,-0.815269126492392,-0.034513887,0.08368854,-0.010995574,293.84564,-97.05592,-4.7906604,STD
3569270298000,0.695008,-1.76002637755304,9.68588746678564,-0.840652977553044,-0.03970624,0.08277224,-0.005192355,293.8965,-97.054016,-4.801813,STD
3569275205000,0.699915,-1.76934490969661,9.69054683016062,-0.849971509696609,-0.03390302,0.087659165,-0.009468411,293.9432,-97.05993,-4.8170295,STD
3569280290000,0.705,-1.76128941004911,9.68825566414809,-0.880121924669437,-0.04184427,0.09560041,-0.013439035,293.99048,-97.07633,-4.833467,STD
3569285344000,0.710054,-1.74757544692104,9.68368424763884,-0.916692516877597,-0.05222898,0.08735373,-0.010079277,294.04065,-97.09272,-4.8491025,STD
3569290446000,0.715156,-1.73627700648871,9.67880103326489,-0.962459235051335,-0.052534413,0.0983493,-0.008857546,294.08337,-97.113144,-4.8671637,STD
3569295290000,0.72,-1.72675133519507,9.67403809815195,-1.01008761638604,-0.05131268,0.103847094,-0.005192355,294.1297,-97.130486,-4.8836784,STD
3569300283000,0.724993,-1.71744673273159,9.67576430023753,-1.06936760418052,-0.049785517,0.10873401,-0.0018325958,294.179,-97.1488,-4.8934507,STD
3569305302000,0.730012,-1.70831305877435,9.68033123258907,-1.1333033695677,-0.053145275,0.10567969,-0.0018325958,294.204383736868,-97.1578638269135,-4.89879489303652,STD
3569310278000,0.734988,-1.71355282817955,9.69695404696592,-1.18543731545096,-0.052839845,0.10170906,-0.004581489,294.22955,-97.16685,-4.9040933,STD
3569315276000,0.739986,-1.7284732915212,9.72182148586866,-1.23019875740856,-0.04337143,0.10903945,-0.007330383,294.27545,-97.19419,-4.914049,STD
3569320271000,0.744981,-1.73660624425434,9.74125075451498,-1.24178065574566,-0.050396383,0.11056661,-0.0012217305,294.3286,-97.22378,-4.919244,STD
3569325286000,0.749996,-1.74141165242884,9.75806953259293,-1.23697524757116,-0.04337143,0.10598512,-0.0015271631,294.38074,-97.25976,-4.92713,STD
3569330286000,0.754996,-1.74620268749812,9.77483800525289,-1.23218421250188,-0.043982297,0.10323623,-0.008246681,294.43896,-97.299484,-4.9391575,STD
3569335294000,0.760004,-1.75100138822352,9.79163330746911,-1.22738551177648,-0.04153884,0.10995574,-0.008246681,294.49533,-97.33969,-4.9492655,STD
3569340272000,0.764982,-1.74777764051536,9.79229510703667,-1.20512679226957,-0.04886922,0.11209377,-0.0015271631,294.55322,-97.37727,-4.959556,STD
3569345276000,0.769986,-1.74065341248761,9.78517097819623,-1.17425511268583,-0.046120327,0.10354166,-0.002443461,294.61148,-97.418526,-4.9721236,STD
3569350279000,0.774989,-1.7335306081665,9.77804827304262,-1.14338960250248,-0.04917465,0.099571034,0.00030543262,294.6747,-97.452835,-4.9865108,STD
3569355295000,0.780005,-1.72638929565907,9.77090705996036,-1.11244389011397,-0.056199603,0.11148291,0.004276057,294.7351,-97.48645,-5.0004673,STD
3569365294000,0.790004,-1.73141883636715,9.74556240806654,-1.01020908430216,-0.06566802,0.10323623,0.0067195175,294.86182,-97.55011,-5.027691,STD
3569370220000,0.79493,-1.74150880486322,9.73420835055725,-0.967495207877406,-0.0693332,0.10140363,0.011301007,294.92657,-97.568085,-5.0402484,STD
3569375199000,0.799909,-1.75600208364742,9.72454596291793,-0.933677532158055,-0.07452556,0.08368854,0.0015271631,294.99643,-97.58602,-5.0565414,STD
3569380163000,0.804873,-1.7677532311531,9.71483808080912,-0.899700629001951,-0.070554934,0.083383106,0.004581489,295.05804,-97.59408,-5.067348,STD
3569385236000,0.809946,-1.77773030478489,9.70486085090872,-0.864781027559298,-0.058337633,0.08155051,0.009162978,295.12396,-97.60458,-5.080846,STD
3569390184000,0.814894,-1.80673179086123,9.6871685050771,-0.880608804606995,-0.06841691,0.07666359,0.0061086523,295.18036,-97.61194,-5.0994225,STD
3569395184000,0.819894,-1.84725040688229,9.66465816284317,-0.925629512579917,-0.07788532,0.08674286,0.0076358155,295.23254,-97.62038,-5.1148124,STD
3569400234000,0.824944,-1.86502451748897,9.64851558864821,-0.945651067488969,-0.087964594,0.08827003,0.0067195175,295.28482,-97.62453,-5.1333423,STD
3569405237000,0.829947,-1.8602197912154,9.63890643712395,-0.940846341215403,-0.06719518,0.089491755,0.0027488936,295.33356,-97.63373,-5.1517506,STD
3569410230000,0.83494,-1.85055185715845,9.63059360184542,-0.947100473042961,-0.07086037,0.096516706,0.0012217305,295.3886,-97.64659,-5.17429,STD
3569415228000,0.839938,-1.83630495377518,9.62347000138903,-0.963721872720508,-0.069027774,0.096516706,0.0009162979,295.44467,-97.665474,-5.197418,STD
3569420226000,0.844936,-1.8220580503919,9.61634640093263,-0.980343272398055,-0.069027774,0.09010262,0.006414085,295.49826,-97.681656,-5.2183623,STD
3569425233000,0.849943,-1.80778549232067,9.60920997286437,-0.996994602567219,-0.063224554,0.09315695,0.004886922,295.5484,-97.700775,-5.2407875,STD
3569430237000,0.854947,-1.80510226641926,9.59854324774323,-1.01488985718154,-0.06994407,0.08857546,0.0106901415,295.60242,-97.71472,-5.259648,STD
3569435251000,0.859961,-1.81473477899699,9.58409468004012,-1.03415493262788,-0.06291912,0.08002335,0.005192355,295.6558,-97.735176,-5.281895,STD
3569440230000,0.86494,-1.8126357552733,9.57448776999111,-1.02995688632994,-0.059864793,0.07452556,0.0009162979,295.71194,-97.75325,-5.297682,STD
3569445834000,0.870544,-1.7967214366413,9.56918288632994,-0.998128193674014,-0.056199603,0.08460484,0.006414085,295.7656,-97.772,-5.3118834,STD
3569450209000,0.874919,-1.79738343448513,9.57375067065868,-0.997278657475213,-0.058643065,0.08857546,0.0067195175,295.82217,-97.796425,-5.3304663,STD
3569455262000,0.879972,-1.81163441231962,9.58800194610778,-1.02103028719937,-0.052839845,0.06414085,0.00580322,295.88358,-97.82229,-5.3481574,STD
3569460202000,0.884912,-1.82137804812143,9.59774559903212,-1.04143411112187,-0.058948494,0.064751714,0.01160644,295.93237,-97.83754,-5.3586745,STD
3569465290000,0.89,-1.8256654883678,9.60203268112627,-1.05858391687637,-0.055283304,0.0720821,0.009773844,295.98538,-97.85765,-5.372058,STD
3569470303000,0.895013,-1.82662700696517,9.6106232037728,-1.07005930696517,-0.053145275,0.074830994,0.008246681,296.04144,-97.87977,-5.386124,STD
3569475264000,0.899974,-1.81185384004975,9.64016964044361,-1.05528614004975,-0.05222898,0.0870483,0.008246681,296.066616851889,-97.8913767369578,-5.39321000959424,STD
3569480309000,0.905019,-1.79876832791591,9.66578361044447,-1.0427577500048,-0.050396383,0.086437434,0.00580322,296.09222,-97.90318,-5.400416,STD
3569485360000,0.91007,-1.79180289854565,9.67739261898819,-1.03811412234328,-0.045814894,0.09743301,0.005192355,296.1398,-97.93194,-5.416955,STD
3569490274000,0.914984,-1.78502639489776,9.68868675242392,-1.03359644538255,-0.042455133,0.089186326,0.012217305,296.18747,-97.9549,-5.428924,STD
3569495259000,0.919969,-1.77815198083901,9.70014406930978,-1.02901349470097,-0.03604105,0.089491755,0.011301007,296.22897,-97.98086,-5.4426293,STD
3569500364000,0.925074,-1.77150896076102,9.71068175657926,-1.02611997676373,-0.043066,0.10354166,0.0143553335,296.26666,-98.00379,-5.4556828,STD
3569505303000,0.930013,-1.76922493858709,9.70839768670626,-1.0421081558308,-0.042760566,0.095294975,0.0125227375,296.31018,-98.03041,-5.4708896,STD
3569510425000,0.935135,-1.76685628874402,9.70602898739678,-1.05868872946545,-0.029321533,0.093462385,0.016798794,296.3464,-98.05227,-5.4797683,STD
3569515744000,0.940454,-1.76439653698392,9.70356918426771,-1.07590701747066,-0.03359759,0.08582657,0.009773844,296.38596,-98.072815,-5.4927177,STD
3569520257000,0.944967,-1.76230951692501,9.70148212062388,-1.0905161796755,-0.029321533,0.10293079,0.01160644,296.4114,-98.09686,-5.500233,STD
3569525256000,0.949966,-1.76664188778945,9.68326714301744,-1.09626548778945,-0.026267206,0.099265605,0.0143553335,296.44452,-98.120636,-5.510271,STD
3569530656000,0.955366,-1.77261366087792,9.66289750236476,-1.10052883465859,-0.024740042,0.086437434,0.008552114,296.47504,-98.14596,-5.5219326,STD
3569535300000,0.96001,-1.79233345579367,9.66070637082471,-1.08300012552468,-0.031154128,0.08857546,0.016187929,296.5053,-98.17107,-5.5282106,STD
3569540287000,0.964997,-1.81350972996354,9.65835340506454,-1.06417676797714,-0.0290161,0.089491755,0.019242255,296.53976,-98.2018,-5.539078,STD
3569545251000,0.969961,-1.83458833934378,9.65601129116169,-1.04544022358853,-0.032986723,0.07849618,0.01160644,296.57672,-98.23013,-5.551104,STD
3569550243000,0.974953,-1.85578584498965,9.6536559663021,-1.02659799361513,-0.04428773,0.08155051,0.014049901,296.6095,-98.25446,-5.5589457,STD
3569555312000,0.980022,-1.87106739977943,9.64903240004011,-1.01594036681372,-0.038789943,0.07422013,0.017104227,296.64618,-98.2821,-5.566667,STD
3569560203000,0.984913,-1.88515606895929,9.64433656928013,-1.0065479206938,-0.03940081,0.0720821,0.012217305,296.68008,-98.30682,-5.5757246,STD
3569565295000,0.990005,-1.87410732219473,9.65219379033026,-0.993041122194728,-0.05100725,0.06811147,0.00030543262,296.71707,-98.33034,-5.5932965,STD
3569570257000,0.994967,-1.86053920143714,9.6612389208147,-0.979473001437137,-0.045814894,0.06994407,0.011911872,296.75333,-98.353386,-5.605266,STD
3569575261000,0.999971,-1.85029567100727,9.66680049390524,-0.98190418599515,-0.049480084,0.06963864,0.004276057,296.78964,-98.37843,-5.6284614,STD
3569580309000,1.005019,-1.84079104690347,9.67155290520349,-0.988240602064355,-0.049785517,0.0693332,0.004886922,296.82578,-98.40119,-5.645701,STD
3569585564000,1.010274,-1.83089667296022,9.67650019549119,-0.994836851359853,-0.056505036,0.07452556,0.010995574,296.85834,-98.41772,-5.6603265,STD
3569590305000,1.015015,-1.82197008364244,9.68096358336064,-1.00078791090504,-0.048563786,0.0729984,0.0067195175,296.8923,-98.43897,-5.6777263,STD
3569595281000,1.019991,-1.81260102470018,9.68564821066256,-1.00703395019988,-0.052839845,0.07269296,0.004886922,296.9244,-98.45442,-5.6923094,STD
3569600278000,1.024988,-1.80319242591913,9.69035260829674,-1.01330634938725,-0.056199603,0.071776666,0.014966198,296.95706,-98.470055,-5.70458,STD
3569605298000,1.030008,-1.81464174413879,9.69527921444201,-1.03999511431697,-0.057726767,0.062002823,0.013744468,296.984,-98.490845,-5.724687,STD
3569610265000,1.034975,-1.83446792548713,9.70023534573304,-1.07469098343232,-0.044593163,0.06566802,0.0125227375,297.00745,-98.51182,-5.7412567,STD
3569615247000,1.039957,-1.8423339569978,9.69771824264776,-1.06783097200881,-0.034208454,0.073303826,0.014049901,297.03845,-98.528046,-5.7509274,STD
3569620262000,1.044972,-1.84693474749497,9.69311783647859,-1.04942781002012,-0.04520403,0.063224554,0.012217305,297.07297,-98.54325,-5.7622695,STD
3569625262000,1.049972,-1.85816492770954,9.69500913520684,-1.06027404618257,-0.04734206,0.048563786,0.011301007,297.112,-98.569115,-5.778646,STD
3569630314000,1.055024,-1.87242708559497,9.69976279070453,-1.08404430932495,-0.042760566,0.042760566,0.008246681,297.15082,-98.59454,-5.795975,STD
3569635291000,1.060001,-1.87372728572172,9.67469062472682,-1.08510237144344,-0.04520403,0.036957346,0.014966198,297.19223,-98.61409,-5.8117275,STD
3569640317000,1.065027,-1.86871812797377,9.63461757196378,-1.07508405594755,-0.044898596,0.02687807,0.007941248,297.23553,-98.6382,-5.8323164,STD
3569645261000,1.069971,-1.86397373129265,9.62118735812482,-1.08311310612205,-0.052534413,0.030848695,0.007941248,297.28198,-98.66066,-5.848343,STD
3569650259000,1.074969,-1.85923979336366,9.6164533213332,-1.09731491990901,-0.05222898,0.034208454,0.008857546,297.33066,-98.68581,-5.8662314,STD
3569655284000,1.079994,-1.84761950957289,9.60483315271034,-1.10475979680904,-0.048563786,0.034513887,0.0030543262,297.37262,-98.712555,-5.888321,STD
3569660272000,1.084982,-1.83341801961154,9.59063186046973,-1.10949362679616,-0.04184427,0.03176499,-0.0033597588,297.41406,-98.73968,-5.9100175,STD
3569665286000,1.089996,-1.82302909142467,9.59866595302686,-1.13854417065089,-0.04917465,0.03176499,-0.005192355,297.45523,-98.76611,-5.931091,STD
3569670254000,1.094964,-1.8143668169777,9.61599041147019,-1.17752445088757,-0.03604105,0.042455133,-0.0033597588,297.4936,-98.79841,-5.952346,STD
3569675250000,1.09996,-1.80508640391087,9.62592354654454,-1.18600819988679,-0.03726278,0.043982297,0.00061086525,297.53427,-98.825,-5.971409,STD
3569680333000,1.105043,-1.79506654048783,9.62842855817424,-1.16346353988062,-0.038179077,0.042455133,-0.00061086525,297.57227,-98.85467,-5.990908,STD
3569685296000,1.110006,-1.78528322705707,9.63087443122524,-1.14145111658519,-0.029626964,0.03940081,-0.004276057,297.61218,-98.88845,-6.003385,STD
3569690303000,1.115013,-1.77541317862914,9.63334198842176,-1.11924353982916,-0.026267206,0.03970624,0.0067195175,297.6516,-98.91795,-6.011961,STD
3569695256000,1.119966,-1.77744784267057,9.6371373662768,-1.10804029364522,-0.030848695,0.047647487,0.011301007,297.6891,-98.94913,-6.023212,STD
3569700285000,1.124995,-1.78683614260234,9.64183158976608,-1.10334616818713,-0.024740042,0.046120327,0.010995574,297.72897,-98.98171,-6.033076,STD
3569705247000,1.129957,-1.79354169178301,9.65188126346231,-1.09329642465098,-0.027488936,0.048563786,0.009162978,297.7611,-99.00175,-6.037998,STD
3569710260000,1.13497,-1.79832913677702,9.66624339848424,-1.07893408966893,-0.0290161,0.045814894,0.009468411,297.7949,-99.02277,-6.042768,STD
3569715242000,1.139952,-1.80308697658556,9.68051671918628,-1.06466057024332,-0.0290161,0.053145275,0.0061086523,297.8187,-99.04696,-6.0523314,STD
3569720273000,1.144983,-1.80789161168728,9.69493042381332,-1.05024666493817,-0.014660766,0.049785517,0.008857546,297.84634,-99.07234,-6.060506,STD
3569725245000,1.149955,-1.80763314526182,9.70607180902337,-1.027188491946,-0.021380283,0.041233405,0.0076358155,297.87292,-99.09433,-6.0706716,STD
3569730345000,1.155055,-1.80320827843812,9.71492172748686,-0.996214377976083,-0.029626964,0.04337143,0.013133603,297.89758,-99.11687,-6.0778856,STD
3569735302000,1.160012,-1.80302309543788,9.7170144907332,-0.968222972881874,-0.03145956,0.033292156,0.010995574,297.92017,-99.139015,-6.091575,STD
3569740305000,1.165015,-1.810341740611,9.70725634811609,-0.943827463497963,-0.036651913,0.03604105,0.010995574,297.93857,-99.15694,-6.102467,STD
3569745248000,1.169958,-1.81757261470468,9.69761523299389,-0.919724524684318,-0.033292156,0.03604105,0.009468411,297.95746,-99.17094,-6.113269,STD
3569750290000,1.175,-1.82494831107943,9.68778102250509,-0.895138844429735,-0.032986723,0.027794369,0.005497787,297.97763,-99.183495,-6.124828,STD
3569755229000,1.179939,-1.82137886940757,9.6899431899148,-0.892753056058054,-0.038789943,0.030848695,0.012217305,297.996,-99.1946,-6.138142,STD
3569760259000,1.184969,-1.80228978519913,9.70903217446008,-0.921386707286507,-0.029932396,0.036651913,0.012217305,298.01535,-99.21077,-6.154377,STD
3569765237000,1.189947,-1.79267194308076,9.71864991913954,-0.949381317929511,-0.036957346,0.03940081,0.009468411,298.036,-99.21438,-6.1668825,STD
3569770935000,1.195645,-1.79791237392682,9.71340937885336,-0.980823930365889,-0.040927973,0.028710667,0.007330383,298.05856,-99.2204,-6.179313,STD
3569775233000,1.199943,-1.8049511091784,9.70937816553541,-0.994484096940533,-0.040317107,0.027183503,0.012217305,298.07895,-99.22621,-6.1867237,STD
3569780317000,1.205027,-1.81974853128356,9.70444558849154,-0.989551622905481,-0.049480084,0.032070424,0.011301007,298.09995,-99.23065,-6.196427,STD
3569785246000,1.209956,-1.83063744995925,9.69983777261614,-0.98494375004075,-0.042455133,0.025961773,0.009468411,298.1182,-99.244865,-6.2054243,STD
3569790305000,1.215015,-1.83502475695916,9.69545083211084,-0.98055644304084,-0.03848451,0.028405234,0.005192355,298.13232,-99.257,-6.214833,STD
3569795235000,1.219945,-1.83617453986949,9.69108589653721,-0.978763570097885,-0.054367006,0.03604105,0.0076358155,298.147,-99.26658,-6.2252007,STD
3569800292000,1.225002,-1.81578515870961,9.68598844479529,-0.994055605967793,-0.05100725,0.028405234,0.006414085,298.16495,-99.28237,-6.238086,STD
3569805236000,1.229946,-1.80261026331408,9.6799813913563,-1.00882054497112,-0.057726767,0.027794369,0.010079277,298.17776,-99.292305,-6.25201,STD
3569810269000,1.234979,-1.81220995150368,9.67038150268871,-1.02322007725553,-0.06047566,0.033292156,0.008246681,298.19064,-99.3049,-6.2676086,STD
3569815242000,1.239952,-1.81746490762327,9.65661280064536,-1.03961609205405,-0.05131268,0.026572637,0.010079277,298.20764,-99.316895,-6.2784686,STD
3569820275000,1.244985,-1.80774421902793,9.62745063335686,-1.06391786429364,-0.050396383,0.031154128,0.007941248,298.21945,-99.327545,-6.2902107,STD
3569825272000,1.249982,-1.80504839868304,9.59171097613625,-1.08909224802456,-0.04428773,0.027794369,0.009468411,298.24042,-99.34188,-6.2999415,STD
3569830337000,1.255047,-1.82426079278146,9.53407409476186,-1.1179108391722,-0.054061573,0.021685716,0.009773844,298.2606,-99.35353,-6.3104463,STD
3569835287000,1.259997,-1.83659429686988,9.49976452958712,-1.13425849217469,-0.053450707,0.020463986,-0.002443461,298.28156,-99.37381,-6.3232756,STD
3569840659000,1.265369,-1.82636990782034,9.54321802290456,-1.10869751955085,-0.034513887,0.01985312,0.00030543262,298.30438,-99.39275,-6.3318806,STD
3569845257000,1.269967,-1.8176186530084,9.58041071878571,-1.08681938252099,-0.036957346,0.01863139,0.008552114,298.331,-99.41683,-6.347096,STD
3569850331000,1.275041,-1.80796143967308,9.62145372420132,-1.06267634918269,-0.040011674,0.009773844,0.007941248,298.35956,-99.445496,-6.364058,STD
3569855253000,1.279963,-1.80224304792526,9.65477353918952,-1.04522451094395,-0.04550946,-0.007941248,0.011301007,298.38788,-99.472115,-6.3804765,STD
3569860269000,1.284979,-1.81156840173259,9.66176770060665,-1.05221852629944,-0.032070424,-0.006414085,0.00580322,298.4127,-99.50349,-6.3989224,STD
3569865361000,1.290071,-1.82103504877942,9.66886783416646,-1.05931851158457,-0.03145956,-0.008552114,0.011911872,298.4419,-99.51427,-6.406507,STD
3569870319000,1.295029,-1.83025257353555,9.67578112210628,-1.06623165515166,-0.04337143,-0.010995574,-0.0018325958,298.46954,-99.52999,-6.421173,STD
3569875255000,1.299965,-1.83808481361025,9.68182094989168,-1.06896092139964,-0.03756821,0.003970624,0.0030543262,298.49335,-99.54467,-6.4282255,STD
3569880288000,1.304998,-1.82900502941509,9.67728096298389,-1.01902206092116,-0.028405234,0.014966198,0.002443461,298.5179,-99.56115,-6.4408135,STD
3569885719000,1.310429,-1.8190039574359,9.67247677435897,-0.967159276410256,-0.027488936,0.0143553335,0.0009162979,298.5431,-99.58017,-6.4550514,STD
3569890323000,1.315033,-1.80632483049605,9.67036354608195,-0.965046092264558,-0.029626964,0.011301007,0.004276057,298.56573,-99.59936,-6.467596,STD
3569895261000,1.319971,-1.79272588852624,9.66809701236521,-0.962779605880661,-0.033292156,0.013133603,0.00580322,298.58258,-99.610085,-6.478596,STD
3569900259000,1.324969,-1.77896171032351,9.6658029387491,-0.960485580172538,-0.035124753,0.016798794,0.01160644,298.59982,-99.61917,-6.4873323,STD
3569905294000,1.330004,-1.76509563644381,9.66349188219506,-0.958174571881141,-0.032070424,0.016187929,0.0061086523,298.6172,-99.63031,-6.4988093,STD
3569910586000,1.335296,-1.75811850311164,9.679053503728,-0.969722390665076,-0.029321533,0.021991149,0.014049901,298.63217,-99.637215,-6.5043807,STD
3569915256000,1.339966,-1.75367236969878,9.69683794452729,-0.983060790903668,-0.036957346,0.027794369,0.010079277,298.64648,-99.64585,-6.51481,STD
3569920251000,1.344961,-1.74892079070506,9.70857477040715,-0.979141481410129,-0.035124753,0.029321533,0.011911872,298.6592,-99.65021,-6.516578,STD
3569925282000,1.349992,-1.74413619479642,9.71814416206554,-0.96957228959285,-0.04184427,0.031154128,0.004886922,298.6696,-99.653656,-6.5218115,STD
3569930250000,1.35496,-1.75214244240617,9.7158772086987,-0.956948403788145,-0.042455133,0.02443461,0.0033597588,298.67728,-99.6601,-6.5255446,STD
3569935309000,1.360019,-1.76450151116992,9.70969771464558,-0.943044453445362,-0.037873644,0.019242255,0.008857546,298.68396,-99.66613,-6.5291247,STD
3569940260000,1.36497,-1.77659673739039,9.70365014100316,-0.929437325920729,-0.04184427,0.016187929,0.0076358155,298.69214,-99.66853,-6.532433,STD
3569945254000,1.369964,-1.78879701203087,9.69755004349351,-0.915712018940723,-0.041233405,0.0067195175,0.0125227375,298.70392,-99.67064,-6.5329328,STD
3569950300000,1.37501,-1.80112432196996,9.69138642874908,-0.901843797270495,-0.03848451,0.0036651916,0.011911872,298.71564,-99.6732,-6.534845,STD
3569955297000,1.380007,-1.81333192556998,9.68528266678359,-0.888110245212206,-0.040317107,-0.010079277,0.009468411,298.73303,-99.67442,-6.5367293,STD
3569960256000,1.384966,-1.8267969457095,9.67494832921725,-0.890671073482629,-0.03726278,-0.0061086523,0.016493361,298.7456,-99.67525,-6.5337267,STD
3569965278000,1.389988,-1.84189573901214,9.65984948336124,-0.91080282416283,-0.04428773,-0.0033597588,0.013439035,298.76178,-99.676094,-6.5349593,STD
3569970246000,1.394956,-1.85683217969862,9.64491299068648,-0.930718104405609,-0.054061573,-0.004581489,0.008857546,298.7724,-99.67737,-6.544272,STD
3569975256000,1.399966,-1.87189489464211,9.6298502233152,-0.950801750544161,-0.04062254,0.00580322,0.0143553335,298.77902,-99.68071,-6.550935,STD
3569980423000,1.405133,-1.86562448893335,9.62305816431994,-0.964211906323798,-0.052839845,0.0036651916,0.010995574,298.78857,-99.6785,-6.55867,STD
3569985337000,1.410047,-1.8493494646559,9.62073311229682,-0.973511920196631,-0.051923547,0.0070249503,0.008857546,298.79376,-99.68058,-6.5638957,STD
3569990279000,1.414989,-1.83298170519737,9.61839481211403,-0.982864925601502,-0.050396383,0.008552114,0.01038471,298.80447,-99.69031,-6.574981,STD
3569995249000,1.419959,-1.81652121055778,9.61604326377155,-0.992270922538412,-0.051618114,0.014660766,0.007941248,298.81262,-99.70068,-6.587328,STD
3570000261000,1.424971,-1.81581912129013,9.62671918198986,-1.0046918319352,-0.053145275,0.015882496,0.0070249503,298.82175,-99.71058,-6.598742,STD
3570005295000,1.430005,-1.82540258440513,9.64588600815028,-1.01906702660769,-0.03573562,0.019547688,0.007330383,298.8283,-99.72426,-6.610008,STD
3570010264000,1.434974,-1.83196672388905,9.65202280486375,-1.02052336416642,-0.032986723,0.019547688,0.003970624,298.83282,-99.735405,-6.619584,STD
3570015245000,1.439955,-1.83662558127747,9.64969357075886,-1.0135350780838,-0.029932396,0.024740042,0.013133603,298.83533,-99.747505,-6.6250906,STD
3570020303000,1.445013,-1.84135645874597,9.64732832962203,-1.00643876188104,-0.035124753,0.023823744,0.014049901,298.84042,-99.76306,-6.6353173,STD
3570025254000,1.449964,-1.84598725636293,9.64501312423088,-0.999492565455611,-0.038179077,0.020463986,0.014660766,298.84512,-99.77768,-6.6428456,STD
3570030283000,1.454993,-1.84356818091034,9.63671157239553,-1.00074341908966,-0.029321533,0.012217305,0.011911872,298.8457,-99.79707,-6.6564894,STD
3570035369000,1.460079,-1.83401204891112,9.62237707504414,-1.01029955108888,-0.034513887,0.014049901,0.010079277,298.84457,-99.81223,-6.6692166,STD
3570040281000,1.464991,-1.82073724320732,9.6172222582257,-1.01303328580183,-0.033292156,0.010995574,0.014049901,298.847,-99.82884,-6.682711,STD
3570045255000,1.469965,-1.80277363306307,9.62171325454888,-1.00854238326577,-0.029626964,0.0027488936,0.013133603,298.85022,-99.84583,-6.6979303,STD
3570050272000,1.474982,-1.78939591379433,9.6290918973445,-1.00263072758867,-0.03176499,-0.0009162979,0.01282817,298.85254,-99.86179,-6.7108374,STD
3570055305000,1.480015,-1.78510077617181,9.64197713081447,-0.994040452343611,-0.032070424,-0.0033597588,0.015882496,298.85706,-99.87808,-6.7230706,STD
3570060275000,1.484985,-1.78220792115699,9.65434284040812,-0.985950189421503,-0.0290161,0.0021380284,0.01038471,298.85864,-99.89285,-6.7341905,STD
3570065243000,1.489953,-1.79136713617288,9.66350224670324,-0.981370581913562,-0.03268129,0.0018325958,0.016187929,298.8632,-99.903114,-6.7414007,STD
3570070493000,1.495203,-1.80127633494424,9.67145949256506,-0.97822869157373,-0.024129177,0.0012217305,0.01740966,298.87134,-99.91433,-6.7512817,STD
3570075255000,1.499965,-1.81338592644716,9.65531345485927,-0.998411344078598,-0.027183503,0.00580322,0.011301007,298.87796,-99.92254,-6.7612915,STD
3570080287000,1.504997,-1.82618211805629,9.6382519551248,-1.01973833009382,-0.034513887,0.00061086525,0.017104227,298.89172,-99.9268,-6.7649555,STD
3570085326000,1.510036,-1.83824612158344,9.63245275777494,-1.01382707409987,-0.029321533,0.004886922,0.02321288,298.90118,-99.934105,-6.7697034,STD
3570090231000,1.514941,-1.84976731357795,9.63014847125478,-1.00000164370647,-0.025045475,0.007330383,0.007330383,298.91183,-99.94283,-6.77929,STD
3570095930000,1.52064,-1.86315350586677,9.6274711768861,-0.983938212959874,-0.034513887,0.0033597588,0.013744468,298.9267,-99.9501,-6.7840323,STD
3570100253000,1.524963,-1.87330765734327,9.62544030417934,-0.97175323118807,-0.03268129,0.005497787,0.010995574,298.9381,-99.96531,-6.795442,STD
3570105303000,1.530013,-1.88705348324771,9.62802418575602,-0.953925018006447,-0.035124753,0.005192355,0.013133603,298.9442,-99.97862,-6.8078585,STD
3570110274000,1.534984,-1.90144043957893,9.63281992132568,-0.93474245129445,-0.026267206,0.006414085,0.008552114,298.9489,-99.99625,-6.8225694,STD
3570115246000,1.539956,-1.90250603013118,9.63754660410297,-0.925671714365322,-0.04184427,0.007330383,0.0106901415,298.95337,-100.005104,-6.837919,STD
3570120284000,1.544994,-1.89774733379031,9.64230535013315,-0.920913067713779,-0.034513887,0.0012217305,0.008246681,298.95917,-100.022125,-6.855745,STD
3570125277000,1.549987,-1.88710888323759,9.64687768556361,-0.937571099359638,-0.03726278,0.00061086525,0.007941248,298.9615,-100.03192,-6.873871,STD
3570130249000,1.554959,-1.87365681159243,9.65136133487146,-0.964475266060834,-0.0290161,0.004276057,0.0076358155,298.9642,-100.045784,-6.8923364,STD
3570135297000,1.560007,-1.86611650032902,9.65478182808966,-0.97411270065803,-0.027488936,0.0036651916,0.005192355,298.9676,-100.05649,-6.9103203,STD
3570140304000,1.565014,-1.86365140483241,9.65724697506683,-0.969182509664816,-0.0290161,0.002443461,0.0033597588,298.97012,-100.06798,-6.9277186,STD
3570145262000,1.569972,-1.86121043349784,9.65968799737816,-0.964300566995682,-0.03359759,0.0021380284,0.007330383,298.97922,-100.07861,-6.9407177,STD
3570150281000,1.574991,-1.85873943004318,9.66215905243677,-0.959358560086366,-0.042455133,0.0036651916,0.005497787,298.9878,-100.08935,-6.9555783,STD
3570155306000,1.580016,-1.845230625366,9.67566780848521,-0.967183105975501,-0.02565634,0.0061086523,0.009162978,298.99646,-100.1024,-6.9674654,STD
3570160253000,1.584963,-1.82635743361219,9.69454090170302,-0.981337999790858,-0.03573562,0.0009162979,0.0125227375,299.00668,-100.108345,-6.9799147,STD
3570165301000,1.590011,-1.82268487417447,9.69821352267127,-0.978682156493347,-0.0290161,-0.004581489,0.013744468,299.01154,-100.11877,-6.9875264,STD
3570170310000,1.59502,-1.82741333067521,9.69348521429276,-0.966861002897979,-0.025045475,0.0076358155,0.00061086525,299.0124,-100.128624,-6.9977136,STD
3570175261000,1.599971,-1.83208703563332,9.68881165574174,-0.955176728302119,-0.02565634,0.0125227375,0.0070249503,299.01694,-100.13277,-6.995512,STD
3570180284000,1.604994,-1.83682870802366,9.68407013188763,-0.94332253494825,-0.026572637,0.009162978,0.01160644,299.01987,-100.14047,-6.997456,STD
3570185301000,1.610011,-1.83174068755943,9.68075072824861,-0.927317102779275,-0.028710667,0.008857546,0.018020526,299.02176,-100.14423,-6.9916797,STD
3570190302000,1.615012,-1.82000264118916,9.67840306994755,-0.908536216330082,-0.03940081,0.005497787,0.0125227375,299.02524,-100.14745,-6.988488,STD
3570195255000,1.619965,-1.80837725753149,9.67607794465957,-0.889935590338709,-0.025961773,0.008246681,0.015577064,299.0309,-100.148125,-6.9792433,STD
3570200289000,1.624999,-1.7965617555463,9.67371479491201,-0.871030774824764,-0.027488936,-0.0009162979,0.007941248,299.04025,-100.14681,-6.975457,STD
3570205298000,1.630008,-1.79578674876494,9.67749895159363,-0.85698875123506,-0.022907447,0.009162978,0.010995574,299.04373,-100.14696,-6.9672837,STD
3570210254000,1.634964,-1.80524145410359,9.68695385438247,-0.847534045896414,-0.032375857,0.0021380284,0.01038471,299.0542,-100.146164,-6.9635477,STD
3570215240000,1.63995,-1.80768794590678,9.68241458911085,-0.849744662279671,-0.039095376,0.004581489,0.0027488936,299.05478,-100.13862,-6.953128,STD
3570220281000,1.644991,-1.80296050282021,9.66350442185664,-0.863926991539365,-0.040011674,0.0067195175,0.007941248,299.0578,-100.12819,-6.9399276,STD
3570225211000,1.649921,-1.80882115236655,9.65132581194496,-0.869394036908363,-0.043676864,0.01038471,0.005192355,299.05862,-100.1186,-6.932583,STD
3570230286000,1.654996,-1.82779344084122,9.64658313603982,-0.864650964789695,-0.0421497,0.0070249503,0.0061086523,299.06107,-100.10844,-6.923237,STD
3570235375000,1.660085,-1.84841776585594,9.64577901159963,-0.879320168638915,-0.038179077,-0.0030543262,0.009162978,299.06302,-100.10189,-6.916603,STD
3570240301000,1.665011,-1.87048292806361,9.65019167539757,-0.919037483652947,-0.040927973,0.004276057,0.007330383,299.06076,-100.09523,-6.9108233,STD
3570245211000,1.669921,-1.88292805352328,9.65465530793541,-0.951189558619327,-0.029626964,0.007941248,0.0030543262,299.06305,-100.094246,-6.908836,STD
3570250293000,1.675003,-1.86850823299096,9.65946201515975,-0.963206088277122,-0.03145956,0.0106901415,0.0125227375,299.0639,-100.08774,-6.903383,STD
3570255203000,1.679913,-1.85457645046171,9.66410603965236,-0.974815919174362,-0.034513887,0.006414085,0.0018325958,299.06897,-100.09718,-6.9095097,STD
3570260294000,1.685004,-1.84013109305713,9.66892125934522,-0.986853729581255,-0.029626964,0.006414085,0.008857546,299.07306,-100.10249,-6.9077706,STD
3570265235000,1.689945,-1.82814295937718,9.67052072947965,-0.996501470311412,-0.03573562,0.018325957,0.013744468,299.08334,-100.10366,-6.9057946,STD
3570270312000,1.695022,-1.82330548911551,9.66084583946871,-0.998920205442245,-0.02321288,0.0143553335,0.015271631,299.09814,-100.10906,-6.903572,STD
3570275205000,1.699915,-1.81864333784698,9.65152158561337,-1.00125128107651,-0.022907447,0.009773844,0.0070249503,299.11014,-100.11196,-6.9009624,STD
3570280285000,1.704995,-1.81380300912347,9.64184097870859,-1.00367144543826,-0.01985312,0.0018325958,0.014660766,299.12473,-100.11469,-6.8939877,STD
3570285241000,1.709951,-1.81175403673903,9.6333992134873,-1.00122085815243,-0.022602014,-0.004581489,0.01160644,299.13934,-100.12,-6.8927474,STD
3570290343000,1.715053,-1.82078144248499,9.62888541635104,-0.978652343787529,-0.025350908,-0.004581489,0.014049901,299.15475,-100.123436,-6.888123,STD
3570295466000,1.720176,-1.82830581687772,9.62417243734644,-0.956816416155736,-0.01740966,-0.005497787,0.0125227375,299.17065,-100.129425,-6.881159,STD
3570300342000,1.725052,-1.81727376320166,9.6175532972973,-0.945784353264033,-0.01863139,-0.013744468,0.009162978,299.18854,-100.13291,-6.8747005,STD
3570305403000,1.730113,-1.80582314309204,9.61068302088452,-0.934333723589114,-0.027488936,-0.0076358155,0.017715093,299.2015,-100.132416,-6.866587,STD
3570310236000,1.734946,-1.79488837783028,9.60412225307125,-0.923398949192969,-0.022296581,-0.008552114,0.019242255,299.2183,-100.13673,-6.8622775,STD
3570315239000,1.739949,-1.78356898395388,9.59733071130221,-0.912079545860896,-0.027183503,-0.00061086525,0.016798794,299.23074,-100.13631,-6.856442,STD
3570320255000,1.744965,-1.78891365666865,9.61884335142119,-0.928865567600875,-0.020463986,0.0067195175,0.01282817,299.2475,-100.138954,-6.8530884,STD
3570325231000,1.749941,-1.79838576098191,9.64725926873385,-0.952545848165375,-0.027488936,0.02107485,0.015577064,299.2599,-100.136986,-6.848214,STD
3570330299000,1.755009,-1.79674047900649,9.65712029824731,-0.939184575718989,-0.022907447,0.015577064,0.008552114,299.27252,-100.13569,-6.8440437,STD
3570335300000,1.76001,-1.79210277427133,9.66175809983538,-0.91599602782996,-0.015271631,0.015271631,0.013439035,299.27997,-100.13092,-6.8352985,STD
3570340303000,1.765013,-1.78746321482522,9.66639775617314,-0.892798206376489,-0.0143553335,0.015271631,0.018020526,299.29385,-100.13148,-6.8361354,STD
3570345298000,1.770008,-1.78283107422291,9.67102999351215,-0.869637479180788,-0.013133603,0.015577064,0.016798794,299.30753,-100.13395,-6.8373513,STD
3570350312000,1.775022,-1.77909444117888,9.67403613130853,-0.8619126,-0.02076942,0.0067195175,0.016187929,299.3281,-100.133545,-6.841174,STD
3570355203000,1.779913,-1.77589270781745,9.67617065736289,-0.8619126,-0.014966198,0.0070249503,0.01160644,299.3455,-100.13734,-6.846152,STD
3570360239000,1.784949,-1.77259605494315,9.67836846419376,-0.8619126,-0.016798794,0.0030543262,0.009773844,299.36215,-100.129196,-6.848516,STD
3570365384000,1.790094,-1.76922804877988,9.6806138407118,-0.8619126,-0.01740966,0.0036651916,0.0125227375,299.37708,-100.12279,-6.8507133,STD
3570370241000,1.794951,-1.76604857240766,9.68273352851512,-0.8619126,-0.029626964,0.0033597588,0.0125227375,299.39294,-100.114685,-6.8543983,STD
3570375191000,1.799901,-1.76280821662376,9.68489380329923,-0.8619126,-0.027183503,-0.0033597588,0.016798794,299.4104,-100.10843,-6.8563213,STD
3570380190000,1.8049,-1.75953578459067,9.68707546262161,-0.8619126,-0.02443461,0.01160644,0.015882496,299.4212,-100.10098,-6.858933,STD
3570385274000,1.809984,-1.75620771008453,9.6892942175716,-0.8619126,-0.028710667,0.011301007,0.0143553335,299.43692,-100.09435,-6.8678083,STD
3570390145000,1.814855,-1.7530190690697,9.691420015243,-0.8619126,-0.030543262,0.0125227375,0.0125227375,299.4476,-100.08925,-6.876258,STD
3570395194000,1.819904,-1.73245848658996,9.68368998675433,-0.877990315910278,-0.036651913,0.009773844,0.0125227375,299.4593,-100.08252,-6.884606,STD
3570400154000,1.824864,-1.70949564795514,9.67450465947984,-0.896360615591221,-0.027488936,0.013439035,0.0143553335,299.46848,-100.0788,-6.892489,STD
3570405189000,1.829899,-1.72424981134548,9.6686592759574,-0.904135502269097,-0.028099801,0.013439035,0.013133603,299.4784,-100.07047,-6.898829,STD
3570410139000,1.834849,-1.7485203212779,9.66380507259881,-0.908989604255581,-0.035430185,0.007330383,0.007330383,299.48865,-100.06344,-6.9059396,STD
3570415185000,1.839895,-1.76458322729616,9.65497963762082,-0.91781506214969,-0.020158553,0.015271631,0.010079277,299.49542,-100.05984,-6.907186,STD
3570420164000,1.844874,-1.77876403627261,9.64552583078067,-0.92726891588005,-0.022602014,0.010079277,0.0067195175,299.50702,-100.05361,-6.912457,STD
3570425189000,1.849899,-1.79307585894919,9.63598468208179,-0.936810111902354,-0.012217305,0.005497787,0.0030543262,299.51758,-100.056725,-6.920658,STD
3570430184000,1.854894,-1.8073022379083,9.62650049546468,-0.946294345560347,-0.016187929,0.00580322,0.0012217305,299.52795,-100.05673,-6.929161,STD
3570435222000,1.859932,-1.80268285483644,9.63385803252413,-0.942603630485519,-0.015271631,0.017104227,0.0033597588,299.53345,-100.06206,-6.9417686,STD
3570440167000,1.864877,-1.79380528437529,9.6449549666323,-0.935945470020621,-0.004886922,0.01740966,0.0036651916,299.54178,-100.06919,-6.955503,STD
3570445191000,1.869901,-1.7847858882182,9.6562291823976,-0.92918094056144,-0.014660766,0.016798794,0.0067195175,299.5503,-100.07827,-6.9724274,STD
3570450222000,1.874932,-1.77575392522729,9.66751910666417,-0.9224069860015,0.0030543262,0.021991149,0.007330383,299.5569,-100.09534,-6.9893837,STD
3570455798000,1.880508,-1.78629312432914,9.67743623478792,-0.908030402444116,-0.004886922,0.016798794,0.0018325958,299.5696,-100.10491,-7.0083284,STD
3570460291000,1.885001,-1.80601192421203,9.68400906894445,-0.892693564445746,-0.007330383,0.020463986,0.008552114,299.57874,-100.11648,-7.0227814,STD
3570465280000,1.88999,-1.8279075602271,9.69130750420083,-0.875663632379449,-0.0070249503,0.005192355,0.0061086523,299.59186,-100.12441,-7.038115,STD
3570470388000,1.895098,-1.85032546136259,9.69878002520495,-0.858227494276694,-0.0015271631,0.00030543262,0.0030543262,299.60107,-100.13162,-7.0509667,STD
3570475256000,1.899966,-1.86374952431723,9.66328646408786,-0.869882891274176,-0.015882496,-0.0067195175,-0.0021380284,299.61496,-100.13569,-7.0654936,STD
3570480324000,1.905034,-1.87318391490913,9.6019631222665,-0.898186092603752,-0.00580322,-0.012217305,-0.0018325958,299.6297,-100.145325,-7.079181,STD
3570485415000,1.910125,-1.87412920427905,9.62068043581424,-0.886397475907524,-0.015577064,0.006414085,-0.01282817,299.63373,-100.1524,-7.1014256,STD
3570490424000,1.915134,-1.86926505996755,9.69364260048672,-0.847484290940986,-0.024740042,0.018936822,-0.004276057,299.64166,-100.15756,-7.1180186,STD
3570495286000,1.919996,-1.84651433447152,9.72569985082873,-0.817459975853636,-0.015882496,0.02107485,-0.004276057,299.646958459361,-100.163551486049,-7.12869696164577,STD
3570500316000,1.925026,-1.81161075399873,9.7344259281768,-0.791282290499049,-0.032986723,0.013744468,0.0076358155,299.65244,-100.16975,-7.1397443,STD
3570505296000,1.930006,-1.78406830781298,9.74155424834471,-0.788339915605582,-0.04917465,0.009162978,0.008552114,299.6593,-100.17872,-7.16118,STD
3570510286000,1.934996,-1.76703061182642,9.74642200173169,-0.819981319058776,-0.047647487,0.007330383,0.0018325958,299.66293,-100.1801,-7.177873,STD
3570515273000,1.939983,-1.75000315894367,9.75128682861363,-0.851603699624121,-0.039095376,0.020158553,0.0070249503,299.66003,-100.167946,-7.183475,STD
3570520277000,1.944987,-1.73291766180605,9.75616823902414,-0.883333876553937,-0.050396383,0.026572637,0.015882496,299.6592,-100.15299,-7.1899877,STD
3570525982000,1.950692,-1.7296757122201,9.76461663440104,-0.914846137495733,-0.03481932,0.027488936,0.010995574,299.65198,-100.15001,-7.2036085,STD
3570530347000,1.955057,-1.73807067797972,9.77301177547947,-0.935833547511798,-0.024740042,0.028099801,0.017715093,299.64374,-100.13968,-7.2108865,STD
3570535404000,1.960114,-1.73945502150411,9.77792,-0.953976820292303,-0.024740042,0.03726278,0.008857546,299.63455,-100.13899,-7.219219,STD
3570540319000,1.965029,-1.73254110082256,9.77792,-0.965500033460635,-0.026267206,0.043066,0.021685716,299.62726,-100.134224,-7.2194695,STD
3570545259000,1.969969,-1.72559201269095,9.77792,-0.977081859106933,-0.03268129,0.040317107,0.022296581,299.62314,-100.13436,-7.22115,STD
3570550316000,1.975026,-1.71847834089307,9.77792,-0.988937991150118,-0.03176499,0.03756821,0.02687807,299.61804,-100.13221,-7.217903,STD
3570555212000,1.979922,-1.70966463939189,9.768752446875,-0.997515820202703,-0.03726278,0.036957346,0.020463986,299.61627,-100.128204,-7.2163615,STD
3570560293000,1.985003,-1.69733531824324,9.74409371875,-1.00162559391892,-0.0421497,0.043066,0.022602014,299.6138,-100.12194,-7.2111187,STD
3570565424000,1.990134,-1.68579358377067,9.71990782094818,-1.00639145131202,-0.039095376,0.03359759,0.02107485,299.61423,-100.11989,-7.205606,STD
3570570302000,1.995012,-1.69094414941566,9.70960647453142,-1.02184314824697,-0.028710667,0.042455133,0.029626964,299.60812,-100.115944,-7.1960177,STD
3570575246000,1.999956,-1.69972417036171,9.69991620967742,-1.03522097793949,-0.034208454,0.03390302,0.029321533,299.60947,-100.11147,-7.18904,STD
3570580317000,2.005027,-1.72289844193548,9.69296403225806,-1.0398558516129,-0.036651913,0.039095376,0.03176499,299.60483,-100.107506,-7.1784234,STD
3570585328000,2.010038,-1.74579851585703,9.68609411290323,-1.04443588552682,-0.03756821,0.025961773,0.032070424,299.60178,-100.10809,-7.1697865,STD
3570590349000,2.015059,-1.76874428938729,9.67921048387097,-1.04902505940065,-0.040927973,0.03573562,0.034513887,299.59103,-100.10679,-7.1592264,STD
3570595652000,2.020362,-1.7951337182363,9.67304954526969,-1.05297426464041,-0.03176499,0.025961773,0.031154128,299.59,-100.108574,-7.15086,STD
3570600286000,2.024996,-1.83787879751712,9.67779909770976,-1.04822481138699,-0.03145956,0.02443461,0.026572637,299.584,-100.10773,-7.141915,STD
3570605266000,2.029976,-1.8806772259957,9.68094426821505,-1.04266428713118,-0.03573562,0.02321288,0.026267206,299.5842,-100.11545,-7.141493,STD
3570610262000,2.034972,-1.90537182009462,9.67271257926882,-1.03443272711398,-0.05100725,0.023518313,0.022907447,299.58423,-100.12239,-7.1433353,STD
3570615242000,2.039952,-1.92998732822366,9.66450725281721,-1.02622752917849,-0.047036625,0.02076942,0.020158553,299.58737,-100.136665,-7.1519036,STD
3570620294000,2.045004,-1.934515,9.65342536603992,-1.02663282679202,-0.043982297,0.02107485,0.019242255,299.58954,-100.14776,-7.160638,STD
3570625204000,2.049914,-1.934515,9.64206133491227,-1.02890563301755,-0.048563786,0.021380283,0.017715093,299.59244,-100.15856,-7.1702776,STD
3570630311000,2.055021,-1.934515,9.63024135385954,-1.03126962922809,-0.047036625,0.0106901415,0.01863139,299.59943,-100.17322,-7.1842456,STD
3570635367000,2.060077,-1.934515,9.61853941060467,-1.03361001787907,-0.044593163,0.009773844,0.01282817,299.60327,-100.188515,-7.19991,STD
3570640339000,2.065049,-1.93138018695163,9.60884457030371,-1.02802547390326,-0.046120327,0.01038471,0.016798794,299.6107,-100.20143,-7.2147775,STD
3570645267000,2.069977,-1.92695625834271,9.59999699025122,-1.01917761668541,-0.06047566,0.005192355,0.016187929,299.61963,-100.21406,-7.23246,STD
3570650251000,2.074961,-1.91941323957828,9.5849108483922,-1.02342896947812,-0.043982297,-0.0015271631,0.0143553335,299.63007,-100.23288,-7.2489176,STD
3570655304000,2.080014,-1.90920942926726,9.56450280158144,-1.03873473821824,-0.03940081,-0.00061086525,0.016798794,299.63983,-100.24544,-7.2639065,STD
3570660253000,2.084963,-1.89962352157619,9.57305561564323,-1.06235513877188,-0.048563786,-0.0076358155,0.01160644,299.65265,-100.25861,-7.281106,STD
3570665402000,2.090112,-1.88987147952141,9.59743559349352,-1.09161111219223,-0.030543262,-0.009468411,0.008246681,299.66376,-100.27708,-7.296591,STD
3570670297000,2.095007,-1.87973971002131,9.61045927855621,-1.10034834428876,-0.038179077,-0.0125227375,0.012217305,299.67545,-100.28933,-7.3082366,STD
3570675250000,2.09996,-1.86901984068574,9.61811632808162,-1.09881693438368,-0.03940081,-0.011301007,0.0125227375,299.6862,-100.307594,-7.32155,STD
3570680312000,2.105022,-1.85806406063795,9.62594188525861,-1.09725182294828,-0.027488936,-0.01160644,0.01282817,299.6974,-100.32829,-7.33152,STD
3570685425000,2.110135,-1.84699790034868,9.63384628546523,-1.09567094290695,-0.03604105,-0.0125227375,0.0070249503,299.7082,-100.34551,-7.3430185,STD
3570690338000,2.115048,-1.83636460375153,9.64144149732033,-1.09415190053593,-0.028099801,-0.009468411,0.01038471,299.72034,-100.36574,-7.3521795,STD
3570695261000,2.119971,-1.82570966396978,9.64905216859301,-1.0926297662814,-0.027183503,-0.01160644,0.004581489,299.73364,-100.38557,-7.3656588,STD
3570700252000,2.124962,-1.81428020669844,9.65129583369209,-1.08219244093378,-0.0290161,-0.010079277,0.0018325958,299.74524,-100.404816,-7.376957,STD
3570705296000,2.130006,-1.80190180364391,9.64634463791513,-1.05991133611624,-0.029321533,-0.0067195175,0.010079277,299.75708,-100.423134,-7.386619,STD
3570710253000,2.134963,-1.78973690595531,9.64147884143091,-1.03801454060066,-0.016798794,-0.002443461,0.008246681,299.76404,-100.439865,-7.3912797,STD
3570715255000,2.139965,-1.77746157445674,9.63656887289873,-1.01591896441164,-0.03726278,-0.0009162979,0.006414085,299.77118,-100.44802,-7.393698,STD
3570720294000,2.145004,-1.76913314690089,9.64714826549556,-1.00814075309911,-0.031154128,0.014049901,0.010079277,299.7702,-100.46413,-7.3947344,STD
3570725250000,2.14996,-1.76439588561733,9.67083457191336,-1.01287801438267,-0.027183503,0.0021380284,0.011911872,299.77643,-100.47621,-7.3978114,STD
3570730310000,2.15502,-1.75716261771566,9.67966705696385,-1.01265660885783,-0.02443461,0.010995574,0.006414085,299.76495,-100.48279,-7.3983593,STD
3570735415000,2.160125,-1.7477381234506,9.67495471142169,-1.0079443617253,-0.029626964,0.018936822,0.01160644,299.7578,-100.485916,-7.395951,STD
3570740274000,2.164984,-1.74502437363049,9.67052938365016,-0.995336831847551,-0.028099801,0.01863139,0.009468411,299.74933,-100.49348,-7.3981557,STD
3570745384000,2.170094,-1.74960696076412,9.66594670081468,-0.972423896179418,-0.024740042,0.032070424,0.016493361,299.7354,-100.4973,-7.3955474,STD
3570750263000,2.174973,-1.74956420139393,9.65551950348483,-0.956184992887995,-0.034513887,0.028099801,0.011911872,299.7245,-100.5,-7.395963,STD
3570755301000,2.180011,-1.7400917525081,9.63183838127025,-0.951448743717483,-0.036957346,0.02107485,0.014966198,299.71146,-100.50177,-7.391969,STD
3570760258000,2.184968,-1.7377566944312,9.62672660942579,-0.949555422388949,-0.02687807,0.018325957,0.017715093,299.6971,-100.50235,-7.389861,STD
3570765383000,2.190093,-1.75370938132178,9.66926744095341,-0.954873012448537,-0.03145956,0.023518313,0.017104227,299.68274,-100.4995,-7.387895,STD
3570770314000,2.195024,-1.76845976439671,9.68961984182916,-0.955571574863902,-0.03390302,0.025045475,0.013133603,299.6636,-100.49968,-7.383942,STD
3570775244000,2.199954,-1.78247949764426,9.68494651608433,-0.950898322315154,-0.025045475,0.024740042,0.010995574,299.64392,-100.50091,-7.379677,STD
3570780890000,2.2056,-1.79340803459417,9.67960681225374,-0.944286148108747,-0.03848451,0.023518313,0.014049901,299.62488,-100.497856,-7.3765445,STD
3570785298000,2.210008,-1.79756628266351,9.67544847734437,-0.938048776004728,-0.038179077,0.023823744,0.008246681,299.60544,-100.50146,-7.3765597,STD
3570790203000,2.214913,-1.802193371316,9.67082129206068,-0.931108143026005,-0.03726278,0.018020526,0.0027488936,299.59332,-100.50085,-7.375802,STD
3570795260000,2.21997,-1.80696384783294,9.66605071591805,-0.923952428250591,-0.03176499,0.0125227375,0.008552114,299.58148,-100.50005,-7.373506,STD
3570800249000,2.224959,-1.81651996192659,9.66245603399296,-0.919915404688963,-0.039095376,0.0021380284,0.004581489,299.57227,-100.49986,-7.37596,STD
3570805302000,2.230012,-1.83526610745715,9.66089382393389,-0.921477582123834,-0.040317107,0.004886922,0.0125227375,299.56174,-100.49839,-7.373156,STD
3570810225000,2.234935,-1.85352996545179,9.65937180530716,-0.922999568965684,-0.043066,0.002443461,0.005497787,299.55475,-100.49841,-7.3778114,STD
3570815410000,2.24012,-1.8727658183265,9.65776878548601,-0.924602555310392,-0.04520403,-0.004581489,0.013133603,299.54922,-100.49377,-7.376149,STD
3570820301000,2.245011,-1.89091095938922,9.65625666013494,-0.926114649083191,-0.031154128,-0.004581489,0.007941248,299.55295,-100.492226,-7.3794456,STD
3570825291000,2.250001,-1.90942338096007,9.65471392746231,-0.927657349538367,-0.03390302,-0.0018325958,0.0067195175,299.55823,-100.484726,-7.379681,STD
3570830323000,2.255033,-1.92414872468238,9.65105260702163,-0.932108155392299,-0.03756821,-0.00030543262,0.009162978,299.56363,-100.480316,-7.3804317,STD
3570835480000,2.26019,-1.91935893149064,9.63668342750461,-0.951267353166521,-0.034513887,0.005192355,0.008246681,299.56683,-100.477776,-7.382271,STD
3570840299000,2.265009,-1.91740874412619,9.62417915327937,-0.969304844126193,-0.043676864,0.0009162979,0.009773844,299.57547,-100.47877,-7.3908467,STD
3570845291000,2.270001,-1.93725406816106,9.6192177186592,-0.989150168161063,-0.03940081,0.0030543262,0.0125227375,299.58063,-100.483,-7.398751,STD
3570851028000,2.275738,-1.95234573302981,9.61775978919337,-1.00424183302981,-0.040011674,0.009162978,0.004581489,299.57788,-100.49187,-7.4098973,STD
3570855312000,2.280022,-1.94882137848982,9.62480864547719,-1.00071747848982,-0.035124753,0.009468411,0.0061086523,299.57672,-100.50006,-7.4175787,STD
3570860203000,2.284913,-1.94479765812215,9.63285625427369,-0.996693758122154,-0.037873644,0.010079277,0.0018325958,299.57568,-100.51438,-7.432151,STD
3570865279000,2.289989,-1.93679172908647,9.63791811168338,-0.992337864543237,-0.040317107,0.01282817,0.00061086525,299.57422,-100.52851,-7.445093,STD
3570870297000,2.295007,-1.92810710228608,9.6422605157676,-0.987995551143038,-0.048258353,0.005192355,0.003970624,299.57565,-100.540596,-7.4580264,STD
3570875252000,2.299962,-1.90797847079262,9.64184969852279,-0.984415840191403,-0.040011674,-0.008246681,-0.0030543262,299.5802,-100.55526,-7.4742317,STD
3570880355000,2.305065,-1.88027504629031,9.63859040804962,-0.981156617783187,-0.0290161,-0.009468411,0.0015271631,299.58398,-100.56567,-7.485757,STD
3570885326000,2.310036,-1.85328823006436,9.63541542608957,-0.977981702127447,-0.027794369,-0.007941248,0.002443461,299.589,-100.57519,-7.4966626,STD
3570890303000,2.315013,-1.82626884073494,9.63223661192437,-0.974802954346594,-0.029321533,-0.011301007,0.0033597588,299.59592,-100.58526,-7.5063443,STD
3570895287000,2.319997,-1.79921144945147,9.62905332685318,-0.971619735753109,-0.035124753,-0.01160644,0.0027488936,299.60672,-100.592155,-7.513148,STD
3570900308000,2.325018,-1.77195319069659,9.62584640985028,-0.968412885721431,-0.040927973,-0.0030543262,-0.0012217305,299.61572,-100.59917,-7.5203967,STD
3570905293000,2.330003,-1.7559446435561,9.61850311433221,-0.970351378221951,-0.027488936,0.004581489,-0.0021380284,299.62506,-100.608345,-7.5269475,STD
3570910292000,2.335002,-1.74620516167226,9.60876342905096,-0.975221119163869,-0.03390302,0.010079277,0.0036651916,299.63254,-100.61173,-7.53239,STD
3570915279000,2.339989,-1.73356728774155,9.61808578128534,-0.973697129247185,-0.03390302,0.0018325958,0.00030543262,299.6411,-100.608215,-7.5269537,STD
3570920751000,2.345461,-1.71810652668535,9.63870029080002,-0.968543542228451,-0.029626964,0.0125227375,0.0033597588,299.64297,-100.60202,-7.5174994,STD
3570925288000,2.349998,-1.70528754406255,9.65579240148498,-0.964270548020849,-0.032986723,0.009162978,-0.0015271631,299.65454,-100.597046,-7.516168,STD
3570930332000,2.355042,-1.6910360676796,9.67479451880808,-0.9595200558932,-0.027488936,0.0106901415,0.0012217305,299.6618,-100.592735,-7.5114107,STD
3570935343000,2.360053,-1.68984382782866,9.6835939727228,-0.959122642609552,-0.02321288,0.013439035,0.0012217305,299.665732365278,-100.590323786252,-7.50910121483191,STD
3570940297000,2.365007,-1.69685172549483,9.68592998739537,-0.961458608498277,-0.021685716,0.013133603,0.009162978,299.66962,-100.58794,-7.506818,STD
3570945288000,2.369998,-1.70391196313146,9.68828344908912,-0.963812021043821,-0.017715093,0.025961773,0.007330383,299.67358,-100.585495,-7.5039754,STD
3570950315000,2.375025,-1.71102312614476,9.69065388626292,-0.966182408714919,-0.028099801,0.02076942,0.003970624,299.6813,-100.57166,-7.4894085,STD
3570955290000,2.38,-1.72475714429967,9.68910175905945,-0.959375928058836,-0.03145956,0.021685716,0.010079277,299.68588,-100.55936,-7.4761286,STD
3570960294000,2.385004,-1.74426948436482,9.6842235721702,-0.944741647541735,-0.02443461,0.03023783,0.010995574,299.6892,-100.549164,-7.4655995,STD
3570965324000,2.390034,-1.75038143588621,9.6843262095186,-0.936352885886214,-0.03359759,0.022907447,0.010995574,299.69766,-100.53668,-7.456812,STD
3570970339000,2.395049,-1.74662810265708,9.6880796211316,-0.93259955265708,-0.03145956,0.040011674,0.011301007,299.69653,-100.527954,-7.4468336,STD
3570975446000,2.400156,-1.74361750021653,9.69183544095852,-0.927779300640458,-0.02687807,0.03604105,0.012217305,299.7008,-100.51982,-7.4421134,STD
3570980291000,2.405001,-1.75701361514772,9.69406793638726,-0.903219778359157,-0.02687807,0.0421497,0.008246681,299.69705,-100.51233,-7.437892,STD
3570985719000,2.410429,-1.77202168776826,9.69656906852084,-0.875705002932345,-0.032375857,0.038789943,0.0067195175,299.69098,-100.50563,-7.436046,STD
3570990406000,2.415116,-1.78498094281109,9.69872876017708,-0.851946389736791,-0.041233405,0.036651913,0.005497787,299.68277,-100.49907,-7.435034,STD
3570995216000,2.419926,-1.7982802849822,9.70094512818785,-0.827564284025118,-0.030543262,0.04062254,0.0076358155,299.67395,-100.495056,-7.433452,STD
3571000315000,2.425025,-1.80859925453828,9.7094647249408,-0.831764931578532,-0.032986723,0.040927973,0.0033597588,299.6665,-100.4883,-7.434277,STD
3571005236000,2.429946,-1.81789827442778,9.7187639390292,-0.841063970887924,-0.03268129,0.031154128,0.004276057,299.6612,-100.482834,-7.4333096,STD
3571010284000,2.434994,-1.83546842476414,9.720459,-0.846727781191035,-0.03970624,0.03268129,0.006414085,299.6647,-100.46712,-7.4344563,STD
3571015235000,2.439945,-1.85440307730744,9.720459,-0.851461444326861,-0.03268129,0.030848695,0.007330383,299.6717,-100.45474,-7.4361615,STD
3571020394000,2.445104,-1.87413320707333,9.720459,-0.856393976768332,-0.03940081,0.037873644,0.006414085,299.68488,-100.437355,-7.436495,STD
3571025200000,2.44991,-1.89251332020666,9.720459,-0.860989005051665,-0.03970624,0.032375857,0.007330383,299.7018,-100.42258,-7.4366384,STD
3571030290000,2.455,-1.89427594538029,9.720459,-0.881230166368305,-0.036651913,0.03634648,0.015271631,299.71384,-100.40635,-7.4344883,STD
3571035341000,2.460051,-1.89190996754708,9.720459,-0.904889969405723,-0.03604105,0.03940081,0.00580322,299.72665,-100.39344,-7.4373126,STD
3571040334000,2.465044,-1.88957115794082,9.720459,-0.928278089889949,-0.034208454,0.041233405,0.005192355,299.74112,-100.38464,-7.4414387,STD
3571045225000,2.469935,-1.88728012694057,9.720459,-0.951188423815114,-0.042455133,0.03481932,0.007330383,299.75647,-100.375626,-7.4475517,STD
3571050253000,2.474963,-1.88494251266338,9.70695197182689,-0.969499411356375,-0.043982297,0.029626964,0.009162978,299.7748,-100.36869,-7.457265,STD
3571055286000,2.479996,-1.88260927447962,9.68828616381063,-0.985832078642657,-0.038789943,0.027183503,0.008552114,299.7937,-100.36186,-7.466989,STD
3571060247000,2.484957,-1.88030941462872,9.66988738106303,-1.00193109759899,-0.047036625,0.024129177,0.0076358155,299.81744,-100.35791,-7.4764605,STD
3571065275000,2.489985,-1.87797849438474,9.6512401164682,-1.01824753930681,-0.044593163,0.026572637,0.013439035,299.84,-100.356064,-7.483931,STD
3571070470000,2.49518,-1.86498150502117,9.65289932017328,-1.01566385376588,-0.0421497,0.022296581,0.008552114,299.867,-100.3558,-7.4987535,STD
3571075279000,2.499989,-1.84684432624791,9.66650201486659,-1.00206096968593,-0.042760566,0.01985312,0.018325957,299.89297,-100.3514,-7.507376,STD
3571080315000,2.505025,-1.83606205039301,9.66720518864629,-0.993303050393013,-0.040317107,0.021380283,0.0067195175,299.9206,-100.35896,-7.5240855,STD
3571085405000,2.510115,-1.83133173384765,9.65774435798156,-0.988572733847647,-0.043066,0.026572637,0.013439035,299.9483,-100.35969,-7.5326004,STD
3571090365000,2.515075,-1.82409765053288,9.65849355539915,-0.991483549467122,-0.03573562,0.027183503,0.009773844,299.97144,-100.36205,-7.5402927,STD
3571095291000,2.520001,-1.81461136121054,9.66798004283129,-1.00096983878946,-0.032070424,0.027183503,0.016798794,299.99344,-100.35975,-7.5428658,STD
3571100279000,2.524989,-1.81964696709179,9.66775966589372,-0.988711370019324,-0.040011674,0.02321288,0.011301007,300.01495,-100.35923,-7.549556,STD
3571105937000,2.530647,-1.84058823642512,9.65728881256039,-0.952064121352657,-0.04520403,0.028099801,0.015577064,300.03412,-100.35665,-7.551219,STD
3571110288000,2.534998,-1.84617812481173,9.64912998404677,-0.944963786766746,-0.036651913,0.019547688,0.010079277,300.05682,-100.35948,-7.559068,STD
3571115283000,2.539993,-1.84143812124455,9.6396502738803,-0.959183822215616,-0.024129177,0.025350908,0.011911872,300.07404,-100.35983,-7.56292,STD
3571120388000,2.545098,-1.8453343371059,9.63207214177445,-0.969453312368634,-0.02443461,0.027488936,0.007330383,300.09222,-100.36034,-7.572972,STD
3571125291000,2.550001,-1.85956889159256,9.62732719118836,-0.974198163864188,-0.030848695,0.024740042,0.0070249503,300.11002,-100.36091,-7.581141,STD
3571130287000,2.554997,-1.87288207297432,9.6290147867753,-0.975753347662576,-0.030543262,0.036651913,0.015577064,300.12445,-100.36357,-7.587791,STD
3571135413000,2.560123,-1.88507611622535,9.63876995007204,-0.973314544105519,-0.028405234,0.027183503,0.007330383,300.1448,-100.36902,-7.599991,STD
3571140241000,2.564951,-1.89656125879577,9.64795799696955,-0.971017520388494,-0.032070424,0.024740042,0.010995574,300.16122,-100.37182,-7.6079865,STD
3571145291000,2.570001,-1.90857450858463,9.65756852655373,-0.968614875448358,-0.03756821,0.022602014,0.004276057,300.17926,-100.3786,-7.6213865,STD
3571150245000,2.574955,-1.92119973740207,9.65715974388239,-0.959473039970016,-0.029626964,0.021685716,0.0106901415,300.19794,-100.383766,-7.629885,STD
3571155317000,2.580027,-1.93529400075443,9.64306567675791,-0.940680664305058,-0.032986723,0.01740966,0.016187929,300.21756,-100.3873,-7.640507,STD
3571160228000,2.584938,-1.9440918,9.63459790889529,-0.929939957739458,-0.029626964,0.015271631,0.011911872,300.23676,-100.39618,-7.654893,STD
3571165461000,2.590171,-1.9440918,9.6355872574621,-0.932907946622315,-0.034513887,0.015577064,0.008552114,300.25632,-100.4015,-7.6673164,STD
3571170274000,2.594984,-1.9440918,9.63649720102259,-0.935637725046391,-0.036957346,0.0106901415,0.01038471,300.26535,-100.41132,-7.6820307,STD
3571176011000,2.600721,-1.9440918,9.63758183559697,-0.938891566479785,-0.028710667,0.01282817,0.016187929,300.27222,-100.42196,-7.6959715,STD
3571180227000,2.604937,-1.9440918,9.63837891061276,-0.941282745751737,-0.03573562,0.018325957,0.013744468,300.2792,-100.43039,-7.711463,STD
3571185292000,2.610002,-1.9440918,9.63933649717704,-0.944155450451082,-0.03481932,0.01282817,0.009773844,300.2888,-100.44088,-7.7257924,STD
3571190235000,2.614945,-1.9440918,9.64027101847758,-0.946958960683828,-0.034513887,0.015577064,0.02076942,300.29303,-100.44965,-7.7412357,STD
3571195293000,2.620003,-1.9440918,9.64122728162508,-0.94982769520886,-0.043982297,0.004581489,0.0143553335,300.302,-100.461044,-7.76294,STD
3571200387000,2.625097,-1.9440918,9.64219035091598,-0.952716847773216,-0.034513887,0.011911872,0.014660766,300.30072,-100.47329,-7.7775674,STD
3571205300000,2.63001,-1.9440918,9.64311920043036,-0.955503342973192,-0.03390302,0.012217305,0.01282817,300.30426,-100.48365,-7.794844,STD
3571210296000,2.635006,-1.93748158837186,9.64329413800646,-0.959333251469053,-0.03756821,0.0106901415,0.009773844,300.3062,-100.49494,-7.811797,STD
3571215246000,2.639956,-1.90920108054188,9.64093738185434,-0.966403372274422,-0.045814894,0.01282817,0.0036651916,300.3069,-100.50626,-7.8296037,STD
3571220286000,2.644996,-1.88040638166045,9.63853777559036,-0.973602040730798,-0.048258353,0.009162978,0.005192355,300.29996,-100.52313,-7.849601,STD
3571225298000,2.650008,-1.85177165332836,9.63615150047229,-0.980760716584638,-0.0421497,0.010995574,0.0076358155,300.29092,-100.540695,-7.8702126,STD
3571230267000,2.654977,-1.82357480136499,9.63893074074786,-0.984546003700856,-0.05009095,0.008857546,-0.0012217305,300.28555,-100.55519,-7.89045,STD
3571235337000,2.660047,-1.79557069072383,9.66226745900221,-0.975211316399116,-0.043066,0.01282817,0.0027488936,300.2787,-100.57,-7.905626,STD
3571240340000,2.66505,-1.76849718153604,9.68022474867413,-0.966615096307209,-0.03848451,0.015577064,0.0033597588,300.27048,-100.58145,-7.919839,STD
3571245583000,2.670293,-1.74384035458653,9.66543034354744,-0.961683730917305,-0.03604105,0.014966198,0.002443461,300.26245,-100.592964,-7.9329724,STD
3571250255000,2.674965,-1.72540581844872,9.65421132572902,-0.960446782285261,-0.035430185,0.0018325958,0.01160644,300.2499,-100.59816,-7.9377084,STD
3571255302000,2.680012,-1.74458221583019,9.66379972465781,-0.994005477702837,-0.034513887,0.007330383,0.008246681,300.23212,-100.60647,-7.945424,STD
3571260343000,2.685053,-1.7634494962056,9.67295132049909,-1.02377751839937,-0.04062254,0.016798794,0.007941248,300.21616,-100.60762,-7.946623,STD
3571265239000,2.689949,-1.77873030905536,9.67731735169235,-1.01286266835979,-0.027183503,0.023823744,0.016187929,300.19986,-100.61137,-7.9461865,STD
3571270684000,2.695394,-1.79572459540481,9.68217295623633,-1.00072391050328,-0.028099801,0.023823744,0.017715093,300.1861,-100.61911,-7.950909,STD
3571275251000,2.699961,-1.80997857258718,9.68624560012105,-0.990542513417757,-0.034208454,0.02443461,0.007941248,300.17047,-100.62877,-7.956209,STD
3571280252000,2.704962,-1.82558709894781,9.69070526556171,-0.979393582648168,-0.029321533,0.023518313,0.019242255,300.15234,-100.636284,-7.9545827,STD
3571285330000,2.71004,-1.84504559256564,9.70760440968048,-0.964927659854476,-0.02687807,0.023518313,0.010079277,300.13324,-100.648315,-7.961398,STD
3571290235000,2.714945,-1.86485966153116,9.72741837519772,-0.95006708226827,-0.040927973,0.029932396,0.01740966,300.11398,-100.651886,-7.9601297,STD
3571295260000,2.71997,-1.87156962193693,9.72185118519965,-0.935826884189202,-0.033292156,0.036651913,0.013439035,300.08984,-100.66728,-7.971687,STD
3571300243000,2.724953,-1.87622852991311,9.71253317465586,-0.921850160260666,-0.03573562,0.02076942,0.0070249503,300.07104,-100.67666,-7.982172,STD
3571305244000,2.729954,-1.86900074847866,9.69880214090259,-0.943533525587094,-0.03359759,0.025350908,0.014660766,300.0379,-100.688354,-7.991969,STD
3571310231000,2.734941,-1.85924794031039,9.68417313232592,-0.972791975551358,-0.03940081,0.02565634,0.01038471,300.01044,-100.701485,-8.007234,STD
3571315440000,2.74015,-1.85364330723839,9.66938015499607,-0.955548313965382,-0.028710667,0.027183503,0.0143553335,299.9821,-100.71318,-8.017958,STD
3571320249000,2.744959,-1.84911391785995,9.65579170308812,-0.932901343425452,-0.03481932,0.028710667,0.01985312,299.9541,-100.72074,-8.029039,STD
3571325236000,2.749946,-1.85227050242424,9.66131476969697,-0.917109846848485,-0.04550946,0.025350908,0.011911872,299.9287,-100.73427,-8.042246,STD
3571330237000,2.754947,-1.8570289303229,9.67083182424243,-0.902834568121212,-0.040317107,0.026572637,0.01282817,299.90265,-100.7461,-8.050871,STD
3571335242000,2.759952,-1.86564336410282,9.65708935264459,-0.919577016214533,-0.04520403,0.018936822,0.01282817,299.87897,-100.75508,-8.068865,STD
3571340242000,2.764952,-1.8751112830351,9.63815361364311,-0.943246808602076,-0.042455133,0.01282817,0.009773844,299.85498,-100.766464,-8.086766,STD
3571345241000,2.769951,-1.87833425027253,9.63682822034183,-0.953224457773703,-0.05009095,0.008552114,0.008552114,299.83243,-100.77244,-8.103828,STD
3571350256000,2.774966,-1.87995014597268,9.640059910504,-0.959688049010834,-0.04153884,0.004276057,0.0033597588,299.81186,-100.783104,-8.122513,STD
3571355193000,2.779903,-1.88154090909764,9.64324133709037,-0.966051109815961,-0.045814894,0.013133603,0.009162978,299.79398,-100.78999,-8.135222,STD
3571360181000,2.784891,-1.88314810506022,9.64645562832246,-0.972479902057399,-0.048258353,0.016493361,0.0076358155,299.77878,-100.801155,-8.151375,STD
3571365152000,2.789862,-1.88474982341027,9.64965896467263,-0.978886783820066,-0.05009095,0.002443461,0.0067195175,299.7666,-100.809906,-8.165589,STD
3571370173000,2.794883,-1.88636765238544,9.65289452126371,-0.985358108167351,-0.03848451,0.0033597588,-0.00030543262,299.74924,-100.82202,-8.18091,STD
3571375191000,2.799901,-1.87065625763351,9.64543392902521,-0.994398421183244,-0.028710667,0.008246681,0.008246681,299.73553,-100.82996,-8.19201,STD
3571380180000,2.80489,-1.85168518151678,9.635948688108,-1.00388395924161,-0.030848695,0.015882496,0.0067195175,299.7205,-100.841194,-8.207395,STD
3571385228000,2.809938,-1.84181813779569,9.63817128297824,-0.996456906120918,-0.043066,0.018936822,0.004276057,299.70728,-100.853134,-8.221148,STD
3571390187000,2.814897,-1.83407051940683,9.64281978929166,-0.985610232286535,-0.04062254,0.018936822,0.009162978,299.6933,-100.86572,-8.23272,STD
3571395187000,2.819897,-1.82625884529022,9.64750672850664,-0.974673880366407,-0.04428773,0.013744468,0.00580322,299.68842,-100.8742,-8.246826,STD
3571400237000,2.824947,-1.81836905443244,9.65224053711377,-0.963628164927078,-0.0421497,0.018020526,0.006414085,299.68124,-100.88206,-8.25777,STD
3571405257000,2.829967,-1.81052613361937,9.65694622408562,-0.952648067599269,-0.03359759,0.014049901,0.0076358155,299.67795,-100.89081,-8.269647,STD
3571410287000,2.834997,-1.80266758945806,9.66166128493589,-0.94164609756762,-0.040011674,0.004276057,0.0036651916,299.67508,-100.897934,-8.282557,STD
3571415246000,2.839956,-1.81551314254282,9.66216056952282,-0.939364462988813,-0.03481932,0.0021380284,0.003970624,299.6792,-100.90434,-8.291931,STD
3571420315000,2.845025,-1.83713988475893,9.66095905944956,-0.940565947970498,-0.03390302,0.002443461,0.010079277,299.68536,-100.90828,-8.300788,STD
3571425255000,2.849965,-1.8582162521978,9.65978812637363,-0.941736856593407,-0.04184427,0.0030543262,0.01160644,299.6881,-100.90452,-8.306155,STD
3571430253000,2.854963,-1.87954007496288,9.65860344550045,-0.942921512726463,-0.0421497,-0.0076358155,0.007330383,299.6939,-100.90238,-8.311745,STD
3571435303000,2.860013,-1.9010857542273,9.65740643901594,-0.944118494213444,-0.039095376,-0.020158553,0.0067195175,299.7062,-100.896515,-8.315812,STD
3571440309000,2.865019,-1.92244370876151,9.65621986189486,-0.945305046554797,-0.040011674,-0.022907447,0.014049901,299.71854,-100.889275,-8.318774,STD
3571445251000,2.869961,-1.94352860914266,9.65504845475695,-0.946476429229779,-0.03359759,-0.010995574,0.015577064,299.72968,-100.88558,-8.323385,STD
3571450282000,2.874992,-1.9649932254554,9.6538559518612,-0.947668907222057,-0.03573562,-0.004276057,0.011911872,299.7428,-100.879944,-8.32764,STD
3571455264000,2.879974,-1.97891195340473,9.64124155677915,-0.942014096595272,-0.03756821,0.010995574,0.015271631,299.75006,-100.87388,-8.328735,STD
3571460275000,2.884985,-1.9886087294807,9.62184810587998,-0.932317320519297,-0.03573562,0.004276057,0.009468411,299.761,-100.87111,-8.333973,STD
3571465298000,2.890008,-1.98911026642362,9.62084518683923,-0.934681317152752,-0.031154128,0.0021380284,0.0061086523,299.77057,-100.87909,-8.349339,STD
3571470289000,2.894999,-1.98475392220197,9.6295580572366,-0.943394005596063,-0.02687807,-0.0018325958,0.013744468,299.7826,-100.8861,-8.363165,STD
3571475249000,2.899959,-1.97679386607328,9.63314694980335,-0.941377690458497,-0.0290161,0.010079277,0.010995574,299.80432,-100.88687,-8.369656,STD
3571480257000,2.904967,-1.96438426806044,9.63066497836887,-0.926486175434693,-0.024129177,0.004581489,0.004581489,299.83188,-100.88908,-8.375826,STD
3571485366000,2.910076,-1.95172439660526,9.62813295120058,-0.911294332332333,-0.025961773,-0.0012217305,0.008857546,299.85635,-100.88831,-8.378574,STD
3571490340000,2.91505,-1.93939904905817,9.62566783021114,-0.896503917849824,-0.028099801,-0.010079277,0.01038471,299.88254,-100.89055,-8.384228,STD
3571495254000,2.919964,-1.92619852835645,9.6219187848923,-0.88509872820301,-0.018020526,-0.007941248,0.007941248,299.90454,-100.89322,-8.384273,STD
3571501212000,2.925922,-1.90936212398938,9.61630653290056,-0.873874423464149,-0.0070249503,-0.007941248,0.003970624,299.917824809875,-100.894032508461,-8.38448709894485,STD
3571505300000,2.93001,-1.89781551497936,9.6098014615687,-0.860863990288972,-0.0143553335,0.00030543262,0.003970624,299.92694,-100.89459,-8.384634,STD
3571510259000,2.934969,-1.88381172595833,9.60046592716729,-0.842192336583448,-0.0143553335,-0.002443461,0.0012217305,299.95505,-100.89002,-8.384377,STD
3571515251000,2.939961,-1.87102189041249,9.60802541917503,-0.827149986633222,-0.013744468,-0.0036651916,-0.005497787,299.97845,-100.88537,-8.384008,STD
3571520297000,2.945007,-1.85931025917794,9.63144868164413,-0.81543834806117,-0.01038471,0.00061086525,0.009162978,300.00122,-100.87743,-8.378452,STD
3571525204000,2.949914,-1.84792124323106,9.65422671353788,-0.804049324978915,-0.017104227,0.0036651916,0.0030543262,300.02298,-100.869576,-8.378305,STD
3571530244000,2.954954,-1.83622353783627,9.67762212432747,-0.792351612255344,-0.013744468,0.0067195175,0.012217305,300.04407,-100.858,-8.3698225,STD
3571535457000,2.960167,-1.82209946348729,9.70081978371822,-0.791358709705997,-0.019242255,0.014049901,0.008552114,300.0619,-100.84822,-8.366727,STD
3571540300000,2.96501,-1.8063482709247,9.72107123981176,-0.804859718811857,-0.013744468,0.020463986,0.005497787,300.07898,-100.83934,-8.361116,STD
3571545201000,2.969911,-1.79040844132544,9.7415652283136,-0.818522416649525,-0.0143553335,0.024129177,0.007330383,300.0872,-100.82184,-8.350078,STD
3571550288000,2.974998,-1.77386367226373,9.76283699315933,-0.832703633523675,-0.02107485,0.021991149,0.004581489,300.0946,-100.8064,-8.341563,STD
3571555235000,2.979945,-1.76537796314281,9.77359262013151,-0.843840850615411,-0.011911872,0.025350908,0.01160644,300.09952,-100.79162,-8.329812,STD
3571560251000,2.984961,-1.77752702636992,9.75739401011634,-0.84789052426235,-0.015882496,0.02565634,0.009773844,300.10522,-100.77628,-8.321869,STD
3571565296000,2.990006,-1.78974632939639,9.74110174785028,-0.851963611094251,-0.0027488936,0.030848695,0.0036651916,300.10852,-100.76314,-8.307626,STD
3571570950000,2.99566,-1.78547886596298,9.71807641409548,-0.836183675401104,-0.011911872,0.030543262,0.00580322,300.11322,-100.74432,-8.292261,STD
3571575403000,3.000113,-1.78243937643537,9.70168943350672,-0.824374212562567,-0.013133603,0.028099801,0.011301007,300.11676,-100.730354,-8.278035,STD
3571580269000,3.004979,-1.79616026429483,9.70626315830798,-0.833521490238492,-0.02321288,0.030543262,0.010995574,300.11432,-100.71974,-8.268998,STD
3571585452000,3.010162,-1.8102757491899,9.70932649944651,-0.841981251347489,-0.027488936,0.03726278,0.0067195175,300.1085,-100.70956,-8.261263,STD
3571590314000,3.015024,-1.81496150964074,9.68121183888498,-0.827923950423669,-0.022907447,0.03604105,0.002443461,300.1042,-100.69953,-8.25411,STD
3571595428000,3.020138,-1.82032117839305,9.6531298577633,-0.814465287643865,-0.03481932,0.03634648,0.00030543262,300.0994,-100.68698,-8.244604,STD
3571600301000,3.025011,-1.83183725439739,9.64852357166124,-0.82137494286645,-0.035430185,0.026267206,0.0076358155,300.0981,-100.67641,-8.234349,STD
3571605620000,3.03033,-1.84440733612674,9.64349569647616,-0.828917002404501,-0.032375857,0.022907447,-0.0033597588,300.09375,-100.66896,-8.231152,STD
3571610291000,3.035001,-1.85544603734084,9.63908035430856,-0.835540232354161,-0.028405234,0.028710667,-0.00061086525,300.09024,-100.657234,-8.222292,STD
3571615588000,3.040298,-1.86801441429349,9.63498414865233,-0.844012267806516,-0.03573562,0.025961773,-0.0033597588,300.08862,-100.649185,-8.221064,STD
3571620474000,3.045184,-1.88075393098285,9.65197008222162,-0.873737833353299,-0.03481932,0.02107485,-0.00030543262,300.08624,-100.64163,-8.217417,STD
3571625199000,3.049909,-1.89307366417098,9.66839630737817,-0.902483903187222,-0.034208454,0.013439035,-0.004581489,300.08575,-100.64156,-8.222681,STD
3571630303000,3.055013,-1.92125136734323,9.67973047228339,-0.90621899857348,-0.028099801,0.004276057,-0.005497787,300.0873,-100.64129,-8.226299,STD
3571635289000,3.059999,-1.95325232207755,9.68887377951173,-0.901647440430828,-0.021991149,0.002443461,0.0015271631,300.08905,-100.64033,-8.228809,STD
3571640600000,3.06531,-1.98537155070264,9.6769779248128,-0.929721409672787,-0.029932396,-0.004886922,-0.004276057,300.0936,-100.64817,-8.239426,STD
3571645258000,3.069968,-2.0128258953944,9.65867464611755,-0.966327221706842,-0.009773844,-0.009468411,0.0061086523,300.0987,-100.6569,-8.243319,STD
3571650294000,3.075004,-2.01547078201882,9.6621466966353,-0.985559996635302,-0.01863139,-0.009468411,0.004276057,300.10513,-100.666176,-8.256794,STD
3571655298000,3.080008,-2.00838831876447,9.67395080205921,-0.997364102059215,-0.01985312,-0.007330383,0.01282817,300.11298,-100.675674,-8.264295,STD
3571660279000,3.084989,-2.00133840879846,9.68570065200256,-1.00911395200256,-0.026267206,-0.004886922,0.018936822,300.12488,-100.69258,-8.278297,STD
3571665291000,3.090001,-1.99424462266121,9.69752362889798,-1.02093692889798,-0.030543262,-0.0027488936,0.01863139,300.13626,-100.70889,-8.291422,STD
3571670314000,3.095024,-1.98871130722615,9.6915116580285,-1.00839583613077,-0.022907447,-0.004276057,0.023518313,300.14713,-100.72394,-8.30147,STD
3571675266000,3.099976,-1.98398447441443,9.67733135702183,-0.984761672072162,-0.03176499,-0.004581489,0.02321288,300.15677,-100.73622,-8.312796,STD
3571680318000,3.105028,-1.97594018361177,9.67903378266706,-0.973604891805887,-0.020463986,0.0036651916,0.023518313,300.16473,-100.75091,-8.316194,STD
3571685463000,3.110173,-1.9661405344471,9.68883338066826,-0.968705067223548,-0.03726278,-0.0030543262,0.02565634,300.17706,-100.758446,-8.31974,STD
3571690292000,3.115002,-1.95694276849642,9.69803109859785,-0.96410618424821,-0.03481932,-0.0027488936,0.027183503,300.18338,-100.768265,-8.322105,STD
3571695295000,3.120005,-1.9474135858393,9.70756023150358,-0.95934159291965,-0.03176499,-0.011911872,0.028710667,300.19434,-100.774635,-8.324492,STD
3571700283000,3.124993,-1.94714268276539,9.71291596431962,-0.960731582765393,-0.021991149,-0.019242255,0.029626964,300.20932,-100.777054,-8.31738,STD
3571705295000,3.130005,-1.95185631544731,9.71605845173328,-0.965445215447314,-0.0290161,-0.033292156,0.023518313,300.22845,-100.77838,-8.312775,STD
3571710293000,3.135003,-1.9565567815575,9.71919216124914,-0.970145681557498,-0.032070424,-0.033292156,0.025961773,300.24582,-100.77393,-8.298817,STD
3571715279000,3.139989,-1.96124596203476,9.7223183468526,-0.974834862034764,-0.022907447,-0.038789943,0.024740042,300.26813,-100.77294,-8.2888565,STD
3571720309000,3.145019,-1.96597652316606,9.72547212013487,-0.979565423166061,-0.040011674,-0.04886922,0.032070424,300.2887,-100.767044,-8.28013,STD
3571725294000,3.150004,-1.97066476317392,9.72859767874562,-0.984253663173917,-0.04153884,-0.054061573,0.027183503,300.30872,-100.76883,-8.275625,STD
3571730297000,3.155007,-1.9523861345707,9.72237232542339,-0.991520109688854,-0.03848451,-0.05375614,0.025961773,300.33072,-100.767006,-8.270913,STD
3571735326000,3.160036,-1.91444852916503,9.70814544486018,-1.00100449866089,-0.044593163,-0.05589417,0.02687807,300.3544,-100.764114,-8.267538,STD
3571740296000,3.165006,-1.8813821048529,9.68895033737741,-0.998151902426448,-0.05375614,-0.056199603,0.03176499,300.37836,-100.76469,-8.266637,STD
3571745292000,3.170002,-1.8523583300273,9.66476385835608,-0.983640015013649,-0.04795292,-0.045814894,0.03176499,300.3993,-100.76794,-8.266748,STD
3571750280000,3.17499,-1.83628211105381,9.65095641695047,-0.984228666838572,-0.054061573,-0.057726767,0.025350908,300.4242,-100.76558,-8.264458,STD
3571755300000,3.18001,-1.83160413732607,9.64627883399825,-0.998262588021796,-0.046120327,-0.06261369,0.025961773,300.44403,-100.76556,-8.259895,STD
3571760289000,3.184999,-1.82689846507335,9.63930163526594,-0.991934878579982,-0.052534413,-0.053450707,0.028405234,300.45975,-100.76066,-8.257778,STD
3571765477000,3.190187,-1.82194043310049,9.62938536423511,-0.9621866608572,-0.048258353,-0.051923547,0.03604105,300.47885,-100.75815,-8.254646,STD
3571770327000,3.195037,-1.8286561952268,9.61789392321376,-0.957166757056033,-0.046120327,-0.04734206,0.027488936,300.48914,-100.76034,-8.254699,STD
3571775257000,3.199967,-1.84731955089436,9.60389660134401,-0.975830137083704,-0.053450707,-0.04337143,0.029932396,300.49957,-100.75766,-8.249705,STD
3571780243000,3.204953,-1.85168645198421,9.59388960740375,-0.988482449338598,-0.053450707,-0.052534413,0.034513887,300.51013,-100.754265,-8.245976,STD
3571785352000,3.210062,-1.83719646051333,9.58905950937809,-0.993312446495558,-0.053450707,-0.04184427,0.033292156,300.51358,-100.75045,-8.242587,STD
3571790281000,3.214991,-1.83316249388282,9.59436874607746,-1.00596890555114,-0.044898596,-0.03634648,0.030543262,300.53305,-100.75041,-8.243318,STD
3571795296000,3.220006,-1.84270125296922,9.61344616464747,-1.02981585306852,-0.0421497,-0.032375857,0.024740042,300.5494,-100.75047,-8.245091,STD
3571800247000,3.224957,-1.84463729490618,9.61823975259274,-1.04295038910328,-0.043982297,-0.03023783,0.024129177,300.56415,-100.74985,-8.244301,STD
3571805299000,3.230009,-1.83530209764604,9.60190305991028,-1.04061656541894,-0.041233405,-0.031154128,0.023823744,300.5782,-100.75188,-8.245155,STD
3571810200000,3.23491,-1.82624592152332,9.58605465713183,-1.03835249774733,-0.040011674,-0.02321288,0.02107485,300.586,-100.759224,-8.248253,STD
3571815273000,3.239983,-1.81687191999904,9.56965005658193,-1.03600897289566,-0.03756821,-0.014966198,0.027183503,300.5942,-100.76536,-8.249002,STD
3571820296000,3.245006,-1.81378127197605,9.55514323063872,-1.03555003709581,-0.041233405,-0.021380283,0.023518313,300.60388,-100.77328,-8.253592,STD
3571825784000,3.250494,-1.8295170439521,9.54465304461078,-1.04079534919162,-0.03848451,-0.028405234,0.014660766,300.61133,-100.782555,-8.257753,STD
3571830271000,3.254981,-1.84220721033435,9.55003436778116,-1.04733231033435,-0.038179077,-0.021685716,0.01740966,300.62296,-100.7837,-8.254552,STD
3571835355000,3.260065,-1.85608119908815,9.59628099696049,-1.06120629908815,-0.036957346,-0.027794369,0.015271631,300.6396,-100.7886,-8.256062,STD
3571840270000,3.26498,-1.86816894477889,9.63599711194723,-1.07225657761055,-0.039095376,-0.034208454,0.01740966,300.65564,-100.794205,-8.257923,STD
3571845291000,3.270001,-1.87286819841192,9.64774524602981,-1.06990695079404,-0.03023783,-0.035430185,0.007330383,300.67126,-100.8052,-8.263939,STD
3571850288000,3.274998,-1.87754498996824,9.6594372249206,-1.06756855501588,-0.03604105,-0.03756821,0.009468411,300.68533,-100.81659,-8.27512,STD
3571855300000,3.28001,-1.8822358203225,9.67116430080625,-1.06522313983875,-0.035430185,-0.03573562,0.006414085,300.69797,-100.83386,-8.290276,STD
3571860308000,3.285018,-1.8848967377249,9.68273003598375,-1.06071338061521,-0.025961773,-0.022907447,0.007330383,300.70813,-100.85012,-8.303127,STD
3571865282000,3.289992,-1.85725018914684,9.69194526349391,-1.0238512677307,-0.034208454,-0.015271631,0.009162978,300.7191,-100.863434,-8.31642,STD
3571870704000,3.295414,-1.82842825639066,9.70241778865278,-0.983814645430755,-0.038789943,-0.019242255,0.011301007,300.7306,-100.879364,-8.333223,STD
3571875250000,3.29996,-1.81931360490945,9.71609005139747,-0.951913341452947,-0.03726278,-0.007941248,0.01740966,300.73566,-100.893326,-8.347208,STD
3571880322000,3.305032,-1.81082369007944,9.7280180248014,-0.917759067733966,-0.03940081,-0.0018325958,0.017104227,300.7389,-100.89762,-8.357197,STD
3571885294000,3.310004,-1.82004977990699,9.70495280023251,-0.899306863994381,-0.032070424,0.0015271631,0.010079277,300.73965,-100.904,-8.366886,STD
3571890534000,3.315244,-1.82947902903226,9.68246093548387,-0.881375130967742,-0.039095376,-0.0018325958,0.016187929,300.74338,-100.89693,-8.370714,STD
3571895556000,3.320266,-1.8342526954938,9.68723470163772,-0.886148827336973,-0.038789943,0.005192355,0.020463986,300.74274,-100.89454,-8.376378,STD
3571900641000,3.325351,-1.83976061346116,9.69139108845622,-0.889967248908875,-0.04062254,0.0067195175,0.01863139,300.74414,-100.890175,-8.383676,STD
3571905298000,3.330008,-1.85298432099229,9.68698309389207,-0.88115141627199,-0.03848451,0.011911872,0.018020526,300.74252,-100.885506,-8.388896,STD
3571910611000,3.335321,-1.86766808745591,9.68196120855972,-0.872061763563054,-0.03390302,0.014660766,0.02107485,300.73642,-100.88321,-8.3937025,STD
3571915239000,3.339949,-1.87189279724526,9.67773641054237,-0.884735919399485,-0.049785517,0.0106901415,0.024740042,300.7308,-100.87759,-8.398403,STD
3571920315000,3.345025,-1.87652646770565,9.67310264331332,-0.898636959811267,-0.04734206,-0.003970624,0.01740966,300.7275,-100.87861,-8.407415,STD
3571925260000,3.34997,-1.87912736420781,9.66842838498909,-0.918879246529843,-0.034513887,0.00061086525,0.016798794,300.7202,-100.8764,-8.412797,STD
3571930231000,3.354941,-1.8814873816974,9.66370825143764,-0.940119413793377,-0.032986723,-0.009773844,0.018936822,300.72122,-100.873665,-8.42029,STD
3571935324000,3.360034,-1.88390531955185,9.65887227473726,-0.96188086458259,-0.03359759,-0.0033597588,0.02107485,300.71808,-100.87812,-8.434826,STD
3571940228000,3.364938,-1.88623352831648,9.65421575996431,-0.982834753188578,-0.040011674,-0.009162978,0.022296581,300.72147,-100.88142,-8.449377,STD
3571945256000,3.369966,-1.87869175079616,9.6454820994956,-0.990380674601919,-0.03604105,-0.008246681,0.01740966,300.725,-100.88389,-8.459341,STD
3571950246000,3.374956,-1.86923902960142,9.63602967441401,-0.995107035199288,-0.042455133,-0.007330383,0.016187929,300.7303,-100.88232,-8.467911,STD
3571955255000,3.379965,-1.86169692604321,9.63619483155766,-0.997914691318931,-0.03848451,-0.0018325958,0.016798794,300.73193,-100.8916,-8.47796,STD
3571960261000,3.384971,-1.85460289514649,9.63855955790668,-1.0002793682845,-0.044898596,0.0009162979,0.014966198,300.734,-100.89853,-8.488861,STD
3571965419000,3.390129,-1.84729346419059,9.64099608577489,-1.0027158452698,-0.04062254,0.010995574,0.016798794,300.73495,-100.9058,-8.496626,STD
3571970411000,3.395121,-1.84021927277301,9.64335419882608,-1.00507390907566,-0.04550946,0.013744468,0.020463986,300.7372,-100.910164,-8.50434,STD
3571975295000,3.400005,-1.83692714235236,9.6511239925871,-1.00192518470472,-0.03145956,0.02076942,0.01985312,300.73688,-100.92036,-8.516293,STD
3571980319000,3.405029,-1.83454938879664,9.66063495715345,-0.997169677593279,-0.032070424,0.027183503,0.01740966,300.73596,-100.9265,-8.5273485,STD
3571985343000,3.410053,-1.83217163524092,9.67014592171979,-0.992414170481838,-0.03573562,0.02443461,0.019547688,300.73386,-100.93082,-8.530808,STD
3571990313000,3.415023,-1.82981943874969,9.6795546585619,-0.987709777499382,-0.039095376,0.023518313,0.013439035,300.72913,-100.93731,-8.536943,STD
3571995291000,3.420001,-1.82581142067691,9.66535860338456,-0.983052420676911,-0.033292156,0.023518313,0.015882496,300.72424,-100.94353,-8.542093,STD
3572000257000,3.424967,-1.82118601814822,9.6422315907411,-0.97842701814822,-0.02687807,0.025350908,0.010995574,300.71878,-100.95206,-8.550825,STD
3572005296000,3.430006,-1.81157488104125,9.62624959778672,-0.975230619557344,-0.03176499,0.020463986,0.010995574,300.7145,-100.95529,-8.55615,STD
3572010261000,3.434971,-1.79961589932596,9.61429064104628,-0.972838828209255,-0.033292156,0.02107485,0.011301007,300.70813,-100.96108,-8.56236,STD
3572015239000,3.439949,-1.78762560507042,9.60230037183099,-0.970440774366197,-0.028710667,0.02076942,0.010079277,300.70334,-100.966896,-8.568846,STD
3572020351000,3.445061,-1.77531255078471,9.58998734325956,-0.967978168651911,-0.029932396,0.01740966,0.012217305,300.69952,-100.970436,-8.574206,STD
3572025261000,3.449971,-1.77494700609032,9.59933508912656,-0.955925231087344,-0.029626964,0.015577064,0.0143553335,300.69543,-100.97518,-8.579724,STD
3572030260000,3.45497,-1.77968801155179,9.61829891295306,-0.939331788704694,-0.022602014,0.018020526,0.014966198,300.69122,-100.98062,-8.584904,STD
3572035350000,3.46006,-1.78451532057338,9.63760794741533,-0.922436285258467,-0.029321533,0.01985312,0.018325957,300.6789,-100.98233,-8.586038,STD
3572040366000,3.465076,-1.78927244867796,9.65663626114082,-0.905786413885918,-0.024740042,0.030543262,0.023823744,300.6637,-100.98647,-8.585965,STD
3572045247000,3.469957,-1.79384483072886,9.67194397900875,-0.897237929271137,-0.025045475,0.029321533,0.021685716,300.6516,-100.989365,-8.587436,STD
3572050284000,3.474994,-1.79853271620991,9.68600792915452,-0.892550043790088,-0.025961773,0.03726278,0.015882496,300.6342,-100.99241,-8.58774,STD
3572055260000,3.47997,-1.80579838736379,9.69306855993118,-0.893322403681897,-0.026572637,0.03573562,0.017104227,300.61578,-100.98859,-8.582004,STD
3572060295000,3.485005,-1.81501635486523,9.69537285930033,-0.897931387432613,-0.018936822,0.03604105,0.01740966,300.59473,-100.987495,-8.57795,STD
3572065233000,3.489943,-1.82405673689543,9.69763276601032,-0.902451578447716,-0.014049901,0.034208454,0.014049901,300.57477,-100.98579,-8.575032,STD
3572070313000,3.495023,-1.83335708940929,9.69995765991206,-0.907101754704645,-0.024129177,0.036957346,0.02321288,300.55423,-100.97982,-8.568405,STD
3572075252000,3.499962,-1.8407249221555,9.70723919039238,-0.913752702245574,-0.02687807,0.04153884,0.013439035,300.5391,-100.978195,-8.566224,STD
3572080271000,3.504981,-1.84570120947303,9.72216836411637,-0.923705271684439,-0.03023783,0.03268129,0.01160644,300.52783,-100.97093,-8.559779,STD
3572085291000,3.510001,-1.84721769951374,9.72561202115244,-0.921208240821785,-0.019547688,0.038789943,0.01740966,300.5127,-100.96965,-8.556215,STD
3572090335000,3.515045,-1.84486878732312,9.7162164214442,-0.904765843223924,-0.03145956,0.040927973,0.010079277,300.50092,-100.96706,-8.557394,STD
3572095245000,3.519955,-1.84258227684415,9.70707042727936,-0.888760257933382,-0.032986723,0.04062254,0.018020526,300.4897,-100.96478,-8.553088,STD
3572100288000,3.524998,-1.84023383033795,9.69767669029905,-0.87232112012886,-0.03756821,0.042760566,0.0143553335,300.4767,-100.96403,-8.554023,STD
3572105257000,3.529967,-1.83176121489886,9.6899825422528,-0.875883979320259,-0.042760566,0.04520403,0.0125227375,300.45374,-100.96597,-8.55662,STD
3572110258000,3.534968,-1.8120903752644,9.6850647296437,-0.915225684264298,-0.048258353,0.04184427,0.013744468,300.43225,-100.96696,-8.559384,STD
3572115354000,3.540064,-1.80444497020088,9.68615714473297,-0.928513876588927,-0.044593163,0.037873644,0.02107485,300.40875,-100.963295,-8.559723,STD
3572120304000,3.545014,-1.81373554540911,9.6954474289074,-0.905287443418912,-0.04428773,0.032375857,0.022296581,300.38684,-100.95906,-8.56149,STD
3572125203000,3.549913,-1.82966579358178,9.69794760731539,-0.885606802691511,-0.04337143,0.034513887,0.017715093,300.37143,-100.954765,-8.558189,STD
3572130285000,3.554995,-1.85845567681159,9.68835128019324,-0.871211831014493,-0.0421497,0.036957346,0.02321288,300.3581,-100.9481,-8.551989,STD
3572135298000,3.560008,-1.89003960847458,9.68052877966102,-0.8748981,-0.04153884,0.034513887,0.024129177,300.34424,-100.941444,-8.549144,STD
3572140303000,3.565013,-1.92760751015969,9.6758327000098,-0.91246597716763,-0.046731193,0.0290161,0.02443461,300.3309,-100.93296,-8.54504,STD
3572145228000,3.569938,-1.95113892851884,9.67004534172613,-0.940424306912694,-0.043066,0.04184427,0.02687807,300.31406,-100.9277,-8.543584,STD
3572150921000,3.575631,-1.9412274214698,9.66013388642458,-0.947857950136345,-0.04337143,0.031154128,0.02443461,300.30548,-100.921906,-8.54443,STD
3572155236000,3.579946,-1.93371501098032,9.65262151515702,-0.953492267808935,-0.04184427,0.035124753,0.021991149,300.29156,-100.930435,-8.557625,STD
3572160258000,3.584968,-1.92497171422988,9.6438782640549,-0.960049751783848,-0.042760566,0.029626964,0.018325957,300.2835,-100.939026,-8.572162,STD
3572165410000,3.59012,-1.91600208761533,9.63490868427033,-0.966776983452256,-0.050396383,0.03359759,0.018936822,300.27133,-100.9425,-8.577067,STD
3572170310000,3.59502,-1.91980446266059,9.634268,-0.989472836499974,-0.04642576,0.029626964,0.019242255,300.2631,-100.94857,-8.583417,STD
3572175247000,3.599957,-1.92464457747863,9.634268,-1.01367343586016,-0.044898596,0.035430185,0.021685716,300.25116,-100.95207,-8.588364,STD
3572180281000,3.604991,-1.92957978873932,9.634268,-1.03834951793008,-0.036957346,0.03359759,0.01863139,300.2428,-100.95847,-8.5931425,STD
3572185637000,3.610347,-1.93529167983075,9.63411266078985,-1.06255959047955,-0.043066,0.03634648,0.020158553,300.23193,-100.96092,-8.595525,STD
3572190366000,3.615076,-1.94669826032642,9.63183129704816,-1.05571561836087,-0.024740042,0.03176499,0.026267206,300.22397,-100.968575,-8.597714,STD
3572195438000,3.620148,-1.95893217368527,9.62938446327826,-1.04837524479649,-0.03756821,0.022296581,0.027488936,300.23026,-100.97568,-8.606567,STD
3572200301000,3.625011,-1.97066196876889,9.62703845526899,-1.04133734325005,-0.032070424,0.022907447,0.022907447,300.235,-100.98898,-8.615038,STD
3572205568000,3.630278,-1.9842734127294,9.62506589037486,-1.03485742577606,-0.02321288,0.02443461,0.026267206,300.24246,-100.99842,-8.621092,STD
3572210292000,3.635002,-2.00635502303788,9.62948230466615,-1.04148193192601,-0.024740042,0.015577064,0.023823744,300.25232,-101.00914,-8.630295,STD
3572215244000,3.639954,-2.02950238422491,9.63411187358454,-1.04842616445236,-0.01740966,0.02107485,0.027183503,300.25815,-101.02218,-8.639384,STD
3572221042000,3.645752,-2.05660424209293,9.63953235835611,-1.05655675011226,-0.016187929,0.014966198,0.030543262,300.2697,-101.03418,-8.649653,STD
3572225274000,3.649984,-2.07638607418977,9.64348880739945,-1.06249132039731,-0.02443461,0.017104227,0.030543262,300.2773,-101.045586,-8.659302,STD
3572230288000,3.654998,-2.08222278071298,9.65195613793419,-1.03463568554845,-0.02107485,0.019242255,0.026267206,300.2866,-101.059265,-8.669288,STD
3572235325000,3.660035,-2.08663222760512,9.66077457129799,-1.00377015585009,-0.01985312,0.021380283,0.03176499,300.2955,-101.06875,-8.676293,STD
3572240298000,3.665008,-2.08418803579665,9.65588644289582,-0.988876120114309,-0.025045475,0.02107485,0.029626964,300.3101,-101.0881,-8.696394,STD
3572245197000,3.669907,-2.07948356141582,9.64647798536047,-0.979467367843177,-0.016798794,0.010079277,0.03023783,300.3273,-101.107834,-8.714062,STD
3572250284000,3.674994,-2.08499700871318,9.66091984348911,-0.990494174791287,-0.0027488936,0.014660766,0.031154128,300.34418,-101.1196,-8.7259445,STD
3572255294000,3.680004,-2.0942053896747,9.68394055551291,-1.00891074441033,-0.012217305,0.0018325958,0.0290161,300.36877,-101.129135,-8.739297,STD
3572260255000,3.684965,-2.10593886451139,9.68311075551065,-1.02088687634093,-0.008857546,0.002443461,0.035430185,300.38757,-101.13972,-8.748534,STD
3572265236000,3.689946,-2.11908233644379,9.66996700909258,-1.02964919096253,-0.00061086525,0.0036651916,0.028710667,300.40897,-101.15288,-8.76235,STD
3572270356000,3.695066,-2.12847819726027,9.662998,-1.02944110547945,0.0030543262,0.00030543262,0.034513887,300.43448,-101.162895,-8.769806,STD
3572275250000,3.69996,-2.13326953432836,9.662998,-1.01985843134328,0.007330383,-0.009468411,0.03756821,300.46085,-101.176506,-8.7800255,STD
3572280302000,3.705012,-2.13821555698221,9.662998,-1.00996638603558,-0.00030543262,0.0018325958,0.0290161,300.48462,-101.19285,-8.793635,STD
3572285363000,3.710073,-2.14317039084032,9.662998,-1.00005671831936,0.007941248,-0.011911872,0.03634648,300.5187,-101.20838,-8.803004,STD
3572290747000,3.715457,-2.14679676001609,9.66458999326227,-1.00235574006436,0.008246681,-0.0076358155,0.04428773,300.54373,-101.22282,-8.813455,STD
3572295256000,3.719966,-2.14896800856798,9.66676128715809,-1.01104073427192,0.01282817,-0.023518313,0.038179077,300.57785,-101.24088,-8.826929,STD
3572300259000,3.724969,-2.15137713620274,9.66917046510459,-1.02067724481094,0.007941248,-0.026267206,0.040011674,300.6061,-101.25261,-8.836184,STD
3572305242000,3.729952,-2.15377663310539,9.67157001211786,-1.03027523242156,0.0070249503,-0.025350908,0.049480084,300.63748,-101.265434,-8.845344,STD
3572310253000,3.734963,-2.16310908707375,9.66147174187153,-1.04817427410785,0.01160644,-0.043066,0.038179077,300.6747,-101.28205,-8.859884,STD
3572315248000,3.739958,-2.17733473616178,9.64250430878271,-1.07188373876883,0.005192355,-0.055283304,0.046120327,300.71057,-101.290146,-8.866077,STD
3572320249000,3.744959,-2.17949697444856,9.634268,-1.07816417444856,0.020158553,-0.065973446,0.03940081,300.74802,-101.311066,-8.877986,STD
3572325237000,3.749947,-2.17242531221318,9.634268,-1.07109251221318,0.015882496,-0.06566802,0.04184427,300.78586,-101.323654,-8.885173,STD
3572330273000,3.754983,-2.16528559869726,9.634268,-1.06395279869726,0.012217305,-0.06688975,0.03604105,300.8288,-101.3478,-8.90017,STD
3572335277000,3.759987,-2.1581912527017,9.634268,-1.0568584527017,0.022602014,-0.070554934,0.046120327,300.87247,-101.36945,-8.910039,STD
3572340241000,3.764951,-2.14502173094385,9.63670801821983,-1.04856883999403,0.018020526,-0.07513642,0.03940081,300.9122,-101.394646,-8.928315,STD
3572345245000,3.769955,-2.1259367818399,9.6414793551374,-1.03902631562127,0.011911872,-0.07819075,0.041233405,300.95276,-101.41704,-8.941343,STD
3572350251000,3.774961,-2.10916662725899,9.65115267099829,-1.00993584481213,0.0076358155,-0.070249505,0.03481932,300.98874,-101.43852,-8.955968,STD
3572355154000,3.779864,-2.09497652438803,9.66534257630704,-0.96263547721366,0.002443461,-0.071776666,0.034208454,301.02808,-101.45695,-8.96883,STD
3572360163000,3.784873,-2.08305139023914,9.67609438994631,-0.946739080331869,0.0012217305,-0.08857546,0.031154128,301.07178,-101.47042,-8.978067,STD
3572365155000,3.789865,-2.07371851855539,9.68309390971205,-0.963071532689117,0.008246681,-0.09254608,0.037873644,301.112,-101.48247,-8.984381,STD
3572370124000,3.794834,-2.06442864688141,9.69006118008785,-0.979328735366032,0.0036651916,-0.10415252,0.040317107,301.15402,-101.48574,-8.990207,STD
3572375192000,3.799902,-2.05495368820888,9.69716726305515,-0.995909838840898,0.015577064,-0.09132435,0.036651913,301.18945,-101.49333,-8.995296,STD
3572380124000,3.804834,-2.03818470015322,9.69755438629961,-1.00368938335887,0.025350908,-0.08368854,0.039095376,301.23328,-101.4967,-8.99846,STD
3572385237000,3.809947,-2.00914332513221,9.68787397850047,-0.998849154188702,0.020158553,-0.09040806,0.040317107,301.27667,-101.50089,-9.003233,STD
3572390124000,3.814834,-1.98138560955864,9.67862145494983,-0.994222868259774,0.017104227,-0.09407325,0.03176499,301.31732,-101.51019,-9.007576,STD
3572395185000,3.819895,-1.95263958980873,9.66903949839371,-0.989431864968121,0.009773844,-0.10048734,0.04642576,301.3609,-101.51257,-9.005599,STD
3572400244000,3.824954,-1.92389913992681,9.6612286561171,-0.988180406933043,0.017715093,-0.10903945,0.039095376,301.40192,-101.52313,-9.008248,STD
3572405247000,3.829957,-1.89546704787855,9.65648988339432,-0.992919080694293,0.015577064,-0.11453723,0.03573562,301.44388,-101.52678,-9.006176,STD
3572410218000,3.834928,-1.84884516565513,9.65968977935337,-0.988152081267725,0.021991149,-0.12675454,0.03145956,301.48602,-101.52768,-8.999437,STD
3572415230000,3.83994,-1.76716799700321,9.67784062979769,-0.965463968335224,0.01740966,-0.14569137,0.042455133,301.53143,-101.524055,-8.990311,STD
3572420303000,3.845013,-1.7101503792976,9.68625022070241,-0.947008094140481,0.014966198,-0.14752395,0.034208454,301.57275,-101.52475,-8.984298,STD
3572425243000,3.849953,-1.73201239038817,9.66438820961183,-0.942635691922366,0.005497787,-0.15027285,0.03390302,301.61957,-101.51976,-8.974331,STD
3572430318000,3.855028,-1.75013012462468,9.64546197514135,-0.940548281589979,0.006414085,-0.14538592,0.03359759,301.6492,-101.50713,-8.954948,STD
3572435293000,3.860003,-1.72226236482745,9.66404038467538,-0.963771439003704,0.005192355,-0.14294247,0.03268129,301.67957,-101.493416,-8.93689,STD
3572440464000,3.865174,-1.6941622007028,9.68370632945697,-0.986721965891394,-0.01038471,-0.1328632,0.03145956,301.707,-101.48129,-8.922876,STD
3572445242000,3.869952,-1.68028070711396,9.70684211184144,-0.991349122368288,-0.0036651916,-0.122478485,0.03176499,301.73306,-101.47342,-8.909276,STD
3572450251000,3.874961,-1.6657280906664,9.73109643037719,-0.996199986075437,-0.00030543262,-0.12156218,0.032070424,301.75812,-101.46195,-8.893268,STD
3572455260000,3.87997,-1.65117547421883,9.75535074891293,-1.00105084978259,-0.005192355,-0.12614368,0.038789943,301.78152,-101.44932,-8.875912,STD
3572460333000,3.885043,-1.6372599409819,9.77829396682779,-1.00332094393896,0.008552114,-0.1282817,0.041233405,301.80115,-101.44214,-8.858512,STD
3572465251000,3.889961,-1.63279603212018,9.7827579689129,-0.9765374674628,0.004886922,-0.12767084,0.043982297,301.8211,-101.429985,-8.83999,STD
3572470419000,3.895129,-1.62810520637854,9.78744889261681,-0.948392488522415,0.008552114,-0.1255328,0.044593163,301.8392,-101.41823,-8.817716,STD
3572475917000,3.900627,-1.64486388690374,9.75388342619252,-0.925694884642243,0.007941248,-0.12705997,0.04642576,301.8579,-101.404816,-8.795353,STD
3572480268000,3.904978,-1.65856882092425,9.730036,-0.908683395527394,0.0125227375,-0.13408493,0.049785517,301.87732,-101.39317,-8.773423,STD
3572485300000,3.91001,-1.67693583668414,9.730036,-0.897203996293473,0.009773844,-0.12675454,0.036957346,301.88895,-101.37914,-8.752741,STD
3572490645000,3.915355,-1.6964453158647,9.730036,-0.885010556526918,0.008857546,-0.12950343,0.029626964,301.90573,-101.36511,-8.732968,STD
3572495254000,3.919964,-1.71326836348738,9.730036,-0.874496138587899,0.007941248,-0.122478485,0.028099801,301.91705,-101.35271,-8.715326,STD
3572500254000,3.924964,-1.73151857787518,9.730036,-0.863089740303001,0.0015271631,-0.12522738,0.02687807,301.92126,-101.346954,-8.706656,STD
3572505306000,3.930016,-1.7683184444891,9.71694207696172,-0.875006276937607,0.00061086525,-0.14080444,0.036651913,301.9275,-101.340164,-8.6959,STD
3572510237000,3.934947,-1.80627545237617,9.70270792032553,-0.889240166042399,0.009773844,-0.14202617,0.045814894,301.93024,-101.33468,-8.685596,STD
3572515245000,3.939955,-1.80575826110128,9.68427213333333,-0.886384794422812,0.01038471,-0.14172074,0.03970624,301.94336,-101.3269,-8.67841,STD
3572520317000,3.945027,-1.80098210283186,9.6651676,-0.881608606230089,0.018936822,-0.15210545,0.037873644,301.96005,-101.31975,-8.668363,STD
3572525258000,3.949968,-1.80860628989011,9.66095630989011,-0.893316095494506,0.0143553335,-0.14874569,0.03604105,301.97412,-101.32059,-8.668794,STD
3572530227000,3.954937,-1.81790291879365,9.65863210412698,-0.907261050984127,0.007330383,-0.14660765,0.03634648,301.99118,-101.32262,-8.669728,STD
3572535257000,3.959967,-1.82731367415385,9.65627936615385,-0.921377196307692,0.015577064,-0.14080444,0.035430185,302.00244,-101.32775,-8.670467,STD
3572540280000,3.96499,-1.83671133303541,9.65392990236874,-0.935473696896215,0.021380283,-0.12889257,0.036651913,302.0112,-101.33073,-8.670355,STD
3572545920000,3.97063,-1.834557625197,9.66598908687296,-0.921769955162406,0.019547688,-0.12614368,0.03481932,302.02084,-101.33399,-8.669855,STD
3572550299000,3.975009,-1.83052756492408,9.67807952018067,-0.905649718278878,0.018020526,-0.13500121,0.039095376,302.0306,-101.33679,-8.667483,STD
3572555258000,3.979968,-1.83602909294892,9.68558156809539,-0.896790363525542,0.016187929,-0.14538592,0.03940081,302.0349,-101.35178,-8.676588,STD
3572560256000,3.984966,-1.84586871601398,9.69050148237229,-0.891870551993011,0.022907447,-0.14172074,0.042760566,302.03812,-101.366196,-8.683341,STD
3572565300000,3.99001,-1.85192829056305,9.67370604718477,-0.915875208996828,0.021685716,-0.13805555,0.048563786,302.0464,-101.37218,-8.685687,STD
3572570311000,3.995021,-1.8566853628073,9.64992068596352,-0.949174734575734,0.024740042,-0.14538592,0.05681047,302.05698,-101.37883,-8.686739,STD
3572575271000,3.999981,-1.88205939457964,9.64902183004456,-0.992193398819958,0.016798794,-0.14935656,0.044593163,302.07062,-101.385086,-8.693651,STD
3572580314000,4.005024,-1.91516627103756,9.65611605665181,-1.03948892603437,0.023823744,-0.13897185,0.038179077,302.08258,-101.39167,-8.696469,STD
3572585333000,4.010043,-1.94811558948734,9.663176521324,-1.0865593704304,0.022602014,-0.12644911,0.030543262,302.09528,-101.40578,-8.7082405,STD
3572590311000,4.015021,-1.98079574633991,9.6701793093571,-1.133245298345,0.0125227375,-0.1282817,0.03848451,302.10934,-101.4173,-8.717396,STD
3572595294000,4.020004,-1.9799278935852,9.68763488301851,-1.1462048233963,0.016798794,-0.1301143,0.040317107,302.12723,-101.42885,-8.723577,STD
3572600282000,4.024992,-1.96160626029341,9.71053692463324,-1.14162441507335,0.005497787,-0.12461651,0.03573562,302.14334,-101.43533,-8.729191,STD
3572605302000,4.030012,-1.92224975281661,9.714746368454,-1.12821497550595,0.018936822,-0.12889257,0.04520403,302.1729,-101.4636,-8.742022,STD
3572610246000,4.034956,-1.86791789535781,9.70486765199249,-1.10845795518464,0.02076942,-0.13988814,0.064751714,302.20288,-101.486046,-8.753148,STD
