timestamp,rel_time,acc_x,acc_y,acc_z,gyro_x,gyro_y,gyro_z,azimuth,pitch,roll,label
48258337479000,0,3.35725698756235,9.1371938269844,0.653784116039103,-0.0015271631,0.00061086525,-0.01985312,21.05851,-170.46724,-1.4750111,STD
48258342463000,0.004984,3.3560642311676,9.14506600922604,0.658316592830083,-0.0061086523,-0.01038471,-0.019242255,21.048178,-169.9925,-1.2993866,STD
48258347481000,0.010002,3.35486333799166,9.15299189415551,0.662879989406555,-0.01863139,-0.016493361,-0.02321288,21.037354,-169.52179,-1.1260407,STD
48258352479000,0.015,3.3536672311576,9.16088618926861,0.667425197873914,-0.015882496,-0.020158553,-0.018936822,21.028542,-169.05899,-0.95639724,STD
48258357468000,0.019989,3.35247327817738,9.16876626896435,0.671962221692172,-0.009468411,-0.027794369,-0.00580322,21.02082,-168.59871,-0.7910555,STD
48258362456000,0.024977,3.35127956451426,9.17664476916926,0.676498336104975,-0.014049901,-0.033292156,-0.00030543262,21.011467,-168.14122,-0.62810546,STD
48258367482000,0.030003,3.35007675680158,9.18458329002529,0.681069007925092,-0.018020526,-0.044898596,0.0018325958,21.00492,-167.69092,-0.47026953,STD
48258372475000,0.034996,3.34888184655298,9.1924696876843,0.685609669365173,-0.01282817,-0.036651913,0.004886922,20.998577,-167.24718,-0.3098746,STD
48258377460000,0.039981,3.34768885084114,9.20034344941675,0.690143055561608,-0.015271631,-0.031154128,0.014660766,20.994968,-166.80548,-0.15476908,STD
48258382553000,0.045074,3.34647000888318,9.20838779615765,0.694774657547255,-0.018325957,-0.035430185,0.017715093,20.98979,-166.37051,-0.002200815,STD
48258387557000,0.050078,3.34527246614656,9.21629156821567,0.699325322447348,-0.016798794,-0.028710667,0.025961773,20.986952,-165.94164,0.15402909,STD
48258392441000,0.054962,3.34410364146117,9.22400580137541,0.703766858692762,-0.026572637,-0.028710667,0.025350908,20.9856578604651,-165.73034910299,0.234003486146179,STD
48258397490000,0.060011,3.34289532945533,9.23198065052028,0.708358446838359,-0.034513887,0.009773844,0.04153884,20.98432,-165.51192,0.31667972,STD
48258402472000,0.064993,3.34170305169477,9.23984967378028,0.712889104818428,-0.04795292,0.02687807,0.04886922,20.981916,-165.08945,0.47326198,STD
48258407489000,0.07001,3.34050239783593,9.24777397921894,0.717451591989445,-0.07086037,0.02687807,0.059253927,20.98213,-164.66492,0.63498646,STD
48258412459000,0.07498,3.33931299188049,9.25562404858911,0.721971337104045,-0.08093964,0.023823744,0.06169739,20.980034,-164.246,0.7983193,STD
48258417456000,0.079977,3.33811712436352,9.26351676421139,0.726515636165949,-0.08674286,0.016798794,0.053145275,20.977053,-163.82764,0.9581946,STD
48258422477000,0.084998,3.33691551323631,9.27144738761333,0.731081760958788,-0.09285152,0.01160644,0.058337633,20.977669,-163.41232,1.1167225,STD
48258427464000,0.089985,3.33572203889028,9.27932430832742,0.735616965966135,-0.093462385,0.006414085,0.05681047,20.97382,-163.00279,1.26983,STD
48258432465000,0.094986,3.33452521410494,9.28722334191298,0.740164902649861,-0.09132435,0.0076358155,0.057421334,20.971098,-162.59834,1.4216028,STD
48258438060000,0.100581,3.33318623496596,9.29606059304499,0.745253026174245,-0.10720685,-0.0018325958,0.05222898,20.967066,-162.19447,1.5661494,STD
48258442464000,0.104985,3.33499530904267,9.29740901596295,0.741265228166734,-0.098043874,-0.0027488936,0.056199603,20.964188,-161.80441,1.7119609,STD
48258447494000,0.110015,3.33956812792941,9.2940395736419,0.729712829722559,-0.09590584,-0.002443461,0.056505036,20.959108,-161.41373,1.8525286,STD
48258452514000,0.115035,3.34413185572493,9.29067683001334,0.718183398273304,-0.101098195,0.011301007,0.056505036,20.962734,-161.02785,1.9822963,STD
48258457499000,0.12002,3.34866376470115,9.28733753180849,0.706734351306264,-0.11178834,0.0106901415,0.05681047,20.967693,-160.64867,2.1055558,STD
48258462516000,0.125037,3.3532247651693,9.28397679778767,0.695211809955484,-0.112399206,0.008857546,0.064446285,20.973272,-160.2785,2.2301738,STD
48258467451000,0.129972,3.35771121868939,9.28067099304525,0.683877597963038,-0.12064589,0.008857546,0.064751714,20.976713,-159.91042,2.351755,STD
48258472471000,0.134992,3.3622749464849,9.27730824941669,0.672348166513782,-0.112399206,-0.014966198,0.05955936,20.983185,-159.55418,2.4639485,STD
48258477465000,0.139986,3.36681503744323,9.2739629223886,0.660878449251315,-0.10903945,-0.036957346,0.06627888,20.992792,-159.202,2.5750637,STD
48258482537000,0.145058,3.37142603891312,9.2705653455591,0.649229589428481,-0.10048734,-0.036957346,0.0571159,20.997093,-158.86081,2.680875,STD
48258487484000,0.150005,3.37592340174268,9.2672515023857,0.637867817042133,-0.10995574,-0.032986723,0.054367006,21.00705,-158.52284,2.780612,STD
48258492464000,0.154985,3.38045076517329,9.26391555352709,0.626430253572553,-0.11026118,-0.032375857,0.052534413,21.015495,-158.19688,2.8760936,STD
48258497475000,0.159996,3.38500631098671,9.26055883872177,0.614921492418724,-0.10934488,-0.029932396,0.043676864,21.021084,-157.87541,2.9695995,STD
48258502481000,0.165002,3.3895573112545,9.25720547326269,0.603424214762354,-0.118202426,-0.019242255,0.03970624,21.02691,-157.55794,3.0633364,STD
48258507909000,0.17043,3.39449195557204,9.25356942298065,0.59095772992041,-0.12797627,-0.003970624,0.0421497,21.031693,-157.24718,3.1562977,STD
48258512458000,0.174979,3.39862749297081,9.25052218776823,0.580510043931831,-0.14172074,-0.0030543262,0.043676864,21.035973,-156.93932,3.2454016,STD
48258517472000,0.179993,3.40318576611159,9.24716346335517,0.568994392679527,-0.13988814,0.0015271631,0.040317107,21.037828,-156.63966,3.3368354,STD
48258522467000,0.184988,3.40772676617904,9.24381746645783,0.557522378717568,-0.13347405,0.0076358155,0.042455133,21.041601,-156.34406,3.4273381,STD
48258527459000,0.18998,3.41226503891912,9.24047347916823,0.546057254854085,-0.129198,0.021991149,0.03481932,21.04079,-156.05452,3.5173554,STD
48258532493000,0.195014,3.41684149424235,9.23710135737019,0.534495669611943,-0.13958271,0.016798794,0.04062254,21.045954,-155.76918,3.6033418,STD
48258537475000,0.199996,3.4213706758912,9.23376406877308,0.523053512743379,-0.13927728,0.019547688,0.034513887,21.043674,-155.49388,3.6905704,STD
48258542462000,0.204983,3.42590440308567,9.23042343082972,0.511599872377355,-0.13500121,0.020158553,0.036651913,21.046253,-155.2231,3.7752712,STD
48258547480000,0.210001,3.43046631266294,9.22706202693966,0.500075034327083,-0.14172074,-0.0061086523,0.03573562,21.049738,-154.95502,3.8504052,STD
48258552510000,0.215031,3.43503913154968,9.22369258461861,0.488522635882908,-0.119729586,-0.017104227,0.028710667,21.050657,-154.70209,3.9269962,STD
48258557508000,0.220029,3.4395828589445,9.22034457811352,0.477043731822474,-0.12217305,-0.038179077,0.021991149,21.056427,-154.44595,3.992033,STD
48258562456000,0.224977,3.44408113088318,9.21703006507087,0.465679662736634,-0.118202426,-0.047036625,0.0290161,21.064384,-154.20358,4.056289,STD
48258567448000,0.229969,3.44861940362326,9.21368607778128,0.454214538873151,-0.116675265,-0.056505036,0.024740042,21.071121,-153.96478,4.1109033,STD
48258572469000,0.23499,3.4531840405279,9.21032266428347,0.442682810724403,-0.105374254,-0.06383542,0.022296581,21.081768,-153.73535,4.163113,STD
48258577613000,0.240134,3.45786049785462,9.20687685686806,0.430868588538154,-0.1020145,-0.06963864,0.01740966,21.092516,-153.50905,4.2107277,STD
48258582479000,0.245,3.46228422284525,9.20361727310381,0.419692848810648,-0.101098195,-0.08827003,0.015577064,21.106882,-153.29025,4.251624,STD
48258587482000,0.250003,3.46683249578568,9.20026591725247,0.408202461252754,-0.09162979,-0.10476339,0.007941248,21.119888,-153.07944,4.288648,STD
48258592471000,0.254992,3.4713680411984,9.19692393957062,0.396744227487747,-0.07849618,-0.105374254,0.0036651916,21.134634,-152.8747,4.3236876,STD
48258597451000,0.259972,3.475895404629,9.19358799071201,0.385306664018166,-0.06291912,-0.099571034,0.0027488936,21.150654,-152.67784,4.354237,STD
48258602481000,0.265002,3.48046822351575,9.19021854839096,0.373754265573992,-0.054367006,-0.103847094,-0.00061086525,21.167416,-152.487,4.379872,STD
48258607464000,0.269985,3.48499831427372,9.18688058992461,0.362309812005936,-0.03359759,-0.099265605,-0.015882496,21.179953,-152.30804,4.406209,STD
48258612451000,0.274972,3.48953204146819,9.18353995198125,0.350856171639912,-0.040011674,-0.09193522,-0.025961773,21.194159,-152.12793,4.4311285,STD
48258617480000,0.280001,3.49410395124581,9.18017117952946,0.339306069895229,-0.02076942,-0.08246681,-0.02321288,21.207788,-151.965,4.456251,STD
48258622466000,0.284987,3.49863676933115,9.17683121145535,0.327854726228697,-0.022602014,-0.07147124,-0.033292156,21.21536,-151.7976,4.4793873,STD
48258627462000,0.289983,3.50317867850773,9.17348454468876,0.316380415567247,-0.012217305,-0.057421334,-0.04153884,21.223251,-151.64307,4.5051293,STD
48258632530000,0.295051,3.50778604354113,9.17008964733626,0.304740742542381,-0.011301007,-0.046731193,-0.03634648,21.23178,-151.48915,4.5321302,STD
48258637562000,0.300083,3.51236068064611,9.16671886527672,0.293183750699222,-0.008246681,-0.049480084,-0.043982297,21.235678,-151.3419,4.5552926,STD
48258642460000,0.304981,3.51747998178263,9.16612079178014,0.281831916429049,0.0012217305,-0.04795292,-0.032986723,21.244217,-151.20093,4.584346,STD
48258647593000,0.310114,3.52360968344656,9.16857267039753,0.2698177027551,0.011301007,-0.035430185,-0.044898596,21.244638,-151.0637,4.610152,STD
48258652482000,0.315003,3.52944800634446,9.17090799760587,0.258374591387102,0.008857546,-0.04062254,-0.04734206,21.259083,-151.07925,4.6056547,STD
48258657466000,0.319987,3.53539977589306,9.17328870343658,0.246709124613098,0.014660766,-0.05131268,-0.051618114,21.268972,-151.0994,4.600676,STD
48258662457000,0.324978,3.54135990466856,9.17567275295526,0.235027273756547,0.0030543262,-0.06536258,-0.056505036,21.279202,-151.11351,4.592872,STD
48258667477000,0.329998,3.54735466452691,9.17807065489551,0.223277545986583,0.009773844,-0.07696902,-0.06505715,21.288532,-151.13399,4.581728,STD
48258672475000,0.334996,3.5533231525293,9.18045804810215,0.211579311047484,0.006414085,-0.09254608,-0.06536258,21.301273,-151.1482,4.566435,STD
48258677464000,0.339985,3.55928089295426,9.18284114228141,0.199902141357374,0.02076942,-0.10262536,-0.06994407,21.31178,-151.16936,4.547641,STD
48258682468000,0.344989,3.56525654600828,9.18523140150631,0.188189862918949,0.0030543262,-0.10842858,-0.064751714,21.32647,-151.18098,4.527195,STD
48258687471000,0.349992,3.57123100488703,9.1876211830615,0.176479925063744,-0.0036651916,-0.10629055,-0.064446285,21.339302,-151.19984,4.5048523,STD
48258692461000,0.354982,3.57718993948726,9.19000475491047,0.164800414790413,-0.014660766,-0.10048734,-0.050701816,21.357407,-151.21323,4.4844766,STD
48258697490000,0.360011,3.58319544692304,9.1924069558781,0.15302962177146,-0.023823744,-0.106901415,-0.04795292,21.374514,-151.22528,4.4600034,STD
48258702490000,0.365011,3.58916632327597,9.19479530442416,0.141326705665919,-0.027183503,-0.09896017,-0.04184427,21.393396,-151.2367,4.4427366,STD
48258707467000,0.369988,3.59510973359769,9.19717266656691,0.129677622974463,-0.023823744,-0.10842858,-0.03848451,21.415894,-151.24782,4.419278,STD
48258712452000,0.374973,3.60106269732156,9.19955385006734,0.118009815617238,-0.018936822,-0.09773844,-0.03756821,21.435698,-151.25893,4.403093,STD
48258717475000,0.379996,3.60706103970572,9.20195318501671,0.106253066097611,-0.025045475,-0.077579886,-0.02565634,21.459421,-151.2686,4.3886194,STD
48258722465000,0.384986,3.61301997430595,9.20433675686568,0.0945735558242805,-0.022907447,-0.06658431,-0.027488936,21.479958,-151.28204,4.3724484,STD
48258727453000,0.389974,3.61897652055564,9.20671937337523,0.0828987267173924,-0.026572637,-0.051618114,-0.030543262,21.500017,-151.29271,4.36335,STD
48258732492000,0.395013,3.62499396974413,9.20912635103995,0.0711045278662277,-0.04062254,-0.037873644,-0.020158553,21.521793,-151.30167,4.357832,STD
48258737471000,0.399992,3.63093976841638,9.21150466852212,0.0594507640083296,-0.057726767,-0.023823744,-0.013744468,21.53979,-151.30893,4.354688,STD
48258742469000,0.40499,3.63690825641877,9.21389206172876,0.0477525290692304,-0.063224554,0.0018325958,-0.015882496,21.554821,-151.31601,4.3575573,STD
48258747499000,0.41002,3.64291495802983,9.2162947403661,0.0359793954670557,-0.073303826,0.02687807,-0.023518313,21.56828,-151.31747,4.363236,STD
48258752467000,0.414988,3.6488476207741,9.21866780348147,0.0243513780245898,-0.09407325,0.035430185,-0.01985312,21.582766,-151.31514,4.3717346,STD
48258757464000,0.419985,3.65481491460123,9.2210547190184,0.0126554836687117,-0.12583824,0.034208454,-0.0143553335,21.593613,-151.30737,4.382509,STD
48258763132000,0.425653,3.66158350003491,9.22376215093022,-0.000610942028530098,-0.12461651,0.027794369,-0.008857546,21.604876,-151.304,4.3938336,STD
48258767449000,0.42997,3.66673875467804,9.22582425106489,-0.0107152397940546,-0.15057829,0.01038471,-0.005192355,21.618761,-151.28488,4.401773,STD
48258772468000,0.434989,3.67273232036112,9.22822167533543,-0.022462626980797,-0.14569137,-0.020158553,0.004276057,21.638235,-151.27614,4.4055443,STD
48258777463000,0.439984,3.6786972258377,9.23060763553294,-0.0341538401702329,-0.13805555,-0.06536258,0.0009162979,21.660002,-151.26158,4.3992295,STD
48258782584000,0.445105,3.68481259739837,9.23305378211382,-0.0461399668455285,-0.0983493,-0.09193522,0.0030543262,21.68743,-151.25888,4.39127,STD
48258787500000,0.450021,3.69068316302858,9.23540200640431,-0.0576462739604968,-0.046120327,-0.10262536,-0.003970624,21.71617,-151.26245,4.3736963,STD
48258792461000,0.454982,3.69660746654596,9.23777172583171,-0.069257907320415,-0.007330383,-0.09162979,-0.0125227375,21.746132,-151.27406,4.3545465,STD
48258797462000,0.459983,3.70257953707417,9.24016055204748,-0.0809631640091775,0.02076942,-0.064751714,-0.02443461,21.773102,-151.29745,4.334945,STD
48258802497000,0.465018,3.70859220956157,9.24256561903337,-0.0927480005274577,0.04184427,-0.02687807,-0.04428773,21.793098,-151.32951,4.3183107,STD
48258807467000,0.469988,3.71452726065639,9.24493963748815,-0.104380699136366,0.03756821,0.0021380284,-0.052839845,21.810543,-151.3622,4.3058505,STD
48258812457000,0.474978,3.72048619525662,9.24732320933712,-0.116060209409696,0.06169739,0.03848451,-0.06841691,21.814922,-151.40817,4.3008175,STD
48258817480000,0.480001,3.72648453764078,9.2497225442865,-0.127816958929323,0.05100725,0.07452556,-0.07391469,21.81561,-151.44295,4.3029523,STD
48258822467000,0.484988,3.7324398897152,9.25210468312634,-0.13948944745299,0.046731193,0.09712757,-0.070249505,21.811253,-151.48611,4.3097253,STD
48258827458000,0.489979,3.7384000184907,9.25448873264502,-0.151171298309542,0.056505036,0.11026118,-0.053145275,21.804884,-151.5304,4.323955,STD
48258833319000,0.49584,3.74539907975161,9.25728835481071,-0.164889456568457,0.04153884,0.1160644,-0.031154128,21.798138,-151.56662,4.342791,STD
48258837472000,0.499993,3.75035848965036,9.25927211711307,-0.17460989868572,0.0421497,0.116675265,-0.007941248,21.794401,-151.61046,4.3655877,STD
48258842462000,0.504983,3.7481816282198,9.26324878065025,-0.18275543693138,0.027183503,0.105374254,0.019547688,21.797583,-151.64621,4.389723,STD
48258847479000,0.51,3.73210940626236,9.26996554201366,-0.184914392863669,0.01740966,0.083383106,0.029932396,21.80311,-151.6837,4.4112997,STD
48258852466000,0.514987,3.71613329087432,9.27664213936652,-0.187060438953827,-0.007330383,0.082161374,0.047036625,21.820875,-151.85052,4.4118605,STD
48258857478000,0.519999,3.70007708667845,9.28335220672817,-0.189217243245761,-0.0421497,0.05589417,0.05497787,21.843872,-152.00667,4.400814,STD
48258862460000,0.524981,3.68411698905198,9.29002211007928,-0.191361137695565,-0.06994407,0.04520403,0.058643065,21.866766,-152.15332,4.395106,STD
48258867473000,0.529994,3.6680575813038,9.29673351624129,-0.193518372315569,-0.09040806,0.027488936,0.059864793,21.894358,-152.28789,4.3817244,STD
48258872468000,0.534989,3.65205583749725,9.30342082399696,-0.195667861030296,-0.10934488,0.031154128,0.050396383,21.917688,-152.41087,4.3701158,STD
48258877453000,0.539974,3.63608612921385,9.31009474374913,-0.197813046464312,-0.1282817,0.040317107,0.046731193,21.943567,-152.52461,4.3563747,STD
48258882478000,0.544999,3.6199882788379,9.31682221551535,-0.199975445021169,-0.13652839,0.028099801,0.044898596,21.969053,-152.63257,4.3372073,STD
48258887472000,0.549993,3.60398973858367,9.32350818447067,-0.202124503407825,-0.1301143,0.020158553,0.03604105,21.989283,-152.7361,4.3201194,STD
48258892461000,0.554982,3.58800721609101,9.33018745942424,-0.204271410154125,-0.10995574,0.0125227375,0.03268129,22.011375,-152.8385,4.300625,STD
48258897458000,0.559979,3.57199906517984,9.33687744478062,-0.206421759524994,-0.08307768,0.0033597588,0.024129177,22.030518,-152.9416,4.2771177,STD
48258902629000,0.56515,3.5554334961661,9.34380038139816,-0.208646985980219,-0.047647487,0.0033597588,0.018020526,22.048634,-153.05017,4.2541847,STD
48258907469000,0.56999,3.53992830296817,9.35028017509935,-0.210729773843938,-0.012217305,0.025350908,0.008552114,22.061451,-153.16333,4.233397,STD
48258912469000,0.57499,3.52391054140006,9.35697417685679,-0.212881414199019,-0.0033597588,0.052839845,0.0067195175,22.07333,-153.27615,4.214693,STD
48258917477000,0.579998,3.50786715141344,9.36367888901704,-0.215036497178669,0.011911872,0.084910266,-0.005192355,22.076023,-153.39748,4.200741,STD
48258922469000,0.58499,3.49187501826383,9.37036218037166,-0.217184694909183,0.0421497,0.108123146,-0.018325957,22.0747,-153.52263,4.1915646,STD
48258927463000,0.589984,3.47587647800961,9.37704814932698,-0.219333753295838,0.05589417,0.11728613,-0.024129177,22.068947,-153.6445,4.186789,STD
48258932508000,0.595029,3.45971455658738,9.38380239710023,-0.221504758414115,0.05955936,0.121256754,-0.041233405,22.053566,-153.76869,4.183933,STD
48258937494000,0.600015,3.44374164475166,9.39047765565275,-0.223650374176203,0.069027774,0.11209377,-0.040317107,22.040764,-153.89594,4.182041,STD
48258942459000,0.60498,3.42783600751453,9.39712479939788,-0.225786953048799,0.086437434,0.124005646,-0.035430185,22.020369,-154.02348,4.1854753,STD
48258947464000,0.609985,3.41180222818485,9.40382549515707,-0.227940745044235,0.08857546,0.12980886,-0.034208454,22.00019,-154.14664,4.185222,STD
48258952478000,0.614999,3.39573961688435,9.41053824011943,-0.230098409992311,0.092240654,0.13194689,-0.025350908,21.981127,-154.27283,4.189163,STD
48258957465000,0.619986,3.37976350149632,9.41721483747229,-0.23224445608247,0.08399397,0.14202617,-0.014049901,21.960213,-154.39372,4.197567,STD
48258962453000,0.624974,3.36378418255597,9.42389277362551,-0.234390932500699,0.07513642,0.15332718,-0.008857546,21.938507,-154.513,4.2075677,STD
48258967475000,0.629996,3.34769594283696,9.43061622899067,-0.236552040073343,0.043982297,0.15882497,0.002443461,21.919672,-154.62158,4.221075,STD
48258972568000,0.635089,3.33138025090368,9.4374347391808,-0.238743700939029,0.026572637,0.15332718,0.008857546,21.899757,-154.72932,4.2348533,STD
48258977461000,0.639982,3.31570526943313,9.44398548930062,-0.240849296190512,-0.007941248,0.1469131,0.011911872,21.880264,-154.82155,4.250821,STD
48258982479000,0.645,3.29962984392337,9.45070358946438,-0.243008682450872,-0.03573562,0.129198,0.014660766,21.863407,-154.90909,4.263176,STD
48258987467000,0.649988,3.28365052498302,9.4573815256176,-0.245155158869101,-0.046120327,0.12064589,0.018325957,21.846346,-154.99042,4.2766995,STD
48258992460000,0.654981,3.26765518828111,9.46406615577257,-0.247303786927686,-0.065973446,0.10598512,0.020463986,21.831745,-155.05992,4.2841897,STD
48258997504000,0.660025,3.2514964704112,9.47081906474547,-0.249474361717892,-0.08979719,0.07422013,0.024129177,21.820908,-155.1244,4.2856364,STD
48259002481000,0.665002,3.2355523905463,9.47748227409482,-0.25161610452734,-0.09468412,0.04795292,0.022907447,21.809856,-155.18768,4.284379,STD
48259007465000,0.669986,3.21958588581521,9.48415485504663,-0.253760859633285,-0.0852157,0.035124753,0.025350908,21.802513,-155.24774,4.279332,STD
48259012461000,0.674982,3.20358093845635,9.49084350160266,-0.255910778676083,-0.070249505,0.010079277,0.034513887,21.800934,-155.30742,4.2651334,STD
48259017473000,0.679994,3.18752473426048,9.49755356896431,-0.258067582968017,-0.06719518,-0.003970624,0.026572637,21.795462,-155.36533,4.248927,STD
48259022469000,0.68499,3.17151978690162,9.50424221552034,-0.260217502010814,-0.04428773,-0.0106901415,0.029321533,21.79706,-155.43277,4.2307506,STD
48259027459000,0.68998,3.15553406085665,9.51092282927426,-0.262364839085186,-0.032070424,0.00061086525,0.021380283,21.79314,-155.49673,4.2117553,STD
48259032455000,0.694976,3.13952911349779,9.51761147583029,-0.264514758127983,-0.005497787,0.01160644,0.021991149,21.792818,-155.5706,4.1926603,STD
48259037469000,0.69999,3.12346650219729,9.52432422079264,-0.266672423076059,0.01282817,0.021380283,0.02107485,21.788563,-155.64435,4.1754675,STD
48259042465000,0.704986,3.1153072072951,9.52660214583187,-0.261637256713174,0.014966198,0.030543262,0.009468411,21.780073,-155.71967,4.160157,STD
48259047474000,0.709995,3.124436061005,9.51915489501307,-0.240736977069541,0.028099801,0.03756821,0.002443461,21.77121,-155.80217,4.147621,STD
48259052468000,0.714989,3.133537577361,9.51172994580383,-0.219899285606114,0.032986723,0.037873644,-0.0033597588,21.78266,-155.8578,4.0774846,STD
48259057476000,0.719997,3.14266460858064,9.504284181759,-0.199003178507827,0.036957346,0.05375614,-0.004581489,21.791578,-155.91516,4.014531,STD
48259062465000,0.724986,3.15175701248535,9.49686666641961,-0.178186349771136,0.04153884,0.055283304,-0.007330383,21.800983,-155.97226,3.9486008,STD
48259067441000,0.729962,3.16082572401669,9.48946847914183,-0.157423764123957,0.04153884,0.06841691,0.008857546,21.81247,-156.02792,3.8933673,STD
48259072430000,0.734951,3.16991812792139,9.48205096380245,-0.136606935387266,0.03176499,0.06963864,0.0027488936,21.819246,-156.07996,3.833889,STD
48259077439000,0.73996,3.17904698163129,9.47460371298364,-0.115706655743632,0.024740042,0.06627888,0.009773844,21.833246,-156.13191,3.7811887,STD
48259082484000,0.745005,3.18824144499053,9.4671029383019,-0.0946561644675034,0.0070249503,0.07391469,0.0070249503,21.84222,-156.17635,3.7309523,STD
48259088212000,0.750733,3.19868066919702,9.45858669699823,-0.0707558247193037,-0.01282817,0.073303826,0.0067195175,21.855593,-156.21706,3.6797965,STD
48259092452000,0.754973,3.20640802789736,9.45228277536283,-0.0530642324475917,-0.03359759,0.062002823,0.019242255,21.87253,-156.25156,3.6299632,STD
48259097463000,0.759984,3.21554052658777,9.44483255099608,-0.0321556077132641,-0.04153884,0.050396383,0.024129177,21.88809,-156.28294,3.5798838,STD
48259102454000,0.764975,3.224636575473,9.43741206210875,-0.0113304338858786,-0.061391957,0.042455133,0.02321288,21.906946,-156.30434,3.5293894,STD
48259107451000,0.769972,3.23374355929979,9.4299826525776,0.00951977521358957,-0.07666359,0.022296581,0.021991149,21.93047,-156.3241,3.473954,STD
48259112490000,0.775011,3.24292708771747,9.42249079853968,0.030545231217636,-0.07819075,0.0018325958,0.018325957,21.954826,-156.34145,3.4167361,STD
48259117535000,0.780056,3.25212155107671,9.41499002385793,0.051595722493765,-0.09437868,-0.005497787,0.02565634,21.983438,-156.34991,3.3596117,STD
48259122462000,0.784983,3.26110096058533,9.40766468850472,0.0721538534189361,-0.10751228,-0.019242255,0.022907447,22.012508,-156.35806,3.2947319,STD
48259127504000,0.790025,3.27028995647379,9.40016837414489,0.0931918270590238,-0.09896017,-0.016798794,0.025045475,22.0465748962854,-156.363712195447,3.2310527691386,STD
48259137484000,0.800005,3.28847840926373,9.38533036991817,0.134833829623101,-0.101098195,-0.02443461,0.021991149,22.114006,-156.3749,3.105008,STD
48259142489000,0.80501,3.29759997301259,9.37788906619525,0.155717419085346,-0.103847094,-0.021991149,0.015577064,22.149637,-156.37793,3.0427434,STD
48259147466000,0.809987,3.30667050703418,9.37048939214351,0.176484177277872,-0.087964594,-0.022296581,0.02321288,22.189089,-156.38623,2.9799368,STD
48259152454000,0.814975,3.31576108844863,9.36307336357809,0.197296833469216,-0.060170226,-0.019547688,0.021685716,22.224865,-156.39656,2.9175167,STD
48259158192000,0.820713,3.32621853755772,9.35454225453471,0.221238898670887,-0.06047566,0.0076358155,0.013133603,22.259022,-156.40295,2.8621464,STD
48259162465000,0.824986,3.33400603843661,9.34818926935828,0.239068184939053,-0.046120327,0.0143553335,0.010995574,22.297407,-156.42093,2.803312,STD
48259167476000,0.829997,3.34313853712703,9.34073904499154,0.259976809673381,-0.042455133,0.028710667,0.009162978,22.330433,-156.43504,2.7532213,STD
48259172468000,0.834989,3.35223640850252,9.33331706933024,0.280806156046113,-0.026267206,0.043676864,0.008246681,22.363047,-156.45619,2.7054336,STD
48259177443000,0.839964,3.36130329754359,9.32592036882643,0.301564569147945,-0.018325957,0.04917465,0.002443461,22.394005,-156.47528,2.6586094,STD
48259182491000,0.845012,3.37050322837361,9.31841513382278,0.322627578060116,-0.012217305,0.055588737,-0.01282817,22.420994,-156.4976,2.6151528,STD
48259187468000,0.849989,3.37957376239521,9.31101545977104,0.343394336252642,0.0030543262,0.05497787,-0.0143553335,22.450785,-156.52419,2.5725942,STD
48259192464000,0.854985,3.38867892373173,9.30358753701385,0.364240372806763,0.014660766,0.056199603,-0.007330383,22.478401,-156.55064,2.5318918,STD
48259197483000,0.860004,3.39782600234423,9.29612541845535,0.385182377903867,0.014660766,0.05589417,-0.0143553335,22.502663,-156.57712,2.4893122,STD
48259202473000,0.864994,3.4069202287392,9.28870641634198,0.406003379185906,0.006414085,0.058337633,-0.01038471,22.531675,-156.60391,2.4502196,STD
48259207502000,0.870023,3.41608553225428,9.28122943004377,0.426987109736481,0.0070249503,0.056505036,-0.012217305,22.558298,-156.63219,2.4088829,STD
48259212468000,0.874989,3.42513601888302,9.2738461105057,0.447707969930189,0.0067195175,0.052534413,-0.011911872,22.586962,-156.65714,2.3686793,STD
48259217477000,0.879998,3.43426487259292,9.2663988596869,0.468608249573822,-0.009773844,0.05497787,-0.0125227375,22.614853,-156.67682,2.3297265,STD
48259222467000,0.884988,3.44335909898789,9.25897985757354,0.489429250855861,-0.013439035,0.041233405,-0.010995574,22.646177,-156.69934,2.2861037,STD
48259227754000,0.890275,3.45299460498993,9.25111928359091,0.511489498105989,-0.015271631,0.034208454,-0.0030543262,22.678505,-156.7171,2.2458673,STD
48259232446000,0.894967,3.46154572928757,9.24414334012079,0.531067080874591,-0.028099801,0.030848695,-0.00030543262,22.711596,-156.73003,2.2029035,STD
48259237472000,0.899993,3.47070556533188,9.23667081414449,0.552038293789125,-0.03145956,0.015577064,0.004276057,22.750002,-156.74461,2.1563501,STD
48259242465000,0.904986,3.47492757997539,9.23187003818894,0.563407410666394,-0.03023783,0.004581489,0.0061086523,22.78894,-156.75633,2.1102903,STD
48259247515000,0.910036,3.47102190614662,9.23141056126191,0.559042239759152,-0.036957346,0.00061086525,0.0030543262,22.829422,-156.76427,2.0622838,STD
48259252515000,0.915036,3.46715490235575,9.23095563361139,0.554720288365842,-0.03970624,-0.011911872,0.0076358155,22.85127,-156.64555,2.095985,STD
48259257502000,0.920023,3.46329795277474,9.23050188877277,0.550409574046155,-0.034513887,-0.007330383,0.008857546,22.87021,-156.52907,2.1314075,STD
48259262464000,0.924985,3.45946033821269,9.23005041857239,0.546120469483435,-0.034513887,-0.0061086523,0.010079277,22.892498,-156.4122,2.1622162,STD
48259267478000,0.929999,3.45558250681121,9.22959421712445,0.541786416626224,-0.03726278,-0.003970624,0.015882496,22.915974,-156.29793,2.1941595,STD
48259272506000,0.935027,3.45169384779911,9.22913674187909,0.537440262305112,-0.032986723,0.00061086525,0.005192355,22.93533,-156.18741,2.2242742,STD
48259277460000,0.939981,3.44786242044312,9.22868599956296,0.533158072864621,-0.034208454,0.0143553335,0.009468411,22.959139,-156.07703,2.258537,STD
48259282513000,0.945034,3.44395442641207,9.22822624967935,0.528790308786543,-0.035124753,0.02321288,0.0021380284,22.977453,-155.96997,2.288959,STD
48259287472000,0.949993,3.44011913205229,9.22777505243556,0.524503797394659,-0.018936822,0.04153884,0.010079277,22.998434,-155.87001,2.3264906,STD
48259292461000,0.954982,3.43626063566977,9.22732112562587,0.520191354294414,-0.023823744,0.048258353,0.010995574,23.01623,-155.76595,2.360389,STD
48259297774000,0.960295,3.43215155744159,9.22683771950443,0.515598848743884,-0.0143553335,0.061086524,0.0061086523,23.031815,-155.67294,2.3995829,STD
48259302481000,0.965002,3.42851116007287,9.22640945061423,0.511530163702222,-0.007330383,0.07086037,0.0143553335,23.050745,-155.58035,2.440035,STD
48259307466000,0.969987,3.42465575729338,9.22595588774667,0.507221178163093,-0.00030543262,0.074830994,0.003970624,23.06275,-155.49243,2.4781866,STD
48259312457000,0.974978,3.42079571410934,9.22550177896592,0.502907006282291,-0.004581489,0.0842994,0.005192355,23.078096,-155.40578,2.5212674,STD
48259317477000,0.979998,3.41691324230331,9.2250450316048,0.498567767083409,0.0015271631,0.093767814,0.009162978,23.090956,-155.32617,2.563136,STD
48259322476000,0.984997,3.4130470119132,9.22459019493981,0.494246680080378,-0.0030543262,0.087964594,0.010995574,23.104225,-155.24445,2.6020303,STD
48259327454000,0.989975,3.40919702293901,9.22413726897096,0.489943745273199,0.008552114,0.08368854,0.007941248,23.115852,-155.17122,2.6422858,STD
48259332475000,0.994996,3.40531377773223,9.22368043062431,0.485603641684038,0.003970624,0.084910266,0.017104227,23.131104,-155.09436,2.682792,STD
48259337470000,0.999991,3.40145064094515,9.22322595790144,0.481286012242121,0.011911872,0.07971791,0.011301007,23.142916,-155.02617,2.7170417,STD
48259342462000,1.004983,3.39758982436035,9.22277175813516,0.476970975971041,-0.0015271631,0.07666359,0.012217305,23.158415,-154.95279,2.752736,STD
48259347451000,1.009972,3.39373132797783,9.22231783132547,0.472658532870797,-0.0021380284,0.076052725,0.011301007,23.172245,-154.88715,2.7855225,STD
48259352480000,1.015001,3.38984189556497,9.22186026509458,0.468311514159406,-0.0012217305,0.07666359,0.020158553,23.189098,-154.82025,2.8178825,STD
48259357465000,1.019986,3.38598649278548,9.22140670222701,0.464002528620277,-0.008246681,0.06566802,0.009162978,23.202106,-154.75253,2.8433137,STD
48259362455000,1.024976,3.38212722300219,9.2209526844318,0.459689221129754,-0.008246681,0.056505036,0.015577064,23.221666,-154.68939,2.871329,STD
48259367482000,1.030003,3.37823933739086,9.22049530017197,0.455343931198921,-0.017104227,0.05100725,0.016798794,23.238064,-154.62337,2.8943224,STD
48259372468000,1.034989,3.37438316121061,9.22004164631887,0.451034081269513,-0.02321288,0.050701816,0.016493361,23.256376,-154.56006,2.9157507,STD
48259377448000,1.039969,3.3705316254349,9.21958853837895,0.446729417681776,-0.025350908,0.043066,0.017715093,23.277195,-154.49727,2.933087,STD
48259382550000,1.045071,3.36658573476671,9.21912433020436,0.442319298480043,-0.029321533,0.041233405,0.013744468,23.296148,-154.43398,2.9500694,STD
48259387488000,1.050009,3.36276668182285,9.21867504365671,0.438050939284011,-0.034513887,0.04153884,0.011911872,23.316923,-154.37161,2.9649794,STD
48259392469000,1.05499,3.35891437264639,9.21822184473127,0.433745411305996,-0.039095376,0.040317107,0.014966198,23.338663,-154.31012,2.978118,STD
48259397533000,1.060054,3.354997871207,9.21776109400682,0.429368138934852,-0.03481932,0.03634648,0.013133603,23.359283,-154.2514,2.9887946,STD
48259402467000,1.064988,3.35118191186617,9.21731217140129,0.425103237299934,-0.030543262,0.039095376,0.010079277,23.38004,-154.1932,3.0001175,STD
48259407466000,1.069987,3.34731568147606,9.2168573347363,0.420782150296904,-0.046731193,0.03726278,0.0076358155,23.401901,-154.13211,3.0081232,STD
48259413298000,1.075819,3.3428052082544,9.21632670712474,0.415741026191747,-0.03634648,0.036651913,0.0067195175,23.423214,-154.08151,3.016031,STD
48259417521000,1.080042,3.33953913685263,9.21594247523111,0.412090706044958,-0.036651913,0.04642576,0.004886922,23.442976,-154.02493,3.0248158,STD
48259422467000,1.084988,3.33571389670271,9.21549246079922,0.407815431726697,-0.030848695,0.041233405,0.003970624,23.46508,-153.97473,3.0287127,STD
48259427445000,1.089966,3.33186390772852,9.21503953483036,0.403512496919518,-0.03634648,0.03940081,0.005192355,23.485947,-153.92285,3.0351443,STD
48259432472000,1.094993,3.32797602211718,9.21458215057053,0.399167206988684,-0.026572637,0.032986723,-0.0012217305,23.50621,-153.87845,3.03714,STD
48259437530000,1.100051,3.32406416108234,9.21412194575927,0.394795120959213,-0.022296581,0.042455133,0.0009162979,23.527588,-153.83261,3.0431437,STD
48259442412000,1.104933,3.32028841858094,9.2136777544013,0.390575167618785,-0.019242255,0.043676864,0.004276057,23.549877,-153.79062,3.0439644,STD
48259447521000,1.110042,3.31633711410744,9.213212909328,0.386158997685102,-0.019547688,0.035430185,-0.004581489,23.569927,-153.75015,3.0427203,STD
48259452424000,1.114945,3.31587892033409,9.21634338239278,0.380768639665914,-0.007330383,0.046731193,-0.009162978,23.588192,-153.7096,3.048821,STD
48259457464000,1.119985,3.32459532159819,9.22941780225734,0.372052238401806,-0.0061086523,0.040317107,-0.005192355,23.610088,-153.66728,3.0474696,STD
48259462533000,1.125054,3.33359116538745,9.24305510897909,0.364493503591636,0.0027488936,0.047647487,-0.0076358155,23.634995,-153.67992,3.0178604,STD
48259467566000,1.130087,3.34544849242312,9.26281732070521,0.372398388282083,-0.003970624,0.04184427,-0.0015271631,23.666077,-153.68839,2.984959,STD
48259472529000,1.13505,3.35714090531365,9.28230467552276,0.380193330209102,-0.004581489,0.03726278,-0.0033597588,23.69103,-153.67688,2.9637213,STD
48259477465000,1.139986,3.37143404098416,9.29349198805048,0.38706216889232,-0.0015271631,0.03970624,0.002443461,23.719866,-153.66512,2.9443402,STD
48259483109000,1.14563,3.38957694724087,9.30074931726638,0.394319354128625,0.0076358155,0.03481932,0.0030543262,23.748951,-153.65521,2.9208086,STD
48259487436000,1.149957,3.40348629440118,9.306313183942,0.39988311042159,0.007330383,0.040317107,0.0018325958,23.77663,-153.63431,2.9053292,STD
48259492463000,1.154984,3.41941329317585,9.31620872760827,0.422366084753117,0.01038471,0.04337143,0.0015271631,23.806168,-153.61774,2.8877323,STD
48259497542000,1.160063,3.43537148451444,9.32817762106299,0.454282496591207,0.0125227375,0.03359759,0.002443461,23.83715,-153.6015,2.8678188,STD
48259502437000,1.164958,3.44592221614407,9.33652289002651,0.483160814151202,0.01740966,0.03268129,0.004886922,23.86137,-153.57341,2.8575618,STD
48259507479000,1.17,3.43709394562574,9.33210866258342,0.505231513493007,0.011301007,0.030848695,0.0027488936,23.88654,-153.54376,2.8435934,STD
48259512794000,1.175315,3.42808122044359,9.32697882352941,0.526308817839923,0.022296581,0.033292156,0.0027488936,23.8998484879536,-153.512750962711,2.84656433781865,STD
48259517482000,1.180003,3.42327075881281,9.3173576993464,0.521498326070931,0.020158553,0.034513887,0.0036651916,23.911587,-153.4854,2.8491848,STD
48259522445000,1.184966,3.41922028737965,9.308656,0.519549842172782,0.015882496,0.030848695,0.0018325958,23.937082,-153.42334,2.8508234,STD
48259527474000,1.189995,3.42130900830948,9.308656,0.536259631421632,0.007941248,0.027488936,-0.0070249503,23.959536,-153.34627,2.8568895,STD
48259532860000,1.195381,3.42354600392055,9.308656,0.554155619668662,0.007941248,0.0290161,0.0018325958,23.980682,-153.25943,2.8663924,STD
48259537484000,1.200005,3.42546651407754,9.308656,0.569519720978402,-0.0009162979,0.033292156,-0.002443461,23.99699,-153.16995,2.871946,STD
48259542495000,1.205016,3.42754775897302,9.308656,0.586169701874404,-0.0012217305,0.028405234,0.0012217305,24.020565,-153.07732,2.8817892,STD
48259547501000,1.210022,3.42649977812292,9.30799031213917,0.596424735141011,0.0015271631,0.03756821,0.0036651916,24.04103,-152.98561,2.8944473,STD
48259552691000,1.215212,3.42269068457569,9.30672058777397,0.601503525211516,0.004886922,0.03268129,0.0030543262,24.064798,-152.89658,2.9012198,STD
48259557398000,1.219919,3.41923607892505,9.30556902850866,0.606109664876616,0.0018325958,0.030543262,-0.0021380284,24.080914,-152.78122,2.9185584,STD
48259562387000,1.224908,3.41557450518571,9.30434847843969,0.610991761921269,0.0027488936,0.025961773,-0.00030543262,24.100317,-152.6711,2.9336185,STD
48259567384000,1.229905,3.41190706001124,9.30312597118479,0.615881687544066,-0.00030543262,0.03573562,-0.003970624,24.116116,-152.56177,2.9491909,STD
48259572384000,1.234905,3.40823741304859,9.30190272998518,0.620774548883666,0.00061086525,0.028405234,-0.004581489,24.136774,-152.45677,2.9587355,STD
48259577375000,1.239896,3.40457437145047,9.30068169061973,0.625658603072855,0.00061086525,0.03756821,-0.0021380284,24.154495,-152.35347,2.9737272,STD
48259582415000,1.244936,3.40087536731211,9.29944866349052,0.630590607303173,-0.004886922,0.038789943,0.0009162979,24.174973,-152.25159,2.983749,STD
48259587385000,1.249906,3.4062927559474,9.30234233130572,0.628806053729991,-0.010079277,0.031154128,0.0015271631,24.196112,-152.15247,2.9927385,STD
48259592382000,1.254903,3.41572097238832,9.30705666103531,0.624091947970743,-0.0015271631,0.03176499,0.002443461,24.217516,-152.05836,3.0034573,STD
48259597418000,1.259939,3.42522277306802,9.31180778461311,0.619341050111314,-0.009773844,0.031154128,0.0021380284,24.242937,-151.9421,3.017923,STD
48259602440000,1.264961,3.43469815889277,9.31654570014284,0.614603359672462,-0.0070249503,0.03390302,-0.0027488936,24.26758,-151.83403,3.0316634,STD
48259607527000,1.270048,3.42907608227139,9.33023028425601,0.606917294847593,-0.0027488936,0.027488936,0.011301007,24.294144,-151.71692,3.0458558,STD
48259612458000,1.274979,3.41562345646187,9.34816725913968,0.59794887764125,-0.015577064,0.034513887,0.016187929,24.315699,-151.59825,3.0611029,STD
48259617428000,1.279949,3.40409983812846,9.36702766899241,0.58851866717833,-0.014049901,0.029321533,0.010995574,24.340475,-151.4905,3.0729237,STD
48259622431000,1.284952,3.3942675519803,9.38669213862097,0.578686360496614,-0.013744468,0.024129177,0.009468411,24.36711,-151.38156,3.0864403,STD
48259627434000,1.289955,3.37911352921659,9.39023297853851,0.576454412439763,-0.013744468,0.03145956,0.015882496,24.39108,-151.27075,3.0962636,STD
48259632468000,1.294989,3.36007085834101,9.38229854614878,0.5796281920237,-0.020158553,0.027794369,0.01863139,24.416784,-151.1607,3.1003368,STD
48259637420000,1.299941,3.34133837797235,9.37449335957867,0.582750273171824,-0.028710667,0.0143553335,0.016187929,24.445213,-151.05933,3.0966096,STD
48259642405000,1.304926,3.32248106483871,9.366636159447,0.585893159788018,-0.026267206,0.020463986,0.017104227,24.473808,-150.96179,3.0968065,STD
48259647456000,1.309977,3.30337408617511,9.35867493219223,0.589077657340356,-0.02107485,0.018936822,0.02076942,24.506342,-150.86497,3.0909212,STD
48259652346000,1.314867,3.28487614009217,9.3509674680711,0.592160649427255,-0.02321288,0.020463986,0.024129177,24.538637,-150.76912,3.0865521,STD
48259657359000,1.31988,3.26824285643662,9.34462230324303,0.591420392145541,-0.03390302,0.017104227,0.02321288,24.569393,-150.66687,3.0812857,STD
48259662376000,1.324897,3.25399128269725,9.33987167945422,0.58666986756575,-0.03359759,0.025045475,0.021380283,24.599827,-150.56953,3.078687,STD
48259667375000,1.329896,3.24200069285928,9.34192382557096,0.563769929962102,-0.028099801,0.02107485,0.022296581,24.637451,-150.47084,3.063385,STD
48259672379000,1.3349,3.23244208968784,9.35148267826867,0.520755946202254,-0.030848695,0.009468411,0.021991149,24.67529,-150.37213,3.0469823,STD
48259677369000,1.33989,3.23154816819532,9.35445881154846,0.493829660063127,-0.03726278,0.010995574,0.020463986,24.713873,-150.27814,3.028986,STD
48259682408000,1.344929,3.2405079237189,9.34997881683996,0.484869857760862,-0.03573562,0.004276057,0.023518313,24.757454,-150.1878,3.0060074,STD
48259687346000,1.349867,3.24178991775262,9.33905136434523,0.472510365408032,-0.029626964,-0.0021380284,0.019547688,24.799137,-150.11566,2.9710414,STD
48259692385000,1.354906,3.22632607609485,9.31327775667592,0.451891882952361,-0.027183503,-0.0033597588,0.019242255,24.843918,-150.04474,2.9362595,STD
48259697365000,1.359886,3.22580066301837,9.29708054251089,0.438534684245408,-0.02565634,-0.00030543262,0.01282817,24.887043,-149.9811,2.8996482,STD
48259702438000,1.364959,3.24419987013823,9.29248064466957,0.433934882465442,-0.021380283,0.0030543262,0.016798794,24.933979,-149.92056,2.863909,STD
48259707372000,1.369893,3.25713604756543,9.28899106554725,0.432489072948656,-0.031154128,0.0012217305,0.0125227375,24.983032,-149.86224,2.8255618,STD
48259712426000,1.374947,3.26026789571322,9.28742510877091,0.437186850075706,-0.022296581,-0.0018325958,0.012217305,25.034845,-149.81183,2.7884698,STD
48259717398000,1.379919,3.26334893033744,9.28588455928694,0.441808406837814,-0.025350908,0.004581489,0.010079277,25.081087,-149.7658,2.7496061,STD
48259722440000,1.384961,3.26647334235983,9.28432232065094,0.446495029765117,-0.02565634,-0.0076358155,0.005497787,25.130857,-149.72401,2.704727,STD
48259727424000,1.389945,3.26956181310945,9.28277805302663,0.451127740726973,-0.025045475,-0.008246681,0.008552114,25.180445,-149.68266,2.6648324,STD
48259732463000,1.394984,3.27268436610049,9.28121674392572,0.455811575104339,-0.027488936,-0.00580322,0.00030543262,25.22855,-149.64105,2.6201591,STD
48259737434000,1.399955,3.2773684272951,9.28202567116419,0.458986520901632,-0.016187929,-0.010995574,0.0027488936,25.280579,-149.61609,2.568036,STD
48259742437000,1.404958,3.29047246514723,9.29512998267846,0.454618508284256,-0.015882496,-0.010995574,0.0018325958,25.329782,-149.58774,2.51613,STD
48259747542000,1.410063,3.3038436650743,9.30850146184702,0.4501614416419,-0.013439035,-0.008246681,0.0036651916,25.383205,-149.55684,2.4711032,STD
48259752513000,1.415034,3.32336286399094,9.31349748193887,0.440427658665226,-0.0070249503,-0.01282817,-0.0015271631,25.43681,-149.5277,2.4229043,STD
48259757720000,1.420241,3.34411332023664,9.31859502253733,0.430775537787586,-0.01282817,-0.010079277,-0.00061086525,25.491955,-149.49648,2.3781087,STD
48259762448000,1.424969,3.36537309257207,9.322846959245,0.428649558334116,-0.013133603,-0.0143553335,-0.009162978,25.536495,-149.47223,2.3221338,STD
48259767481000,1.430002,3.38800431807212,9.32737318543995,0.426386433420978,-0.004581489,-0.024740042,-0.004276057,25.591436,-149.4614,2.269447,STD
48259772468000,1.434989,3.41042870145554,9.33185804338435,0.424143992741102,-0.0033597588,-0.020463986,-0.013133603,25.6404,-149.44829,2.2161205,STD
48259777446000,1.439967,3.43281261572918,9.33633480754061,0.42190559897643,-0.007941248,-0.02565634,-0.007941248,25.69796,-149.43631,2.1606839,STD
48259782546000,1.445067,3.4380736,9.34471892957678,0.414047524487411,-0.006414085,-0.016798794,-0.004581489,25.751234,-149.4264,2.1082692,STD
48259787477000,1.449998,3.4380736,9.35391835572006,0.404848040708128,0.002443461,-0.008552114,0.00030543262,25.808065,-149.41748,2.055419,STD
48259792459000,1.45498,3.4380736,9.36321292904105,0.395553409155019,-0.008857546,-0.015577064,0.00030543262,25.864895,-149.41061,2.006556,STD
48259797450000,1.459971,3.4380736,9.37252429304047,0.386241986818293,-0.009773844,-0.013133603,0.00030543262,25.921099,-149.40915,1.9625856,STD
48259802476000,1.464997,3.435053217632,9.37871444544507,0.374011112896009,-0.0018325958,-0.014966198,-0.0030543262,25.978941,-149.40683,1.91515,STD
48259808092000,1.470613,3.42995479040667,9.38381297914494,0.358715831220021,-0.0067195175,-0.00580322,0.0018325958,26.03767,-149.40056,1.872025,STD
48259812459000,1.47498,3.42322851053995,9.37736867583184,0.359610149460052,-0.0070249503,-0.004276057,0.0027488936,26.097832,-149.40454,1.8214248,STD
48259817477000,1.479998,3.41365361864913,9.36300653795577,0.369185041350867,-0.011911872,-0.0030543262,-0.00061086525,26.157633,-149.40549,1.7729381,STD
48259822463000,1.484984,3.4039915742623,9.34851339375,0.376171272868852,-0.006414085,0.01038471,0.015271631,26.216394,-149.40901,1.7266643,STD
48259827446000,1.489967,3.39421264098361,9.3338446875,0.381060739508197,-0.005497787,0.005497787,0.011911872,26.272957,-149.4093,1.672882,STD
48259832587000,1.495108,3.38468227185116,9.33607116474419,0.391333257973954,-0.014049901,0.009468411,0.008552114,26.33174,-149.41232,1.6238389,STD
48259837510000,1.500031,3.37591081391628,9.3492286264186,0.404490454035349,-0.013133603,0.0021380284,0.0106901415,26.394224,-149.41788,1.571044,STD
48259842461000,1.504982,3.36877816173497,9.34976727301756,0.402771227919106,-0.008246681,0.0070249503,0.005497787,26.452778,-149.42072,1.5201837,STD
48259847485000,1.510006,3.36365699720064,9.33440329813731,0.382286345185737,-0.011301007,0.021991149,0.015271631,26.51603,-149.42131,1.4724017,STD
48259852467000,1.514988,3.35475297707404,9.3291512925959,0.376177991971454,-0.020158553,0.013133603,0.010995574,26.57916,-149.41351,1.4172056,STD
48259857463000,1.519984,3.34289707143424,9.33152252324314,0.380920359179304,-0.013744468,0.014966198,0.013133603,26.6434,-149.40918,1.3704344,STD
48259862459000,1.52498,3.33104116579443,9.33389375389038,0.385662726387154,-0.011911872,0.020463986,0.014660766,26.708385,-149.4017,1.3225299,STD
48259867477000,1.529998,3.31913305240361,9.33627542630588,0.390425976717217,-0.016493361,0.013744468,0.004276057,26.773346,-149.39395,1.2703674,STD
48259872462000,1.534983,3.31859293948855,9.337387,0.391394667508177,-0.009773844,0.023823744,0.013439035,26.841106,-149.3899,1.2264687,STD
48259878257000,1.540778,3.32959453647537,9.337387,0.388644262517593,-0.01038471,0.012217305,0.006414085,26.907385,-149.38208,1.1714661,STD
48259882491000,1.545012,3.33763263166815,9.337387,0.386634734522748,-0.009162978,0.01160644,0.0106901415,26.982166,-149.37169,1.1238862,STD
48259887579000,1.5501,3.34729201483794,9.337387,0.384219883687184,-0.01863139,0.008552114,0.011911872,27.057482,-149.35783,1.0710214,STD
48259892460000,1.554981,3.34535693549428,9.32651086988196,0.389597806335301,-0.016187929,0.010995574,0.011911872,27.1338,-149.34758,1.0194217,STD
48259897463000,1.559984,3.33210179979712,9.30441859258576,0.402852905123571,-0.016187929,0.005192355,0.015271631,27.21389,-149.3338,0.9653063,STD
48259902463000,1.564984,3.32011777169645,9.29405346918644,0.414836879789042,-0.021685716,0.016493361,0.008246681,27.285536,-149.30147,0.92560756,STD
48259907464000,1.569985,3.31076254620568,9.30808669816388,0.424192017363024,-0.007330383,0.0125227375,0.010995574,27.364477,-149.2752,0.8819888,STD
48259912432000,1.574953,3.30129510321503,9.31958500605428,0.426901652,-0.014660766,0.007941248,0.0012217305,27.43921,-149.248,0.8330113,STD
48259917479000,1.58,3.29120447490605,9.32463016216075,0.411765699,-0.01282817,0.0143553335,0.004886922,27.517872,-149.22765,0.787586,STD
48259922397000,1.584918,3.28150425831325,9.33115041144578,0.400555709156627,-0.011301007,0.008246681,0.008246681,27.606686,-149.20125,0.73957884,STD
48259927456000,1.589977,3.27177553718875,9.34087933574297,0.395691348594377,-0.007330383,0.0070249503,0.004886922,27.694065,-149.17615,0.69315165,STD
48259932548000,1.595069,3.26074923791596,9.34531671157106,0.394296334028013,-0.013744468,0.013439035,0.00580322,27.784126,-149.14334,0.64839566,STD
48259937483000,1.600004,3.24810006992595,9.34110023418681,0.398512723358016,-0.0106901415,0.014660766,0.008552114,27.875807,-149.11449,0.6010851,STD
48259942445000,1.604966,3.23575727337073,9.33979364069352,0.402827543314635,-0.012217305,0.007941248,0.0018325958,27.971416,-149.08566,0.5497554,STD
48259947963000,1.610484,3.22497812346762,9.36135182794493,0.408217118266191,-0.016798794,0.0076358155,0.007330383,28.070623,-149.0569,0.50168,STD
48259952426000,1.614947,3.21849911650698,9.37154136600055,0.41803166857925,-0.005192355,0.004581489,0.004276057,28.169886,-149.03365,0.4451736,STD
48259957464000,1.619985,3.22290174650972,9.34512599972625,0.457654957041701,-0.008246681,0.019242255,0.0030543262,28.269526,-149.00485,0.3932717,STD
48259962801000,1.625322,3.22805611713349,9.31794539548281,0.498089981062045,-0.009468411,0.022907447,0.013133603,28.383087,-148.97977,0.33934283,STD
48259967506000,1.630027,3.24326179796558,9.31142841589934,0.500262222153016,-0.010995574,0.016798794,0.00061086525,28.49117,-148.95348,0.28219503,STD
48259972688000,1.635209,3.2600090536663,9.30425073509136,0.502654688323772,-0.01038471,0.010995574,0.0012217305,28.597248,-148.92296,0.22716245,STD
48259977445000,1.639966,3.27538278878176,9.29766172937859,0.504850937180254,-0.01282817,0.010995574,0.005497787,28.702394,-148.89111,0.1700075,STD
48259982472000,1.644993,3.2916291134455,9.29069874184062,0.507171841742274,-0.018325957,0.004886922,0.002443461,28.8089,-148.8585,0.10821373,STD
48259987474000,1.649995,3.30569512015552,9.28762301721113,0.511328638870608,-0.007330383,0.003970624,-0.003970624,28.916096,-148.8299,0.047065984,STD
48259992451000,1.654972,3.31925464292352,9.28536306135318,0.515848470354179,-0.0012217305,0.00580322,-0.0070249503,29.025166,-148.79828,-0.0155805135,STD
48259997455000,1.659976,3.33288772548955,9.28309084533687,0.520392821719217,0.004886922,0.0067195175,-0.005497787,29.131819,-148.76929,-0.072464906,STD
48260002474000,1.664995,3.34656167461002,9.28081181812147,0.524950795240624,-0.0009162979,-0.0012217305,-0.010079277,29.238462,-148.73854,-0.13318197,STD
48260007462000,1.669983,3.35772479874372,9.28868867688442,0.520882052452261,-0.006414085,0.0030543262,-0.00061086525,29.348135,-148.70947,-0.18913339,STD
48260012459000,1.67498,3.36734389819095,9.30311770271357,0.511262872651256,0.004886922,0.008552114,-0.004276057,29.455711,-148.68344,-0.25007537,STD
48260017586000,1.680107,3.37557007365004,9.3101674683535,0.504548025811449,0.004581489,0.003970624,-0.00580322,29.568752,-148.66574,-0.31205922,STD
48260022468000,1.684989,3.38246796943051,9.31246693501033,0.499949431025376,0.004886922,0.0036651916,-0.004886922,29.681103,-148.65091,-0.37259197,STD
48260027472000,1.689993,3.38953824195928,9.31482386478312,0.495235918467099,-0.005497787,0.004276057,-0.007330383,29.793915,-148.63554,-0.43594018,STD
48260032564000,1.695085,3.39673285181469,9.31722224336087,0.490439514401003,-0.00580322,0.005192355,-0.0027488936,29.909761,-148.62247,-0.4988252,STD
48260037527000,1.700048,3.40112705937437,9.33456139828456,0.489777809374369,-0.0036651916,-0.003970624,-0.0021380284,30.026587,-148.60657,-0.5656889,STD
48260042466000,1.704987,3.4035135283552,9.36319900113522,0.492164278355197,-0.0009162979,-0.009468411,-0.008246681,30.143358,-148.59016,-0.632496,STD
48260047460000,1.709981,3.40592657271443,9.39215550824924,0.49457732271443,-0.0070249503,0.006414085,0.0033597588,30.259298,-148.58176,-0.69987184,STD
48260052473000,1.714994,3.40834879765893,9.42122218229061,0.49699954765893,-0.01160644,0.0036651916,0.004276057,30.375963,-148.57372,-0.77609444,STD
48260057475000,1.719996,3.41190769874477,9.42802589539749,0.487735949665272,-0.007941248,0.0018325958,0.0012217305,30.493147,-148.5654,-0.847653,STD
48260062462000,1.724983,3.41625184114972,9.41933742914317,0.470359370973258,-0.005192355,-0.004581489,0.002443461,30.613897,-148.55467,-0.9208199,STD
48260067446000,1.729967,3.41770145171055,9.41278248988243,0.458468179801954,-0.01038471,0.0018325958,0.008246681,30.734665,-148.53217,-0.9916947,STD
48260072430000,1.734951,3.41453995005796,9.4096210872661,0.455306673197549,-0.008246681,0.006414085,0.011301007,30.857643,-148.51193,-1.0653871,STD
48260077472000,1.739993,3.41134165725451,9.40642289465143,0.452108375384666,-0.01160644,0.009773844,0.005497787,30.975897,-148.49081,-1.139797,STD
48260082472000,1.744993,3.40817000631893,9.40325134307004,0.448936719481371,-0.007941248,0.010995574,0.013744468,31.099297,-148.47156,-1.2116402,STD
48260087417000,1.749938,3.40503324354363,9.40011467855605,0.445799951793012,-0.015271631,0.008246681,0.016187929,31.221302,-148.44768,-1.2859397,STD
48260092440000,1.754961,3.40184700301374,9.39692853783739,0.442613706272562,-0.016493361,0.003970624,0.016187929,31.346111,-148.42592,-1.360083,STD
48260097410000,1.759931,3.39485497212219,9.38829946368602,0.438895957374064,-0.030848695,0.008552114,0.020158553,31.464567,-148.3841,-1.4297887,STD
48260102361000,1.764882,3.38046652275946,9.36911496469755,0.434099807586486,-0.020158553,0.025961773,0.01863139,31.5819,-148.34897,-1.498849,STD
48260107351000,1.769872,3.36434873614446,9.34483801330532,0.427612655852341,-0.022907447,0.018325957,0.017715093,31.698795,-148.29942,-1.5734453,STD
48260112388000,1.774909,3.34504572867147,9.31105695658263,0.417961116842737,-0.026572637,0.014660766,0.0143553335,31.813038,-148.25282,-1.6440471,STD
48260117374000,1.779895,3.3310478433581,9.28782092580486,0.415164761687964,-0.027183503,0.009773844,0.012217305,31.93038,-148.20685,-1.7183335,STD
48260122383000,1.784904,3.32629591744428,9.28306895027241,0.42466852420208,-0.031154128,0.007941248,0.01282817,32.04931,-148.15892,-1.7934129,STD
48260127374000,1.789895,3.32621257693187,9.2753342224869,0.429426019523583,-0.018325957,0.0067195175,0.015271631,32.172386,-148.1337,-1.8795698,STD
48260132508000,1.795029,3.3355822859171,9.26127992806098,0.424741189490233,-0.020158553,0.0018325958,0.002443461,32.294445,-148.10286,-1.9696047,STD
48260137385000,1.799906,3.33893975998232,9.2523170034371,0.415769595284297,-0.019547688,0.013133603,0.012217305,32.422813,-148.07881,-2.0553784,STD
48260142380000,1.804901,3.32484682587646,9.25701474624374,0.392281352153589,-0.024129177,0.015882496,-0.0021380284,32.546,-148.05252,-2.1502106,STD
48260147423000,1.809944,3.31803815932806,9.26374727924901,0.371016089794466,-0.017104227,0.016798794,-0.003970624,32.682594,-148.03777,-2.2357903,STD
48260152421000,1.814942,3.33932191020751,9.27793663582016,0.359191765092885,-0.018020526,0.015271631,0.004581489,32.81975,-148.01854,-2.3223066,STD
48260157421000,1.819942,3.36061417799407,9.29213167040514,0.347362708768775,-0.016187929,0.0125227375,-0.0076358155,32.952606,-147.99278,-2.409547,STD
48260162405000,1.824926,3.38183831052372,9.30628128087945,0.335571505424901,-0.008246681,0.02443461,-0.008857546,33.089832,-147.96751,-2.4911988,STD
48260167741000,1.830262,3.40271297349485,9.32019787207396,0.323647055618909,-0.004276057,0.028099801,-0.0012217305,33.231148,-147.92984,-2.5686028,STD
48260172421000,1.834942,3.41495983313599,9.32836240254121,0.315482473999454,-0.016187929,0.02687807,-0.01160644,33.36831,-147.88971,-2.6479595,STD
48260177966000,1.840487,3.42887228161889,9.33888891863406,0.304580409945194,-0.005497787,0.030543262,-0.011911872,33.507435,-147.83203,-2.701068,STD
48260182474000,1.844995,3.43342247284992,9.35708958853288,0.281829430033727,-0.0033597588,0.03023783,-0.0033597588,33.64848,-147.76872,-2.7568374,STD
48260187452000,1.849973,3.43904209927114,9.37763100528426,0.259219437192055,-0.0030543262,0.038179077,0.004276057,33.78744,-147.70517,-2.8071175,STD
48260192424000,1.854945,3.45205663542274,9.40366016818513,0.267895808216108,0.012217305,0.044898596,0.0012217305,33.927567,-147.64673,-2.8593783,STD
48260197550000,1.860071,3.46547427667638,9.43049554409621,0.276840916395773,0.013439035,0.05222898,0.006414085,34.069534,-147.59325,-2.9146144,STD
48260202540000,1.865061,3.47131037455118,9.44216793732284,0.291246533064567,0.008552114,0.050701816,0.009773844,34.21205,-147.54234,-2.972274,STD
48260207806000,1.870327,3.47415913244751,9.45362179808965,0.30696274438623,0.014966198,0.059864793,0.01985312,34.356056,-147.49466,-3.0249486,STD
48260212470000,1.874991,3.42769340390581,9.48107870522035,0.317523136033668,0.02107485,0.052839845,0.02443461,34.49703,-147.42857,-3.0780954,STD
48260217545000,1.880066,3.37713303247588,9.51095516398714,0.329014128231511,0.026572637,0.062308256,0.01740966,34.63615,-147.36694,-3.1289806,STD
48260222463000,1.884984,3.32813679470399,9.53990736580291,0.34014963554757,0.013744468,0.06169739,0.026572637,34.784348,-147.30153,-3.1820834,STD
48260227455000,1.889976,3.27840332195952,9.56929520465292,0.351452696247399,0.010079277,0.040927973,0.030543262,34.93268,-147.2406,-3.2409184,STD
48260232536000,1.895057,3.23326173712054,9.56239405280332,0.357945115611589,0.012217305,0.039095376,0.03726278,35.082485,-147.17754,-3.2948065,STD
48260238116000,1.900637,3.18570450009888,9.54125758884604,0.363229259189162,0.008552114,0.04795292,0.03176499,35.233414,-147.112,-3.353677,STD
48260242459000,1.90498,3.15114598353808,9.49951329084767,0.346197447407862,-0.00580322,0.043676864,0.039095376,35.410164,-147.03648,-3.433253,STD
48260247436000,1.909957,3.11210934668305,9.44583781326781,0.321799528992629,-0.010079277,0.043982297,0.03756821,35.583294,-146.96304,-3.5129402,STD
48260252474000,1.914995,3.10107762036367,9.39880513588816,0.326881905369049,-0.019547688,0.040317107,0.04184427,35.765827,-146.88565,-3.6011102,STD
48260257398000,1.919919,3.09877259723336,9.35500950386157,0.340712053778473,-0.019242255,0.05009095,0.04550946,35.947815,-146.80977,-3.6873066,STD
48260262448000,1.924969,3.09640859097664,9.31009318750611,0.354896101192687,-0.03573562,0.05009095,0.043982297,36.14155,-146.74583,-3.7857206,STD
48260267493000,1.930014,3.09404692532017,9.265221342751,0.369066104995601,-0.04550946,0.044898596,0.038179077,36.336555,-146.68326,-3.8840888,STD
48260272466000,1.934987,3.09655886867036,9.2365692749213,0.389746313533203,-0.04520403,0.03726278,0.03145956,36.53357,-146.61835,-3.984368,STD
48260277466000,1.939987,3.10134415823215,9.21503552186079,0.413672776332384,-0.047036625,0.032070424,0.03268129,36.733833,-146.54944,-4.085835,STD
48260282509000,1.94503,3.10617060128417,9.19331657852396,0.437805006711637,-0.046731193,0.018020526,0.03023783,36.93525,-146.50038,-4.20037,STD
48260287482000,1.950003,3.11093005028232,9.17189910772997,0.461602266611702,-0.04795292,0.017104227,0.025045475,37.137363,-146.44928,-4.3138595,STD
48260292460000,1.954981,3.1250810690847,9.16710706229881,0.476624477417005,-0.047036625,0.019242255,0.01863139,37.331768,-146.3823,-4.427562,STD
48260297467000,1.959988,3.1437906269192,9.17022522425622,0.48753839917802,-0.052839845,0.005192355,0.01160644,37.530083,-146.31265,-4.546746,STD
48260302468000,1.964989,3.16247776467241,9.17333964965046,0.498439242542676,-0.04917465,-0.00030543262,0.005497787,37.731434,-146.26907,-4.6764197,STD
48260307718000,1.970239,3.18209533579906,9.17660914241587,0.509882839356202,-0.036651913,-0.002443461,0.005497787,37.8397699867828,-146.246244827275,-4.74737502442175,STD
48260312455000,1.974976,3.19979598997561,9.17955915903105,0.520208233281093,-0.035124753,-0.010995574,0.002443461,37.93752,-146.22565,-4.811397,STD
48260317474000,1.979995,3.21855038797269,9.18268479411478,0.531148311834824,-0.03359759,-0.017104227,-0.0018325958,38.14515,-146.18253,-4.950334,STD
48260322457000,1.984978,3.24366763330551,9.17950464357262,0.522343681343907,-0.024740042,-0.01160644,-0.015577064,38.35231,-146.14429,-5.0910234,STD
48260327446000,1.989967,3.2746869328325,9.17064225097385,0.495755647523651,-0.019547688,-0.0009162979,-0.021685716,38.563137,-146.1037,-5.23133,STD
48260332533000,1.995054,3.30370698371009,9.16686105468829,0.4816260183259,-0.023518313,-0.004886922,-0.0125227375,38.785355,-146.04367,-5.348172,STD
48260337488000,2.000009,3.3277582473188,9.17167114668018,0.488841379828687,-0.027794369,-0.008246681,-0.010995574,39.004868,-145.9843,-5.465121,STD
48260342465000,2.004986,3.35191629756716,9.17650259528637,0.496088777245312,-0.02565634,0.009468411,-0.01863139,39.213894,-145.93713,-5.5823755,STD
48260347481000,2.010002,3.37626365140395,9.18137190334516,0.503392965600101,-0.018325957,0.008246681,-0.017104227,39.431503,-145.88846,-5.703622,STD
48260352466000,2.014987,3.39723112700918,9.19321047589973,0.514612273311492,-0.013133603,0.010079277,-0.014660766,39.646534,-145.83862,-5.8214803,STD
48260357461000,2.019982,3.41385325716555,9.21458198446265,0.531234418344999,-0.022602014,0.0067195175,-0.016798794,39.864292,-145.7854,-5.941812,STD
48260362456000,2.024977,3.43047538732192,9.23595349302557,0.547856563378506,-0.011911872,-0.0009162979,-0.01038471,40.086845,-145.72873,-6.0476565,STD
48260367479000,2.03,3.44719069458426,9.25744480183668,0.56457188560139,0.0033597588,0.0012217305,-0.0125227375,40.308125,-145.6699,-6.1545277,STD
48260372437000,2.034958,3.45908200658223,9.28333272354642,0.582027634075995,0.0067195175,-0.004276057,-0.007330383,40.537476,-145.60892,-6.263594,STD
48260377503000,2.040024,3.46392054939663,9.31720272534158,0.601381825543034,0.012217305,-0.0009162979,-0.0143553335,40.763912,-145.55205,-6.3732157,STD
48260382539000,2.04506,3.470635099881,9.34121817988893,0.605253432237208,0.01282817,-0.014049901,-0.0027488936,41.00869,-145.47287,-6.4684286,STD
48260387553000,2.050074,3.48015871654106,9.35074199543832,0.586206179028163,0.01740966,-0.019242255,-0.0012217305,41.24979,-145.39609,-6.564991,STD
48260392391000,2.054912,3.48721086891496,9.35403440982405,0.578368211979472,0.021991149,-0.017104227,0.002443461,41.49686,-145.31223,-6.664109,STD
48260397534000,2.060055,3.49082182803519,9.34681234076246,0.589201104422287,0.020158553,-0.019242255,0.00030543262,41.746864,-145.22705,-6.7672987,STD
48260404559000,2.06708,3.49493302806701,9.33828906103922,0.602136094878122,0.02565634,-0.02687807,-0.00061086525,42.00091,-145.15134,-6.873979,STD
48260407485000,2.070006,3.48931125721737,9.34672174666466,0.590892541438459,0.022602014,-0.02076942,0.00580322,42.25667,-145.07124,-6.9781594,STD
48260412475000,2.074996,3.47972388997893,9.36110284757749,0.571717786939512,0.020463986,-0.02687807,0.015271631,42.519623,-144.97348,-7.072329,STD
48260417467000,2.079988,3.46454244455003,9.37795594816117,0.550233637145301,0.019242255,-0.016493361,0.018020526,42.781128,-144.87436,-7.1626463,STD
48260422573000,2.085094,3.44595491597453,9.39654362230353,0.526999197312553,0.016493361,-0.021380283,0.01282817,43.049007,-144.77335,-7.2591057,STD
48260427519000,2.09004,3.43257032883562,9.42643796972828,0.503389356342597,0.004886922,-0.026267206,0.014660766,43.321712,-144.67487,-7.3584886,STD
48260432507000,2.095028,3.42269966484141,9.46592041956814,0.478712686050212,-0.00030543262,-0.0076358155,0.016798794,43.592663,-144.5766,-7.4556055,STD
48260437494000,2.100015,3.4212319263769,9.48566294931743,0.460015809664208,-0.0015271631,-0.00061086525,0.013744468,43.87539,-144.49164,-7.570121,STD
48260442566000,2.105087,3.42504281054448,9.4932848768241,0.444772265035305,-0.0070249503,-0.004276057,0.017715093,44.161533,-144.40205,-7.6823263,STD
48260447528000,2.110049,3.42554761000844,9.50056161843493,0.426532506159038,-0.013439035,0.0125227375,0.022907447,44.448803,-144.31746,-7.7971044,STD
48260452378000,2.114899,3.38635974299726,9.50545969900865,0.367750587998313,-0.018020526,0.007330383,0.022907447,44.742897,-144.23012,-7.918935,STD
48260457487000,2.120008,3.34636535487245,9.50898090577656,0.31445829987489,-0.020158553,0.025350908,0.03268129,45.042877,-144.14873,-8.030716,STD
48260462420000,2.124941,3.31404222314534,9.50436372192357,0.305223160709608,-0.03176499,0.02321288,0.032070424,45.34744,-144.06181,-8.151091,STD
48260467389000,2.12991,3.28198422498545,9.49610674997921,0.298515520861682,-0.03390302,0.028405234,0.03726278,45.651585,-143.96877,-8.261487,STD
48260472388000,2.134909,3.25411090198786,9.45628771712551,0.314443142318889,-0.042455133,0.026572637,0.03481932,45.958214,-143.86934,-8.376463,STD
48260477386000,2.139907,3.22624315477002,9.41647664967146,0.330367577614572,-0.05131268,0.022296581,0.03145956,46.275356,-143.76675,-8.490459,STD
48260482533000,2.145054,3.19617739736897,9.37198042666252,0.36763272299565,-0.043676864,0.02076942,0.03268129,46.59579,-143.66458,-8.604941,STD
48260487391000,2.149912,3.16726253507354,9.32860790677439,0.411005122113114,-0.047036625,0.021685716,0.032375857,46.918404,-143.55542,-8.721663,STD
48260492635000,2.155156,3.14467635325183,9.28297568007816,0.43704941811404,-0.05009095,0.015577064,0.029932396,47.242043,-143.45335,-8.852238,STD
48260497371000,2.159892,3.12649583688746,9.24206900806694,0.455229901256639,-0.049480084,-0.0015271631,0.025961773,47.570255,-143.34967,-8.986038,STD
48260502374000,2.164895,3.14422641485427,9.21724949306533,0.455988833959799,-0.04153884,0.004276057,0.03023783,47.891827,-143.23253,-9.116741,STD
48260507408000,2.169929,3.17329758777889,9.19786884603015,0.451143646904523,-0.03756821,0.004276057,0.020463986,48.0556056466899,-143.17297895769,-9.18699449168741,STD
48260512419000,2.17494,3.18714541588766,9.18991116222245,0.461578211814864,-0.038179077,-0.0018325958,0.023823744,48.218636,-143.1137,-9.256927,STD
48260517353000,2.179874,3.19672707079996,9.1851202347156,0.475950704188381,-0.03970624,-0.009773844,0.022907447,48.549465,-142.99207,-9.394393,STD
48260522382000,2.184903,3.21016388782811,9.18607544137349,0.488432366565772,-0.042760566,-0.004886922,0.02076942,48.87747,-142.87375,-9.527989,STD
48260527432000,2.189953,3.22456256470004,9.18847527514514,0.500431297370119,-0.042455133,-0.013439035,0.020463986,49.213028,-142.75433,-9.666545,STD
48260532412000,2.194933,3.23876165595197,9.19084184389421,0.512263906361336,-0.034208454,-0.008552114,0.0125227375,49.547318,-142.6352,-9.801891,STD
48260537385000,2.199906,3.25294078864189,9.19320508614102,0.52407988317124,-0.036651913,-0.008857546,0.01160644,49.889194,-142.51118,-9.939369,STD
48260542384000,2.204905,3.25974532935896,9.19736520519075,0.512199863606206,-0.025961773,-0.017715093,0.004886922,50.232204,-142.39243,-10.08026,STD
48260547385000,2.209906,3.26441832933945,9.20203830276124,0.49350783928676,-0.02076942,-0.0143553335,0.0061086523,50.57831,-142.26938,-10.217365,STD
48260552423000,2.214944,3.27628407426279,9.19624880300903,0.491948174754263,-0.0143553335,-0.020158553,-0.0012217305,50.922256,-142.13661,-10.353026,STD
48260557431000,2.219952,3.29071555301906,9.18662761624875,0.496758667673019,-0.011301007,-0.016798794,-0.0012217305,51.269512,-142.00244,-10.484567,STD
48260562904000,2.225425,3.31017087614886,9.19006316147879,0.492087905694717,-0.0061086523,-0.021380283,-0.0036651916,51.624805,-141.88187,-10.62587,STD
48260567431000,2.229952,3.32719926844069,9.19644892527494,0.485702268586999,-0.0015271631,-0.028099801,-0.009468411,51.982758,-141.76035,-10.767542,STD
48260572447000,2.234968,3.34606704306756,9.20352447005106,0.478626864184014,0.00061086525,-0.028710667,-0.0021380284,52.34229,-141.64297,-10.912536,STD
48260577402000,2.239923,3.3647053650923,9.21051396852907,0.471637504372054,0.004276057,-0.03268129,-0.009773844,52.702747,-141.52658,-11.063295,STD
48260582459000,2.24498,3.3760907717915,9.22906334362681,0.468252566697328,-0.00030543262,-0.03481932,-0.010079277,53.06729,-141.39928,-11.207091,STD
48260587427000,2.249948,3.38353360115137,9.25288050638258,0.466764002379701,0.00030543262,-0.036651913,-0.0067195175,53.435425,-141.27274,-11.352195,STD
48260592419000,2.25494,3.39101238620862,9.27681272789563,0.465268246930104,0.005497787,-0.043676864,-0.004581489,53.807053,-141.14871,-11.49659,STD
48260597432000,2.259953,3.39852263250109,9.30084562582129,0.463766199240035,-0.003970624,-0.041233405,-0.009468411,54.18025,-141.01898,-11.639798,STD
48260602535000,2.265056,3.40616771265878,9.32530999408673,0.462237184805081,0.0061086523,-0.040011674,-0.0030543262,54.56311,-140.88974,-11.777827,STD
48260607468000,2.269989,3.41355810662662,9.34895936282147,0.460759107554909,0.005497787,-0.035124753,-0.004886922,54.945732,-140.75388,-11.916768,STD
48260612446000,2.274967,3.42184148783253,9.36465680184256,0.471372692007196,0.009468411,-0.036651913,-0.00030543262,55.336037,-140.61899,-12.0543375,STD
48260617477000,2.279998,3.43234756737898,9.35940392662451,0.513397048589184,0.00580322,-0.03604105,-0.0021380284,55.72702,-140.48036,-12.19175,STD
48260622464000,2.284985,3.44658588981491,9.35866900579036,0.527788899074532,0.0067195175,-0.040927973,-0.0015271631,56.12949,-140.33643,-12.328476,STD
48260627447000,2.289968,3.46547976070474,9.36339232554687,0.508895003523706,0.01740966,-0.036651913,0.0027488936,56.53435,-140.19196,-12.46253,STD
48260633081000,2.295602,3.48106230092133,9.38484352812721,0.490971691285436,0.009468411,-0.030848695,-0.0018325958,56.942543,-140.03787,-12.600213,STD
48260637469000,2.29999,3.48850790659107,9.4146259896793,0.479803271118887,0.005192355,-0.03604105,-0.0009162979,57.35807,-139.8848,-12.737245,STD
48260642396000,2.304917,3.49081800601504,9.4450901641604,0.465333190037594,-0.0027488936,-0.029932396,-0.002443461,57.769512,-139.74287,-12.884742,STD
48260647454000,2.309975,3.46046747067669,9.46026522055138,0.440041066691729,0.0009162979,-0.03359759,0.004276057,58.189957,-139.59961,-13.032984,STD
48260652401000,2.314922,3.44041198665595,9.47613874889469,0.414364335148714,-0.008552114,-0.017104227,0.01038471,58.611553,-139.45099,-13.178335,STD
48260657467000,2.319988,3.45016200048232,9.49563867473875,0.385114273307878,-0.005192355,-0.02107485,0.016493361,59.04344,-139.3036,-13.32669,STD
48260662447000,2.324968,3.45364035273247,9.51096464072485,0.355549344715308,-0.0033597588,-0.011911872,0.016187929,59.476673,-139.16034,-13.478847,STD
48260667444000,2.329965,3.43994785785408,9.51552890100143,0.323600170935622,-0.010995574,-0.006414085,0.025350908,59.918945,-139.01102,-13.628505,STD
48260672435000,2.334956,3.42544005408805,9.51628927004717,0.297645206477987,-0.009162978,0.0076358155,0.01985312,60.353073,-138.85391,-13.765435,STD
48260677483000,2.340004,3.4064370327044,9.49728634787736,0.302395961823899,-0.007330383,0.022602014,0.022296581,60.793633,-138.6903,-13.896759,STD
48260682497000,2.345018,3.38863648837361,9.4766902848513,0.308942805089219,-0.0125227375,0.012217305,0.03756821,61.23798,-138.51913,-14.023662,STD
48260687475000,2.349996,3.37755999886617,9.44567609572491,0.326665234565056,-0.0070249503,0.021991149,0.032375857,61.67539,-138.35068,-14.146188,STD
48260692503000,2.355024,3.36637225494424,9.41435039405205,0.344565671568773,-0.0125227375,0.027183503,0.03573562,62.11522,-138.15326,-14.251412,STD
48260697506000,2.360027,3.35524013822955,9.38318044865242,0.36237710480855,-0.023518313,0.028405234,0.035430185,62.55598,-137.95508,-14.356978,STD
48260702462000,2.364983,3.3442126006645,9.35230332504647,0.380021210972119,-0.020158553,0.034513887,0.030848695,62.998466,-137.75786,-14.460434,STD
48260707488000,2.370009,3.31871348748277,9.29584756007485,0.406664365767185,-0.02107485,0.028099801,0.029626964,63.447975,-137.55475,-14.565315,STD
48260712455000,2.374976,3.29060542330116,9.23494677880638,0.434772302765413,-0.027183503,0.022602014,0.028405234,63.899117,-137.35007,-14.669294,STD
48260717476000,2.379997,3.26904085666289,9.19480828413893,0.436582164165722,-0.030543262,0.02443461,0.03268129,64.358536,-137.15865,-14.787856,STD
48260722405000,2.384926,3.24958128861177,9.16075383685458,0.431717272152942,-0.041233405,0.021991149,0.024740042,64.821396,-136.96284,-14.910082,STD
48260727449000,2.38997,3.25227569107226,9.15925260727307,0.427130768623913,-0.03573562,0.02321288,0.022602014,65.28455,-136.76974,-15.035096,STD
48260732514000,2.395035,3.25907757365617,9.16378729036178,0.422596175499673,-0.036957346,0.015577064,0.0290161,65.75463,-136.56984,-15.160864,STD
48260737539000,2.40006,3.26582573949706,9.16828616154062,0.418097393574834,-0.03970624,0.025045475,0.018020526,66.22388,-136.37828,-15.2875,STD
48260742399000,2.40492,3.27235232377302,9.17263730859119,0.413746332847527,-0.040317107,0.016493361,0.016798794,66.706276,-136.18285,-15.414405,STD
48260747454000,2.409975,3.28369780036626,9.18582094180486,0.4005626736433,-0.047647487,0.007941248,0.013439035,67.18017,-135.97049,-15.529774,STD
48260752475000,2.414996,3.29837430239088,9.20538950900397,0.380993994060433,-0.04550946,0.01160644,0.017715093,67.65896,-135.75792,-15.641676,STD
48260757462000,2.419983,3.31290029646958,9.22179008097719,0.376462813095949,-0.032070424,0.018325957,0.005497787,68.13739,-135.54393,-15.752379,STD
48260762449000,2.42497,3.32739417668302,9.23628393596682,0.38129408632138,-0.027794369,0.0015271631,0.009773844,68.628716,-135.32402,-15.86124,STD
48260767477000,2.429998,3.34200721652926,9.25089695038187,0.38616507925851,-0.023518313,0.0009162979,0.005497787,69.10862,-135.10178,-15.962042,STD
48260772469000,2.43499,3.35651562840524,9.26540533700875,0.391001196351221,-0.020158553,-0.007941248,0.00580322,69.60007,-134.8778,-16.064457,STD
48260777447000,2.439968,3.37323421480161,9.26151760641591,0.395592816384954,-0.013744468,0.0012217305,0.0033597588,70.09056,-134.65486,-16.163488,STD
48260782679000,2.4452,3.39203383464966,9.24741756026639,0.400292733615983,0.004276057,-0.0067195175,0.00030543262,70.59099,-134.43413,-16.265991,STD
48260787549000,2.45007,3.41593394186335,9.23930830292813,0.418393431510204,0.011911872,-0.008552114,0.003970624,71.09804,-134.2071,-16.359486,STD
48260792463000,2.454984,3.44516400099379,9.23513249299024,0.447623508081633,0.015882496,-0.004886922,0.0033597588,71.60824,-133.98276,-16.453405,STD
48260797457000,2.459978,3.46615355468069,9.23334191780616,0.475767978626596,0.014966198,-0.005192355,-0.0027488936,72.122795,-133.75983,-16.547165,STD
48260802476000,2.464997,3.46374604357626,9.238157040571,0.499843109782119,0.013133603,-0.015882496,-0.004886922,72.64352,-133.53517,-16.639776,STD
48260807444000,2.469965,3.46136299612322,9.24292323501127,0.523673604219384,0.022907447,-0.013439035,-0.004886922,73.156044,-133.2957,-16.71853,STD
48260812452000,2.474973,3.45896076149261,9.24772780460806,0.547695970592537,0.022602014,-0.00580322,-0.0018325958,73.67396,-133.05145,-16.796522,STD
48260818066000,2.480587,3.45633438314455,9.26101609728243,0.561460332578194,0.022602014,-0.0076358155,-0.0076358155,74.19568,-132.80927,-16.876122,STD
48260822496000,2.485017,3.45435679380972,9.28276982776302,0.553549975238894,0.016798794,-0.010079277,-0.008246681,74.721214,-132.56291,-16.950954,STD
48260827448000,2.489969,3.45214617927563,9.30708686463432,0.544707517102503,0.029932396,-0.01160644,-0.010995574,75.2616,-132.32585,-17.041016,STD
48260832566000,2.495087,3.44986146094253,9.33221905258006,0.535568643770102,0.017104227,-0.0125227375,-0.007330383,75.80738,-132.07791,-17.12775,STD
48260837629000,2.50015,3.44743252037229,9.35719462978283,0.526179700361944,0.017104227,-0.0076358155,0.003970624,76.3569,-131.83397,-17.21018,STD
48260842472000,2.504993,3.43783987458118,9.38597216649431,0.502198060842813,0.013744468,-0.006414085,-0.002443461,76.90863,-131.58566,-17.294077,STD
48260847579000,2.5101,3.42924014799483,9.41585936998706,0.478468674838292,0.01038471,-0.006414085,0.0033597588,77.0998374283828,-131.500836606601,-17.3205558679868,STD
48260852588000,2.515109,3.43878740467708,9.43972751169271,0.473695031543437,0.010079277,-0.006414085,0.002443461,77.2873757108911,-131.417640918812,-17.3465266237624,STD
48260857622000,2.520143,3.44730169042291,9.46327986743789,0.468914810787028,0.0033597588,-0.0067195175,0.0009162979,77.47585,-131.33403,-17.372627,STD
48260862458000,2.524979,3.44291012918642,9.48084647923383,0.464523254136165,-0.011301007,0.00061086525,0.004581489,78.043434,-131.07916,-17.44827,STD
48260867978000,2.530499,3.43708351421974,9.49986296393996,0.459191685731415,-0.009468411,0.0027488936,0.004276057,78.61744,-130.81744,-17.51144,STD
48260872464000,2.534985,3.41418905643485,9.49223130535572,0.447744424964029,-0.007941248,0.0027488936,0.0125227375,78.8910018047237,-130.689491560523,-17.537373564108,STD
48260877462000,2.539983,3.38868158875566,9.48372862376765,0.434990655611511,-0.01160644,0.007330383,0.01863139,79.195786,-130.54694,-17.566267,STD
48260882567000,2.545088,3.38696375942793,9.4556355622883,0.440482648825743,-0.018325957,0.005192355,0.0125227375,79.774956,-130.27419,-17.622406,STD
48260888133000,2.550654,3.39699465715092,9.41551197139631,0.455529089678208,-0.031154128,0.0070249503,0.01740966,80.3598,-129.9945,-17.668863,STD
48260892466000,2.554987,3.39478046049176,9.38448098165223,0.462179710166713,-0.02321288,0.0033597588,0.027488936,80.94254,-129.71397,-17.71057,STD
48260897450000,2.559971,3.3858896116513,9.34891712210115,0.466625153154512,-0.027183503,0.01160644,0.022296581,81.523224,-129.42749,-17.749884,STD
48260902466000,2.564987,3.36979207294389,9.31482496233666,0.482248530545734,-0.029321533,0.007941248,0.025961773,82.11497,-129.14532,-17.789707,STD
48260907462000,2.569983,3.34352343738882,9.28330248995278,0.513770937098935,-0.025961773,0.005497787,0.01863139,82.70459,-128.86441,-17.82901,STD
48260912431000,2.574952,3.32600425066461,9.26631415141591,0.51596501864188,-0.025350908,0.0036651916,0.021685716,83.29814,-128.58568,-17.870895,STD
48260917504000,2.580025,3.31430529796282,9.25929467718166,0.497246794489019,-0.033292156,0.0030543262,0.015271631,83.89212,-128.30646,-17.91381,STD
48260922421000,2.584942,3.30296610016374,9.2524910590445,0.479104175100173,-0.027488936,-0.0012217305,0.014966198,84.49824,-128.03485,-17.964563,STD
48260927445000,2.589966,3.29138014739934,9.24553938576382,0.460566749879599,-0.037873644,0.0030543262,0.003970624,85.10234,-127.75788,-18.014372,STD
48260932452000,2.594973,3.27867855958518,9.2375074351605,0.458331321512099,-0.03359759,0.004276057,0.007330383,85.71152,-127.48349,-18.063457,STD
48260937468000,2.599989,3.26444530660741,9.22801889708642,0.477309002057284,-0.04550946,0.004276057,0.00030543262,86.0174341981368,-127.344214728038,-18.0894067481719,STD
48260942435000,2.604956,3.25985252035364,9.22059580078801,0.484678823791082,-0.03756821,-0.0027488936,-0.0033597588,86.32036,-127.2063,-18.115103,STD
48260947463000,2.609984,3.26910721003267,9.21596835931194,0.475424119616567,-0.03848451,-0.0070249503,-0.004581489,86.9176,-126.92531,-18.153973,STD
48260952399000,2.61492,3.2790237479613,9.21213679785764,0.467009959067035,-0.029626964,-0.0070249503,-0.01160644,87.51554,-126.64316,-18.19265,STD
48260957944000,2.620465,3.29213056447823,9.2095153907592,0.459145896528779,-0.02107485,-0.015271631,-0.014049901,88.119965,-126.35886,-18.228544,STD
48260962407000,2.624928,3.30267983807878,9.20740550078981,0.45281635439925,-0.012217305,-0.008552114,-0.014049901,88.71936,-126.07537,-18.255865,STD
48260967506000,2.630027,3.31473243635107,9.20499494086287,0.44558482060618,-0.0070249503,-0.011911872,-0.015577064,89.32538,-125.79224,-18.28306,STD
48260972399000,2.63492,3.32831912400685,9.20732989820737,0.437662474352761,-0.003970624,-0.013744468,-0.008857546,89.93728,-125.51171,-18.305878,STD
48260977460000,2.639981,3.34796661807044,9.22261137366003,0.426747195313936,0.0015271631,-0.016798794,-0.013133603,90.550644,-125.23331,-18.328438,STD
48260982548000,2.645069,3.36771892982614,9.23797437447077,0.415773684199622,0.0009162979,-0.01282817,-0.010995574,91.16829,-124.95636,-18.34618,STD
48260987509000,2.65003,3.3869782102153,9.25295390415278,0.405074079514458,0.0030543262,-0.0027488936,-0.013744468,91.78575,-124.68091,-18.361633,STD
48260992400000,2.654921,3.40596574103234,9.26772207179533,0.394525446876858,-0.009773844,-0.0061086523,-0.02076942,92.40728,-124.40027,-18.37489,STD
48260997454000,2.659975,3.41974631498053,9.29115530237992,0.399584489987019,0.0027488936,0.0009162979,-0.013744468,93.026886,-124.12257,-18.378351,STD
48261002435000,2.664956,3.43213109407183,9.31592494677629,0.40784100938122,-0.004276057,0.0076358155,-0.004886922,93.64839,-123.83629,-18.379446,STD
48261007463000,2.669984,3.44330795168341,9.3382787853517,0.40395114700922,0.00580322,0.003970624,-0.0033597588,94.27019,-123.548004,-18.360775,STD
48261012454000,2.674975,3.45321115458407,9.35808534626541,0.389096332317414,0.010079277,0.006414085,0.004581489,94.89209,-123.25284,-18.333054,STD
48261017476000,2.679997,3.46301867683308,9.37770054437721,0.400446702594049,0.01038471,0.009162978,0.005192355,95.520325,-122.95584,-18.303644,STD
48261022467000,2.684988,3.47266019146747,9.39698372465961,0.429371266632375,0.0067195175,0.010995574,0.004886922,96.150085,-122.65643,-18.268837,STD
48261027656000,2.690177,3.46726052612122,9.39834469043681,0.431412819772351,0.007330383,0.020463986,0.010995574,96.77606,-122.353325,-18.223957,STD
48261032538000,2.695059,3.45361505352661,9.3892475187275,0.417767337678763,0.008857546,0.019547688,0.015882496,97.404854,-122.0487,-18.177301,STD
48261037476000,2.699997,3.44091753789991,9.38123133898305,0.419882120144419,0.008857546,0.021685716,0.017104227,97.7217766711004,-121.895479691657,-18.1548416584039,STD
48261042462000,2.704983,3.42894533731822,9.37404811864407,0.434248770843446,0.00030543262,0.01985312,0.01282817,98.04178,-121.74077,-18.132164,STD
48261047442000,2.709963,3.41698754371678,9.36687354237288,0.448598133154147,0.0018325958,0.01985312,0.023823744,98.68194,-121.43118,-18.078835,STD
48261052473000,2.714994,3.40490729078327,9.35962549152542,0.46309444676562,0.0027488936,0.027183503,0.018936822,99.31269,-121.12227,-18.022871,STD
48261057473000,2.719994,3.38898687254921,9.34576135999016,0.482737970116142,0.0027488936,0.019547688,0.014660766,99.94927,-120.81054,-17.962463,STD
48261062463000,2.724984,3.37017265709646,9.32694694808071,0.506255810647638,-0.00061086525,0.016187929,0.016798794,100.58297,-120.497086,-17.896875,STD
48261067431000,2.729952,3.35891703228095,9.31314872564692,0.524774359084824,0.007330383,0.011911872,0.02107485,101.2236,-120.187126,-17.835829,STD
48261072435000,2.734956,3.35412911069038,9.30357243251074,0.539138153853532,0.002443461,0.01160644,0.0143553335,101.86259,-119.8739,-17.77306,STD
48261077507000,2.740028,3.34924503127085,9.30699157142857,0.543240531270852,0.0021380284,0.0106901415,0.014966198,102.5043,-119.55741,-17.700352,STD
48261082481000,2.745002,3.34442903660904,9.32143985714286,0.538424536609039,0.0021380284,0.014966198,0.0106901415,102.824584865516,-119.39999318346,-17.6646349460056,STD
48261087471000,2.749992,3.34496043831516,9.32250041248761,0.5283369684222,0.004276057,0.0012217305,0.0070249503,103.1459,-119.24207,-17.628803,STD
48261092496000,2.755017,3.34972985555996,9.31296137879088,0.514028686806739,-0.0015271631,0.0033597588,0.0070249503,103.78606,-118.92171,-17.550854,STD
48261097414000,2.759935,3.35627398425333,9.30206860166119,0.500983481521024,-0.005192355,0.003970624,0.004886922,104.427246,-118.603035,-17.47287,STD
48261102501000,2.765022,3.36470397685586,9.28942328266136,0.488338430999308,-0.00061086525,-0.00061086525,-0.002443461,105.067665,-118.28502,-17.392641,STD
48261107350000,2.769871,3.36774924856443,9.28430749922101,0.474457993779212,-0.004886922,-0.0009162979,-0.0021380284,105.703445,-117.96077,-17.294008,STD
48261112382000,2.774903,3.35166079212108,9.30575957711996,0.453006615858001,-0.009468411,-0.005192355,-0.009162978,106.338554,-117.63936,-17.19669,STD
48261117342000,2.779863,3.33859640479863,9.3135968688946,0.438678466923736,-0.0061086523,0.009468411,-0.0030543262,106.9618,-117.31688,-17.094252,STD
48261122386000,2.784907,3.32939793626583,9.30209875321337,0.434079268675617,-0.00030543262,0.0076358155,-0.005192355,107.58784,-116.99611,-16.994492,STD
48261127362000,2.789883,3.32032347563553,9.29075564781491,0.429542073893173,-0.008552114,-0.0030543262,-0.010079277,108.20938,-116.67408,-16.890766,STD
48261132419000,2.79494,3.31110129970961,9.27922789781491,0.424931022041322,-0.006414085,-0.00061086525,-0.013133603,108.82628,-116.35518,-16.782578,STD
48261137341000,2.799862,3.30294583817676,9.27561086405949,0.418222412332549,-0.012217305,-0.007941248,-0.016798794,109.446754,-116.033325,-16.674448,STD
48261142728000,2.805249,3.29742580590627,9.3032113136101,0.401662303993152,-0.0070249503,-0.004581489,-0.0125227375,110.062386,-115.71299,-16.560251,STD
48261147378000,2.809899,3.2928779720075,9.32595063996248,0.400366223185741,-0.011911872,-0.00061086525,-0.01863139,110.673386,-115.39608,-16.450226,STD
48261152424000,2.814945,3.28834471377111,9.34861693114446,0.423032523834897,-0.007941248,-0.005497787,-0.015577064,111.2855,-115.07923,-16.333652,STD
48261157399000,2.81992,3.28681211089109,9.36710122462871,0.442500613972772,-0.010079277,-0.0106901415,-0.014049901,111.875435,-114.749565,-16.20498,STD
48261162404000,2.824925,3.29593851683168,9.37166428465347,0.451627034207921,-0.003970624,-0.016493361,-0.003970624,112.466576,-114.42073,-16.071087,STD
48261167403000,2.829924,3.30458288377267,9.37510935285744,0.456763399659426,0.004276057,-0.00580322,0.00030543262,113.06087,-114.09214,-15.938564,STD
48261172421000,2.834942,3.30965014313581,9.37004241095529,0.431427870041122,-0.0027488936,-0.0106901415,-0.0015271631,113.65971,-113.761314,-15.80418,STD
48261177451000,2.839972,3.31459516099879,9.36509766030001,0.410782808351812,-0.002443461,-0.008246681,-0.0009162979,114.24841,-113.428925,-15.66835,STD
48261182462000,2.844983,3.31906631013696,9.36062660453741,0.406311612525855,-0.004886922,-0.0143553335,0.004581489,114.83942,-113.09466,-15.530129,STD
48261187406000,2.849927,3.32248241965967,9.35609461116432,0.402114283665038,0.0030543262,-0.0076358155,0.0036651916,115.41645,-112.76426,-15.3849325,STD
48261192418000,2.854939,3.31328807263034,9.34996501980972,0.400581897827156,-0.00061086525,-0.01160644,-0.0030543262,115.99642,-112.43191,-15.238884,STD
48261197469000,2.85999,3.30402218140025,9.34378773211378,0.399037587997318,-0.0061086523,-0.0070249503,0.010079277,116.57041,-112.09787,-15.0829735,STD
48261202553000,2.865074,3.29469575276953,9.33757008597516,0.397483188635827,0.002443461,-0.014049901,0.0070249503,117.14496,-111.77141,-14.932352,STD
48261207745000,2.870266,3.28517120173674,9.33122035766051,0.395895768988922,-0.00030543262,-0.022296581,0.008246681,117.72797,-111.446266,-14.78409,STD
48261213105000,2.875626,3.27533846030074,9.32466516818312,0.394256984453596,0.004886922,-0.01863139,0.0125227375,118.30733,-111.125145,-14.632864,STD
48261217410000,2.879931,3.26744108121827,9.31940022588832,0.392940759187817,0.004581489,-0.01985312,0.0106901415,118.88774,-110.803955,-14.481423,STD
48261222467000,2.884988,3.26759596002327,9.33156820027149,0.39455404002327,-0.0015271631,-0.014966198,0.00580322,119.46307,-110.48309,-14.326459,STD
48261227490000,2.890011,3.26992806194793,9.34789288939254,0.396886141947932,-0.005497787,-0.028710667,0.0012217305,120.0415,-110.16362,-14.170938,STD
48261232542000,2.895063,3.27227362812818,9.36431182816212,0.399231708128182,0.002443461,-0.017104227,0.005192355,120.60509,-109.84936,-14.013271,STD
48261237524000,2.900045,3.27458669438115,9.38050326778009,0.401544774381151,-0.005192355,-0.014049901,0.010079277,121.17222,-109.53258,-13.855691,STD
48261242458000,2.904979,3.27367610462128,9.38049598034516,0.405409274081496,-0.008857546,-0.02565634,0.0018325958,121.733475,-109.21783,-13.691859,STD
48261247564000,2.910085,3.27133194638543,9.37346360354746,0.410097595448706,-0.018020526,-0.018020526,0.0021380284,122.28662,-108.89862,-13.520787,STD
48261252467000,2.914988,3.26908098519655,9.36671081399808,0.414599522527325,-0.007941248,-0.021685716,-0.004581489,122.85676,-108.59075,-13.356415,STD
48261257464000,2.919985,3.26678686872483,9.35982856040268,0.419187760261745,-0.007941248,-0.013744468,0.0030543262,123.41897,-108.276634,-13.184279,STD
48261262448000,2.924969,3.25576250312375,9.35405881746507,0.413933102720559,-0.014660766,-0.012217305,0.004886922,123.97977,-107.96637,-13.013926,STD
48261267480000,2.930001,3.23652484571856,9.34924929011976,0.399504811958084,-0.022296581,-0.016493361,0.00061086525,124.5366,-107.6563,-12.840824,STD
48261272467000,2.934988,3.23494052196555,9.35703947841945,0.387611309227964,-0.017715093,-0.013439035,0.0070249503,125.088,-107.34573,-12.665333,STD
48261277494000,2.940015,3.24957347212766,9.37655004468085,0.377855964978723,-0.023518313,-0.016493361,0.0061086523,125.63817,-107.03492,-12.491463,STD
48261283220000,2.945741,3.2595732622093,9.39564804215116,0.352741072296512,-0.01740966,-0.016493361,0.0036651916,126.18443,-106.732864,-12.311899,STD
48261287474000,2.949995,3.26380288297342,9.40833672778239,0.327363330045681,-0.017104227,-0.011911872,0.008246681,126.72686,-106.428024,-12.1286,STD
48261292461000,2.954982,3.27422664317876,9.40831074947085,0.313189405607081,-0.021991149,-0.017104227,0.0076358155,127.26842,-106.12429,-11.94381,STD
48261297455000,2.959976,3.28803072414855,9.39910831710602,0.308588045283818,-0.026572637,-0.0106901415,0.010079277,127.80198,-105.81994,-11.754363,STD
48261302473000,2.964994,3.29705314782167,9.37905745810907,0.309089567821672,-0.026267206,-0.014966198,0.0036651916,128.33232,-105.520454,-11.56906,STD
48261307463000,2.969984,3.30190622307302,9.34993890525033,0.313942643073017,-0.027488936,-0.01985312,0.0036651916,128.594973179539,-105.370601847543,-11.4746371379137,STD
48261312443000,2.974964,3.31429677621401,9.32966296702461,0.321183873157845,-0.02076942,-0.017104227,0.00030543262,128.8571,-105.22105,-11.3804035,STD
48261317474000,2.979995,3.33261142341538,9.31592680233774,0.330341134606101,-0.020463986,-0.015577064,0.0012217305,129.37796,-104.92114,-11.188935,STD
48261322469000,2.98499,3.3486889945503,9.30227254992378,0.34157156121189,-0.018325957,-0.014049901,0.00061086525,129.8978,-104.62609,-10.998794,STD
48261327505000,2.990026,3.36247384504573,9.28848736356707,0.355356469283537,-0.02565634,-0.016798794,0.0027488936,130.41495,-104.32946,-10.806328,STD
48261332520000,2.995041,3.36363045777072,9.27251947710276,0.378729790855445,-0.010079277,-0.0143553335,0.0076358155,130.92896,-104.034805,-10.602521,STD
48261337490000,3.000011,3.34412566451183,9.25301473476078,0.417739499573814,-0.01282817,-0.00580322,0.0076358155,131.184427009063,-103.884889179255,-10.5003051671702,STD
48261342450000,3.004971,3.32880973184713,9.247496875,0.438573515923567,-0.02107485,-0.01038471,0.008552114,131.43938,-103.735275,-10.398295,STD
48261347465000,3.009986,3.31925008773885,9.261836640625,0.433793693869427,-0.022296581,-0.012217305,-0.0009162979,131.94876,-103.439835,-10.192924,STD
48261352590000,3.015111,3.3153280906953,9.27560735378323,0.422192247689162,-0.010995574,-0.009773844,-0.0061086523,132.45302,-103.14265,-9.983483,STD
48261357464000,3.019985,3.31930532619291,9.28753901874574,0.402305845937287,-0.011911872,-0.0067195175,-0.003970624,132.95352,-102.84473,-9.773957,STD
48261362552000,3.025073,3.32459435681063,9.30016078737542,0.381990495215947,-0.006414085,-0.006414085,0.0036651916,133.44926,-102.552536,-9.564817,STD
48261367477000,3.029998,3.34358795919662,9.31440624947146,0.367745330613108,-0.0067195175,-0.006414085,-0.009162978,133.691969474426,-102.408854133306,-9.46211200604108,STD
48261372484000,3.035005,3.36264196033675,9.32899266915764,0.355693474535307,-0.0061086523,-0.0027488936,-0.0009162979,133.93872,-102.26278,-9.357697,STD
48261377484000,3.040005,3.37849531605732,9.34484614312066,0.373811631845055,0.002443461,0.009162978,0.01282817,134.4211,-101.97289,-9.142058,STD
48261382554000,3.045075,3.39457061875798,9.36092156571915,0.39218344335714,0.004276057,-0.005497787,0.0067195175,134.90582,-101.68733,-8.926508,STD
48261387494000,3.050015,3.4102337342099,9.37658479799461,0.41008418277917,-0.003970624,0.005497787,0.013744468,135.37683,-101.39719,-8.702045,STD
48261392396000,3.054917,3.42577636415835,9.39212754386795,0.427847224205647,0.005192355,0.005192355,0.016798794,135.85094,-101.11433,-8.48151,STD
48261397462000,3.059983,3.42461777657137,9.38902944460487,0.434835329504283,0.018936822,0.002443461,0.014966198,136.31873,-100.832,-8.260253,STD
48261402435000,3.064956,3.42003355995765,9.38215309575031,0.4394195532982,0.01282817,-0.0009162979,0.01282817,136.78294,-100.548805,-8.038529,STD
48261407461000,3.069982,3.4154004868226,9.3752034618587,0.444052633689961,0.0106901415,0.0021380284,0.012217305,137.25145,-100.26234,-7.810048,STD
48261412473000,3.074994,3.41078031918375,9.36827318627876,0.448672808565309,0.0076358155,0.005192355,0.017104227,137.71678,-99.975784,-7.581227,STD
48261417475000,3.079996,3.40276702879936,9.35296505459713,0.463262279268049,0.0030543262,0.0027488936,0.013744468,138.1783,-99.69248,-7.355542,STD
48261422480000,3.085001,3.39320741890706,9.33384568508177,0.482381509034703,0.006414085,-0.003970624,0.014660766,138.6363,-99.41018,-7.12788,STD
48261427473000,3.089994,3.37971535861564,9.32781,0.492906109030855,-0.0036651916,0.0036651916,0.016493361,139.0856,-99.127174,-6.9026737,STD
48261432534000,3.095055,3.36418352865775,9.32781,0.49956260526735,0.002443461,0.00030543262,0.009468411,139.53558,-98.85161,-6.6808004,STD
48261437492000,3.100013,3.34896779798572,9.32781,0.506083630428493,-0.004581489,-0.0009162979,0.014660766,139.97958,-98.57039,-6.4564533,STD
48261442463000,3.104984,3.33371217128731,9.32781,0.512621753880699,-0.015882496,0.005192355,0.01740966,140.41801,-98.29366,-6.235194,STD
48261447448000,3.109969,3.323152,9.32557767995169,0.514915267347021,-0.009468411,0.0015271631,0.009773844,140.85533,-98.02225,-6.0162683,STD
48261452473000,3.114994,3.323152,9.31831251917271,0.507650260817733,-0.0143553335,-0.003970624,0.008552114,141.28761,-97.74688,-5.7952085,STD
48261457462000,3.119983,3.323152,9.31109940730676,0.500437302096417,-0.015882496,-0.0027488936,0.015271631,141.7134,-97.47843,-5.5792885,STD
48261462446000,3.124967,3.323152,9.30389352445652,0.493231572237319,-0.02321288,0.0021380284,0.01740966,142.13542,-97.211395,-5.36556,STD
48261467423000,3.129944,3.3214946683934,9.30405115057266,0.496703903215299,-0.016798794,0.01038471,0.005497787,142.5597,-96.95561,-5.154353,STD
48261472486000,3.135007,3.31639990826941,9.31933590974046,0.522177996432699,-0.009468411,-0.00580322,0.010995574,142.98576,-96.69674,-4.9386005,STD
48261477470000,3.139991,3.31559237390673,9.32175858871904,0.530249902455495,-0.02076942,-0.010079277,0.009468411,143.40019,-96.44367,-4.7289906,STD
48261482565000,3.145086,3.32031308660991,9.30759600696594,0.516087586888545,-0.021991149,-0.0143553335,0.005192355,143.81516,-96.195595,-4.5195556,STD
48261487458000,3.149979,3.32487011182933,9.29736087023051,0.495544075599804,-0.013439035,-0.014660766,0.0018325958,144.2275,-95.94736,-4.310766,STD
48261492467000,3.154988,3.32957542738597,9.29265550554193,0.462607190974007,-0.019547688,-0.018325957,0.007330383,144.63786,-95.69744,-4.1014175,STD
48261497418000,3.159939,3.33428310680106,9.29727319629404,0.437424686397882,-0.016798794,-0.015577064,0.009162978,145.0414,-95.456085,-3.8943994,STD
48261502499000,3.16502,3.33923726285889,9.32204449389127,0.427516374282224,-0.014660766,-0.005497787,0.0061086523,145.43979,-95.21578,-3.687794,STD
48261507425000,3.169946,3.34389143410275,9.34690143773269,0.426136707275689,-0.013744468,-0.010995574,0.004581489,145.84662,-94.98651,-3.486899,STD
48261512511000,3.175032,3.34842490439315,9.37410235415115,0.439737132348287,-0.0125227375,-0.0070249503,0.004276057,146.24364,-94.76055,-3.2866433,STD
48261517467000,3.179988,3.35099814660893,9.39042623304467,0.447456867056503,-0.018020526,-0.015577064,0.004581489,146.64157,-94.536316,-3.0867517,STD
48261522449000,3.18497,3.34690729368945,9.36997196844723,0.435184295483152,-0.01038471,-0.008857546,0.002443461,147.02985,-94.31845,-2.8879254,STD
48261528422000,3.190943,3.34161884720117,9.34662056822157,0.420692650069971,-0.018325957,-0.01282817,0.003970624,147.42188,-94.09498,-2.6899705,STD
48261532494000,3.195015,3.33403926834791,9.34283071943635,0.413113102874636,-0.011911872,-0.0143553335,0.003970624,147.80713,-93.88017,-2.4935517,STD
48261538538000,3.201059,3.32303303229814,9.337387,0.402761229503106,-0.011301007,-0.013133603,0.009162978,148.18874,-93.670204,-2.2944088,STD
48261542435000,3.204956,3.32065550853321,9.337387,0.413459983419016,-0.014049901,-0.021685716,0.01038471,148.56943,-93.465576,-2.0973005,STD
48261547500000,3.210021,3.31756539873865,9.337387,0.427365343589425,-0.009468411,-0.02443461,0.0106901415,148.94786,-93.27043,-1.9050593,STD
48261552360000,3.214881,3.31460035755375,9.337387,0.440707900436057,-0.010995574,-0.01863139,0.016493361,149.32228,-93.076805,-1.7115004,STD
48261557399000,3.21992,3.31152611011945,9.337387,0.454541880672719,-0.015882496,-0.018325957,0.013133603,149.69489,-92.89012,-1.5212368,STD
48261562377000,3.224898,3.30848907822265,9.337387,0.468208392603281,-0.017104227,-0.024740042,0.008857546,150.06384,-92.70928,-1.3303107,STD
48261567391000,3.229912,3.30543008305781,9.337387,0.481973738288263,-0.014966198,-0.013439035,0.008246681,150.4237,-92.53508,-1.1398245,STD
48261572456000,3.234977,3.30265285462063,9.33604162652471,0.476309031752119,-0.010079277,-0.014660766,0.013133603,150.78711,-92.36868,-0.95213467,STD
48261577364000,3.239885,3.30022351130866,9.33361223247881,0.454444924187513,-0.012217305,-0.02107485,0.017104227,151.14487,-92.21055,-0.7654949,STD
48261582414000,3.244935,3.29772388137275,9.33111255034112,0.431948236493694,-0.013133603,-0.01282817,0.014660766,151.49629,-92.06038,-0.58035576,STD
48261587384000,3.249905,3.29526384953484,9.32865246712838,0.409807931971263,-0.020158553,-0.021685716,0.015271631,151.85062,-91.920456,-0.3942305,STD
48261592381000,3.254902,3.29239203854143,9.32273649040162,0.401211199270716,-0.023518313,-0.015577064,0.0106901415,152.19336,-91.79442,-0.2118482,STD
48261597396000,3.259917,3.28930334424258,9.31501459339529,0.39966685212129,-0.015577064,-0.013133603,0.007330383,152.5359,-91.687584,-0.029843662,STD
48261602464000,3.264985,3.28618200771086,9.30721108910254,0.398106183855429,-0.015271631,-0.023823744,0.008857546,152.87428,-91.60406,0.14952837,STD
48261608005000,3.270526,3.28276935464806,9.29867927827261,0.39639985732403,-0.022602014,-0.01863139,0.008246681,153.20383,-91.54355,0.32671613,STD
48261612445000,3.274966,3.28003479778128,9.2918427433358,0.39503257889064,-0.014660766,-0.015577064,0.009162978,153.53346,-91.51257,0.5039114,STD
48261617501000,3.280022,3.27692085194379,9.28405771616451,0.393475605971896,-0.0012217305,-0.015271631,0.0067195175,153.85889,-91.50669,0.6791962,STD
48261622465000,3.284986,3.2834130112282,9.27788888324163,0.398757944832603,-0.006414085,-0.015577064,0.007330383,154.18018,-91.524376,0.8547803,STD
48261627449000,3.28997,3.30121815717616,9.27343800345053,0.412111709010538,-0.010995574,-0.020463986,0.006414085,154.49924,-91.5689,1.0283214,STD
48261632514000,3.295035,3.31510949858354,9.27265026583541,0.4213795,-0.014966198,-0.028710667,0.011911872,154.81499,-91.63474,1.2013459,STD
48261637529000,3.30005,3.31990028681297,9.27983634812968,0.4213795,-0.008246681,-0.019242255,0.0033597588,155.12364,-91.71681,1.3693355,STD
48261642389000,3.30491,3.32454300481796,9.28680032817955,0.4213795,-0.008246681,-0.01740966,0.009468411,155.226315872269,-91.7500556672269,1.42656248191597,STD
48261647458000,3.309979,3.32938537880299,9.29406378802993,0.4213795,-0.008246681,-0.01740966,0.004581489,155.33340722958,-91.784731034958,1.4862504595563,STD
48261652404000,3.314925,3.33541133153511,9.30310273133172,0.420038281431477,-0.0036651916,-0.02443461,0.005192355,155.4379,-91.818565,1.5444901,STD
48261657466000,3.319987,3.34480169697821,9.31718857365617,0.4153430889046,-0.013744468,-0.020158553,0.0061086523,155.74336,-91.93024,1.7161007,STD
48261662412000,3.324933,3.35298269341135,9.32891022213177,0.413452979881964,-0.008552114,-0.01740966,0.009162978,156.0393,-92.05049,1.888079,STD
48261667478000,3.329999,3.35791943373187,9.33384709132536,0.420858134179598,-0.0027488936,-0.01863139,0.0067195175,156.33218,-92.17853,2.057804,STD
48261672395000,3.334916,3.36271097580768,9.33863875848385,0.428045489821419,0.00061086525,-0.019242255,0.0036651916,156.6218,-92.3169,2.2286355,STD
48261677775000,3.340296,3.36795370437548,9.34388162391249,0.4359096292058,-0.006414085,-0.016187929,0.0018325958,156.90779,-92.4608,2.398069,STD
48261682528000,3.345049,3.37400164650891,9.3410326605317,0.445722984487292,-0.0076358155,-0.01863139,0.0018325958,157.18353,-92.613045,2.5700598,STD
48261687491000,3.350012,3.38325856702697,9.32251867450579,0.461922605059889,0.00030543262,-0.0027488936,0.011911872,157.45058,-92.77136,2.7432098,STD
48261692415000,3.354936,3.39244274527218,9.30415017416496,0.477994926579024,0.005497787,-0.0143553335,0.005497787,157.72485,-92.92917,2.9121716,STD
48261697458000,3.359979,3.40184888070893,9.28533775596455,0.494455673415133,-0.007330383,-0.021380283,0.0106901415,157.99075,-93.09486,3.0859375,STD
48261702429000,3.36495,3.41271005065019,9.27203237259061,0.505887315553814,-0.006414085,-0.023518313,0.009162978,158.256,-93.258575,3.2545633,STD
48261707462000,3.369983,3.43049112024348,9.28092262888499,0.496996785398875,-0.013439035,-0.022296581,0.010995574,158.51973,-93.42531,3.4242706,STD
48261712781000,3.375302,3.44584816716904,9.29040313523422,0.485263240193483,-0.02321288,-0.017715093,0.009773844,158.78354,-93.595764,3.5957637,STD
48261717493000,3.380014,3.42746695266802,9.29959393441955,0.453096090824847,-0.01863139,-0.018936822,0.013133603,159.0461,-86.2316,3.7676978,STD
48261722488000,3.385009,3.40919454748265,9.30910196686533,0.421082194654866,-0.01282817,-0.013744468,0.017104227,159.30434,-86.05616,3.9410033,STD
48261727483000,3.390004,3.4070669849493,9.31548478776018,0.416827065144992,-0.018936822,-0.004886922,0.008552114,159.5594,-85.88356,4.1101923,STD
48261732548000,3.395069,3.40490960672478,9.32195705759651,0.412512304190536,-0.004581489,-0.0067195175,0.0143553335,159.80455,-85.70755,4.282633,STD
48261737483000,3.400004,3.40280760049813,9.32826320797011,0.408308287347447,-0.015271631,-0.004886922,0.015577064,160.0439,-85.53564,4.449728,STD
48261742455000,3.404976,3.40068983454901,9.33461663849849,0.404072751026508,-0.022907447,-0.014660766,0.015882496,160.28493,-85.36381,4.616622,STD
48261747461000,3.409982,3.39837531808783,9.34156026026205,0.395270467534036,-0.019547688,-0.010995574,0.0125227375,160.5194,-85.19391,4.7811847,STD
48261752475000,3.414996,3.39591764201044,9.34893331415703,0.382982082014536,-0.01740966,-0.0143553335,0.007330383,160.75652,-85.02544,4.943791,STD
48261757455000,3.419976,3.39347663146688,9.35625637127649,0.370777024198997,-0.008552114,-0.005497787,0.015577064,160.98608,-84.85712,5.1064568,STD
48261762452000,3.424973,3.39102728815641,9.3636044267837,0.358530302531477,-0.019242255,-0.00061086525,0.015577064,161.2156,-84.69333,5.2638197,STD
48261767520000,3.430041,3.38695954323727,9.35319703685109,0.35111176276333,-0.014049901,0.002443461,0.011911872,161.44598,-84.53465,5.416145,STD
48261772470000,3.434991,3.38219956080932,9.33415675921277,0.346351720690832,-0.016187929,-0.005192355,0.009162978,161.67589,-84.37628,5.5674176,STD
48261777458000,3.439979,3.37470368822496,9.32485533240908,0.358060775749341,-0.013133603,0.0030543262,0.015577064,161.90112,-84.22183,5.715708,STD
48261782557000,3.445078,3.36567700433014,9.32034189620592,0.378370828651047,-0.009468411,-0.0070249503,0.012217305,162.13165,-84.072044,5.8593526,STD
48261787481000,3.450002,3.35696012033366,9.31598336318684,0.397983831296271,-0.01038471,-0.014660766,0.013439035,162.36217,-83.922104,6.00463,STD
48261792483000,3.455004,3.34810515409677,9.31155578760571,0.417907519198669,-0.008246681,-0.0021380284,0.013744468,162.58743,-83.77492,6.147455,STD
48261797439000,3.45996,3.34559152130093,9.30783452751966,0.4309563,-0.009773844,-0.009468411,0.013133603,162.81827,-83.628685,6.289333,STD
48261802477000,3.464998,3.35544507351169,9.30537108802206,0.4309563,-0.009773844,-0.0027488936,0.009162978,163.03917,-83.484764,6.4289975,STD
48261807461000,3.469982,3.36519301003778,9.30293405299704,0.4309563,-0.02076942,-0.0036651916,0.011911872,163.26114,-83.34134,6.566957,STD
48261812448000,3.474969,3.37494681410191,9.30049555105688,0.4309563,-0.003970624,-0.006414085,0.005192355,163.47948,-83.20423,6.6999245,STD
48261817465000,3.479986,3.37880352222618,9.30993538000178,0.42552821957936,-0.0143553335,0.0015271631,0.008552114,163.69875,-83.065216,6.8340974,STD
48261822466000,3.484987,3.37453526833616,9.33554517075127,0.412723582700294,-0.009468411,0.0030543262,0.004886922,163.9183,-82.932755,6.96334,STD
48261827522000,3.490043,3.36970482339941,9.35432231827655,0.403113335082635,-0.0106901415,0.0015271631,0.007941248,164.13585,-82.794395,7.0977864,STD
48261832581000,3.495102,3.36266044848059,9.34258140735715,0.407809606278292,-0.007941248,-0.007330383,-0.002443461,164.35283,-82.66251,7.226245,STD
48261837812000,3.500333,3.35537657316919,9.33044131939127,0.4126655451248,-0.011911872,-0.0061086523,0.0061086523,164.56941,-82.53064,7.3544703,STD
48261842462000,3.504983,3.34890170790481,9.31964961435564,0.41698214149954,-0.0021380284,-0.008246681,-0.0030543262,164.78722,-82.40848,7.473856,STD
48261847569000,3.51009,3.34267179319145,9.30938820167373,0.422111686382891,-0.005192355,-0.011301007,-0.0030543262,164.897348774348,-82.3432842553191,7.53719024802717,STD
48261852473000,3.514994,3.34752401213968,9.31909284223577,0.431816124279368,-0.009773844,-0.013744468,-0.0009162979,165.0031,-82.28068,7.598007,STD
48261857427000,3.519948,3.35239107643645,9.32831858705746,0.4410416780296,-0.012217305,-0.0106901415,0.006414085,165.21469,-82.155716,7.720096,STD
48261863002000,3.525523,3.35755558214355,9.33348320061907,0.446206199914877,-0.014660766,-0.014660766,0.0015271631,165.43022,-82.0377,7.8347507,STD
48261867587000,3.530108,3.36052503946884,9.33832126378298,0.449175668493295,-0.015577064,-0.0070249503,0.0036651916,165.63939,-81.91557,7.9533296,STD
48261872467000,3.534988,3.34823611388378,9.35061023214129,0.436886730076256,-0.0125227375,-0.012217305,0.008246681,165.85098,-81.79511,8.070547,STD
48261877534000,3.540055,3.33547628069945,9.36337010973793,0.424126883568236,-0.008552114,-0.0125227375,0.0067195175,166.05704,-81.67585,8.186479,STD
48261882533000,3.545054,3.339992565541,9.36430163575934,0.417747653956332,-0.011301007,-0.009468411,0.006414085,166.2612,-81.55574,8.303208,STD
48261887487000,3.550008,3.34920039540029,9.36199974439592,0.413143722200873,-0.01038471,-0.009162978,0.005192355,166.46394,-81.43769,8.418385,STD
48261892459000,3.55498,3.35844168124212,9.35968948927705,0.408523062393013,-0.009773844,-0.01038471,0.004886922,166.66913,-81.32867,8.523025,STD
48261897488000,3.560009,3.36778891102863,9.35735274893256,0.403849430419214,-0.011911872,-0.008552114,0.004581489,166.87097,-81.22053,8.626782,STD
48261902470000,3.564991,3.37405267687439,9.35352429162609,0.405242525374878,-0.010995574,-0.01038471,0.0030543262,167.0719,-81.11367,8.72963,STD
48261907440000,3.569961,3.37868726236611,9.34888965774099,0.409877062473223,-0.013439035,-0.013133603,0.00061086525,167.27028,-81.00753,8.831589,STD
48261912450000,3.574971,3.39231806803279,9.34111127848101,0.405950080705541,-0.0125227375,-0.0070249503,0.0067195175,167.45723,-80.89211,8.943743,STD
48261917554000,3.580075,3.41260437622951,9.33096788607595,0.395806900128657,-0.013744468,-0.0015271631,0.0030543262,167.64316,-80.780815,9.051621,STD
48261922466000,3.584987,3.40405049883188,9.32483619292589,0.401570786911504,-0.004276057,-0.0070249503,0.00580322,167.8289,-80.66648,9.163289,STD
48261927471000,3.589992,3.38165451527895,9.3203571365293,0.415008386397533,-0.0076358155,-0.0106901415,0.0012217305,168.0106,-80.55548,9.270858,STD
48261933192000,3.595713,3.37586115069977,9.3214502503386,0.416554345941309,-0.00580322,0.00061086525,-0.0012217305,168.18892,-80.44048,9.385039,STD
48261937470000,3.599991,3.38202662103838,9.32556054243792,0.41038887131076,-0.011301007,0.0036651916,0.009162978,168.36862,-80.32366,9.500648,STD
48261942459000,3.60498,3.38921678735892,9.33035396162528,0.403198699984951,-0.003970624,0.0012217305,0.0033597588,168.53513,-80.21394,9.608504,STD
48261947476000,3.609997,3.39644730738901,9.33517428314522,0.395968174921495,-0.010079277,0.00030543262,0.0036651916,168.69846,-80.09976,9.719932,STD
48261952470000,3.614991,3.39597912134809,9.33233718967375,0.398961213722935,-0.004886922,-0.002443461,0.0076358155,168.86137,-79.988396,9.82966,STD
48261957471000,3.619992,3.38894077852454,9.32295253659253,0.410691789995101,-0.0033597588,0.004886922,0.004886922,169.02,-79.87948,9.936377,STD
48261962446000,3.624967,3.38193902776526,9.31361667394925,0.422361379468012,-0.0015271631,0.008552114,0.0036651916,169.16821,-79.76287,10.050615,STD
48261967494000,3.630015,3.3748345377486,9.30414382276869,0.434202201108063,-0.01038471,0.02321288,0.0027488936,169.30978,-79.647896,10.162607,STD
48261972465000,3.634986,3.36684807275527,9.29489096342989,0.444721055669329,-0.007941248,0.008552114,0.00580322,169.45378,-79.53229,10.276315,STD
48261977455000,3.639976,3.35765011635069,9.28569276691368,0.453919074502935,-0.0125227375,0.0070249503,0.0125227375,169.58853,-79.416565,10.389103,STD
48261982563000,3.645084,3.34595859298812,9.28189967003543,0.455737466219004,-0.0018325958,0.0033597588,0.007330383,169.73053,-79.30901,10.495065,STD
48261987487000,3.650008,3.33121916998333,9.28681289654095,0.445911203026672,-0.0009162979,0.0015271631,0.015271631,169.87091,-79.19649,10.6054,STD
48261992462000,3.654983,3.32745154080929,9.28735219592399,0.431934058787043,0.002443461,0.008246681,0.008246681,170.00798,-79.09269,10.707414,STD
48261997464000,3.659985,3.33688412990056,9.28263582750812,0.413068969248794,-0.004276057,0.004581489,0.004886922,170.14716,-78.986465,10.811613,STD
48262002877000,3.665398,3.33981278529231,9.27743229353846,0.404718794707692,0.0009162979,0.0027488936,0.005497787,170.28114,-78.88615,10.910879,STD
48262007466000,3.669987,3.33530530475897,9.27292518953846,0.409226275241026,0.004886922,0.009162978,0.017104227,170.4124,-78.784424,11.011182,STD
48262012463000,3.674984,3.33497236982435,9.27259228241563,0.427506985168739,0.0033597588,0.004581489,0.0076358155,170.545,-78.68754,11.105902,STD
48262017528000,3.680049,3.3397588797908,9.27737839253997,0.461012589920071,0.0027488936,0.0027488936,0.009773844,170.67351,-78.58567,11.205975,STD
48262022461000,3.684982,3.35291916619788,9.2884160788353,0.470349548227196,-0.0027488936,-0.0106901415,0.00061086525,170.8054,-78.490974,11.298568,STD
48262027458000,3.689979,3.37661688317322,9.30737493537685,0.451391310309993,-0.002443461,-0.01740966,0.0027488936,170.93454,-78.39393,11.393883,STD
48262033022000,3.695543,3.38258781722483,9.32330140369174,0.431664332702703,-0.011301007,-0.010079277,0.0070249503,171.05978,-78.29539,11.4910145,STD
48262037472000,3.699993,3.37006822679201,9.33164787720329,0.41705810972973,-0.016187929,-0.015271631,0.004581489,171.18942,-78.19956,11.585891,STD
48262042411000,3.704932,3.35617288810713,9.3409115249951,0.400846843378378,-0.009773844,-0.019242255,-0.00030543262,171.31732,-78.101746,11.683307,STD
48262047462000,3.709983,3.3419624496181,9.35038524133373,0.38426795972973,-0.008246681,-0.015882496,0.004581489,171.44325,-78.00259,11.781587,STD
48262052399000,3.71492,3.33483768179883,9.35724390524658,0.372792532733724,0.00061086525,-0.012217305,0.0012217305,171.5663,-77.90707,11.878188,STD
48262057477000,3.719998,3.3413080104843,9.35940061391254,0.370635756505233,-0.00580322,-0.014660766,-0.004581489,171.68892,-77.811424,11.974193,STD
48262062643000,3.725164,3.3478904677488,9.36159469760067,0.368441604083733,-0.0070249503,-0.011301007,-0.004276057,171.80472,-77.723656,12.063596,STD
48262067436000,3.729957,3.35399765274082,9.36363036216072,0.36640587575306,-0.014049901,-0.010079277,-0.007330383,171.92078,-77.63886,12.149327,STD
48262072411000,3.734932,3.36033674002129,9.36574332506209,0.364292846659571,-0.013133603,-0.0076358155,0.0070249503,172.03601,-77.5516,12.237657,STD
48262077475000,3.739996,3.3691101316272,9.34699042093201,0.379220331243315,-0.00580322,-0.00030543262,0.005497787,172.14848,-77.47059,12.319515,STD
48262082446000,3.744967,3.37820223873186,9.32426015317036,0.397404554946524,-0.01038471,-0.009773844,0.0076358155,172.26381,-77.384995,12.405615,STD
48262087433000,3.749954,3.37028953915385,9.32511570463226,0.412549248032514,-0.0015271631,-0.0076358155,0.005497787,172.37384,-77.30102,12.491019,STD
48262092411000,3.754932,3.35628308227402,9.3344532938008,0.426555714662619,-0.0033597588,-0.008857546,0.004886922,172.48648,-77.21629,12.576513,STD
48262097450000,3.759971,3.35515159430255,9.33411783742633,0.44076359314833,-0.0033597588,-0.00580322,-0.0012217305,172.59297,-77.13047,12.661326,STD
48262102480000,3.765001,3.35988354950884,9.32938578339882,0.454959473590373,-0.01038471,-0.007330383,0.00061086525,172.70013,-77.04328,12.747204,STD
48262107451000,3.769972,3.36454111953331,9.32164631802649,0.46379583915872,-0.007941248,-0.012217305,0.01038471,172.80779,-76.96091,12.829696,STD
48262112510000,3.775031,3.36927137591044,9.31218573941485,0.47010287290689,-0.018936822,-0.013744468,0.008857546,172.91394,-76.881165,12.908479,STD
48262117540000,3.780061,3.37397451676376,9.30277939222833,0.476373752478602,-0.0036651916,-0.009468411,0.010079277,173.021877087985,-76.80081636563,12.9882202772461,STD
48262127558000,3.790079,3.38334152771178,9.28404523991929,0.48886315040095,-0.008857546,-0.021685716,0.0070249503,173.23685,-76.64079,13.147037,STD
48262132571000,3.795092,3.38802877325805,9.2746706835682,0.495112836145084,-0.015271631,-0.020463986,0.007941248,173.3449,-76.56546,13.220424,STD
48262137482000,3.800003,3.38646583230309,9.27531401495513,0.489305121984048,-0.014049901,-0.01985312,0.008552114,173.45511,-76.48912,13.29571,STD
48262142517000,3.805038,3.37925461293619,9.28492895737786,0.472478872345464,-0.012217305,-0.028405234,0.0027488936,173.56659,-76.41492,13.368713,STD
48262147448000,3.809969,3.37219234427717,9.29434529920239,0.456000175827517,-0.0125227375,-0.021380283,0.0009162979,173.67325,-76.33741,13.44458,STD
48262152388000,3.814909,3.36511718565304,9.30377882761715,0.439491402597208,-0.017715093,-0.025045475,-0.0030543262,173.7845,-76.26283,13.517629,STD
48262157382000,3.819903,3.35924501098266,9.31308467052023,0.44424204566474,-0.010079277,-0.017104227,0.00061086525,173.88478,-76.185394,13.595311,STD
48262162381000,3.824902,3.35470844098361,9.322158,0.471461489344262,-0.018936822,-0.017104227,0.0012217305,173.9875,-76.10977,13.670219,STD
48262167378000,3.829899,3.35571076032268,9.32589591980681,0.482674725537629,-0.01160644,-0.018936822,0.006414085,174.08606,-76.03811,13.742987,STD
48262172385000,3.834906,3.36589031392634,9.32080627587305,0.46740530478187,-0.007941248,-0.019547688,0.0067195175,174.18332,-75.96788,13.813651,STD
48262177395000,3.839916,3.36987190078945,9.32056171057664,0.457358503621163,-0.0076358155,-0.016187929,0.00030543262,174.27676,-75.89841,13.885657,STD
48262182417000,3.844938,3.36751364898009,9.32527823882024,0.452641943365205,-0.004276057,-0.016187929,-0.0009162979,174.37025,-75.82864,13.95824,STD
48262187639000,3.85016,3.36506148033245,9.33018260172109,0.447737547177111,-0.004276057,-0.0143553335,0.0076358155,174.45743,-75.75461,14.034434,STD
48262192385000,3.854906,3.36283283375993,9.33463991813769,0.443280200507502,-0.0036651916,-0.01740966,0.008552114,174.54526,-75.68426,14.107079,STD
48262197345000,3.859866,3.36052820315799,9.33459365113946,0.436808710687497,-0.005192355,-0.011301007,0.0033597588,174.62895,-75.614136,14.179164,STD
48262202468000,3.864989,3.35818421833166,9.32756154980651,0.427432766487029,-0.005192355,-0.014660766,0.0076358155,174.71536,-75.5422,14.253273,STD
48262207392000,3.869913,3.35593128425302,9.3208026064211,0.418421025467488,-0.01282817,-0.0076358155,0.0027488936,174.79576,-75.47633,14.320719,STD
48262212466000,3.874987,3.35360971895753,9.31383776508528,0.409134759437198,-0.006414085,-0.00061086525,0.009773844,174.8761,-75.40751,14.391806,STD
48262217427000,3.879948,3.3553880817284,9.30748744835391,0.406899991411523,-0.00030543262,-0.0036651916,0.0067195175,174.96619,-75.34854,14.452805,STD
48262222568000,3.885089,3.37058386222222,9.30242208240741,0.427161042648148,-0.008552114,-0.002443461,0.0125227375,175.05177,-75.28547,14.517384,STD
48262227451000,3.889972,3.37819414722434,9.30028840164421,0.434486215535215,-0.011301007,-0.009162978,0.009773844,175.13918,-75.22741,14.576713,STD
48262232557000,3.895078,3.36990545482668,9.30443283439275,0.413764475886092,-0.0033597588,-0.0061086523,0.003970624,175.22241,-75.16941,14.635942,STD
48262237965000,3.900486,3.36163900009153,9.30811688283753,0.39336788824714,-0.006414085,-0.004886922,0.009468411,175.30855,-75.10633,14.698854,STD
48262242465000,3.904986,3.36558363624714,9.29628260366133,0.409146605867277,-0.019242255,-0.017104227,0.011911872,175.39697,-75.04637,14.75867,STD
48262247477000,3.909998,3.36997708433867,9.28310184649886,0.426720590914417,-0.0125227375,-0.013439035,0.008552114,175.47653,-74.98866,14.818163,STD
48262252471000,3.914992,3.3913674568972,9.26637076616823,0.380127622373832,-0.0143553335,-0.010079277,0.01038471,175.55882,-74.92854,14.879234,STD
48262257992000,3.920513,3.42101615566355,9.24660507018692,0.306005823859813,-0.009468411,-0.011911872,0.0106901415,175.64076,-74.871124,14.938184,STD
48262262452000,3.924973,3.41650331465904,9.24761486790527,0.290302577596978,-0.0015271631,0.0125227375,0.012217305,175.71346,-74.81171,14.998459,STD
48262267501000,3.930022,3.39675923005308,9.25748711637403,0.295238609056758,-0.01282817,-0.0036651916,0.016187929,175.79785,-74.75161,15.059262,STD
48262272465000,3.934986,3.37812356159601,9.26982142643391,0.314980137452523,-0.022907447,-0.015882496,0.011911872,175.8826,-74.69259,15.120681,STD
48262277517000,3.940038,3.35956155610973,9.28374277306733,0.342823237747938,-0.016493361,-0.01282817,0.0015271631,175.96675,-74.63512,15.180691,STD
48262282500000,3.945021,3.35282138923379,9.29231877554306,0.356219638467586,-0.007330383,-0.01282817,0.0021380284,176.04984,-74.578285,15.24001,STD
48262287510000,3.950031,3.35444732599885,9.2971967725948,0.359471511997696,-0.01160644,-0.013133603,0.009773844,176.13123,-74.52267,15.297683,STD
48262292463000,3.954984,3.35605476408214,9.3020192714765,0.362686388164289,-0.009162978,-0.0106901415,-0.00061086525,176.20827,-74.476654,15.345737,STD
48262297453000,3.959974,3.35767421008167,9.30687779548612,0.36592528016334,-0.005192355,-0.0015271631,0.004276057,176.28226,-74.42459,15.399645,STD
48262302471000,3.964992,3.35930274315294,9.31176358175472,0.369182346305873,-0.013744468,-0.0061086523,0.0027488936,176.35828,-74.37645,15.450614,STD
48262307465000,3.969986,3.36092348730557,9.31662600037277,0.372423834611136,-0.015271631,-0.0015271631,0.008552114,176.42787,-74.32589,15.50415,STD
48262312475000,3.974996,3.37101096483397,9.31664143672985,0.375087406909487,-0.013133603,-0.0030543262,0.008857546,176.50075,-74.27854,15.553324,STD
48262317585000,3.980106,3.38554177974959,9.31421945301133,0.377509213610135,-0.011301007,0.00030543262,0.0067195175,176.57,-74.230736,15.602714,STD
48262322467000,3.984988,3.39942425302123,9.31190553431979,0.379822963182066,-0.0070249503,-0.00030543262,0.003970624,176.63995,-74.18349,15.651587,STD
48262328090000,3.990611,3.41541383663582,9.30924040429059,0.382487898422329,-0.01160644,-0.00030543262,0.0027488936,176.678091243265,-74.1570385596687,15.6789793474356,STD
48262332489000,3.99501,3.42474799592504,9.30282788236425,0.385986264048054,-0.0009162979,-0.00030543262,0.005497787,176.70793,-74.136345,15.700409,STD
48262337503000,4.000024,3.4339778037482,9.2935978817876,0.390601177597309,-0.0009162979,-0.00580322,0.00030543262,176.742345206314,-74.1132737870916,15.7243779137776,STD
48262342498000,4.005019,3.43547118316574,9.28820076440869,0.393950288417129,0.0036651916,-0.004581489,0.008246681,176.77663,-74.09029,15.748256,STD
48262347461000,4.009982,3.43080844137931,9.28586934482759,0.396281659310345,-0.007330383,-0.006414085,-0.00580322,176.84671,-74.04348,15.796295,STD
48262352464000,4.014985,3.42610811956639,9.28351913484083,0.398631820216805,-0.004581489,-0.0009162979,-0.002443461,176.92024,-73.9927,15.848554,STD
48262357464000,4.019985,3.42141061625546,9.2811703341345,0.400980571872272,-0.009773844,-0.005192355,-0.0036651916,176.99658,-73.94692,15.895114,STD
