timestamp,rel_time,acc_x,acc_y,acc_z,gyro_x,gyro_y,gyro_z,azimuth,pitch,roll,label
21104728521000,0,2.27987302278483,9.58579095863812,-1.05691864369028,-0.00580322,0.01038471,0.002443461,53.5306,-115.558334,13.81163,STD
21104734222000,0.005701,2.2796071303038,9.58605685944851,-1.0510689452492,-0.020463986,0.018020526,0.01282817,53.646053,-115.41128,13.7365,STD
21104738518000,0.009997,2.27940676649069,9.58625722953822,-1.04666089324028,-0.016798794,0.018020526,0.004886922,53.76152,-115.270905,13.655768,STD
21104743532000,0.015011,2.27936259792619,9.58635646668712,-1.04447772052115,-0.012217305,0.020158553,0.005497787,53.87677,-115.13183,13.582108,STD
21104748536000,0.020015,2.27954261535765,9.58629645941462,-1.04579785357333,-0.01740966,0.017715093,0.0076358155,53.99296,-114.991844,13.507309,STD
21104753500000,0.024979,2.27972119380085,9.58623693181656,-1.04710743400319,-0.015271631,0.02076942,0.007330383,54.11058,-114.841515,13.383919,STD
21104758504000,0.029983,2.27990121123231,9.58617692454406,-1.04842756705538,-0.024740042,0.013133603,0.004581489,54.232567,-114.688934,13.261484,STD
21104763488000,0.034967,2.28008050916964,9.58611715710878,-1.0497424237964,-0.01740966,0.021685716,0.006414085,54.35041,-114.543335,13.144509,STD
21104768504000,0.039983,2.28026095829757,9.58605700593395,-1.05106572263528,-0.019547688,0.01985312,0.013133603,54.474102,-114.3953,13.028587,STD
21104773528000,0.045007,2.28044169522317,9.58599675882423,-1.05239113199862,-0.024129177,0.01740966,0.0030543262,54.59467,-114.24782,12.911713,STD
21104778530000,0.050009,2.28062164070521,9.58593677553545,-1.05371073741969,-0.016187929,0.013439035,0.0061086523,54.718777,-114.107574,12.801956,STD
21104783521000,0.055,2.28080119046549,9.58587692415715,-1.05502744086962,-0.023518313,0.014966198,0.01160644,54.84177,-113.96305,12.692642,STD
21104788501000,0.05998,2.28098034450399,9.58581720468931,-1.05634124234841,-0.019242255,0.022296581,0.0036651916,54.963627,-113.82321,12.58285,STD
21104793533000,0.065012,2.28116136922723,9.5857568616447,-1.05766876223622,-0.02565634,0.017104227,0.010995574,55.091022,-113.6838,12.479554,STD
21104798517000,0.069996,2.28134066716456,9.58569709420942,-1.05898361897724,-0.02565634,0.011911872,0.009162978,55.21503,-113.54589,12.37444,STD
21104803501000,0.07498,2.28151996510189,9.58563732677414,-1.06029847571827,-0.01863139,0.015271631,0.011301007,55.33958,-113.41141,12.274638,STD
21104809229000,0.080708,2.28172602822088,9.58556863739427,-1.06180961123443,-0.02687807,0.017715093,0.010079277,55.46555,-113.27393,12.174757,STD
21104813520000,0.084999,2.28188039568659,9.58551718031867,-1.06294164379377,-0.018936822,0.015271631,0.007330383,55.592194,-113.1436,12.076762,STD
21104818514000,0.089993,2.28206005337098,9.58545729296478,-1.06425913869037,-0.02443461,0.0070249503,0.0027488936,55.719807,-113.00898,11.97935,STD
21104823540000,0.095019,2.28224086224599,9.58539702187134,-1.06558507568483,-0.017715093,0.008552114,0.006414085,55.846,-112.88158,11.886036,STD
21104828535000,0.100014,2.28242055590509,9.58533712252559,-1.06690283439699,-0.023518313,0.012217305,0.0106901415,55.97371,-112.75048,11.79276,STD
21104833506000,0.104985,2.28259938617123,9.58527751098451,-1.06821426153576,-0.02107485,0.014660766,0.007941248,56.101116,-112.62393,11.700312,STD
21104838513000,0.109992,2.28277951152681,9.58521746773642,-1.06953518603462,-0.016493361,0.0143553335,0.00580322,56.22886,-112.49854,11.610933,STD
21104843530000,0.115009,2.28295999662946,9.58515730456973,-1.07085874868906,-0.013133603,0.014966198,0.008246681,56.355907,-112.375015,11.523977,STD
21104848516000,0.119995,2.2831393665162,9.58509751315073,-1.0721741330612,-0.01863139,0.016187929,0.007941248,56.482445,-112.25096,11.437297,STD
21104853495000,0.124974,2.28331848458,9.58503780567475,-1.07348767072443,-0.014660766,0.019547688,0.0030543262,56.608032,-112.13097,11.351871,STD
21104858487000,0.129966,2.28349807031498,9.58497794230459,-1.07480463798992,-0.00030543262,0.019242255,0.0009162979,56.73454,-112.013725,11.268408,STD
21104863531000,0.13501,2.2836795267347,9.58491745535765,-1.07613532366442,-0.009468411,0.020463986,0.013439035,56.860462,-111.89441,11.189612,STD
21104868496000,0.139975,2.28385814115261,9.58485791576773,-1.07744516790985,-0.01863139,0.014966198,0.009162978,56.98649,-111.77692,11.106587,STD
21104873533000,0.145012,2.28403934574938,9.58479751276381,-1.07877400687544,-0.014049901,0.020158553,0.0061086523,57.110287,-111.66374,11.029834,STD
21104879226000,0.150705,2.28424414975364,9.58472924309908,-1.08027590884708,-0.015271631,0.016798794,0.008552114,57.23785,-111.54826,10.953565,STD
21104883524000,0.155003,2.28439876904229,9.58467770208045,-1.08140978811532,-0.017715093,0.020463986,0.008552114,57.361282,-111.43396,10.878374,STD
21104888518000,0.159997,2.28457842672669,9.58461781472656,-1.08272728301193,-0.015882496,0.022907447,0.008246681,57.48589,-111.32188,10.804738,STD
21104893534000,0.165013,2.28475887585462,9.58455766355173,-1.08405058185081,-0.02076942,0.008552114,0.0106901415,57.6141,-111.20909,10.732029,STD
21104898516000,0.169995,2.28493810184254,9.58449792010017,-1.08536491096071,-0.015577064,0.0061086523,0.003970624,57.737167,-111.098976,10.6593895,STD
21104903501000,0.17498,2.28511743575458,9.58443814067303,-1.0866800315173,-0.01160644,0.0033597588,0.003970624,57.864742,-110.98981,10.589231,STD
21104908623000,0.180102,2.28530169820141,9.58437671836093,-1.08803129480532,-0.017104227,0.00580322,0.0076358155,57.990868,-110.880226,10.519841,STD
21104913598000,0.185077,2.28548067236638,9.5843170588524,-1.08934377720632,-0.016798794,0.00580322,0.004886922,58.117397,-110.77315,10.449573,STD
21104918509000,0.189988,2.28565734415013,9.58425816682298,-1.09063937541161,-0.017104227,0.008857546,0.009162978,58.242924,-110.66718,10.383973,STD
21104923622000,0.195101,2.2858412828246,9.58419685243763,-1.09198826435962,-0.03268129,0.0070249503,0.0070249503,58.36851,-110.55724,10.316709,STD
21104928557000,0.200036,2.28601881800132,9.58413767260354,-1.0932901941383,-0.027183503,0.0030543262,0.0070249503,58.493954,-110.4544,10.2524805,STD
21104934251000,0.20573,2.28622365798028,9.58406939094694,-1.0947923599255,-0.025045475,0.01038471,0.004886922,58.615913,-110.34735,10.189107,STD
21104938536000,0.210015,2.28637780959775,9.58401800582251,-1.09592280959149,-0.014660766,0.008857546,0.010079277,58.741592,-110.24584,10.127792,STD
21104943531000,0.21501,2.28655750325685,9.58395810647676,-1.09724056830365,-0.015882496,0.015271631,0.011301007,58.861996,-110.14216,10.0673,STD
21104948751000,0.22023,2.28674529122492,9.58389550896228,-1.09861768551636,-0.020158553,0.004581489,0.013439035,58.98755,-110.04216,10.007966,STD
21104953497000,0.224976,2.28691602718209,9.58383859558992,-1.09986975415458,-0.02107485,0.004276057,0.004276057,59.099007,-109.939095,9.914818,STD
21104958486000,0.229965,2.28709550499296,9.58377876819534,-1.10118592997339,-0.020463986,0.00030543262,0.008552114,59.215675,-109.83884,9.826517,STD
21104963514000,0.234993,2.28727638581737,9.58371847311817,-1.10251239459897,-0.017715093,0.004581489,0.0027488936,59.32832,-109.73735,9.735506,STD
21104968498000,0.239977,2.2874556837547,9.58365870568289,-1.10382725133999,-0.01282817,0.0070249503,0.01160644,59.44403,-109.64047,9.650999,STD
21104973528000,0.245007,2.28763663652853,9.58359838662201,-1.10515424359668,-0.022602014,-0.0012217305,0.013439035,59.560234,-109.53997,9.564279,STD
21104978515000,0.249994,2.28781604238998,9.58353858321114,-1.10646989178438,-0.026572637,-0.0033597588,0.013133603,59.67442,-109.44418,9.481851,STD
21104983513000,0.254992,2.2879958439732,9.58347864788981,-1.10778844194321,-0.014660766,-0.0033597588,0.01038471,59.7327074729567,-109.39693328125,9.44096691947115,STD
21104988499000,0.259978,2.28817521385995,9.58341885647081,-1.10910382631535,-0.019242255,-0.006414085,0.01038471,59.790855,-109.3498,9.400181,STD
21104993532000,0.265011,2.2883562745579,9.58335850143434,-1.11043161001872,-0.011911872,-0.0033597588,0.01282817,59.90634,-109.256226,9.321855,STD
21104998538000,0.270017,2.28853636393877,9.58329847017812,-1.11175227070202,-0.015882496,0.0021380284,0.005192355,60.02062,-109.16091,9.24163,STD
21105003521000,0.275,2.28871562590139,9.5832387147347,-1.11306686362748,-0.020463986,0.005192355,0.004581489,60.1352,-109.06958,9.16567,STD
21105008543000,0.280022,2.28889629087757,9.5831784916087,-1.11439174535971,-0.020158553,0.00061086525,0.00030543262,60.249126,-108.97793,9.088085,STD
21105013553000,0.285032,2.28907652415727,9.58311841238504,-1.11571346130524,-0.02443461,-0.006414085,0.0015271631,60.363026,-108.88572,9.0135145,STD
21105018711000,0.29019,2.28926208169354,9.58305655836594,-1.11707422195336,-0.01038471,-0.0018325958,0.004581489,60.474445,-108.79887,8.940467,STD
21105023495000,0.294974,2.28943418468956,9.58299918930287,-1.11833631558278,-0.013744468,-0.0027488936,0.0018325958,60.588627,-108.70696,8.866727,STD
21105028529000,0.300008,2.28961528136222,9.58293882227454,-1.11966436310171,-0.018936822,0.008552114,0.00580322,60.69858,-108.620384,8.798581,STD
21105033520000,0.304999,2.28979483112249,9.58287897089623,-1.12098106655164,-0.018325957,0.0009162979,0.006414085,60.813152,-108.53451,8.728663,STD
21105038504000,0.309983,2.28997412905982,9.58281920346095,-1.12229592329266,-0.01160644,0.00061086525,0.0076358155,60.922585,-108.45044,8.662969,STD
21105043497000,0.314976,2.29015375076951,9.58275932809892,-1.1236131543737,-0.013133603,0.0021380284,0.006414085,61.033066,-108.36511,8.597717,STD
21105048521000,0.32,2.2903344876951,9.5826990809892,-1.12493856373705,-0.025045475,0.0021380284,0.006414085,61.14384,-108.280045,8.53438,STD
21105053500000,0.324979,2.2905136057589,9.58263937351323,-1.12625210140028,-0.01985312,0.0009162979,0.0106901415,61.254345,-108.20016,8.473277,STD
21105058526000,0.330005,2.2906944146339,9.58257910241979,-1.12757803839474,-0.02076942,0.0009162979,0.0143553335,61.3083530417457,-108.157720341556,8.44180639958055,STD
21105063513000,0.334992,2.29087382049535,9.58251929900892,-1.12889368658244,-0.018325957,0.005192355,0.0027488936,61.361942,-108.11561,8.41058,STD
21105068533000,0.340012,2.29105441352212,9.58245909986665,-1.13021804068355,-0.01985312,0.008246681,0.010995574,61.471394,-108.0352,8.354595,STD
21105073623000,0.345102,2.29123752477834,9.5823980612941,-1.13156086187372,-0.016187929,0.002443461,0.008552114,61.58018,-107.954834,8.294438,STD
21105078531000,0.35001,2.29141408863797,9.58233920524026,-1.13285566863234,-0.024129177,0.0018325958,0.012217305,61.68738,-107.87386,8.240062,STD
21105083515000,0.354994,2.2915933865753,9.58227943780498,-1.13417052537336,-0.014966198,0.003970624,0.0061086523,61.79395,-107.797356,8.183271,STD
21105088494000,0.359973,2.2917725046391,9.582219730329,-1.13548406303659,-0.015577064,0.0070249503,0.011301007,61.901154,-107.719086,8.131793,STD
21105093535000,0.365014,2.2919538531347,9.58215927935765,-1.13681395726442,-0.025350908,0.0030543262,0.006414085,62.00793,-107.639435,8.076553,STD
21105098518000,0.369997,2.29213311509732,9.58209952391423,-1.13812855018989,-0.01863139,0.0021380284,0.004886922,62.11317,-107.56576,8.025298,STD
21105103494000,0.374973,2.292312125237,9.58203985241384,-1.13944129640645,-0.022296581,0.00061086525,0.009468411,62.21929,-107.48785,7.9751105,STD
21105108492000,0.379971,2.29249192682022,9.5819799170925,-1.14075984656528,-0.025350908,0.00061086525,0.01282817,62.324482,-107.41225,7.9253073,STD
21105113522000,0.385001,2.29267287959405,9.58191959803162,-1.14208683882198,-0.0290161,-0.0070249503,0.0027488936,62.431015,-107.33514,7.8734,STD
21105118535000,0.390014,2.29285322079787,9.58185948283237,-1.14340934621418,-0.014660766,-0.0036651916,0.007941248,62.535313,-107.26511,7.828543,STD
21105123628000,0.395107,2.29303643997821,9.58179840828424,-1.14475295885103,-0.018936822,-0.003970624,0.005497787,62.64082,-107.18776,7.778934,STD
21105128535000,0.400014,2.29321296786314,9.58173956422226,-1.14604750179408,-0.019547688,-0.008246681,0.006414085,62.746517,-107.11689,7.7327056,STD
21105134470000,0.405949,2.29342647774638,9.58166839252716,-1.14761324713076,-0.017104227,-0.004276057,0.008857546,62.849277,-107.04626,7.687837,STD
21105138508000,0.409987,2.29357174361133,9.58161996939239,-1.14867853435392,-0.022602014,-0.004581489,0.011301007,62.953865,-106.97422,7.643557,STD
21105143540000,0.415019,2.29375276833458,9.58155962634779,-1.15000605424173,-0.028405234,-0.0012217305,0.019242255,63.056225,-106.90444,7.6029983,STD
21105148517000,0.419996,2.29393181444896,9.58149994285553,-1.15131906427385,-0.030848695,-0.006414085,0.01160644,63.159496,-106.83306,7.5590577,STD
21105153491000,0.42497,2.29411075263922,9.58144029533887,-1.15263128285929,-0.010079277,0.004276057,0.018325957,63.24568,-106.76544,7.511257,STD
21105158504000,0.429983,2.29429109384304,9.58138018013961,-1.15395379025149,-0.0290161,0.0021380284,0.01038471,63.335075,-106.685165,7.4569154,STD
21105163522000,0.435001,2.29447161492039,9.58132000498106,-1.15527761672149,-0.017104227,0.00061086525,0.0061086523,63.42196,-106.6203,7.4071846,STD
21105168534000,0.440013,2.29465192014951,9.58125990177367,-1.15659986029814,-0.022296581,-0.007330383,0.009468411,63.511055,-106.54716,7.3576922,STD
21105173619000,0.445098,2.2948348515322,9.58119892316043,-1.15794136241052,-0.022296581,-0.01038471,0.0061086523,63.598267,-106.47788,7.306378,STD
21105178548000,0.450027,2.29501217086067,9.58113981527751,-1.15924170929585,-0.016187929,-0.00061086525,0.008857546,63.684643,-106.41096,7.2590003,STD
21105183532000,0.455011,2.295191468798,9.58108004784223,-1.16055656603688,-0.029932396,-0.003970624,0.013133603,63.775234,-106.339584,7.210898,STD
21105188525000,0.460004,2.29537109050769,9.5810201724802,-1.16187379711792,-0.028099801,-0.010079277,0.0106901415,63.86339,-106.2741,7.1631365,STD
21105193527000,0.465006,2.29555103598973,9.58096018919142,-1.16319340253899,-0.015271631,-0.009468411,0.00580322,63.95058,-106.20903,7.1170225,STD
21105198518000,0.469997,2.29573058575001,9.58090033781312,-1.16451010598892,-0.014966198,-0.0076358155,0.00580322,64.03913,-106.142365,7.072127,STD
21105204277000,0.475756,2.2959377640849,9.58083127668555,-1.16602941978738,-0.016493361,-0.0033597588,0.0106901415,64.12662,-106.07931,7.0283923,STD
21105208515000,0.479994,2.29609022489116,9.58078045517859,-1.16714747012215,-0.015882496,-0.007941248,0.0070249503,64.21524,-106.01656,6.9826937,STD
21105213520000,0.484999,2.29627027829732,9.58072043591423,-1.16846786698989,-0.019242255,-0.004886922,0.013133603,64.301384,-105.955,6.942768,STD
21105218535000,0.490014,2.29645069145056,9.58066029673126,-1.16979090201321,-0.03023783,-0.015577064,0.009773844,64.39147,-105.89071,6.898771,STD
21105223587000,0.495066,2.29663243566793,9.58059971384943,-1.17112369821218,-0.016187929,-0.0067195175,0.007330383,64.475525,-105.8336,6.859151,STD
21105228610000,0.500089,2.29681313661881,9.58053947873157,-1.17244884375996,-0.019242255,-0.003970624,0.01038471,64.564186,-105.77029,6.8197656,STD
21105233516000,0.504995,2.29698962852903,9.58048064666145,-1.17374312288746,-0.010995574,-0.0125227375,0.010995574,64.65295,-105.713585,6.779695,STD
21105238508000,0.509987,2.29716921426402,9.58042078329128,-1.17506009015295,-0.011911872,-0.006414085,0.014660766,64.73702,-105.65519,6.7433443,STD
21105243526000,0.515005,2.29734973534137,9.58036060813273,-1.17638391662295,-0.02443461,0.0015271631,0.013439035,64.822395,-105.59601,6.706117,STD
21105248518000,0.519997,2.29752932107635,9.58030074476256,-1.17770088388843,-0.01863139,-0.007330383,0.01160644,64.91069,-105.5423,6.6697354,STD
21105253507000,0.524986,2.29770879888721,9.58024091736798,-1.17901705970725,-0.02076942,-0.0009162979,0.014049901,64.992455,-105.48436,6.6365495,STD
21105258561000,0.53004,2.297890615054,9.58018031050243,-1.18035038353733,-0.021685716,-0.004886922,0.009162978,65.0787,-105.427734,6.6002164,STD
21105263520000,0.534999,2.29806901362367,9.58012084286367,-1.1816586448894,-0.017104227,-0.0076358155,0.01038471,65.16312,-105.373665,6.5674863,STD
21105268527000,0.540006,2.29824913897925,9.58006079961559,-1.18297956938826,-0.018020526,-0.0030543262,0.010995574,65.24594,-105.317894,6.5341916,STD
21105273773000,0.545252,2.29843786228969,9.57999789031273,-1.18436354580548,-0.03176499,-0.009773844,0.011911872,65.3325,-105.26076,6.5010595,STD
21105278533000,0.550012,2.29860910189275,9.57994080905431,-1.18561930786151,-0.03023783,-0.01038471,0.009162978,65.41556,-105.20754,6.4684997,STD
21105283511000,0.55499,2.29878818398184,9.5798811135702,-1.18693258170919,-0.023823744,-0.01038471,0.01160644,65.50044,-105.153435,6.4378996,STD
21105288509000,0.559988,2.29896798556506,9.57982117824887,-1.18825113186802,-0.022296581,-0.003970624,0.007330383,65.58275,-105.09791,6.405736,STD
21105293533000,0.565012,2.29914872249066,9.57976093113914,-1.18957654123137,-0.024740042,0.0070249503,0.008552114,65.66397,-105.04456,6.37674,STD
21105298521000,0.57,2.29932816432681,9.57970111573642,-1.19089245323462,-0.022907447,-0.002443461,0.002443461,65.74804,-104.991875,6.344226,STD
21105303503000,0.574982,2.29950739031473,9.57964137228486,-1.19220678234453,-0.023518313,0.0033597588,0.0125227375,65.825645,-104.94064,6.3189507,STD
21105308523000,0.580002,2.29968798334149,9.57958117314259,-1.19353113644564,-0.02107485,-0.00030543262,0.015577064,65.907364,-104.88965,6.2894225,STD
21105313518000,0.584997,2.29986767700059,9.57952127379684,-1.1948488951578,-0.02565634,0.004886922,0.010995574,65.98482,-104.83753,6.2621264,STD
21105318536000,0.590015,2.30004819807795,9.57946109863829,-1.1961727216278,-0.020463986,-0.0015271631,0.00580322,66.066376,-104.78939,6.2350388,STD
21105323559000,0.595038,2.30022889902883,9.57940086352043,-1.19749786717558,-0.023518313,-0.00061086525,0.008857546,66.144356,-104.738914,6.2103705,STD
21105328530000,0.600009,2.30040772929498,9.57934125197934,-1.19880929431435,-0.02321288,-0.0030543262,0.011301007,66.22433,-104.69047,6.1840396,STD
21105333463000,0.604942,2.30058519252227,9.57928209612897,-1.20011069646192,-0.021380283,0.0036651916,0.008552114,66.30101,-104.641884,6.158331,STD
21105338514000,0.609993,2.30076690076494,9.579221525239,-1.20144322884533,-0.01985312,0.0015271631,0.0106901415,66.380974,-104.59467,6.13446,STD
21105343572000,0.615051,2.30094886083055,9.57916087040601,-1.20277760793764,-0.021991149,0.005497787,0.020158553,66.457306,-104.54806,6.1132402,STD
21105348521000,0.62,2.30112689965315,9.57910152268587,-1.20408323113414,-0.034208454,0.00030543262,0.014966198,66.53559,-104.49817,6.088301,STD
21105353497000,0.624976,2.30130590979283,9.57904185118548,-1.2053959773507,-0.027794369,0.006414085,0.01863139,66.6041,-104.45322,6.0632877,STD
21105358522000,0.630001,2.30148668269313,9.5789815920839,-1.2067216505296,-0.02565634,0.007941248,0.019242255,66.67473,-104.40367,6.0358505,STD
21105363516000,0.634995,2.30166634037752,9.57892170473001,-1.2080391454262,-0.022907447,0.0070249503,0.009162978,66.7438,-104.35573,6.007171,STD
21105368551000,0.64003,2.30184747302489,9.57886132570981,-1.20936745676068,-0.03268129,0.005497787,0.015271631,66.813614,-104.307724,5.983691,STD
21105373531000,0.64501,2.30202662706339,9.57880160624198,-1.21068125823947,-0.029932396,0.003970624,0.011301007,66.88232,-104.261856,5.9550643,STD
21105378532000,0.650011,2.30220653657073,9.57874163494506,-1.21200059984498,-0.03573562,0.013133603,0.016493361,66.949356,-104.2137,5.931763,STD
21105383517000,0.654996,2.30238587048277,9.57868185551792,-1.21331572040157,-0.027183503,0.009468411,0.0106901415,67.01938,-104.1688,5.9038644,STD
21105388517000,0.659996,2.3025657440154,9.57862189621287,-1.21463479819152,-0.024740042,0.0070249503,0.007941248,67.08695,-104.12241,5.8793936,STD
21105393544000,0.665023,2.30274658886511,9.57856161312756,-1.21596099900153,-0.030848695,0.005192355,0.01038471,67.155266,-104.07654,5.855048,STD
21105398507000,0.669986,2.3029251313336,9.57850209752137,-1.21727031561584,-0.02443461,0.012217305,0.0143553335,67.22162,-104.03496,5.831266,STD
21105403496000,0.674975,2.30310460914447,9.57844227012678,-1.21858649143465,-0.021991149,0.009162978,0.009162978,67.29079,-103.99052,5.80534,STD
21105408494000,0.679973,2.30328441072769,9.57838233480545,-1.21990504159349,-0.028710667,0.00580322,0.013439035,67.35884,-103.947495,5.784033,STD
21105413564000,0.685043,2.30346680248978,9.57832153607012,-1.2212425864725,-0.025350908,0.014049901,0.0070249503,67.423386,-103.906364,5.7592463,STD
21105418558000,0.690037,2.30364646017417,9.57826164871623,-1.2225600813691,-0.026267206,0.0061086523,0.01038471,67.494255,-103.86456,5.73763,STD
21105423529000,0.695008,2.30382529044032,9.57820203717515,-1.22387150850787,-0.028405234,0.010995574,0.009468411,67.5584,-103.82258,5.7147627,STD
21105428530000,0.700009,2.30400519994766,9.57814206587823,-1.22519085011338,-0.02443461,0.0067195175,0.009468411,67.62759,-103.78299,5.6924405,STD
21105433520000,0.704999,2.30418471373323,9.57808222649178,-1.22650728974775,-0.023518313,0.005497787,0.01160644,67.694496,-103.742676,5.6713815,STD
21105438506000,0.709985,2.30436408361997,9.57802243507278,-1.22782267411989,-0.02076942,0.007330383,0.015271631,67.76176,-103.704544,5.6510715,STD
21105443497000,0.714976,2.30454363338025,9.57796258369448,-1.22913937756982,-0.021685716,0.009773844,0.0143553335,67.82891,-103.66584,5.6304107,STD
21105448525000,0.720004,2.30472451420466,9.57790228861731,-1.2304658421954,-0.01985312,0.0143553335,0.007330383,67.89468,-103.62868,5.6096725,STD
21105453510000,0.724989,2.3049038481167,9.57784250919017,-1.23178096275198,-0.018936822,0.009468411,0.0030543262,67.96241,-103.59166,5.5893726,STD
21105458483000,0.729962,2.30508275033226,9.57778287366536,-1.23309291752187,-0.019547688,0.009773844,0.006414085,68.027275,-103.55519,5.5702415,STD
21105463505000,0.734984,2.30526341530844,9.57772265053936,-1.23441779925409,-0.026572637,0.012217305,-0.0012217305,68.09188,-103.51589,5.5471005,STD
21105468544000,0.740023,2.30544469185463,9.57766222355173,-1.23574716585081,-0.01160644,0.01160644,0.010995574,68.15851,-103.48529,5.530711,STD
21105473503000,0.744982,2.30562309042429,9.57760275591298,-1.23705542720288,-0.015882496,0.014660766,0.010079277,68.22202,-103.44585,5.509336,STD
21105478501000,0.74998,2.30580289200751,9.57754282059164,-1.23837397736172,-0.01985312,0.016493361,0.008552114,68.28658,-103.41206,5.4914703,STD
21105483501000,0.75498,2.30598276554015,9.57748286128659,-1.23969305515167,-0.025961773,0.011301007,0.01038471,68.35225,-103.37724,5.474411,STD
21105488496000,0.759975,2.30616245919925,9.57742296194084,-1.24101081386383,-0.029932396,0.009162978,0.01038471,68.41615,-103.3419,5.4570746,STD
21105493508000,0.764987,2.30634276442836,9.57736285873345,-1.24233305744048,-0.025350908,0.009773844,0.013744468,68.4809,-103.30821,5.4413877,STD
21105498495000,0.769974,2.30652217028981,9.57730305532259,-1.24364870562817,-0.019547688,0.016493361,0.015882496,68.54429,-103.27404,5.4259453,STD
21105503419000,0.774898,2.30669930974475,9.57724400739897,-1.24494773343572,-0.028710667,0.0021380284,0.004581489,68.61263,-103.23632,5.406769,STD
21105508465000,0.779944,2.30688083811388,9.57718349646831,-1.24627894674134,-0.02321288,0.0027488936,0.007330383,68.67566,-103.20616,5.3937154,STD
21105513423000,0.784902,2.30705920070884,9.57712404082141,-1.24758694427785,-0.032375857,0.008246681,0.013133603,68.74065,-103.1692,5.3781548,STD
21105518422000,0.789901,2.30723903826677,9.57706409350822,-1.24890575825225,-0.025350908,0.009162978,0.01160644,68.80626,-103.137665,5.3614216,STD
21105523479000,0.794958,2.30742096235768,9.57700345066708,-1.250239873529,-0.022296581,0.009468411,0.010079277,68.87063,-103.10375,5.3469048,STD
21105528688000,0.800167,2.30760835460398,9.57694098506308,-1.25161408877057,-0.03145956,0.009162978,0.014049901,68.93496,-103.06927,5.3338175,STD
21105533823000,0.805302,2.30779308472199,9.57687940685679,-1.25296878166085,-0.03390302,0.012217305,0.01038471,68.99749,-103.03656,5.318681,STD
21105538470000,0.809949,2.30796025918322,9.57682368067867,-1.25419473255884,-0.020158553,0.016187929,0.01038471,69.06009,-103.006935,5.305994,STD
21105543436000,0.814915,2.30732851434083,9.57731833212524,-1.25439125358521,-0.024740042,0.009468411,0.011301007,69.12446,-102.97192,5.2923784,STD
21105548438000,0.819917,2.30637458654582,9.57803376801067,-1.25415277163646,-0.024740042,0.0030543262,0.014049901,69.18753,-102.942184,5.2798014,STD
21105553445000,0.824924,2.30541970520444,9.57874991904594,-1.25391405130111,-0.022907447,0.002443461,0.010995574,69.235916,-102.93159,5.267429,STD
21105558446000,0.829925,2.30446596811871,9.57946521190141,-1.25367561702968,-0.01985312,0.0076358155,0.01038471,69.28477,-102.92194,5.2566624,STD
21105563443000,0.834922,2.30351299387007,9.58017993263702,-1.25343737346752,-0.022296581,-0.0009162979,0.009773844,69.33746,-102.91098,5.2443895,STD
21105568454000,0.839933,2.30255734969159,9.58089665579214,-1.2531984624229,-0.023518313,0.0012217305,0.010995574,69.385735,-102.90128,5.233585,STD
21105573515000,0.844994,2.30159217004934,9.58162053044552,-1.25295716751233,-0.019547688,-0.00061086525,0.014660766,69.4376,-102.89251,5.222769,STD
21105578434000,0.849913,2.30065407112418,9.58232409484385,-1.25272264278104,-0.0290161,0.01160644,0.010995574,69.48451,-102.87919,5.211378,STD
21105583451000,0.85493,2.29969728269004,9.58304167617877,-1.25248344567251,-0.03970624,0.008246681,0.012217305,69.53677,-102.867546,5.201533,STD
21105588465000,0.859944,2.29874106638373,9.58375882842378,-1.25224439159593,-0.02565634,0.00061086525,0.0018325958,69.58588,-102.85817,5.1880455,STD
21105593430000,0.864909,2.2977941948319,9.58446897220051,-1.25200767370798,-0.02076942,-0.0015271631,0.008552114,69.63542,-102.84581,5.1800046,STD
21105598436000,0.869915,2.29683950419979,9.58518498020581,-1.25176900104995,-0.02687807,0.0027488936,0.010079277,69.68434,-102.832466,5.1677666,STD
21105603475000,0.874954,2.2958785201616,9.58590570819995,-1.2515287550404,-0.032070424,0.0027488936,0.0125227375,69.7080611363501,-102.829040181601,5.16305504729985,STD
21105608491000,0.87997,2.29492192243674,9.5866231465049,-1.25128960560918,-0.016493361,0.016187929,0.01282817,69.731674,-102.82563,5.158365,STD
21105613488000,0.884967,2.2939689481881,9.58733786724051,-1.25105136204703,-0.020463986,0.016493361,0.013133603,69.781395,-102.813324,5.148372,STD
21105618484000,0.889963,2.29301616464875,9.58805244494616,-1.25081316616219,-0.029321533,0.0036651916,0.012217305,69.83105,-102.802605,5.1389704,STD
21105623528000,0.895007,2.29205422706418,9.58877388809013,-1.25057268176604,-0.018325957,0.009162978,0.008857546,69.8753,-102.79578,5.1302123,STD
21105628488000,0.899967,2.29110830905873,9.58948331671703,-1.25033620226468,-0.016493361,0.009773844,0.014049901,69.92488,-102.78513,5.1227207,STD
21105633486000,0.904965,2.29015514410082,9.59019818048261,-1.25009791102521,-0.015577064,0.0125227375,0.008857546,69.97144,-102.7755,5.1119924,STD
21105638497000,0.909976,2.28919949992234,9.59091490363773,-1.24985899998058,-0.021380283,0.008552114,0.01740966,70.02075,-102.76673,5.106359,STD
21105643557000,0.915036,2.28823451098936,9.59163863526114,-1.24961775274734,-0.022602014,0.005192355,0.0125227375,70.067924,-102.75721,5.0958652,STD
21105648492000,0.919971,2.2872933607158,9.59234448813892,-1.24938246517895,-0.02565634,0.0061086523,0.0125227375,70.11571,-102.74719,5.0892787,STD
21105653476000,0.924955,2.28634286568774,9.59305734948498,-1.24914484142194,-0.025961773,0.008552114,0.01863139,70.16397,-102.73769,5.083071,STD
21105658518000,0.929997,2.28538130952172,9.59377850656902,-1.24890445238043,-0.028710667,0.012217305,0.01863139,70.211174,-102.72604,5.075411,STD
21105663518000,0.934997,2.28442776314527,9.59449365639453,-1.24866606578632,-0.02321288,0.0018325958,0.017104227,70.26182,-102.71699,5.0684686,STD
21105668798000,0.940277,2.28342081817173,9.59524885461027,-1.24841432954293,-0.029626964,0.0015271631,0.018020526,70.30865,-102.70437,5.0631037,STD
21105673573000,0.945052,2.28251018138221,9.59593182269362,-1.24818667034555,-0.021991149,0.008552114,0.012217305,70.355705,-102.69589,5.055368,STD
21105678593000,0.950072,2.28155282082024,9.59664983311843,-1.24794733020506,-0.02321288,0.004886922,0.016493361,70.40639,-102.68466,5.050175,STD
21105683522000,0.955001,2.28061281480233,9.59735482781642,-1.24771232870058,-0.020463986,-0.0027488936,0.01740966,70.45556,-102.6754,5.042725,STD
21105688489000,0.959968,2.27966556183196,9.59806525765307,-1.24747551545799,-0.024129177,0.0030543262,0.014966198,70.5019,-102.664215,5.036206,STD
21105693507000,0.964986,2.27870858268855,9.59878298201795,-1.24723627067214,-0.027488936,0.009773844,0.017104227,70.55028,-102.654396,5.0309505,STD
21105698490000,0.969969,2.27775827836977,9.59949570033405,-1.24699869459244,-0.02687807,0.009468411,0.016493361,70.59857,-102.644035,5.024288,STD
21105703482000,0.974961,2.27680625766751,9.60020970591984,-1.24676068941688,-0.02687807,0.009468411,0.01282817,70.644714,-102.63253,5.0178633,STD
21105708544000,0.980023,2.27584088731599,9.60093372360318,-1.246519346829,-0.022907447,0.010079277,0.010079277,70.69066,-102.62226,5.011643,STD
21105713518000,0.984997,2.27489229938068,9.60164515464959,-1.24628219984517,-0.022907447,0.01160644,0.0106901415,70.73618,-102.61092,5.0055075,STD
21105718539000,0.990018,2.27393474810945,9.60236330810437,-1.24604281202736,-0.020158553,0.017715093,0.013439035,70.7801,-102.60127,4.999642,STD
21105723535000,0.995014,2.27298196457009,9.60307788581001,-1.24580461614252,-0.028405234,0.016798794,0.013439035,70.82528,-102.58848,4.9929867,STD
21105728524000,1.000003,2.27203051599566,9.6037914623059,-1.24556675399891,-0.022907447,0.008552114,0.013133603,70.87083,-102.580284,4.9870543,STD
21105734226000,1.005705,2.27094309170795,9.60460701916691,-1.24529489792699,-0.016798794,0.013133603,0.01038471,70.91276,-102.569824,4.981217,STD
21105738591000,1.01007,2.2701106457213,9.60523134496458,-1.24508678643032,-0.019547688,0.016493361,0.01038471,70.95735,-102.55875,4.97563,STD
21105743532000,1.015011,2.27037434977378,9.60540276125984,-1.24444790018098,-0.01985312,0.010079277,0.008857546,71.003,-102.54939,4.96867,STD
21105748519000,1.019998,2.27156818808399,9.60516401354331,-1.24349282953281,-0.021380283,0.007941248,0.002443461,71.04608,-102.53842,4.9608965,STD
21105753494000,1.024973,2.27275915371329,9.60492584031496,-1.24254005702937,-0.022907447,0.010079277,0.009468411,71.08818,-102.52448,4.9481974,STD
21105758523000,1.030002,2.2739630464067,9.60468508188976,-1.24157694287464,-0.021380283,0.01038471,0.01282817,71.13086,-102.50993,4.9327235,STD
21105763524000,1.035003,2.27516023617798,9.60444566393701,-1.24061919105762,-0.027794369,0.0076358155,0.0021380284,71.17343,-102.49224,4.9154267,STD
21105768509000,1.039988,2.27635359570804,9.60420701196851,-1.23966450343357,-0.018020526,0.005192355,0.002443461,71.216644,-102.481,4.9024534,STD
21105773569000,1.045048,2.27756490949381,9.60396476944882,-1.23869545240495,-0.014049901,0.0012217305,0.00580322,71.26067,-102.465805,4.887331,STD
21105778608000,1.050087,2.27877119608799,9.60372353228346,-1.23773042312961,-0.02443461,0.007941248,0.0076358155,71.30232,-102.449425,4.872615,STD
21105783516000,1.054995,2.27994612258218,9.60348856661417,-1.23679048193426,-0.023518313,0.0015271631,-0.00061086525,71.34841,-102.43638,4.8553004,STD
21105788504000,1.059983,2.28114020028246,9.60324977102362,-1.23583521977403,-0.022602014,-0.0021380284,0.004886922,71.39272,-102.42248,4.84313,STD
21105793532000,1.065011,2.2823438535858,9.60300906047244,-1.23487229713136,-0.0143553335,0.0033597588,0.010995574,71.43581,-102.410034,4.829262,STD
21105798517000,1.069996,2.28353721311586,9.60277040850394,-1.23391760950731,-0.018325957,0.01038471,0.007330383,71.47923,-102.394226,4.8143206,STD
21105803493000,1.074972,2.28472841813523,9.60253218740158,-1.23296464549181,-0.014966198,0.0030543262,0.0067195175,71.52565,-102.38361,4.801657,STD
21105808572000,1.080051,2.28594428033246,9.60228903527559,-1.23199195573403,-0.022602014,0.0033597588,0.012217305,71.56808,-102.369415,4.7907248,STD
21105813588000,1.085067,2.28714506095488,9.6020488992126,-1.2310313312361,-0.02443461,0.003970624,0.014660766,71.612236,-102.35728,4.778591,STD
21105818516000,1.089995,2.28832477525059,9.60181297606299,-1.23008755979952,-0.023823744,-0.0021380284,0.02076942,71.65868,-102.344864,4.7688575,STD
21105823580000,1.095059,2.28953704659668,9.60157054204725,-1.22911774272266,-0.024740042,-0.009773844,0.013133603,71.70475,-102.33041,4.7560635,STD
21105828590000,1.100069,2.29073639087864,9.60133069322835,-1.22815826729709,-0.02107485,-0.006414085,0.014049901,71.75022,-102.31899,4.747792,STD
21105833511000,1.10499,2.29191442944382,9.60109510519685,-1.22721583644494,-0.010995574,0.0021380284,0.020158553,71.79618,-102.30884,4.7388806,STD
21105838504000,1.109983,2.29310970409449,9.60085607023622,-1.22625961672441,-0.024740042,0.0012217305,0.01282817,71.843094,-102.29201,4.7262864,STD
21105843531000,1.11501,2.29431311800775,9.60061540755905,-1.2252968855938,-0.021991149,-0.0027488936,0.013744468,71.88922,-102.283775,4.718157,STD
21105848518000,1.119997,2.29550695631796,9.60037665984252,-1.22434181494563,-0.022907447,-0.0061086523,0.0125227375,71.93483,-102.26997,4.707515,STD
21105854243000,1.125722,2.29687746450444,9.60010258110236,-1.22324540839645,-0.018936822,-0.0012217305,0.016187929,71.97954,-102.25888,4.698915,STD
21105858589000,1.130068,2.29791785377578,9.59989452062992,-1.22241309697938,-0.027183503,-0.0015271631,0.018020526,72.0264,-102.24404,4.689151,STD
21105863577000,1.135056,2.29911193147607,9.59965572503937,-1.22145783481915,-0.018020526,-0.0021380284,0.011301007,72.07164,-102.234344,4.6784067,STD
21105868498000,1.139977,2.30028997004124,9.59942013700787,-1.220515403967,-0.01985312,0.0018325958,0.013133603,72.11618,-102.22077,4.670955,STD
21105873528000,1.145007,2.30149410212473,9.59917933070866,-1.21955209830021,-0.029626964,0.005192355,0.017104227,72.16076,-102.207054,4.6623144,STD
21105878530000,1.150009,2.30269153128609,9.59893986488189,-1.21859415497113,-0.028710667,0.004886922,0.017715093,72.20509,-102.19555,4.653416,STD
21105883517000,1.154996,2.3038853695963,9.59870111716535,-1.21763908432296,-0.0143553335,0.019547688,0.011301007,72.24403,-102.18478,4.644811,STD
21105888512000,1.159991,2.30508112302712,9.59846198645669,-1.2166824815783,-0.025045475,0.007941248,0.0067195175,72.290565,-102.16795,4.63552,STD
21105893528000,1.165007,2.30628190364954,9.5982218503937,-1.21572185708037,-0.01985312,0.01282817,0.015882496,72.32867,-102.15998,4.630177,STD
21105898517000,1.169996,2.30747622073991,9.59798300692913,-1.21476640340807,-0.03145956,0.00580322,0.014966198,72.37253,-102.14322,4.619573,STD
21105903499000,1.174978,2.30866886209974,9.59774449858268,-1.21381229032021,-0.016187929,0.008552114,0.0076358155,72.41236,-102.135284,4.610678,STD
21105908521000,1.18,2.30987107906262,9.59750407527559,-1.21285051674991,-0.017104227,0.009773844,0.01038471,72.455055,-102.1211,4.604005,STD
21105913518000,1.184997,2.31106731127359,9.5972648488189,-1.21189353098113,-0.027183503,0.019242255,0.019547688,72.49453,-102.10847,4.5978494,STD
21105918497000,1.189976,2.31225923446319,9.59702648409449,-1.21093999242945,-0.032070424,0.013744468,0.011301007,72.536995,-102.09539,4.586956,STD
21105924167000,1.195646,2.31361657619548,9.5967550384252,-1.20985411904362,-0.011911872,0.015271631,0.010995574,72.57572,-102.08823,4.581858,STD
21105928526000,1.200005,2.31466007753781,9.59654635559055,-1.20901931796975,-0.021991149,0.018936822,0.010995574,72.6149,-102.071,4.5744834,STD
21105934220000,1.205699,2.31602316463192,9.59627376094488,-1.20792884829446,-0.019547688,0.017715093,0.01160644,72.65497,-102.06248,4.567133,STD
21105938506000,1.209985,2.31704919049869,9.59606857291339,-1.20710802760105,-0.018325957,0.016187929,0.01282817,72.69406,-102.051094,4.5602655,STD
21105943523000,1.215002,2.30961043286559,9.59861966693395,-1.2093365890448,-0.019242255,0.018325957,0.010079277,72.73222,-102.03948,4.55271,STD
21105948523000,1.220002,2.2952121167385,9.60341870472086,-1.21413602775383,-0.0106901415,0.027488936,0.0106901415,72.76902,-102.03122,4.5468583,STD
21105953503000,1.224982,2.2989303029303,9.60805544675202,-1.20869931752489,-0.017104227,0.023823744,0.009162978,72.813126,-102.016754,4.5373893,STD
21105958517000,1.229996,2.31714488825036,9.61260917629208,-1.1950384141963,-0.022602014,0.017715093,0.010079277,72.85558,-102.00517,4.5292306,STD
21105963492000,1.234971,2.32107863470909,9.61105723101175,-1.19158099607337,-0.02321288,0.021380283,0.015577064,72.8956,-101.99248,4.5137887,STD
21105968511000,1.23999,2.30730215821152,9.60187323301806,-1.20076528177128,-0.020463986,0.02076942,0.019547688,72.93867,-101.97931,4.4977994,STD
21105973499000,1.244978,2.29497164427528,9.59076808085588,-1.2049467631005,-0.032986723,0.01985312,0.015882496,72.98224,-101.95969,4.477075,STD
21105978518000,1.249997,2.28508259824092,9.57593412457566,-1.20000221426808,-0.02107485,0.01863139,0.017715093,73.026825,-101.94846,4.459112,STD
21105983446000,1.254925,2.28015469928147,9.56373118460688,-1.19885031683018,-0.02565634,0.019547688,0.018020526,73.06591,-101.928856,4.429024,STD
21105988498000,1.259977,2.28238313133895,9.55481740983833,-1.20330722748376,-0.02076942,0.008246681,0.020158553,73.109184,-101.915535,4.399499,STD
21105993610000,1.265089,2.28463802933536,9.54579777076137,-1.20781707056792,-0.01863139,0.01160644,0.02107485,73.14864,-101.89799,4.3531384,STD
21105998518000,1.269997,2.28680294313942,9.53713807033301,-1.21214694338814,-0.017104227,0.021685716,0.021685716,73.189735,-101.882095,4.307499,STD
21106003547000,1.275026,2.28959612173463,9.53077155433658,-1.21551507826537,-0.0290161,0.017715093,0.01985312,73.2355,-101.861275,4.231883,STD
21106008482000,1.279961,2.29937908758021,9.55522896895053,-1.20573211241979,-0.027488936,0.0143553335,0.021991149,73.27875,-101.845535,4.158967,STD
21106013492000,1.284971,2.30651663198288,9.577105740466,-1.19829583690918,-0.022907447,0.023518313,0.019242255,73.31786,-101.82744,4.041318,STD
21106018533000,1.290012,2.29503861296719,9.57940139700428,-1.20747827129815,-0.02687807,-0.0015271631,0.01740966,73.36791,-101.80908,3.9239058,STD
21106023554000,1.295033,2.28360613261056,9.58168794560152,-1.21662427468379,-0.020158553,0.0106901415,0.016493361,73.40994,-101.79152,3.7489898,STD
21106028522000,1.300001,2.27229432970043,9.58395035815502,-1.2256737359106,-0.01985312,0.0076358155,0.013439035,73.463234,-101.773605,3.5732396,STD
21106033488000,1.304967,2.26098708065621,9.58621185991441,-1.23471955403709,-0.026572637,0.014966198,0.014049901,73.51049,-101.75854,3.402014,STD
21106038506000,1.309985,2.26863015121998,9.59488748483399,-1.23115622439001,-0.01740966,0.022602014,0.008246681,73.55262,-101.74887,3.13492,STD
21106043489000,1.314968,2.27776252025643,9.60401956779256,-1.22659003987178,-0.0290161,0.015271631,0.0070249503,73.59701,-101.738235,2.8732183,STD
21106048516000,1.319995,2.27527228591788,9.61756026778951,-1.21380828329679,-0.020463986,0.010995574,0.0021380284,73.61838,-101.7476,2.4657092,STD
21106053497000,1.324976,2.27051819593383,9.63182268666534,-1.19954616226829,-0.016493361,0.008246681,0.008552114,73.641075,-101.76728,2.068545,STD
21106058544000,1.330023,2.24918422491569,9.61374908206438,-1.20120468358712,-0.016493361,0.005497787,0.0018325958,73.66368,-101.79993,1.6732652,STD
21106063776000,1.335255,2.22358089688298,9.58814570056209,-1.20632535988758,-0.0106901415,0.010995574,0.009468411,73.68528,-101.84864,1.2916862,STD
21106068537000,1.340016,2.22557867701365,9.59014355552582,-1.19163979194541,-0.015882496,0.004581489,0.003970624,73.71144,-101.901405,0.91048545,STD
21106073512000,1.344991,2.22982848345375,9.59439345071805,-1.174640566185,-0.024129177,0.004276057,0.0033597588,73.7346,-101.96599,0.54071313,STD
21106078611000,1.35009,2.23290106404738,9.59897103380038,-1.17589582023689,-0.022296581,0.0021380284,0.0033597588,73.76056,-102.0399,0.18724656,STD
21106083485000,1.354964,2.23514851569166,9.60346579628292,-1.18713307845828,-0.019547688,-0.00030543262,0.0067195175,73.78647,-102.120316,-0.15892503,STD
21106088489000,1.359968,2.23745591167606,9.60808044369012,-1.19867005838028,-0.016187929,-0.00030543262,0.004276057,73.8019651001295,-102.164629593305,-0.336216430924579,STD
21106093522000,1.365001,2.23977667985941,9.61272183465742,-1.21027389929703,-0.021991149,-0.00061086525,0.004276057,73.81755,-102.2092,-0.5145353,STD
21106098513000,1.369992,2.25225205592571,9.61285809699292,-1.21851035589623,-0.015577064,-0.005497787,0.0070249503,73.85091,-102.30907,-0.8614799,STD
21106103496000,1.374975,2.27569992087264,9.60816841627359,-1.22319993867925,-0.0143553335,-0.004886922,0.011911872,73.8826,-102.41378,-1.2016311,STD
21106108512000,1.379991,2.29102813254009,9.61205143366357,-1.22800273254009,-0.022602014,-0.0009162979,0.005497787,73.91112,-102.52794,-1.5354737,STD
21106113521000,1.385,2.29592754947401,9.62674999142069,-1.23290214947401,-0.020158553,-0.005497787,0.011911872,73.94278,-102.650246,-1.8586241,STD
21106118528000,1.390007,2.31001497329113,9.63658432851914,-1.2377243801464,-0.014966198,-0.0018325958,0.009468411,73.96904,-102.770195,-2.1585238,STD
21106123534000,1.395013,2.33372738854486,9.64132688089821,-1.24246683348501,-0.017715093,-0.0009162979,0.01282817,73.99795,-102.89162,-2.4500442,STD
21106128518000,1.399997,2.34411368686489,9.63943672769999,-1.24278080987978,-0.027794369,0.0070249503,0.010995574,74.01922,-103.01075,-2.7273426,STD
21106133482000,1.404961,2.33940980999357,9.63002887572354,-1.23807698212537,-0.01863139,-0.004276057,0.008857546,74.04572,-103.13686,-2.9999704,STD
21106138503000,1.409982,2.33465192003166,9.62051299643794,-1.23331914184436,-0.02565634,-0.005497787,0.009162978,74.06587,-103.25994,-3.2662783,STD
21106143526000,1.415005,2.3298921348736,9.61099332672043,-1.22855940638698,-0.016493361,-0.00580322,0.013439035,74.089,-103.3917,-3.5278883,STD
21106148479000,1.419958,2.32163131132776,9.60369293091922,-1.22214285372331,-0.019242255,0.00030543262,0.01282817,74.100746,-103.523346,-3.7961273,STD
21106153495000,1.424974,2.30825042107707,9.59923302228412,-1.21322229127205,-0.025045475,0.004276057,0.016187929,74.11363,-103.6575,-4.0572953,STD
21106158488000,1.429967,2.29907642557521,9.59724681087023,-1.20732062557521,-0.020158553,0.0015271631,0.014660766,74.1344,-103.79838,-4.3198953,STD
21106163516000,1.434995,2.30153844369567,9.60217069286226,-1.20978264369567,-0.02443461,-0.00030543262,0.0143553335,74.154076,-103.935776,-4.5761294,STD
21106168476000,1.439955,2.3039671648328,9.60702798297372,-1.21221136483281,-0.026572637,-0.007941248,0.014049901,74.17766,-104.07393,-4.829354,STD
21106173533000,1.445012,2.30644338313734,9.61198026444422,-1.21468758313734,-0.02107485,0.0015271631,0.010995574,74.196815,-104.21388,-5.077854,STD
21106179029000,1.450508,2.30367933037227,9.61727953003742,-1.21192353037227,-0.022602014,-0.0061086523,0.014049901,74.22785,-104.35528,-5.326638,STD
21106183516000,1.454995,2.29521545375222,9.62151155672641,-1.20345965375222,-0.020463986,-0.0076358155,0.011301007,74.254036,-104.500206,-5.572366,STD
21106188466000,1.459945,2.29328560770282,9.6202621539588,-1.19562459743239,-0.01740966,-0.008246681,0.014660766,74.28233,-104.64421,-5.8108325,STD
21106193528000,1.465007,2.30748391726057,9.60606404207752,-1.19089182757981,-0.021380283,-0.0027488936,0.010079277,74.30879,-104.7879,-6.0476446,STD
21106198478000,1.469957,2.32270692054333,9.59212108447353,-1.19264388044815,-0.021380283,-0.0070249503,0.012217305,74.340775,-104.92959,-6.278494,STD
21106203540000,1.475019,2.341932834186,9.5777014610351,-1.21186964352568,-0.01038471,-0.007330383,0.009773844,74.36972,-105.073715,-6.5071044,STD
21106208552000,1.480031,2.34951639214357,9.56340315254237,-1.22710693357926,-0.01985312,-0.006414085,0.01985312,74.40136,-105.21911,-6.7399573,STD
21106213548000,1.485027,2.32566495018943,9.54909257627119,-1.23187719208375,-0.022602014,-0.0027488936,0.017104227,74.431496,-105.37017,-6.972642,STD
21106218567000,1.490046,2.31300824641975,9.54099887535803,-1.23041019272099,-0.017715093,-0.00580322,0.009162978,74.4577,-105.523476,-7.1999116,STD
21106223564000,1.495043,2.33191418,9.550451472,-1.2115044072,-0.028405234,-0.0009162979,0.009468411,74.48112,-105.670364,-7.420804,STD
21106228535000,1.500014,2.34374118548447,9.55662239293639,-1.19967749837278,-0.024740042,-0.0015271631,0.0125227375,74.50642,-105.821434,-7.639194,STD
21106233547000,1.505026,2.33264669068047,9.55218476183432,-1.21077192366864,-0.022602014,-0.014049901,0.016493361,74.53385,-105.96814,-7.853851,STD
21106238511000,1.50999,2.32165844802145,9.5477896299926,-1.22176009748521,-0.022602014,-0.008246681,0.013133603,74.55174,-106.1092,-8.063471,STD
21106243563000,1.515042,2.31047540976331,9.54331658284024,-1.23294306568047,-0.019242255,-0.006414085,0.0027488936,74.5743,-106.25093,-8.271392,STD
21106248491000,1.51997,2.29956685621302,9.53895332544379,-1.24385155088757,-0.01863139,-0.00061086525,0.003970624,74.59265,-106.37835,-8.4583845,STD
21106253541000,1.52502,2.30762836266794,9.54769457463239,-1.24038746866603,-0.013133603,-0.0061086523,0.004886922,74.613144,-106.50822,-8.645776,STD
21106258778000,1.530257,2.3178159505974,9.55788185298701,-1.2342638581645,-0.022602014,-0.0061086523,0.0030543262,74.630585,-106.633675,-8.829646,STD
21106263641000,1.53512,2.32127216319109,9.56133810166976,-1.21698296361163,-0.026572637,-0.013133603,0.011911872,74.64968,-106.760414,-9.005866,STD
21106268754000,1.540233,2.32490605482004,9.56497203124304,-1.19881368254051,-0.01863139,-0.008246681,0.00030543262,74.66391,-106.90106,-9.200167,STD
21106273570000,1.545049,2.3283288637551,9.56839487591837,-1.18169980465306,-0.007941248,-0.00580322,0.0067195175,74.68295,-107.03574,-9.384344,STD
21106278899000,1.550378,2.3321162700705,9.57218232178108,-1.16276295763018,-0.023823744,-0.0033597588,0.012217305,74.699936,-107.16646,-9.568328,STD
21106283541000,1.55502,2.33541541439703,9.57548150055659,-1.14626739675943,-0.016187929,-0.010079277,0.009468411,74.718925,-107.303955,-9.750084,STD
21106288525000,1.560004,2.33895762364378,9.57902374679035,-1.12855652313173,-0.01282817,-0.005192355,0.009162978,74.739204,-107.43614,-9.926954,STD
21106293557000,1.565036,2.34253394726531,9.5826001077551,-1.11067507929252,-0.005192355,-0.0033597588,0.008552114,74.76229,-107.56991,-10.102253,STD
21106298483000,1.569962,2.34603493497588,9.58610113202226,-1.09317031133704,-0.013439035,-0.0027488936,0.011911872,74.7849,-107.69843,-10.273237,STD
21106303510000,1.574989,2.3484418480667,9.5885080924249,-1.10450028840017,-0.0143553335,-0.004276057,0.0076358155,74.807846,-107.838585,-10.454089,STD
21106308468000,1.579947,2.35071686001629,9.59078315188539,-1.11815036009774,-0.013133603,-0.0106901415,0.004581489,74.83261,-107.97469,-10.630805,STD
21106313517000,1.584996,2.3530336279335,9.59309996818552,-1.13205096760098,-0.013133603,-0.013439035,0.005192355,74.86815,-108.102135,-10.8110485,STD
21106318571000,1.59005,2.35535269013464,9.5954190788175,-1.14596534080782,-0.0067195175,-0.004581489,0.009773844,74.902885,-108.22946,-10.9874115,STD
21106323516000,1.594995,2.37053746592871,9.57765741758911,-1.13091321758911,-0.020158553,-0.004581489,0.010079277,74.94097,-108.3396,-11.14827,STD
21106328459000,1.599938,2.38976692562202,9.55362059297248,-1.10687639297248,-0.014966198,-0.00061086525,0.013439035,74.97658,-108.452515,-11.303368,STD
21106334256000,1.605735,2.38981082258541,9.55466337442158,-1.10572377741459,-0.016493361,0.0009162979,0.008857546,75.00502,-108.55376,-11.444737,STD
21106338512000,1.609991,2.38579793878114,9.56068261632372,-1.10973666121886,-0.013744468,0.0067195175,0.009468411,75.032196,-108.65419,-11.580831,STD
21106343531000,1.61501,2.38106563995274,9.56778096573792,-1.11446896004726,-0.02687807,0.011301007,0.0067195175,75.06143,-108.752144,-11.721142,STD
21106348493000,1.619972,2.37638708510387,9.57479870030521,-1.11914751489613,-0.016493361,0.0106901415,0.0125227375,75.091644,-108.8529,-11.8565645,STD
21106353493000,1.624972,2.38517170708661,9.58018157283465,-1.14073344940945,-0.011301007,0.016798794,0.013439035,75.11579,-108.95105,-11.99349,STD
21106358511000,1.62999,2.39936158377953,9.58491163051181,-1.16911325218504,-0.007330383,0.020158553,0.015271631,75.141846,-109.048645,-12.126548,STD
21106363519000,1.634998,2.41030579155459,9.5831203190269,-1.17142004028877,-0.021685716,0.012217305,0.01282817,75.16887,-109.14148,-12.256557,STD
21106368539000,1.640018,2.41981435267009,9.57836591435918,-1.16191137988528,-0.01740966,0.01863139,0.012217305,75.19155,-109.23722,-12.38216,STD
21106373539000,1.645018,2.41665917677961,9.57210236080461,-1.16663479087003,-0.014660766,0.018020526,0.017104227,75.21975,-109.31555,-12.483847,STD
21106378526000,1.650005,2.40733208432282,9.56510712059369,-1.17829371122449,-0.015882496,0.019242255,0.015882496,75.24546,-109.39408,-12.585276,STD
21106383512000,1.654991,2.39800686214725,9.55811328307782,-1.18995029371643,-0.009773844,0.028405234,0.015577064,75.27096,-109.47279,-12.684494,STD
21106388728000,1.660207,2.3882514752905,9.55079682570061,-1.20214458458647,-0.018020526,0.01985312,0.017104227,75.30154,-109.54692,-12.78329,STD
21106393522000,1.665001,2.37889537636211,9.54521212835289,-1.21527213545683,-0.019242255,0.01038471,0.018936822,75.33013,-109.62277,-12.880066,STD
21106398552000,1.670031,2.3688008030176,9.5401647362741,-1.2304139954736,-0.013744468,0.014966198,0.020158553,75.357605,-109.69704,-12.974776,STD
21106403535000,1.675014,2.35601690543511,9.54795436293436,-1.21965060905851,-0.01282817,0.024129177,0.02076942,75.389366,-109.786705,-13.083349,STD
21106408589000,1.680068,2.34164175034155,9.56232931788932,-1.19569201723592,-0.021685716,0.0125227375,0.0106901415,75.4254,-109.875824,-13.194066,STD
21106413553000,1.685032,2.336741,9.57027633006183,-1.1890472332221,-0.02321288,0.021380283,0.009162978,75.44828,-109.96962,-13.304281,STD
21106418607000,1.690086,2.336741,9.57502676268525,-1.1914223999313,-0.02076942,0.021685716,0.0070249503,75.47641,-110.06293,-13.417132,STD
21106423601000,1.69508,2.336741,9.57972079919521,-1.19376936917264,-0.021991149,0.027794369,0.018020526,75.50668,-110.14733,-13.524724,STD
21106428554000,1.700033,2.336741,9.58437629836098,-1.19609707014427,-0.028099801,0.02565634,0.0106901415,75.538055,-110.23385,-13.636809,STD
21106433544000,1.705023,2.3312990087108,9.59454695141862,-1.20390333583873,-0.014966198,0.015271631,-0.0009162979,75.57449,-110.31883,-13.741383,STD
21106438551000,1.71003,2.32175168902439,9.60886786864111,-1.21583739198606,-0.0070249503,0.03023783,0.009773844,75.60586,-110.397316,-13.838564,STD
21106443555000,1.715034,2.31221008972125,9.62318020532603,-1.2277642977103,-0.025045475,0.024740042,0.013439035,75.64795,-110.46986,-13.933635,STD
21106448557000,1.720036,2.30267230400697,9.63748682165256,-1.23968643648581,-0.016798794,0.024129177,0.006414085,75.68483,-110.54831,-14.025957,STD
21106453548000,1.725027,2.29579845204771,9.63593969105368,-1.24761994795229,-0.021380283,0.02321288,0.014660766,75.72527,-110.61553,-14.112239,STD
21106458594000,1.730073,2.29099482055666,9.62152849562624,-1.25242357944334,-0.02321288,0.019242255,0.016798794,75.76623,-110.686485,-14.201184,STD
21106463515000,1.734994,2.28126247544466,9.62017693972332,-1.264687394417,-0.03145956,0.025045475,0.021991149,75.80343,-110.74985,-14.280572,STD
21106468553000,1.740032,2.26695978261858,9.62971230059289,-1.28375776767787,-0.028405234,0.029626964,0.021685716,75.842316,-110.81481,-14.360211,STD
21106473526000,1.745005,2.26251917626095,9.63187514878286,-1.28569057127556,-0.032070424,0.029321533,0.022296581,75.88042,-110.86429,-14.424159,STD
21106478523000,1.750002,2.26717884226874,9.62721533680623,-1.27171137862707,-0.032986723,0.02076942,0.02107485,75.91983,-110.91467,-14.488279,STD
21106483543000,1.755022,2.28535610451242,9.62692718019382,-1.2596662330103,-0.020463986,0.017104227,0.018936822,75.95389,-110.963264,-14.546003,STD
21106488549000,1.760028,2.31923372690289,9.63176691994751,-1.24998695564304,-0.029932396,0.017715093,0.01985312,75.989716,-111.00622,-14.60295,STD
21106493466000,1.764945,2.3219648854413,9.62371367968972,-1.26187183453789,-0.02443461,0.018325957,0.017104227,76.02912,-111.06745,-14.6772585,STD
21106498553000,1.770032,2.28970475893482,9.60067083530413,-1.29874043367704,-0.022602014,0.016493361,0.019242255,76.06997,-111.12399,-14.749205,STD
21106503626000,1.775105,2.26786578100475,9.58454663304174,-1.31792472363909,-0.027794369,0.008552114,0.016187929,76.113045,-111.18179,-14.824109,STD
21106508421000,1.7799,2.26327487710572,9.57995560929768,-1.30874281996501,-0.024129177,0.014049901,0.01863139,76.15387,-111.239296,-14.895119,STD
21106513386000,1.784865,2.25852120914771,9.57520181724569,-1.29923538477381,-0.0143553335,0.024129177,0.01985312,76.18865,-111.30172,-14.966242,STD
21106518438000,1.789917,2.25368424428893,9.57036472611847,-1.28956135404149,-0.029321533,0.0143553335,0.013744468,76.22754,-111.35997,-15.038951,STD
21106523418000,1.794897,2.25383525822021,9.56394442755153,-1.27507782871795,-0.022602014,0.015882496,0.019242255,76.26173,-111.42097,-15.105662,STD
21106528439000,1.799918,2.26350541644042,9.55427452176973,-1.2509023574359,-0.03145956,0.015271631,0.01740966,76.29866,-111.477684,-15.17613,STD
21106533802000,1.805281,2.27363462842105,9.54414538947368,-1.23737386421053,-0.031154128,0.008552114,0.0106901415,76.34167,-111.5305,-15.242176,STD
21106538742000,1.810221,2.28268905751196,9.53509077129187,-1.24190107875598,-0.020463986,0.010079277,0.012217305,76.38347,-111.58159,-15.305153,STD
21106543442000,1.814921,2.29376647779378,9.53015046687788,-1.24375745875576,-0.03023783,0.014966198,0.010079277,76.42798,-111.627754,-15.371721,STD
21106548432000,1.819911,2.3121183813076,9.5347385265937,-1.23916949485407,-0.01282817,0.006414085,0.007941248,76.47655,-111.680435,-15.438058,STD
21106553463000,1.824942,2.32630908651472,9.53978234567901,-1.23583555451092,-0.020463986,0.0030543262,0.005192355,76.52096,-111.72789,-15.504117,STD
21106558575000,1.830054,2.32165981232669,9.54675612345679,-1.23816017946819,-0.014966198,0.013133603,0.004886922,76.56451,-111.78055,-15.568982,STD
21106563749000,1.835228,2.31695415022792,9.55381448148148,-1.24051299823362,-0.016493361,0.015882496,0.00061086525,76.61159,-111.83132,-15.636352,STD
21106568507000,1.839986,2.31262683282051,9.56030533333333,-1.24267664564103,-0.011301007,0.0143553335,0.0033597588,76.65806,-111.88232,-15.700678,STD
21106573879000,1.845358,2.30815176079146,9.56779584021159,-1.24385321366835,-0.0106901415,0.0106901415,0.0036651916,76.711845,-111.927956,-15.758413,STD
21106578493000,1.849972,2.3103568286691,9.57661606567194,-1.22621267064724,-0.008552114,0.009468411,0.00580322,76.76633,-111.97322,-15.814281,STD
21106583781000,1.85526,2.31288400659215,9.58672472458706,-1.20599524726284,-0.009468411,0.015882496,0.00061086525,76.81962,-112.031105,-15.885455,STD
21106588535000,1.860014,2.31515598160088,9.59581257717451,-1.18781944719297,-0.008552114,0.01740966,0.0076358155,76.876434,-112.08577,-15.952316,STD
21106593835000,1.865314,2.31739495056518,9.60534486661643,-1.16740975081952,-0.010079277,0.01160644,0.0106901415,76.92622,-112.14223,-16.02477,STD
21106598520000,1.869999,2.31316856510927,9.60111883421251,-1.14627777940844,-0.01282817,0.018325957,0.0061086523,76.972496,-112.19784,-16.095448,STD
21106603461000,1.87494,2.30871123948757,9.59666188093444,-1.12399110475697,-0.009468411,0.0076358155,0.008246681,77.03465,-112.24745,-16.16681,STD
21106608479000,1.879958,2.30962792867811,9.59434334598534,-1.12776569949219,-0.019242255,0.00580322,0.009773844,77.09256,-112.29427,-16.23752,STD
21106613445000,1.884924,2.31152209137924,9.59244915361638,-1.13628939703481,-0.02321288,0.009468411,0.0106901415,77.15279,-112.341736,-16.307327,STD
21106618545000,1.890024,2.31346736519635,9.59050384933089,-1.14504309366537,-0.022602014,0.0027488936,-0.0009162979,77.22086,-112.38851,-16.382837,STD
21106623502000,1.894981,2.31535809506134,9.58861308985184,-1.15355134350805,-0.007941248,0.0070249503,0.009773844,77.28731,-112.43162,-16.449936,STD
21106628549000,1.900028,2.3172831532878,9.58668800147363,-1.16221407035009,-0.022602014,0.004886922,0.012217305,77.35986,-112.487495,-16.538479,STD
21106633478000,1.904957,2.3191632032181,9.58480792209654,-1.17067426068185,-0.02443461,0.007941248,0.011301007,77.43111,-112.54602,-16.6231,STD
21106638552000,1.910031,2.321098559953,9.58287253504859,-1.17938333062371,-0.027488936,0.00030543262,0.013133603,77.5073,-112.599434,-16.706112,STD
21106643503000,1.914982,2.32298700126055,9.58098406416282,-1.18788128199976,-0.016187929,-0.0027488936,0.0018325958,77.58102,-112.65729,-16.79128,STD
21106648548000,1.920027,2.32491129663454,9.57905973864904,-1.1965405760196,-0.016798794,0.014049901,0.013744468,77.65406,-112.70601,-16.8675,STD
21106653500000,1.924979,2.32680011936833,9.57717088633105,-1.20504024380675,-0.023518313,0.0076358155,0.004276057,77.732956,-112.76174,-16.953594,STD
21106658630000,1.930109,2.31923833103448,9.58473279310345,-1.19478925862069,-0.017715093,0.007330383,0.01038471,77.809746,-112.801735,-17.01627,STD
21106663504000,1.934983,2.30998792142291,9.59398334760206,-1.18091371664685,-0.013439035,0.008246681,0.0027488936,77.88701,-112.844505,-17.084978,STD
21106668512000,1.939991,2.30989964929115,9.60162896895986,-1.1666111845247,-0.0143553335,-0.0033597588,0.015882496,77.961914,-112.884735,-17.143204,STD
21106673653000,1.945132,2.31234875284783,9.60897617733672,-1.1519165376113,-0.017715093,-0.0033597588,0.0033597588,77.9947438855622,-112.906149725311,-17.1732955371162,STD
21106679033000,1.950512,2.31491171280406,9.61666495015669,-1.13653875111177,-0.020463986,0.0076358155,0.015577064,78.0291,-112.92856,-17.204786,STD
21106683538000,1.955017,2.31705783447744,9.62310322553848,-1.12366199866189,-0.025961773,-0.004886922,0.002443461,78.1107,-112.96916,-17.268696,STD
21106688549000,1.960028,2.31943949845261,9.62098616441006,-1.1241911582205,-0.008857546,-0.008552114,0.008857546,78.190865,-113.02502,-17.343946,STD
21106693558000,1.965037,2.32181864302931,9.61622782557159,-1.12894939768884,-0.025045475,-0.00061086525,0.013133603,78.27095,-113.075905,-17.422354,STD
21106698542000,1.970021,2.32418591325696,9.61149323567921,-1.13368388870704,-0.01863139,-0.00061086525,0.008246681,78.3157695182994,-113.102766026371,-17.4619336466459,STD
21106703531000,1.97501,2.32655555835441,9.60675389599762,-1.13842312941527,-0.01985312,0.0033597588,0.0143553335,78.360634,-113.129654,-17.501553,STD
21106708570000,1.980049,2.33782134821834,9.60198487207581,-1.15029731112427,-0.019242255,0.004886922,0.009162978,78.44954,-113.17907,-17.579866,STD
21106713551000,1.98503,2.35194701385845,9.59727674296713,-1.16442292759846,-0.02107485,-0.0021380284,0.011301007,78.54143,-113.22614,-17.655146,STD
21106718524000,1.990003,2.35090070238812,9.599290137608,-1.17336436284827,-0.014660766,-0.0012217305,0.015882496,78.63052,-113.27642,-17.729168,STD
21106723708000,1.995187,2.34367133483157,9.60410953145326,-1.1805936800796,-0.015271631,-0.0021380284,0.009162978,78.72247,-113.32609,-17.805391,STD
21106728545000,2.000024,2.33692587748762,9.60860633084167,-1.18733909046695,-0.024740042,-0.0067195175,0.0067195175,78.81357,-113.37455,-17.877985,STD
21106734238000,2.005717,2.32898668198233,9.61389892520144,-1.19527823070576,-0.02076942,-0.0018325958,0.006414085,78.90276,-113.425285,-17.950235,STD
21106738540000,2.010019,2.33002355989233,9.61654379487563,-1.18566276493694,-0.009773844,-0.0018325958,0.017104227,78.9470404056665,-113.448565569865,-17.9836205144881,STD
21106743556000,2.015035,2.33481272597577,9.61893840292109,-1.16650627562933,-0.015271631,0.0061086523,0.017104227,78.99867,-113.47571,-18.022547,STD
21106748543000,2.020022,2.33957420349933,9.62131916654205,-1.14746053954937,-0.02565634,-0.0018325958,0.012217305,79.097496,-113.52638,-18.09908,STD
21106753523000,2.025002,2.34432899757739,9.62369658840536,-1.12844153700713,-0.02565634,-0.0030543262,0.013439035,79.190346,-113.56207,-18.153309,STD
21106758583000,2.030062,2.3463178,9.61909064941315,-1.12608677982616,-0.025961773,-0.004276057,0.019242255,79.29539,-113.59565,-18.20556,STD
21106763552000,2.035031,2.3463178,9.60974293625694,-1.13543454178657,-0.029321533,-0.008552114,0.019547688,79.402405,-113.62881,-18.258816,STD
21106768507000,2.039986,2.3463178,9.60042155998625,-1.14475596672396,-0.018325957,-0.00580322,0.017104227,79.51709,-113.66169,-18.314568,STD
21106773648000,2.045127,2.3463178,9.59075027937927,-1.15442729782449,-0.022907447,-0.00580322,0.0125227375,79.634865,-113.69085,-18.370811,STD
21106778622000,2.050101,2.3463178,9.58009351958406,-1.16256790138648,-0.022907447,-0.014966198,0.017715093,79.75631,-113.72033,-18.42497,STD
21106783548000,2.055027,2.3463178,9.56841356989354,-1.16957589559297,-0.024129177,-0.01038471,0.015271631,79.87396,-113.75074,-18.48091,STD
21106788536000,2.060015,2.3463178,9.55658661312206,-1.17667209435504,-0.018936822,-0.0070249503,0.020463986,79.992134,-113.78127,-18.532982,STD
21106793539000,2.065018,2.3463178,9.54472409012132,-1.18378963292894,-0.028710667,-0.01160644,0.01863139,80.1117,-113.81029,-18.5874,STD
21106798546000,2.070025,2.35199608386519,9.53622863902026,-1.18865975677304,-0.024129177,-0.013133603,0.016187929,80.23182,-113.86666,-18.668776,STD
21106803538000,2.075017,2.36389616491263,9.53146850719371,-1.19103977298253,-0.013133603,-0.011301007,0.015271631,80.35351,-113.92115,-18.749138,STD
21106808571000,2.08005,2.37589398300393,9.52666927973316,-1.19343933660079,-0.01740966,-0.00061086525,0.018020526,80.47044,-113.9751,-18.827827,STD
21106813553000,2.085032,2.387770225748,9.52191868342709,-1.1958145851496,-0.021685716,-0.004581489,0.007330383,80.59125,-114.03279,-18.91031,STD
21106818484000,2.089963,2.39627058150334,9.53382755693141,-1.18882575238464,-0.01863139,-0.004886922,0.01282817,80.71694,-114.093956,-18.993376,STD
21106823545000,2.095024,2.40095938723034,9.5666493928606,-1.17007048051659,-0.020463986,-0.01038471,0.016493361,80.8456,-114.15476,-19.079258,STD
21106828450000,2.099929,2.40038364491195,9.58808151299381,-1.15709612245597,-0.025350908,-0.0076358155,0.01160644,80.97161,-114.218056,-19.166151,STD
21106833516000,2.104995,2.391146887406,9.5926999881961,-1.152477743703,-0.01863139,-0.009468411,0.01740966,81.103035,-114.27809,-19.24855,STD
21106838464000,2.109943,2.3833201110316,9.58943655515802,-1.1557412584675,-0.017104227,-0.009773844,0.015271631,81.23925,-114.33632,-19.335,STD
21106843532000,2.115011,2.3784964952097,9.5653184760485,-1.17985938794474,-0.02687807,-0.013133603,0.015882496,81.37899,-114.39023,-19.418169,STD
21106848464000,2.119943,2.37566446345492,9.54930948830007,-1.19894969036476,-0.016493361,-0.0070249503,0.01985312,81.51876,-114.444435,-19.498472,STD
21106853497000,2.124976,2.37803394700619,9.55404830695113,-1.20605814101858,-0.025045475,-0.0021380284,0.01740966,81.66087,-114.49369,-19.579502,STD
21106858589000,2.130068,2.38043120713794,9.55884267702291,-1.21324992141382,-0.01282817,-0.011911872,0.013744468,81.79463,-114.52605,-19.633862,STD
21106864168000,2.135647,2.38305774175597,9.56409558170288,-1.22112952526792,-0.0125227375,-0.00030543262,0.011301007,81.92186,-114.55441,-19.686079,STD
21106868512000,2.139991,2.38369105956956,9.56816395993467,-1.22676524043044,-0.029321533,0.005192355,0.017104227,82.04682,-114.569916,-19.728638,STD
21106873535000,2.145014,2.37906920461184,9.5727859114143,-1.23138709538816,-0.020158553,-0.004276057,0.015271631,82.17322,-114.59155,-19.773882,STD
21106878491000,2.14997,2.37453871250113,9.5773164981389,-1.23489861250113,-0.015882496,0.0033597588,0.015882496,82.286194,-114.60316,-19.810083,STD
21106883515000,2.154994,2.37017068315933,9.58168461870177,-1.23053058315933,-0.019547688,-0.008857546,0.013133603,82.40855,-114.61578,-19.84966,STD
21106888481000,2.15996,2.36585308090785,9.5860023111212,-1.22621298090785,-0.02107485,-0.014966198,0.012217305,82.53388,-114.626,-19.88208,STD
21106893528000,2.165007,2.37012989196664,9.59104258925367,-1.20719733213343,-0.01740966,-0.0033597588,0.014966198,82.65892,-114.63583,-19.913725,STD
21106898688000,2.170167,2.37451515169811,9.59569447028302,-1.18779062415094,-0.0076358155,-0.0036651916,0.0070249503,82.78962,-114.648735,-19.949781,STD
21106903528000,2.175007,2.36576954566038,9.5913215759434,-1.19216342716981,-0.013744468,-0.0036651916,0.008246681,82.920235,-114.65544,-19.981403,STD
21106908586000,2.180065,2.35663002596226,9.58675172066038,-1.19673318701887,-0.009773844,-0.0027488936,0.0070249503,83.055565,-114.66655,-20.017576,STD
21106913559000,2.185038,2.37424444003357,9.590971555812,-1.22921312005875,-0.01985312,-0.011301007,0.01282817,83.19566,-114.67199,-20.051958,STD
21106918973000,2.190452,2.39441095548189,9.59575184015015,-1.26351103355433,-0.021991149,-0.004581489,0.012217305,83.33172,-114.68075,-20.0871,STD
21106923592000,2.195071,2.39656740452396,9.59359534607322,-1.25704168642812,-0.0125227375,-0.004276057,0.008857546,83.472496,-114.688675,-20.121716,STD
21106928520000,2.199999,2.39886811482475,9.59129458772486,-1.25013955552576,-0.018936822,-0.008552114,0.01038471,83.5952,-114.68686,-20.146982,STD
21106934848000,2.206327,2.40182243600643,9.58834020484571,-1.2412765919807,-0.013439035,-0.0009162979,0.013744468,83.71535,-114.68868,-20.171797,STD
21106938482000,2.209961,2.4035190231073,9.58664358231366,-1.23618683067811,-0.016187929,-0.0009162979,0.02076942,83.7672226209585,-114.688042529236,-20.1827177491401,STD
21106943570000,2.215049,2.39961952208327,9.586384,-1.23748763895836,-0.02443461,-0.00030543262,0.013439035,83.83985,-114.68715,-20.198008,STD
21106948450000,2.219929,2.39514107984284,9.586384,-1.23972686007858,-0.017715093,0.0018325958,0.015271631,83.965324,-114.684044,-20.216955,STD
21106953538000,2.225017,2.39047175317905,9.586384,-1.24206152341047,-0.018325957,-0.007941248,0.015577064,84.09817,-114.67859,-20.2394,STD
21106958507000,2.229986,2.38591163443055,9.586384,-1.24434158278473,-0.01282817,-0.009468411,0.009773844,84.228836,-114.67612,-20.262392,STD
21106963554000,2.235033,2.37897398724341,9.58751422615424,-1.24046408979473,-0.01160644,-0.003970624,0.0125227375,84.36063,-114.6708,-20.283878,STD
21106968513000,2.239992,2.37128581927087,9.58905189186039,-1.23431355541669,-0.015271631,-0.0036651916,0.01038471,84.494865,-114.66798,-20.308836,STD
21106973586000,2.245065,2.3634209118047,9.59062490620346,-1.22802162944376,-0.021685716,0.0012217305,0.013744468,84.626884,-114.6624,-20.329878,STD
21106978513000,2.249992,2.35578235491809,9.5921526494852,-1.22191078393447,-0.022907447,-0.017104227,0.011911872,84.7664,-114.65869,-20.35462,STD
21106983548000,2.255027,2.34797636061646,9.5937138809493,-1.21566598849317,-0.019242255,-0.012217305,0.010079277,84.89237,-114.65025,-20.374313,STD
21106988507000,2.259986,2.34028819264392,9.59525154665544,-1.20951545411513,-0.02443461,-0.006414085,0.006414085,85.02447,-114.64109,-20.39629,STD
21106993521000,2.265,2.34193732898089,9.58816634375,-1.21187402898089,-0.010995574,-0.011911872,0.0061086523,85.16376,-114.63297,-20.414684,STD
21106998516000,2.269995,2.35145884888535,9.573883765625,-1.22139554888535,-0.014966198,-0.0106901415,0.0125227375,85.30083,-114.62057,-20.431465,STD
21107003468000,2.274947,2.35953988493402,9.56844512035381,-1.22097092008797,-0.022296581,-0.005192355,0.009162978,85.44305,-114.609505,-20.451527,STD
21107008552000,2.280031,2.36659993392624,9.57079851916478,-1.21155752143168,-0.0106901415,-0.0033597588,0.008246681,85.58797,-114.59869,-20.469425,STD
21107013489000,2.284968,2.37345584696215,9.57308387123592,-1.20241630405046,-0.013744468,0.0033597588,0.0125227375,85.726814,-114.59028,-20.492105,STD
21107018508000,2.289987,2.38042563175601,9.57540718135241,-1.19312325765866,-0.01863139,-0.00030543262,0.0143553335,85.86926,-114.58407,-20.516275,STD
21107023547000,2.295026,2.38273626044827,9.57869577899579,-1.18657973022414,-0.018325957,-0.004581489,0.0067195175,86.0144,-114.57348,-20.533455,STD
21107028527000,2.300006,2.37806830860331,9.58336382832534,-1.18424575430165,-0.01282817,0.0033597588,0.01160644,86.15939,-114.55946,-20.546225,STD
21107033444000,2.304923,2.3734594091612,9.58797282401879,-1.1819413045806,-0.017104227,0.009773844,0.015577064,86.31679,-114.563,-20.58297,STD
21107038495000,2.309974,2.36872490619556,9.59270742585886,-1.17957405309778,-0.022602014,0.0106901415,0.019547688,86.475296,-114.565575,-20.617857,STD
21107043455000,2.314934,2.36405095421855,9.59312004910848,-1.17510639360494,-0.011911872,0.00030543262,0.014049901,86.636375,-114.5709,-20.654316,STD
21107048519000,2.319998,2.35922010301823,9.58345814493476,-1.16544464076103,-0.012217305,0.0030543262,0.015577064,86.79556,-114.57069,-20.686495,STD
21107053487000,2.324966,2.35720680576923,9.57549476682692,-1.16273023100962,-0.022296581,0.009162978,0.01282817,86.95895,-114.57076,-20.72058,STD
21107058549000,2.330028,2.36168884733728,9.57101263165681,-1.17617640251479,-0.020158553,0.0067195175,0.01038471,87.12575,-114.57181,-20.75427,STD
21107063511000,2.33499,2.36485678882947,9.56661540808259,-1.1875241,-0.01282817,0.01740966,0.0076358155,87.288124,-114.576996,-20.79416,STD
21107068547000,2.340026,2.36037101802539,9.56212977779845,-1.1875241,-0.017715093,0.0027488936,0.009162978,87.460495,-114.57979,-20.83491,STD
21107073894000,2.345373,2.35560822682416,9.557367135795,-1.1875241,-0.012217305,0.009162978,0.009162978,87.62131,-114.587006,-20.873575,STD
21107078559000,2.350038,2.35145292086686,9.55321196000558,-1.1875241,-0.015271631,-0.00061086525,0.01038471,87.79309,-114.59106,-20.913046,STD
21107083504000,2.354983,2.34704820747803,9.5488073845975,-1.1875241,-0.0143553335,0.00061086525,0.0067195175,87.9584,-114.58743,-20.941423,STD
21107088555000,2.360034,2.3423277024323,9.55605694515017,-1.1915141975677,-0.015577064,0.0021380284,0.01038471,88.12871,-114.580666,-20.96784,STD
21107093460000,2.364939,2.33770198071886,9.56530809876908,-1.19613991928114,-0.019547688,0.004276057,0.013744468,88.29978,-114.57432,-20.995037,STD
21107098552000,2.370031,2.34455202506133,9.56527720295369,-1.1971009,-0.019547688,0.008246681,0.008552114,88.47563,-114.57114,-21.023659,STD
21107103474000,2.374953,2.35399122598248,9.5629173534418,-1.1971009,-0.015882496,0.005192355,0.0070249503,88.655075,-114.56583,-21.05043,STD
21107108597000,2.380076,2.36381589610013,9.56046113461827,-1.1971009,-0.022907447,0.004276057,0.005192355,88.8282,-114.55321,-21.071217,STD
21107113446000,2.384925,2.37311510074593,9.55813628490613,-1.1971009,-0.020463986,-0.008552114,0.0036651916,89.00734,-114.54258,-21.093206,STD
21107118544000,2.390023,2.37141840554166,9.57580197229172,-1.20799028337503,-0.01985312,-0.00061086525,0.009773844,89.18254,-114.52905,-21.112198,STD
21107123513000,2.394992,2.36700851589287,9.59785142053563,-1.22121995232138,-0.0106901415,0.009773844,0.003970624,89.36161,-114.520195,-21.135452,STD
21107128556000,2.400035,2.36387606971222,9.60234643937412,-1.23380795143892,-0.018020526,0.0067195175,0.0030543262,89.54379,-114.50796,-21.158068,STD
21107134260000,2.405739,2.36112772662508,9.5968499253874,-1.24754966687462,-0.016493361,0.0015271631,0.016493361,89.72571,-114.49584,-21.177607,STD
21107138544000,2.410023,2.35906357834574,9.59272175815053,-1.25787040827128,-0.018936822,-0.0033597588,0.010079277,89.9004,-114.48533,-21.20151,STD
21107143559000,2.415038,2.35664721428859,9.58788918142483,-1.26995222855705,-0.015577064,0.0036651916,0.013439035,90.07624,-114.4699,-21.218416,STD
21107148550000,2.420029,2.35914758139673,9.58963704933135,-1.25419741161961,-0.015271631,0.007330383,0.008857546,90.2602,-114.46271,-21.244963,STD
21107153576000,2.425055,2.3639155850421,9.59440515255077,-1.2255893897474,-0.013439035,0.007941248,0.009468411,90.44522,-114.45374,-21.268648,STD
21107158625000,2.430104,2.37149655663006,9.58692307631263,-1.21926707831503,-0.01282817,-0.00030543262,0.009468411,90.62703,-114.44698,-21.29222,STD
21107163581000,2.43506,2.38025592191566,9.57378375399096,-1.22364676095783,-0.013133603,-0.00030543262,0.009162978,90.807846,-114.43991,-21.314966,STD
21107168509000,2.439988,2.3814502916079,9.56723,-1.22503762290197,-0.017104227,-0.0027488936,0.004276057,91.00336,-114.43417,-21.34345,STD
21107173598000,2.445077,2.37487207865699,9.56723,-1.22339306966425,-0.0106901415,0.0106901415,0.0125227375,91.19672,-114.42614,-21.367048,STD
21107178550000,2.450029,2.36847095652438,9.56723,-1.22179278913109,-0.016187929,0.0021380284,0.008552114,91.39696,-114.42206,-21.398077,STD
21107183549000,2.455028,2.36200908060739,9.56723,-1.22017732015185,-0.008552114,-0.0067195175,0.00580322,91.595665,-114.41774,-21.425312,STD
21107189226000,2.460705,2.35467079903492,9.56723,-1.21834274975873,-0.011911872,0.0033597588,0.003970624,91.789185,-114.40627,-21.447132,STD
21107193559000,2.465038,2.34906981716889,9.56723,-1.21694250429222,-0.010079277,-0.004276057,0.0015271631,91.99234,-114.39702,-21.47121,STD
21107198548000,2.470027,2.3382310170062,9.57531686743431,-1.20816780144671,-0.008552114,0.0030543262,0.0015271631,92.0894765559458,-114.389264896136,-21.4795648852985,STD
21107203524000,2.475003,2.32416114561559,9.58938688573959,-1.19409807697077,-0.008552114,0.005497787,0.0067195175,92.18636,-114.38153,-21.487898,STD
21107208578000,2.480057,2.32266639191527,9.58072330988242,-1.19514291854047,-0.026267206,-0.0067195175,-0.006414085,92.38984,-114.36875,-21.51193,STD
21107213556000,2.485035,2.3319315861821,9.55292806568847,-1.20904049226509,-0.01038471,-0.00061086525,-0.004581489,92.59106,-114.35785,-21.53157,STD
21107218566000,2.490045,2.34229974169777,9.53961177155709,-1.21403100332089,-0.011301007,0.008246681,-0.005192355,92.79597,-114.34782,-21.56112,STD
21107223654000,2.495133,2.35395797655278,9.54194346722174,-1.20936770937889,-0.016493361,0.0030543262,-0.0033597588,93.00541,-114.337845,-21.58946,STD
21107228547000,2.500026,2.3651694040578,9.5441857995502,-1.20488313837688,-0.009162978,-0.0070249503,-0.005192355,93.21137,-114.33398,-21.620375,STD
21107233556000,2.505035,2.37664662465308,9.54648129160685,-1.20029225013877,-0.010079277,-0.0036651916,0.005497787,93.41757,-114.32425,-21.646284,STD
21107238493000,2.509972,2.39188922896465,9.5524354766969,-1.19855374579293,-0.003970624,-0.0009162979,-0.0033597588,93.629776,-114.314644,-21.669527,STD
21107243558000,2.515037,2.41717673391721,9.56760776842873,-1.20361124678344,-0.009468411,0.0061086523,-0.008552114,93.84247,-114.29945,-21.688057,STD
21107248503000,2.519982,2.43079372491637,9.57766465545255,-1.20153186579375,-0.0027488936,0.0018325958,0.0030543262,94.06314,-114.2892,-21.712103,STD
21107253493000,2.524972,2.42622637023798,9.57994838048361,-1.18782977791264,-0.011301007,-0.0015271631,0.0012217305,94.28225,-114.280624,-21.74041,STD
21107258460000,2.529939,2.42168006749498,9.58222157932715,-1.17419084594763,-0.011911872,0.0021380284,0.0061086523,94.50446,-114.268776,-21.762857,STD
21107263533000,2.535012,2.41703674278887,9.58454329016535,-1.16026084758673,-0.013133603,0.007941248,0.008857546,94.7288,-114.25632,-21.785984,STD
21107268496000,2.539975,2.41052418140119,9.58827141993926,-1.15016053953294,-0.004276057,0.0027488936,0.009162978,94.95818,-114.237495,-21.800316,STD
21107273608000,2.545087,2.39514353371034,9.59852486386009,-1.15528742209655,-0.0027488936,0.010995574,0.007941248,95.18383,-114.217,-21.81302,STD
21107278486000,2.549965,2.38396637160488,9.60421978447375,-1.16274537724807,-0.01160644,0.003970624,0.012217305,95.42454,-114.19294,-21.826422,STD
21107283543000,2.555022,2.38155632544414,9.59939984314506,-1.17720567937795,-0.013133603,0.007941248,0.007941248,95.66092,-114.17215,-21.841217,STD
21107288501000,2.55998,2.37919346033342,9.59467426096044,-1.1913828947151,-0.015882496,0.00061086525,0.015882496,95.90415,-114.13127,-21.834232,STD
21107293648000,2.565127,2.37674052230903,9.58976853859169,-1.20610054847474,-0.026572637,0.0018325958,0.00580322,96.144394,-114.095055,-21.832914,STD
21107298515000,2.569994,2.37442833629746,9.58700387664765,-1.21501477259492,-0.01863139,0.00030543262,0.005497787,96.39422,-114.05737,-21.82783,STD
21107303510000,2.574989,2.37207558614991,9.58935667592957,-1.21030927229982,-0.017715093,0.002443461,0.014966198,96.64468,-114.01758,-21.822523,STD
21107308544000,2.580023,2.36970446618139,9.59172784541609,-1.20556703236278,-0.02321288,-0.0021380284,0.014049901,96.891426,-113.98178,-21.818672,STD
21107313553000,2.585032,2.36734512173913,9.59408723913044,-1.20084834347826,-0.02107485,0.00580322,0.008246681,97.13612,-113.94567,-21.812826,STD
21107318553000,2.590032,2.36498932889721,9.59451475648919,-1.20095746882234,-0.015271631,-0.004581489,-0.0027488936,97.38651,-113.9115,-21.811518,STD
21107323619000,2.595098,2.36259972791213,9.5873458038221,-1.22007427670295,-0.01038471,0.005497787,0.008552114,97.631294,-113.87301,-21.804077,STD
21107329079000,2.600558,2.36002427955475,9.57961929739447,-1.24067786356204,-0.01863139,0.003970624,0.010995574,97.885956,-113.83783,-21.80328,STD
21107334245000,2.605724,2.35758750918583,9.57230883362065,-1.26017202651332,-0.018020526,0.0018325958,0.007941248,98.140236,-113.80252,-21.800285,STD
21107338526000,2.610005,2.35657326314388,9.56519403891449,-1.27439395605735,-0.01282817,0.011911872,0.004276057,98.398544,-113.76528,-21.793732,STD
21107343562000,2.615041,2.36151220475166,9.5503774203789,-1.27933284609319,-0.015882496,0.007941248,0.0067195175,98.66419,-113.72618,-21.786997,STD
21107348538000,2.620017,2.3654714,9.53760905008174,-1.28151014202705,-0.01863139,0.004581489,0.009162978,98.91577,-113.69206,-21.781538,STD
21107353534000,2.625013,2.3654714,9.53286870312578,-1.27202967085253,-0.019547688,0.0143553335,0.009162978,99.16676,-113.657524,-21.775536,STD
21107358571000,2.63005,2.3654714,9.5280894542032,-1.2624713975727,-0.008857546,0.011301007,0.003970624,99.43381,-113.63286,-21.777897,STD
21107363552000,2.635031,2.3654714,9.52336333967405,-1.25301939058305,-0.0061086523,0.011301007,0.0106901415,99.69984,-113.60352,-21.77598,STD
21107368520000,2.639999,2.36340028296995,9.5207267735219,-1.24567527234335,-0.020463986,0.0070249503,0.009162978,99.96977,-113.576454,-21.777843,STD
21107373561000,2.64504,2.3491761672363,9.53020971538008,-1.25041664425457,-0.007330383,0.0061086523,0.010079277,100.24145,-113.54961,-21.776638,STD
21107378537000,2.650016,2.33727492114442,9.54223741456006,-1.25349385771115,-0.015882496,0.003970624,0.01282817,100.51165,-113.508026,-21.766596,STD
21107383550000,2.655029,2.34197886964531,9.57516475935724,-1.24408596070939,-0.01740966,0.0027488936,0.0009162979,100.78351,-113.47196,-21.760296,STD
21107388575000,2.660054,2.34699082783035,9.60621004188573,-1.23574461391518,-0.01038471,0.004276057,0.004581489,101.066086,-113.4402,-21.757622,STD
21107393560000,2.665039,2.35535752043463,9.61457690921837,-1.23992796021732,-0.008246681,0.0036651916,0.0015271631,101.35119,-113.4121,-21.759846,STD
21107398719000,2.670198,2.36401625005258,9.62323581966351,-1.24425732502629,-0.0070249503,0.005497787,0.005192355,101.64176,-113.37809,-21.756416,STD
21107403545000,2.675024,2.35083250071429,9.60639247142857,-1.25962368464286,-0.01282817,-0.0018325958,0.0012217305,101.93725,-113.34584,-21.755938,STD
21107408516000,2.679995,2.33245160444015,9.58341647104247,-1.27800443696911,-0.013744468,-0.005497787,0.0027488936,102.23392,-113.3112,-21.752134,STD
21107413538000,2.685017,2.32369343656174,9.58027759967716,-1.27288045464084,-0.009468411,-0.004886922,-0.0027488936,102.53502,-113.2762,-21.747227,STD
21107418469000,2.689948,2.31892914137409,9.58504194461259,-1.25858776806901,-0.00580322,-0.0036651916,-0.00061086525,102.83996,-113.23801,-21.739368,STD
21107423592000,2.695071,2.32658015785132,9.58458536213661,-1.24916589909466,-0.019242255,0.0021380284,0.0061086523,103.137,-113.19545,-21.725397,STD
21107428503000,2.699982,2.33840793158133,9.58221977280958,-1.24206927931798,-0.009773844,-0.004276057,0.004276057,103.43961,-113.15669,-21.713348,STD
21107433544000,2.705023,2.35054880052309,9.5797915635248,-1.23478480359119,-0.020158553,-0.0018325958,-0.00030543262,103.743324,-113.11907,-21.708017,STD
21107438500000,2.709979,2.36248495336485,9.57740429805855,-1.22762315675485,-0.01282817,-0.0015271631,-0.00030543262,103.897824135804,-113.101201597396,-21.7053709873811,STD
21107443529000,2.715008,2.36369656531181,9.56970769831255,-1.23825516134996,-0.016187929,-0.009468411,-0.0027488936,104.0546,-113.08307,-21.702686,STD
21107448511000,2.71999,2.36136290830032,9.5603731190022,-1.25459078479824,-0.016798794,-0.00061086525,0.004581489,104.36281,-113.043625,-21.694464,STD
21107453499000,2.724978,2.35902644078259,9.55102729772561,-1.27094608181952,-0.015271631,-0.0009162979,0.004276057,104.684425,-113.017746,-21.703981,STD
21107458571000,2.73005,2.35665062617755,9.5415240889215,-1.2875768088628,-0.01863139,-0.005192355,0.0021380284,105.0073,-112.98906,-21.710707,STD
21107463475000,2.734954,2.36214984558269,9.535372311892,-1.27410323059361,-0.016493361,-0.005192355,0.0033597588,105.33158,-112.95938,-21.71537,STD
21107468547000,2.740026,2.37179319074846,9.53055053861426,-1.24517314474886,-0.016798794,-0.0021380284,0.00030543262,105.65849,-112.93009,-21.720812,STD
21107473565000,2.745044,2.38123801442815,9.54130256422287,-1.24159791442815,-0.010995574,-0.004276057,-0.0061086523,105.97345,-112.891594,-21.712101,STD
21107478507000,2.749986,2.39049090701857,9.55980825278592,-1.25085080701857,-0.0143553335,-0.0009162979,0.0033597588,106.28875,-112.84814,-21.698713,STD
21107483554000,2.755033,2.39716329846138,9.57019156030873,-1.25308095076931,-0.017104227,-0.007330383,-0.00030543262,106.61796,-112.81082,-21.693808,STD
21107488546000,2.760025,2.40198672434041,9.57501508691924,-1.25066923782979,-0.011911872,0.0018325958,0.0030543262,106.944466,-112.76873,-21.682669,STD
21107493524000,2.765003,2.4067966229834,9.5798250860112,-1.2482642885083,-0.017715093,0.00030543262,0.0009162979,107.27879,-112.73231,-21.6797,STD
21107498556000,2.770035,2.41165869810826,9.58468726267467,-1.24583325094587,-0.018936822,-0.0067195175,0.002443461,107.61475,-112.69407,-21.673595,STD
21107503551000,2.77503,2.4071784188281,9.58175116737193,-1.24807339058595,-0.017715093,-0.004581489,-0.0070249503,107.95038,-112.658424,-21.669947,STD
21107508538000,2.780017,2.39766788931149,9.57461812127247,-1.25282865534425,-0.0067195175,-0.004886922,-0.0015271631,108.29204,-112.618164,-21.660849,STD
21107513517000,2.784996,2.38817261630906,9.56749651779758,-1.25757629184547,-0.0070249503,0.0033597588,0.01038471,108.6356,-112.57662,-21.65119,STD
21107518589000,2.790068,2.37849998632947,9.56024189381192,-1.26241260683527,-0.0070249503,-0.004886922,0.005497787,108.986465,-112.53831,-21.644184,STD
21107523490000,2.794969,2.37203252265689,9.55463757457213,-1.25810714531377,-0.012217305,-0.0021380284,0.004276057,109.32904,-112.492424,-21.62955,STD
21107528432000,2.799911,2.36721095118174,9.54981640586797,-1.24846400236349,-0.019547688,-0.0012217305,0.0018325958,109.67703,-112.44748,-21.616014,STD
21107533819000,2.805298,2.36893917727318,9.55501233728524,-1.24151712272682,-0.008552114,-0.0015271631,0.0106901415,110.021835,-112.40074,-21.598183,STD
21107538458000,2.809937,2.3734028339797,9.56393937104391,-1.2370534660203,-0.004886922,-0.0009162979,0.009468411,110.36816,-112.35578,-21.58289,STD
21107543478000,2.814957,2.36236978464154,9.570399670033,-1.25125608610139,-0.014660766,-0.0033597588,0.00580322,110.7199,-112.30864,-21.565777,STD
21107548479000,2.819958,2.34321426947305,9.57518864883512,-1.27520043005699,-0.0125227375,-0.005192355,0.0076358155,111.07395,-112.26085,-21.546436,STD
21107553445000,2.824924,2.33959834032787,9.5796644,-1.2804346895082,-0.02107485,0.004886922,0.0106901415,111.429665,-112.21097,-21.526155,STD
21107558452000,2.829931,2.34396546579235,9.58403161666667,-1.27606760964481,-0.020463986,-0.0021380284,0.01160644,111.793686,-112.16137,-21.505434,STD
21107563549000,2.835028,2.35106368478216,9.58401100805286,-1.27846120956019,-0.01282817,0.00030543262,0.008857546,112.1476,-112.107834,-21.477228,STD
21107568563000,2.840042,2.36097862907289,9.57905343237663,-1.28837620561635,-0.019547688,0.0036651916,0.014660766,112.50619,-112.05022,-21.44562,STD
21107573561000,2.84504,2.35245977701356,9.57160227472089,-1.29026663736045,-0.02443461,0.00580322,0.010079277,112.868645,-111.99607,-21.416925,STD
21107578564000,2.850043,2.32857967804027,9.56205009549442,-1.28549054774721,-0.025350908,0.008552114,0.004276057,113.23258,-111.93996,-21.38593,STD
21107584027000,2.855506,2.32349206097561,9.56208177853659,-1.28772071687805,-0.018020526,0.005192355,0.00580322,113.59824,-111.88676,-21.357857,STD
21107588576000,2.860055,2.33199258865854,9.5684572575122,-1.29409610709268,-0.016798794,-0.00030543262,0.008246681,113.96609,-111.83386,-21.330072,STD
21107593565000,2.865044,2.34131532609756,9.57544940185366,-1.3010881540878,-0.018325957,0.0067195175,0.007941248,114.3317,-111.777855,-21.297237,STD
21107598566000,2.870045,2.35066048743902,9.58245836434146,-1.30809701899512,-0.017104227,0.011911872,0.008552114,114.70218,-111.72055,-21.262646,STD
21107603547000,2.875026,2.35065082775908,9.58533523022053,-1.30887633446526,-0.018325957,0.0143553335,0.0076358155,115.07382,-111.66295,-21.227497,STD
21107608712000,2.880191,2.33822693618828,9.58285041558246,-1.30142199433365,-0.005497787,0.01160644,-0.0015271631,115.447815,-111.60777,-21.19356,STD
21107613516000,2.884995,2.32667139405737,9.58053927337118,-1.29448866422866,-0.0106901415,0.013133603,0.0027488936,115.821266,-111.540924,-21.147139,STD
21107618620000,2.890099,2.3143942318933,9.57808380504345,-1.28712236180238,-0.0143553335,0.0143553335,0.006414085,116.198,-111.47702,-21.102703,STD
21107623554000,2.895033,2.30613330318061,9.57117608793948,-1.28704603283762,-0.019547688,0.0125227375,0.00030543262,116.57608,-111.40923,-21.053816,STD
21107628580000,2.900059,2.30199567773575,9.55876338442362,-1.29532137013668,-0.02321288,0.01282817,-0.00030543262,116.95587,-111.338326,-21.0015,STD
21107633599000,2.905078,2.29811814689032,9.54933840585296,-1.30118438426838,-0.023518313,0.009468411,0.0033597588,117.35239,-111.28106,-20.963636,STD
21107638549000,2.910028,2.29586236958839,9.55836146795146,-1.29216125150607,-0.027183503,0.014660766,0.009162978,117.74872,-111.22214,-20.923851,STD
21107643570000,2.915049,2.29357423669284,9.56751395174875,-1.28300869603141,-0.037873644,0.008857546,-0.0021380284,118.14813,-111.16686,-20.887424,STD
21107648558000,2.920037,2.29130114231263,9.57660628179872,-1.27391629477516,-0.025961773,0.009162978,0.0012217305,118.54697,-111.10583,-20.84368,STD
21107654339000,2.925818,2.29033688384915,9.58564389455152,-1.26635877384173,-0.030543262,0.0125227375,0.003970624,118.948845,-111.04608,-20.802011,STD
21107658510000,2.929989,2.30514227194218,9.57824106523351,-1.28856683665678,-0.038789943,0.009773844,0.005192355,119.355,-110.98532,-20.758562,STD
21107663518000,2.934997,2.32291867653818,9.5693527005189,-1.31523142034841,-0.027183503,0.010079277,0.004886922,119.7554,-110.9067,-20.695276,STD
21107668549000,2.940028,2.33055683247113,9.57062286789838,-1.31651020443418,-0.023823744,0.006414085,0.00061086525,120.16025,-110.8278,-20.632015,STD
21107673502000,2.944981,2.33493876186605,9.5750048430485,-1.3099373789746,-0.020463986,0.013744468,0.0067195175,120.56423,-110.746086,-20.564856,STD
21107678540000,2.950019,2.33939589093764,9.57946201866051,-1.30325175517783,-0.024129177,0.010079277,0.006414085,120.97137,-110.667145,-20.499676,STD
21107683536000,2.955015,2.34381586252194,9.58388203639723,-1.29662186703002,-0.022602014,0.0067195175,0.007330383,121.3787,-110.58596,-20.431433,STD
21107688499000,2.959978,2.34411522884843,9.58858661714963,-1.29066638285037,-0.0125227375,0.016187929,0.008246681,121.79382,-110.51246,-20.370531,STD
21107693499000,2.964978,2.33895698259183,9.59374497113002,-1.28550802886998,-0.017104227,0.020463986,0.017104227,122.21405,-110.43524,-20.305975,STD
21107698517000,2.969996,2.33222405863599,9.59144408693509,-1.28509878409203,-0.017715093,0.014660766,0.019547688,122.64251,-110.358955,-20.241932,STD
21107703526000,2.975005,2.3243406581857,9.5835607358751,-1.28825215744289,-0.028099801,0.0125227375,0.021685716,123.07101,-110.27913,-20.17415,STD
21107708535000,2.980014,2.31645725773542,9.57567738481512,-1.29140553079376,-0.026267206,0.006414085,0.021380283,123.50354,-110.20105,-20.10778,STD
21107713550000,2.985029,2.30856441420214,9.56778459073131,-1.29456268139359,-0.02443461,0.01038471,0.018020526,123.93595,-110.12233,-20.040327,STD
21107718556000,2.990035,2.30068573529334,9.55990596118324,-1.29771416611997,-0.016187929,0.0125227375,0.021380283,124.373116,-110.041336,-19.969805,STD
21107723857000,2.995336,2.29234277147083,9.55156304963024,-1.30105136558751,-0.027488936,-0.0067195175,0.013439035,124.81772,-109.96347,-19.902287,STD
21107728520000,2.999999,2.28419354606663,9.55274000785679,-1.29311946778717,-0.023518313,-0.0033597588,0.0061086523,125.257095,-109.884384,-19.832129,STD
21107734304000,3.005783,2.27317570196917,9.56375750681253,-1.27108372206862,-0.027488936,0.0012217305,0.0125227375,125.70424,-109.80251,-19.758999,STD
21107738489000,3.009968,2.27175784046689,9.55901116686348,-1.27030267849033,-0.03726278,-0.0033597588,0.0067195175,126.14739,-109.72705,-19.691326,STD
21107743529000,3.015008,2.27614221470615,9.54147394459079,-1.28345570964665,-0.036957346,0.0015271631,0.0021380284,126.58855,-109.64882,-19.61997,STD
21107748519000,3.019998,2.28216397283615,9.53757499379423,-1.28998499704954,-0.041233405,-0.0018325958,-0.00061086525,127.03672,-109.56879,-19.5465,STD
21107753512000,3.024991,2.29257588633642,9.5688110060969,-1.27957297482852,-0.03726278,-0.010995574,0.004581489,127.48728,-109.48722,-19.470564,STD
21107758545000,3.030024,2.30608445364117,9.58847058872706,-1.2792796213376,-0.047647487,-0.009773844,-0.004581489,127.927795,-109.40407,-19.392216,STD
21107763555000,3.035034,2.32331974039579,9.59317104264908,-1.29181435600549,-0.04642576,0.0033597588,-0.0067195175,128.36966,-109.31705,-19.30907,STD
21107768470000,3.039949,2.34022821033571,9.5977823662073,-1.30411140608386,-0.047647487,-0.0015271631,-0.0009162979,128.82323,-109.227646,-19.222973,STD
21107773583000,3.045062,2.35781783532101,9.60257945620796,-1.31690384088564,-0.04153884,-0.0015271631,0.003970624,129.27333,-109.13866,-19.13635,STD
21107778447000,3.049926,2.37455085623408,9.60714293083404,-1.32907329186859,-0.047647487,-0.007941248,0.0030543262,129.72604,-109.046455,-19.045732,STD
21107783555000,3.055034,2.3921232803344,9.61193532976292,-1.34185321695513,-0.040011674,-0.003970624,0.004886922,130.17763,-108.95172,-18.951675,STD
21107788469000,3.059948,2.40522326160538,9.60933538374852,-1.34310649197311,-0.0290161,0.0018325958,0.012217305,130.63257,-71.14478,-18.855036,STD
21107793563000,3.065042,2.41004574274417,9.5900455599051,-1.31899408627916,-0.034513887,0.00061086525,0.01985312,131.09036,-71.2423,-18.756527,STD
21107798488000,3.069967,2.41401495488457,9.57746657554581,-1.30046710779797,-0.030848695,0.0015271631,0.010079277,131.55089,-71.34055,-18.65658,STD
21107803543000,3.075022,2.41634808990313,9.57979978365223,-1.29346760529182,-0.022296581,0.0076358155,0.014660766,132.01212,-71.44548,-18.549194,STD
21107808548000,3.080027,2.41865814742397,9.582109913538,-1.28653733624271,-0.016187929,0.0070249503,0.014966198,132.47885,-71.54701,-18.444223,STD
21107813540000,3.085019,2.42096220479541,9.58441404308642,-1.27962506789243,-0.021685716,0.003970624,0.0143553335,132.94633,-71.64989,-18.337015,STD
21107818579000,3.090058,2.42221440601672,9.58710171646579,-1.2694090911353,-0.014660766,0.010079277,0.008246681,133.42677,-71.74152,-18.240276,STD
21107823583000,3.095062,2.41755637658437,9.59175989181571,-1.24146062270607,-0.018020526,0.012217305,0.016187929,133.91096,-71.83754,-18.138027,STD
21107828537000,3.100016,2.41166689673163,9.59638309055472,-1.21752087745127,-0.026572637,0.018325957,0.011301007,134.40645,-71.92159,-18.046453,STD
21107833543000,3.105022,2.39249989591204,9.60117444047976,-1.23189612806597,-0.02443461,0.014966198,0.01038471,134.90565,-72.01006,-17.949528,STD
21107838530000,3.110009,2.37465067245283,9.60513950566038,-1.24339478981132,-0.020158553,0.022602014,0.00580322,135.40688,-72.09564,-17.854008,STD
21107843577000,3.115056,2.36997393228834,9.60046315616836,-1.22468782915336,-0.021991149,0.021380283,0.0030543262,135.91318,-72.18225,-17.756165,STD
21107848820000,3.120299,2.36514134334949,9.5946407458266,-1.20700775665051,-0.021991149,0.022602014,0.011301007,136.40053,-72.28244,-17.644938,STD
21107853547000,3.125026,2.36107838036259,9.57838855447855,-1.21107071963741,-0.035124753,0.023823744,0.016187929,136.88979,-72.381004,-17.533966,STD
21107858530000,3.130009,2.35679537960869,9.56125619368157,-1.21535372039131,-0.03145956,0.03023783,0.0076358155,137.38194,-72.47745,-17.424248,STD
21107863552000,3.135031,2.34460353930973,9.56141674584652,-1.22001816724684,-0.02107485,0.016798794,0.0033597588,137.881,-72.576775,-17.310259,STD
21107868450000,3.139929,2.33068717915348,9.56605560522152,-1.22465692974684,-0.025045475,0.014966198,0.0012217305,138.37602,-72.67441,-17.19677,STD
21107873694000,3.145173,2.31578775231408,9.57102215862342,-1.22962337943038,-0.02107485,0.028405234,0.002443461,138.85811,-72.78286,-17.073132,STD
21107878455000,3.149934,2.30226064110463,9.57553126631725,-1.23413239295886,-0.032375857,0.029626964,0.0027488936,139.34581,-72.890015,-16.948996,STD
21107883549000,3.155028,2.30206183868554,9.58043541445905,-1.23903643868554,-0.024129177,0.030543262,0.0070249503,139.81705,-73.008965,-16.813519,STD
21107888471000,3.15995,2.30682796705763,9.58520164236603,-1.24380256705763,-0.027488936,0.024129177,0.0009162979,140.29166,-73.124016,-16.680056,STD
21107893556000,3.165035,2.30451037044358,9.59163382124279,-1.23798504088717,-0.023518313,0.029932396,0.017104227,140.76152,-73.23977,-16.545763,STD
21107898453000,3.169932,2.30007477131372,9.5982871273054,-1.22911384262745,-0.024740042,0.023823744,0.011911872,141.23862,-73.34741,-16.418114,STD
21107903545000,3.175024,2.29546254530408,9.60520536999906,-1.21988939060815,-0.020158553,0.022602014,0.0125227375,141.73294,-73.44872,-16.295633,STD
21107909115000,3.180594,2.29041735699423,9.61277304710111,-1.20979901398846,-0.02443461,0.027183503,0.011301007,142.2286,-73.54803,-16.173704,STD
21107913536000,3.185015,2.30224306839706,9.60975965392187,-1.21738672762408,-0.019547688,0.019242255,0.01160644,142.72945,-73.64911,-16.04951,STD
21107918608000,3.190087,2.32740825020205,9.59969395958968,-1.23751874693814,-0.023518313,0.02687807,0.014049901,143.22533,-73.75019,-15.923936,STD
21107923569000,3.195048,2.32490488082261,9.5939882757064,-1.24597124154824,-0.019547688,0.02443461,0.015882496,143.72903,-73.851845,-15.7966385,STD
21107928558000,3.200037,2.30573267349273,9.59079284664772,-1.24756892271192,-0.03176499,0.018325957,0.013744468,144.23254,-73.95224,-15.668458,STD
21107933521000,3.205,2.28666038145461,9.58761407045645,-1.24915827761578,-0.022907447,0.017715093,0.016187929,144.73584,-74.05873,-15.534916,STD
21107938551000,3.21003,2.26733061539542,9.58439238110684,-1.25076908865073,-0.026267206,0.022296581,0.015577064,145.24043,-74.16256,-15.4015,STD
21107943642000,3.215121,2.24776643269019,9.5811316215683,-1.25239943437218,-0.0290161,0.021380283,0.013744468,145.75395,-74.26652,-15.268131,STD
21107948553000,3.220032,2.22889397123558,9.57798615111185,-1.2539721367564,-0.025350908,0.01863139,0.007941248,146.26755,-74.36982,-15.134724,STD
21107953520000,3.224999,2.2248105146283,9.57979837709832,-1.2575530146283,-0.018020526,0.014966198,0.01038471,146.78227,-74.4754,-14.998049,STD
21107958631000,3.23011,2.22970130447642,9.58468926908473,-1.26244380447642,-0.02321288,0.011301007,0.016798794,147.29858,-74.58024,-14.860419,STD
21107963556000,3.235035,2.23872665411125,9.58785016144064,-1.2641385,-0.018936822,0.021685716,0.014049901,147.79547,-74.68364,-14.727112,STD
21107968596000,3.240075,2.25044082555092,9.59019304465586,-1.2641385,-0.02076942,0.013744468,0.01038471,148.29959,-74.788,-14.590581,STD
21107973567000,3.245046,2.2619946244054,9.59250385268421,-1.2641385,-0.02443461,0.017715093,0.008857546,148.79002,-74.899086,-14.447907,STD
21107979256000,3.250735,2.27521722784196,9.59514842859917,-1.2641385,-0.016798794,0.02076942,0.01160644,149.28392,-75.01124,-14.303893,STD
21107983547000,3.255026,2.28169722561787,9.59354369866005,-1.25930399828288,-0.0290161,0.015577064,0.014660766,149.77988,-75.12116,-14.159158,STD
21107988551000,3.26003,2.28645373249628,9.58878704277916,-1.24979088519107,-0.024129177,0.0018325958,0.016493361,150.2782,-75.23369,-14.012925,STD
21107993552000,3.265031,2.29366405337461,9.59119120278088,-1.23537019325079,-0.020158553,0.0018325958,0.016187929,150.77881,-75.34867,-13.861942,STD
21107998552000,3.270031,2.3033837326601,9.60091057759058,-1.21593083467979,-0.026572637,-0.005192355,0.01740966,151.28604,-75.46405,-13.708568,STD
21108003543000,3.275022,2.30677193704437,9.60925216645206,-1.21286951477813,-0.025045475,0.009162978,0.016798794,151.79094,-75.57887,-13.555536,STD
21108008650000,3.280129,2.30434975412044,9.61651886697702,-1.22498042939778,-0.026267206,0.008246681,0.015882496,152.3028,-75.69308,-13.400727,STD
21108013532000,3.285011,2.30203428573693,9.62346541719493,-1.23655777131537,-0.020463986,0.013133603,0.008246681,152.82877,-75.78833,-13.257961,STD
21108018612000,3.290091,2.29962490855784,9.63069369968304,-1.24860465721078,-0.018020526,0.011301007,0.014660766,153.35667,-75.88705,-13.109737,STD
21108023538000,3.295017,2.30302595037743,9.63197172685737,-1.23389567330155,-0.029321533,0.002443461,0.011911872,153.88567,-75.98081,-12.964737,STD
21108028559000,3.300038,2.31257801887167,9.6271955928685,-1.19091136507747,-0.028099801,0.0070249503,0.010079277,154.41106,-76.07846,-12.81652,STD
21108033550000,3.305029,2.31539594005434,9.62249979429459,-1.17056165994566,-0.018020526,0.00580322,0.0076358155,154.95468,-76.1637,-12.678322,STD
21108038541000,3.31002,2.31075807776053,9.61786183514458,-1.17519952223947,-0.025045475,0.007330383,0.006414085,155.4959,-76.24775,-12.538636,STD
21108043523000,3.315002,2.30703943541927,9.61025967709637,-1.17600556070088,-0.020463986,-0.004886922,0.0036651916,156.06041,-76.32666,-12.401519,STD
21108048460000,3.319939,2.3046724435995,9.5984247179975,-1.17127155234543,-0.01863139,-0.004886922,0.008246681,156.337164114286,-76.3662153924812,-12.3316145445614,STD
21108053498000,3.324977,2.30225702841051,9.58634764205257,-1.16644069674593,-0.027488936,-0.003970624,0.0106901415,156.61958,-76.40658,-12.26028,STD
21108058601000,3.33008,2.29981044966708,9.57411474833542,-1.16154751371214,-0.023518313,-0.0106901415,0.008857546,157.1818,-76.48662,-12.120166,STD
21108063447000,3.334926,2.30185669659574,9.5638069106383,-1.16564001106383,-0.022907447,-0.01160644,0.0067195175,157.72446,-76.57576,-11.968685,STD
21108068613000,3.340092,2.31081527492078,9.55484861294703,-1.18355721448619,-0.031154128,-0.005192355,0.014966198,158.26619,-76.66683,-11.813299,STD
21108073510000,3.344989,2.31670737172886,9.54983640142606,-1.20061981308454,-0.032070424,-0.004276057,0.0106901415,158.81055,-76.752884,-11.662273,STD
21108078554000,3.350033,2.31223423725345,9.55878239012872,-1.2185123509862,-0.020158553,0.00061086525,0.0070249503,159.351,-76.84223,-11.507619,STD
21108083680000,3.355159,2.30940239355291,9.56688197206928,-1.23575612066273,-0.015577064,-0.01038471,0.004276057,159.91852,-76.91702,-11.363272,STD
21108088551000,3.36003,2.32808252494744,9.56221187826609,-1.24042611693863,-0.023518313,-0.0027488936,0.0036651916,160.47812,-76.99235,-11.218076,STD
21108093678000,3.365157,2.34687665197967,9.55787654546025,-1.24375542447763,-0.014660766,-0.005497787,0.003970624,161.0376,-77.074455,-11.070156,STD
21108098552000,3.370031,2.35419881474556,9.56080547173245,-1.22764665110121,-0.016493361,-0.00030543262,0.0076358155,161.59137,-77.15545,-10.920124,STD
21108103486000,3.374965,2.36161111492753,9.56377045372404,-1.21133957522118,-0.014966198,-0.0018325958,0.0021380284,162.16037,-77.23201,-10.773022,STD
21108108601000,3.38008,2.36929532964799,9.56684420380247,-1.19443428678861,-0.023518313,0.00061086525,0.0027488936,162.72505,-77.310135,-10.621526,STD
21108113446000,3.384925,2.37657392599611,9.56975570314363,-1.17842135962226,-0.023518313,-0.005192355,-0.0021380284,163.29156,-77.38813,-10.470932,STD
21108118636000,3.390115,2.38437081248667,9.57287452287131,-1.16126819306017,-0.021685716,0.0015271631,0.0018325958,163.85199,-77.468285,-10.316354,STD
21108123508000,3.394987,2.39168997067202,9.57580224728619,-1.14516602976721,-0.03176499,-0.0067195175,0.004276057,164.41718,-77.545845,-10.16108,STD
21108128519000,3.399998,2.4038800154661,9.58003315042373,-1.14931828283898,-0.021685716,-0.009773844,0.005192355,164.97736,-77.6284,-10.003867,STD
21108133475000,3.404954,2.4182451654661,9.58482165042373,-1.16368353283898,-0.028405234,-0.007941248,0.009162978,165.53677,-77.7085,-9.843361,STD
21108138497000,3.409976,2.41624754736842,9.57802828739815,-1.17672621260186,-0.019242255,-0.0070249503,0.014966198,166.12073,-77.7708,-9.684419,STD
21108143516000,3.414995,2.40639445789474,9.5657118934044,-1.1890426065956,-0.028099801,-0.0018325958,0.016187929,166.7008,-77.82964,-9.523949,STD
21108148513000,3.419992,2.39658455789474,9.55344948639369,-1.20130501360631,-0.020463986,-0.0018325958,0.017104227,166.991339714742,-77.8596190095751,-9.44267772421703,STD
21108153542000,3.425021,2.38671183684211,9.54110855286219,-1.21364594713781,-0.023518313,0.003970624,0.015271631,167.28374,-77.88979,-9.360886,STD
21108158565000,3.430044,2.37759420133482,9.55959246941046,-1.21273910066741,-0.027794369,-0.00061086525,0.0143553335,167.86594,-77.94792,-9.195469,STD
21108163539000,3.435018,2.36876309210234,9.58608588932147,-1.20832354605117,-0.01863139,0.0015271631,0.012217305,168.44244,-78.00972,-9.029451,STD
21108168512000,3.439991,2.36239249063547,9.5913425395042,-1.20359879063547,-0.018936822,0.0033597588,0.016493361,169.00877,-78.07361,-8.862513,STD
21108173552000,3.445031,2.35741727319487,9.58387955749111,-1.19862357319487,-0.01160644,0.0009162979,0.011911872,169.57422,-78.13906,-8.697104,STD
21108178521000,3.45,2.35251214314281,9.57652170875638,-1.19371844314281,-0.018020526,0.00061086525,0.015882496,170.13254,-78.20653,-8.526565,STD
21108183514000,3.454993,2.34758332157914,9.56912832201206,-1.18878962157914,-0.014966198,0.0012217305,0.01038471,170.68997,-78.27486,-8.358707,STD
21108188495000,3.459974,2.34976209588721,9.53967577676227,-1.18063550822557,-0.01985312,-0.0021380284,0.020463986,171.24593,-78.34475,-8.183985,STD
21108193528000,3.465007,2.35444853578999,9.50218445328148,-1.17126262842003,-0.017715093,0.005192355,0.01160644,171.79774,-78.412125,-8.015551,STD
21108198510000,3.469989,2.34609384120573,9.50041655411858,-1.18143808742539,-0.013744468,0.005192355,0.011911872,172.069011099518,-78.4525962530096,-7.92652194028892,STD
21108203496000,3.474975,2.33184286910068,9.51466722861122,-1.20043925129327,-0.0143553335,-0.0015271631,0.012217305,172.3405,-78.4931,-7.8374214,STD
21108208525000,3.480004,2.32556399779343,9.53214598423878,-1.21947756729055,-0.016187929,-0.00030543262,0.016798794,172.87738,-78.5724,-7.6606545,STD
21108213518000,3.484997,2.32320880586613,9.55098747047235,-1.23831888137714,-0.018936822,0.004581489,0.012217305,173.42384,-78.64091,-7.4891586,STD
21108218508000,3.489987,2.32085502903512,9.56981763596513,-1.25714887482638,-0.00580322,0.004886922,0.011301007,173.9509,-78.722244,-7.310668,STD
21108223524000,3.495003,2.31848898803625,9.58874591454465,-1.27607698046594,-0.003970624,0.0061086523,0.01038471,174.47491,-78.79946,-7.1332607,STD
21108228515000,3.499994,2.30751003792413,9.59308177498413,-1.27321493792413,-0.008246681,0.009468411,0.01038471,174.99295,-78.88446,-6.9542484,STD
21108234145000,3.505624,2.28908397118586,9.58781706668945,-1.25478887118586,-0.00580322,0.01038471,0.01038471,175.50981,-78.97074,-6.7751718,STD
21108238483000,3.509962,2.27488640857296,9.58376052946346,-1.24059130857296,-0.014660766,0.009162978,0.017104227,176.01752,-79.0626,-6.5928144,STD
21108243525000,3.515004,2.25838476940878,9.5790456699214,-1.22408966940878,-0.0076358155,0.008246681,0.012217305,176.52405,-79.15587,-6.413737,STD
21108248555000,3.520034,2.25550447029613,9.57804574344317,-1.21439642363895,-0.0033597588,0.0036651916,0.006414085,177.03032,-79.24675,-6.2328124,STD
21108253546000,3.525025,2.26488601720356,9.58039117915062,-1.21087834354866,-0.007330383,0.006414085,0.009468411,177.5332,-79.33717,-6.051065,STD
21108258557000,3.530036,2.27430515796757,9.58274601351849,-1.20734616576216,-0.017715093,0.004276057,0.01740966,178.02814,-79.4245,-5.873251,STD
21108263550000,3.535029,2.28369046426065,9.58509238909198,-1.20382667590225,-0.015271631,-0.002443461,0.016187929,178.52252,-79.51208,-5.697225,STD
21108268461000,3.53994,2.2929216357418,9.58740023015776,-1.20036498659683,-0.020463986,0.0030543262,0.013133603,179.01237,-79.59541,-5.5201216,STD
21108273585000,3.545064,2.30255318179543,9.58980816695699,-1.19675315682671,-0.016798794,-0.0036651916,0.007330383,179.50636,-79.679955,-5.343531,STD
21108278442000,3.549921,2.31168284986383,9.59209063163964,-1.19332953130106,-0.021685716,-0.002443461,0.005192355,179.98581,-79.76259,-5.1636505,STD
21108283550000,3.555029,2.32128432083221,9.59449104951054,-1.18972897968792,-0.02107485,-0.0030543262,0.005192355,180.46657,-79.84575,-4.9848204,STD
21108288465000,3.559944,2.33047776131281,9.59761772494917,-1.1891809633556,-0.029932396,-0.0027488936,0.007941248,180.94537,-79.92423,-4.806306,STD
21108293561000,3.56504,2.33992763688644,9.60234221870462,-1.1939058518056,-0.035430185,-0.009468411,0.0143553335,181.4248,-80.00296,-4.6268363,STD
21108298446000,3.569925,2.34898221397844,9.60353871733772,-1.20109752096766,-0.02076942,0.00030543262,0.008857546,181.90698,-80.086426,-4.4454784,STD
21108304222000,3.575701,2.35967690135821,9.59551781347576,-1.21713955203731,-0.023518313,-0.0009162979,0.015577064,182.39163,-80.16505,-4.2586536,STD
21108308565000,3.580044,2.36771828419933,9.58948686031224,-1.229201626299,-0.02076942,-0.002443461,0.015577064,182.86353,-80.259766,-4.0720434,STD
21108313539000,3.585018,2.37692800979264,9.58257966228431,-1.24301621468897,-0.021991149,-0.009162978,0.004581489,183.33583,-80.35032,-3.8872664,STD
21108318504000,3.589983,2.38273923346493,9.57718416118341,-1.25380739338597,-0.019547688,-0.0106901415,0.005192355,183.81062,-80.43946,-3.7024713,STD
21108323583000,3.595062,2.370885510406,9.57955495530536,-1.2490659041624,-0.018325957,-0.0030543262,0.007330383,184.2834,-80.52505,-3.5212529,STD
21108328726000,3.600205,2.35888241970074,9.58195562358045,-1.24426466788029,-0.021991149,0.00580322,0.01038471,184.76855,-80.605225,-3.341029,STD
21108333450000,3.604929,2.34785722030511,9.58416070950919,-1.23985458812205,-0.024129177,0.0009162979,0.005192355,185.25371,-80.68383,-3.162917,STD
21108338658000,3.610137,2.33810677587865,9.58547346373251,-1.23495284137378,-0.016187929,0.01160644,0.00580322,185.73198,-80.76112,-2.984665,STD
21108343558000,3.615037,2.35314565634013,9.57544733404551,-1.22993988121996,-0.016493361,-0.0012217305,0.011911872,186.21608,-80.834015,-2.8056471,STD
21108348529000,3.620008,2.36636734866771,9.56543815879702,-1.22762319733542,-0.021380283,-0.0018325958,0.005192355,186.68582,-80.90468,-2.6352139,STD
21108353541000,3.62502,2.37106943738245,9.55603427596003,-1.23702737476489,-0.01282817,0.0021380284,0.0027488936,187.15536,-80.97821,-2.4621449,STD
21108358588000,3.630067,2.37427907875648,9.55269166321243,-1.24113929378238,-0.010995574,0.00030543262,0.0015271631,187.6295,-81.044464,-2.2891686,STD
21108363554000,3.635033,2.36954029948187,9.58112394300518,-1.21744539740933,-0.013133603,-0.0030543262,0.0018325958,188.10072,-81.110245,-2.1172125,STD
21108368471000,3.63995,2.36258525934096,9.60611423657006,-1.19536922645376,-0.013744468,-0.0033597588,0.005192355,188.5702,-81.17646,-1.9447246,STD
21108374036000,3.645515,2.33798897638915,9.61103356507292,-1.18061154914159,-0.013439035,-0.0030543262,0.014660766,189.03792,-81.24094,-1.7709916,STD
21108378852000,3.650331,2.31777629300672,9.61454642789411,-1.16865428506519,-0.022296581,0.0015271631,0.011911872,189.50204,-81.29731,-1.6014758,STD
21108383518000,3.654997,2.32219016585342,9.60130497066377,-1.17527499063611,-0.029932396,-0.0061086523,0.0015271631,189.96715,-81.35246,-1.431813,STD
21108388468000,3.659947,2.32687269276966,9.58725756104307,-1.1822986709996,-0.024129177,-0.011301007,0.007330383,190.41867,-81.41692,-1.2648889,STD
21108393528000,3.665007,2.33165927583959,9.57289798676413,-1.18947843314895,-0.024740042,0.00061086525,0.009773844,190.86595,-81.47488,-1.1031921,STD
21108398514000,3.669993,2.33637585749704,9.55874841416436,-1.19655319482418,-0.024129177,-0.003970624,0.007941248,191.31718,-81.532906,-0.9411334,STD
21108403498000,3.674977,2.34918939607991,9.55350388126649,-1.22199769215982,-0.018020526,0.0012217305,0.0143553335,191.7597,-81.590645,-0.77798367,STD
21108408578000,3.680057,2.36294273494158,9.54891981794195,-1.24950436988315,-0.021685716,-0.004886922,0.015577064,192.20488,-81.64352,-0.6171814,STD
21108413518000,3.684997,2.37574948380068,9.5583549407037,-1.25113567206644,-0.020158553,-0.0009162979,0.016798794,192.64589,-81.69858,-0.45479327,STD
21108418442000,3.689921,2.38838285490266,9.57098813591713,-1.24692454836578,-0.01740966,-0.0009162979,0.015577064,192.864346309786,-81.7232714408645,-0.376029623255954,STD
21108423512000,3.694991,2.40013856849558,9.57087010752212,-1.24201651575221,-0.02443461,-0.00580322,0.009468411,193.08928,-81.748695,-0.29493058,STD
21108428544000,3.700023,2.41080017415929,9.56020827920354,-1.23668571292035,-0.011301007,0.002443461,0.010995574,193.52779,-81.8062,-0.13125372,STD
21108433511000,3.70499,2.4079894053434,9.56301910671898,-1.21931009735313,-0.022602014,0.004581489,0.01282817,193.96295,-81.85101,0.03596778,STD
21108438499000,3.709978,2.40087279238218,9.57013586830213,-1.19796023369916,-0.028099801,0.0070249503,0.015271631,194.39359,-81.89859,0.20214881,STD
21108443629000,3.715108,2.39355358137756,9.57745523215971,-1.17600257520981,-0.01282817,0.004581489,0.008857546,194.8262,-81.94444,0.36644942,STD
21108448552000,3.720031,2.38652970695734,9.58447925326514,-1.15493092750161,-0.015271631,0.0015271631,0.013133603,195.25563,-81.98101,0.5330715,STD
21108453520000,3.724999,2.38807663833333,9.58983571041667,-1.15957175104167,-0.021685716,-0.007330383,0.011301007,195.69142,-82.013115,0.69443643,STD
21108458573000,3.730052,2.39287738936508,9.59463656170635,-1.17397405426587,-0.01160644,-0.0012217305,0.01282817,196.12129,-82.046745,0.8562336,STD
21108463476000,3.734955,2.39091170883102,9.5893806802428,-1.18123739116898,-0.011911872,0.00580322,0.010995574,196.54878,-82.067665,1.0125113,STD
21108468486000,3.739965,2.38621425748972,9.57998558135892,-1.18593484251028,-0.018325957,0.0027488936,0.0076358155,196.97507,-82.08773,1.1676863,STD
21108473509000,3.744988,2.39737105366927,9.57362041171766,-1.18115105652869,-0.02107485,0.0018325958,0.008246681,197.4095,-82.10266,1.3196057,STD
21108478482000,3.749961,2.41641736523695,9.56885872195561,-1.17162787588482,-0.026572637,-0.0018325958,0.007941248,197.8432,-82.1136,1.4694328,STD
21108483485000,3.754964,2.41983125390273,9.56567953647774,-1.17457222457345,-0.025350908,0.004276057,0.008552114,198.2707,-82.125015,1.6175987,STD
21108488501000,3.75998,2.41512082264169,9.56332425936458,-1.18399313628162,-0.021380283,0.011911872,0.014049901,198.6961,-82.13382,1.766061,STD
21108493492000,3.764971,2.41043386841047,9.56098072107276,-1.19336709368504,-0.02565634,0.018936822,0.0143553335,199.11284,-82.13391,1.9196738,STD
21108498497000,3.769976,2.40573376704256,9.55863060904099,-1.20276734549912,-0.026267206,0.0125227375,0.014966198,199.5286,-82.13408,2.073799,STD
21108503421000,3.7749,2.40239652181994,9.55212471614279,-1.20944185636013,-0.027183503,0.019547688,0.005497787,199.9302,-82.13185,2.2258308,STD
21108508447000,3.779926,2.39995235400396,9.54234809592241,-1.21433019199208,-0.022296581,0.006414085,0.014966198,200.33652,-82.12772,2.3829038,STD
21108513431000,3.78491,2.39752861098868,9.53265317447824,-1.21917767802265,-0.014966198,0.015882496,0.013133603,200.72298,-82.12877,2.533388,STD
21108518433000,3.789912,2.39509611448738,9.52292323927284,-1.22404267102524,-0.025045475,0.009773844,0.012217305,201.11533,-82.12351,2.686321,STD
21108523470000,3.794949,2.39122429597511,9.5223235662065,-1.23476381207466,-0.027183503,0.008246681,0.018936822,201.51067,-82.120285,2.8348231,STD
21108528438000,3.799917,2.38659883006028,9.52694912871865,-1.24864020981917,-0.02443461,0.013744468,0.013133603,201.90404,-82.11534,2.9781263,STD
21108533783000,3.805262,2.36610679024683,9.53509584400919,-1.24838898490057,-0.025350908,0.018936822,0.019242255,202.29431,-82.106674,3.1249394,STD
21108538440000,3.809919,2.33936592115519,9.54400962216448,-1.23947539289497,-0.024129177,0.01863139,0.010079277,202.6832,-82.100044,3.2644296,STD
21108543459000,3.814938,2.32178289061256,9.54538640316474,-1.23271755935346,-0.018020526,0.01863139,0.0125227375,203.07425,-82.09156,3.4046545,STD
21108548435000,3.819914,2.31253050626153,9.54076013853024,-1.22809139133094,-0.025961773,0.015882496,0.011911872,203.46419,-82.079765,3.5403984,STD
21108553471000,3.82495,2.3080103,9.54213397183783,-1.22704264081088,-0.022907447,0.01863139,0.011301007,203.84305,-82.07309,3.6706336,STD
21108559208000,3.830687,2.3080103,9.55013707987376,-1.22971038063122,-0.017715093,0.014966198,0.009162978,204.2223,-82.06381,3.799512,STD
21108563501000,3.83498,2.3080103,9.55612580966254,-1.2317066516873,-0.0106901415,0.008552114,0.0076358155,204.5972,-82.05481,3.9256907,STD
21108568513000,3.839992,2.3080103,9.56311754357854,-1.23403726210731,-0.019242255,0.004581489,0.009773844,204.97012,-82.04166,4.051307,STD
21108573486000,3.844965,2.30989798396846,9.56911771353482,-1.2363519370565,-0.020158553,0.005192355,0.0067195175,205.34033,-82.02845,4.176015,STD
21108578519000,3.849998,2.314589694296,9.57380949734755,-1.23869777997275,-0.01282817,0.005497787,0.0067195175,205.525596683044,-82.0199060623684,4.23956993547578,STD
21108583459000,3.854938,2.31919471098944,9.5784145861683,-1.24100027629824,-0.017715093,0.01160644,0.009773844,205.70744,-82.01152,4.3019505,STD
21108588505000,3.859984,2.32389853978196,9.58311848863581,-1.24335217841534,-0.011911872,0.0033597588,0.008246681,206.07617,-81.99623,4.42512,STD
21108593517000,3.864996,2.32567996404806,9.59232005083179,-1.24646892045595,-0.013744468,0.004581489,0.008552114,206.44681,-81.97818,4.544517,STD
21108598517000,3.869996,2.32076268123845,9.61198887399877,-1.25138615192031,-0.023518313,-0.003970624,0.0015271631,206.82033,-81.960014,4.661081,STD
21108603466000,3.874945,2.32082777558528,9.62793169250443,-1.25618201241393,-0.013744468,-0.0021380284,0.0018325958,207.18968,-81.943214,4.7800694,STD
21108608560000,3.880039,2.33042545083612,9.63752941786347,-1.26098077487704,-0.018020526,-0.004886922,0.0125227375,207.56004,-81.91925,4.8995457,STD
21108613449000,3.884928,2.33820243185068,9.63653784074662,-1.26121563629865,-0.013439035,-0.0018325958,0.004276057,207.91388,-81.908066,5.0133386,STD
21108618519000,3.889998,2.34302316020651,9.61243419896743,-1.25157417958697,-0.015271631,-0.009773844,0.005192355,208.26868,-81.88954,5.1321034,STD
21108623495000,3.894974,2.34245138677414,9.59467218213395,-1.24627369095119,-0.017104227,-0.011301007,0.0027488936,208.61073,-81.87509,5.2498116,STD
21108629284000,3.900763,2.32763823908087,9.58973441467759,-1.25121135529035,-0.004276057,-0.004276057,0.004276057,208.95029,-81.86078,5.3676887,STD
21108633618000,3.905097,2.31797557251474,9.58521857028674,-1.25339629462484,-0.010079277,-0.0027488936,0.005192355,209.28261,-81.83982,5.4868484,STD
21108638503000,3.909982,2.32264968146668,9.57119609701269,-1.23937411418723,-0.022907447,-0.005497787,0.004581489,209.61209,-81.818375,5.604637,STD
21108643619000,3.915098,2.3261042975673,9.557653,-1.22636115029424,-0.009773844,-0.011911872,0.0015271631,209.93065,-81.80656,5.7185683,STD
21108648516000,3.919995,2.31306569753487,9.557653,-1.23288043896483,-0.01863139,-0.016187929,0.0015271631,210.087786248608,-81.7965592939569,5.77400353958903,STD
21108653498000,3.924977,2.29980077914369,9.557653,-1.23951288661786,-0.01863139,-0.016493361,-0.003970624,210.24765,-81.786385,5.830401,STD
21108658525000,3.930004,2.28641604515083,9.557653,-1.24620524196747,-0.021991149,-0.016493361,-0.0009162979,210.56403,-81.76445,5.9432635,STD
21108663529000,3.935008,2.27309255024327,9.557653,-1.25286697782772,-0.016493361,-0.018936822,-0.003970624,210.88069,-81.743286,6.051839,STD
21108668515000,3.939994,2.27939168461014,9.55603837359793,-1.24810265483402,-0.015882496,-0.01038471,-0.0012217305,211.19948,-81.72491,6.1547556,STD
21108673514000,3.944993,2.29243591689297,9.5538645202761,-1.23940651511285,-0.017715093,-0.016798794,-0.003970624,211.52116,-81.70727,6.2547674,STD
21108678512000,3.949991,2.30547753980746,9.55169110181191,-1.23071211496753,-0.012217305,-0.019547688,-0.0061086523,211.83177,-81.69421,6.3502054,STD
21108683511000,3.95499,2.31852177209028,9.54951724849008,-1.22201597524636,-0.014049901,-0.016493361,-0.00030543262,212.14027,-81.67658,6.44629,STD
21108688495000,3.959974,2.32879993959951,9.54725902165917,-1.21543653874132,-0.019547688,-0.019242255,-0.007330383,212.44168,-81.65998,6.540392,STD
21108693531000,3.96501,2.33372732705354,9.54479530220678,-1.21297287073968,-0.01282817,-0.02565634,-0.007941248,212.74107,-81.640816,6.636956,STD
21108699045000,3.970524,2.33912240537393,9.54209773487944,-1.21027535974663,-0.009468411,-0.017104227,-0.00580322,213.0374,-81.611275,6.7373347,STD
21108703492000,3.974971,2.34347349592358,9.53992216688803,-1.20809983718839,-0.008246681,-0.023518313,-0.002443461,213.3379,-81.58104,6.8372846,STD
21108708537000,3.980016,2.3524040616002,9.54052869031459,-1.20464894613327,-0.008857546,-0.022602014,-0.004276057,213.62698,-81.55163,6.9355497,STD
21108713521000,3.985,2.36659205403022,9.54525787297498,-1.19991961532326,-0.0106901415,-0.020463986,-0.0030543262,213.9156,-81.51939,7.0345635,STD
21108718510000,3.989989,2.38079428,9.5499918,-1.19518554,-0.005497787,-0.019242255,-0.004886922,214.20412,-81.48611,7.132537,STD
21108723521000,3.995,2.39505913354471,9.55474660222938,-1.19043058881843,-0.015882496,-0.022602014,0.005497787,214.49106,-81.4457,7.2332253,STD
21108728503000,3.999982,2.40550616901673,9.56283581528483,-1.18061380589397,-0.015882496,-0.018020526,-0.0030543262,214.77637,-81.413956,7.324505,STD
21108734383000,4.005862,2.41079960612897,9.57871645826283,-1.15944000217146,-0.008246681,-0.014049901,-0.0015271631,215.0603,-81.37571,7.420608,STD
21108738485000,4.009964,2.41464323774489,9.58895962169932,-1.14664109761499,-0.004581489,-0.016187929,0.0067195175,215.3388,-81.331116,7.521724,STD
21108743529000,4.015008,2.41978643139906,9.59924579418654,-1.13635460289608,-0.010079277,-0.013439035,-0.004581489,215.61327,-81.28992,7.6161847,STD
21108748488000,4.019967,2.42465612599424,9.60036504803074,-1.12833919200768,-0.0021380284,-0.016798794,-0.004276057,215.89339,-81.24739,7.711266,STD
