timestamp,rel_time,acc_x,acc_y,acc_z,gyro_x,gyro_y,gyro_z,azimuth,pitch,roll,label
596759118000,0,-3.24963136894591,9.30850888110692,-0.370843831105409,-0.03390302,0.032986723,0.009773844,293.1426,-117.49967,-22.835724,STD
596764141000,0.005023,-3.25447204984151,9.31577018045283,-0.344220071015849,-0.03176499,0.034513887,0.013133603,292.63715,-117.330185,-22.789911,STD
596769124000,0.010006,-3.25931231866789,9.32143151848457,-0.338386358667889,-0.032375857,0.038789943,0.009773844,292.17914,-117.16879,-22.751144,STD
596774135000,0.015017,-3.2641997150219,9.32631876173745,-0.343273755021896,-0.022907447,0.03940081,0.0143553335,291.74213,-117.01243,-22.710331,STD
596779157000,0.020039,-3.24931715643661,9.3212603257954,-0.42008477510328,-0.027488936,0.042760566,0.007941248,291.31158,-116.85474,-22.672249,STD
596784113000,0.024995,-3.22608533029858,9.31196740127264,-0.526951252965247,-0.022907447,0.05009095,0.011301007,290.8981,-116.701965,-22.630804,STD
596789130000,0.030012,-3.22981169512242,9.31165739314633,-0.453988091772701,-0.03481932,0.0421497,0.01160644,290.5034,-116.55589,-22.595827,STD
596794205000,0.035087,-3.24855172211297,9.31634274233661,-0.280642719809138,-0.028710667,0.05375614,0.010995574,290.1162,-116.41746,-22.558973,STD
596799141000,0.040023,-3.24466406611468,9.32109594380046,-0.253627784949286,-0.030543262,0.055588737,0.008857546,289.7633,-116.29472,-22.525412,STD
596804118000,0.045,-3.22493161585593,9.32602890183192,-0.327624530081764,-0.03604105,0.056505036,0.010995574,289.42084,-116.17514,-22.490452,STD
596809125000,0.050007,-3.18390660030075,9.32164615639098,-0.391324168631579,-0.037873644,0.04642576,0.015577064,289.07736,-116.033005,-22.449324,STD
596814114000,0.054996,-3.13121840899248,9.31206627609022,-0.448802280084211,-0.032070424,0.04520403,0.016493361,288.7427,-115.896164,-22.408827,STD
596819125000,0.060007,-3.12479670748482,9.31790699880561,-0.429176669915398,-0.04153884,0.042455133,0.01863139,288.43134,-115.766884,-22.367813,STD
596824117000,0.064999,-3.14383020428984,9.33218241952822,-0.367317765549915,-0.04428773,0.03573562,0.02443461,288.13223,-115.64203,-22.326525,STD
596829081000,0.069963,-3.14195264377745,9.34914270600293,-0.294802994881406,-0.042760566,0.033292156,0.020463986,287.83777,-115.52641,-22.285364,STD
596834147000,0.075029,-3.12774583918985,9.36808494729136,-0.214297994699854,-0.04550946,0.027794369,0.026267206,287.55704,-115.409424,-22.241356,STD
596839090000,0.079972,-3.12873999480269,9.37435384302214,-0.163196530838114,-0.05955936,0.016493361,0.031154128,287.2801,-115.288925,-22.199856,STD
596844100000,0.084982,-3.14028469355149,9.37204497560154,-0.130871350713956,-0.053450707,0.005497787,0.03848451,287.01392,-115.17194,-22.15688,STD
596849098000,0.08998,-3.15180174032724,9.36974163840231,-0.0986235961709336,-0.059253927,0.0015271631,0.04734206,286.74826,-115.041695,-22.110825,STD
596854100000,0.094982,-3.16332800442733,9.36743645779596,-0.0663500331008662,-0.064751714,0.00061086525,0.0421497,286.49237,-114.91764,-22.067677,STD
596859070000,0.099952,-3.17424961804543,9.36395427003858,-0.0543739301543078,-0.07238753,-0.02565634,0.04795292,286.254,-114.791084,-22.021297,STD
596864110000,0.104992,-3.18459409382769,9.35878222117445,-0.069890574697814,-0.06841691,-0.040317107,0.051923547,286.01892,-114.67052,-21.976772,STD
596869092000,0.109974,-3.20340474906871,9.34698887585777,-0.0885545246468229,-0.07391469,-0.05100725,0.05100725,285.79126,-114.54428,-21.932861,STD
596874077000,0.114959,-3.22893202734159,9.32997052744853,-0.109827309555476,-0.077579886,-0.06291912,0.058643065,285.5752,-114.41925,-21.887012,STD
596879095000,0.119977,-3.25968797772949,9.31494570966866,-0.131073766849538,-0.08155051,-0.076052725,0.06078109,285.36697,-114.302155,-21.845814,STD
596884108000,0.12499,-3.30141193099402,9.3045142584465,-0.15193570536013,-0.0870483,-0.08460484,0.058337633,285.16644,-114.18707,-21.804808,STD
596889092000,0.129974,-3.33623107279532,9.29689910901065,-0.184604190592074,-0.086437434,-0.10140363,0.064446285,284.9827,-114.07964,-21.766973,STD
596894109000,0.134991,-3.36389452482487,9.29228843738605,-0.230709977674887,-0.0983493,-0.10934488,0.058643065,284.8026,-113.97688,-21.73371,STD
596899694000,0.140576,-3.39468989647826,9.28715576825641,-0.282035634612801,-0.10323623,-0.116675265,0.060170226,284.64102,-113.88459,-21.707962,STD
596904094000,0.144976,-3.418951245677,9.28311212561175,-0.322471246166395,-0.10140363,-0.124005646,0.05467244,284.48492,-113.79772,-21.686413,STD
596909068000,0.14995,-3.43650557860404,9.27522100130463,-0.365318016320939,-0.10567969,-0.124311075,0.05589417,284.3329,-113.710045,-21.662754,STD
596914108000,0.15499,-3.43125801696021,9.25947853555121,-0.402050969745597,-0.10262536,-0.118507855,0.04428773,284.18356,-113.630714,-21.644444,STD
596919079000,0.159961,-3.42415281971638,9.2490230400978,-0.435135448148655,-0.10170906,-0.122783914,0.040011674,284.03738,-113.56691,-21.629827,STD
596924113000,0.164995,-3.41472306691443,9.24430822933985,-0.464996354996577,-0.10720685,-0.112399206,0.03573562,283.8879,-113.50749,-21.617622,STD
596929149000,0.170031,-3.40528956768704,9.23959154539527,-0.494869125534148,-0.10415252,-0.116675265,0.03268129,283.75116,-113.455055,-21.60794,STD
596934191000,0.175073,-3.39584482918337,9.23486924189079,-0.524777487140668,-0.09132435,-0.101098195,0.030848695,283.6084,-113.40523,-21.597715,STD
596939034000,0.179916,-3.38677286000978,9.2303333204564,-0.553505411627058,-0.089186326,-0.07452556,0.0290161,283.46655,-113.35665,-21.588034,STD
596944113000,0.184995,-3.3772588126357,9.22557636299918,-0.583633251492095,-0.079107046,-0.063224554,0.02107485,283.32745,-113.31354,-21.580574,STD
596949040000,0.189922,-3.37573127461562,9.2208998757764,-0.60490393153854,-0.0729984,-0.04734206,0.01740966,283.18228,-113.2706,-21.571022,STD
596954096000,0.194978,-3.39052212100601,9.21596949068323,-0.609834213668669,-0.07574729,-0.036957346,0.010995574,283.03815,-113.23151,-21.564177,STD
596959038000,0.19992,-3.38700096964844,9.21589161129933,-0.614417452706472,-0.0571159,-0.017715093,0.009162978,282.88947,-113.209015,-21.56212,STD
596964109000,0.204991,-3.35067465241343,9.2244389249351,-0.618691129605755,-0.045814894,-0.009162978,0.010079277,282.74423,-113.18648,-21.56062,STD
596969473000,0.210355,-3.31224941761781,9.23348009834118,-0.623211737550491,-0.031154128,-0.0067195175,0.004276057,282.5995,-113.177216,-21.570162,STD
596974136000,0.215018,-3.2788458251771,9.2413397164606,-0.627141565075901,-0.02107485,-0.01038471,0.0012217305,282.45786,-113.167244,-21.577747,STD
596979099000,0.219981,-3.24329317038764,9.24970499304792,-0.631324223023276,-0.018020526,-0.0070249503,0.0012217305,282.3167,-113.158295,-21.58487,STD
596984098000,0.22498,-3.22840747314162,9.2469183472599,-0.606409836028215,-0.002443461,0.009162978,0.004886922,282.17627,-113.15094,-21.590605,STD
596989457000,0.230339,-3.21719582534989,9.24198471244826,-0.57228593479795,0.00061086525,0.013744468,-0.007330383,282.04095,-113.14637,-21.600407,STD
596994153000,0.235035,-3.20611445022669,9.24863367637493,-0.530176681559235,-0.00030543262,0.015882496,-0.007330383,281.90387,-113.1299,-21.595543,STD
596999071000,0.239953,-3.19450921111768,9.25559696525724,-0.48607674386162,0.002443461,0.02443461,0.0033597588,281.76413,-113.11091,-21.588825,STD
597004094000,0.244976,-3.18265619850187,9.26270892134831,-0.441035266217228,0.0030543262,0.026572637,-0.0067195175,281.6281,-113.09689,-21.587692,STD
597009053000,0.249935,-3.17095420973783,9.26973026123595,-0.396567679588015,0.0015271631,0.028710667,-0.0070249503,281.4937,-113.077286,-21.580086,STD
597014101000,0.254983,-3.16548231579847,9.27923018292438,-0.334919545478681,0.0030543262,0.03604105,-0.008857546,281.3747,-113.05013,-21.565216,STD
597019073000,0.259955,-3.16069396579847,9.28880668292438,-0.272670305478681,-0.00061086525,0.0421497,-0.0012217305,281.25842,-113.01988,-21.54755,STD
597024095000,0.264977,-3.16418439103181,9.30485484505589,-0.218254855503009,-0.010995574,0.058643065,-0.0018325958,281.13043,-112.98166,-21.527964,STD
597029097000,0.269979,-3.16830327782459,9.3213309083405,-0.164708725064488,-0.011911872,0.06383542,-0.0009162979,281.00696,-112.9419,-21.50599,STD
597034097000,0.274979,-3.17564308390114,9.3335301734935,-0.140792072981489,-0.01985312,0.06719518,-0.0018325958,280.88275,-112.89293,-21.480572,STD
597039486000,0.280368,-3.18580646410004,9.34369371287909,-0.135710409413155,-0.018325957,0.071776666,0.003970624,280.75928,-112.84358,-21.453106,STD
597044123000,0.285005,-3.19818294095425,9.36214112108309,-0.14621700320559,-0.019547688,0.07238753,0.0076358155,280.63055,-112.78761,-21.423187,STD
597049093000,0.289975,-3.21377302622557,9.38812468697456,-0.167003866771482,-0.03359759,0.07391469,0.018936822,280.50305,-112.72792,-21.38961,STD
597054091000,0.294973,-3.22819539322034,9.41908736723164,-0.151605719096045,-0.025045475,0.076052725,0.010995574,280.37634,-112.67556,-21.361326,STD
597059101000,0.299983,-3.24221636575102,9.45180267699201,-0.123563754513929,-0.01985312,0.07696902,0.018020526,280.25278,-112.61556,-21.326094,STD
597064109000,0.304991,-3.24986211789938,9.45689799258368,-0.121571121006214,-0.023518313,0.07360926,0.016493361,280.13263,-112.56265,-21.296701,STD
597069097000,0.309979,-3.25464955810784,9.44971693225095,-0.131146008921628,-0.029932396,0.057421334,0.021991149,280.01877,-112.507164,-21.264284,STD
597074105000,0.314987,-3.25945619414712,9.44250707857286,-0.140759288528763,-0.025961773,0.05131268,0.028099801,279.9023,-112.451324,-21.23221,STD
597079092000,0.319974,-3.26424267456404,9.4353274579074,-0.150332256859591,-0.019547688,0.04520403,0.024129177,279.79245,-112.397766,-21.20286,STD
597084095000,0.324977,-3.26403548153572,9.433155,-0.164817546164655,-0.023518313,0.04062254,0.02321288,279.6861,-112.34256,-21.171907,STD
597089101000,0.329983,-3.26166355095983,9.433155,-0.181421070102909,-0.031154128,0.033292156,0.023518313,279.58405,-112.28967,-21.14282,STD
597094105000,0.334987,-3.259292568019,9.433155,-0.198017960591728,-0.01863139,0.016187929,0.0290161,279.48993,-112.24124,-21.115433,STD
597099084000,0.339966,-3.25693343051652,9.433155,-0.214531932962596,-0.025961773,0.009468411,0.028405234,279.39618,-112.19311,-21.090174,STD
597104095000,0.344977,-3.24997052181392,9.42701135388976,-0.226410231393667,-0.027488936,-0.0033597588,0.029626964,279.3224,-112.14472,-21.064993,STD
597109087000,0.349969,-3.24062584128225,9.41766672214621,-0.235754916804144,-0.032986723,-0.016493361,0.027794369,279.25153,-112.097565,-21.04164,STD
597114102000,0.354984,-3.23123810633307,9.40827903620993,-0.245142656654613,-0.040927973,-0.017715093,0.026572637,279.17862,-112.05389,-21.01877,STD
597119096000,0.359978,-3.22188968193901,9.39893066062353,-0.254491085929437,-0.0421497,-0.025961773,0.03023783,279.11282,-112.01048,-20.996145,STD
597124064000,0.364946,-3.21530345784636,9.38733726897101,-0.281105902960323,-0.04337143,-0.034208454,0.026267206,279.04788,-111.969864,-20.976507,STD
597129123000,0.370005,-3.21075899435325,9.37370368867836,-0.32200653469562,-0.049785517,-0.026267206,0.026267206,278.9815,-111.92766,-20.954874,STD
597134095000,0.374977,-3.20167108399661,9.35081245718671,-0.353510665903895,-0.051618114,-0.024740042,0.02321288,278.93286,-111.88548,-20.933275,STD
597139085000,0.379967,-3.18649700524979,9.31540579810542,-0.373742781462743,-0.050396383,-0.027488936,0.022907447,278.8835,-111.84318,-20.91104,STD
597144071000,0.384953,-3.18843135871582,9.29780304877686,-0.395831517760631,-0.054367006,-0.03390302,0.01985312,278.8381,-111.80556,-20.891165,STD
597149110000,0.389992,-3.20519322853669,9.2954084423659,-0.419777104299112,-0.057726767,-0.032070424,0.026267206,278.79166,-111.76628,-20.86872,STD
597154086000,0.394968,-3.22174553340446,9.29304377447527,-0.44342331160522,-0.062002823,-0.020463986,0.01985312,278.7455,-111.732895,-20.850906,STD
597159103000,0.399985,-3.23843422181313,9.29065962278569,-0.467264353014936,-0.05955936,-0.032070424,0.018936822,278.70657,-111.6972,-20.830616,STD
597164100000,0.404982,-3.24164295642586,9.29194928567152,-0.4861820511365,-0.052534413,-0.023823744,0.014660766,278.64838,-111.67306,-20.819815,STD
597169096000,0.409978,-3.23209487360806,9.29672345170625,-0.500504245153662,-0.047036625,-0.010079277,0.011911872,278.59262,-111.649055,-20.808887,STD
597174064000,0.414946,-3.22954925502258,9.29258295754291,-0.498909224944896,-0.044898596,-0.0125227375,0.016187929,278.54382,-111.631,-20.801085,STD
597179121000,0.420003,-3.23392408536585,9.27945851219512,-0.481409711707317,-0.038789943,-0.005497787,0.0125227375,278.48837,-111.616615,-20.795424,STD
597184053000,0.424935,-3.23841073412842,9.2732491774039,-0.470713658671068,-0.043982297,-0.0030543262,0.0106901415,278.44183,-111.5992,-20.787416,STD
597189092000,0.429974,-3.24354943024172,9.28352624768395,-0.475852370881695,-0.03970624,0.004276057,0.01282817,278.3924,-111.58288,-20.778784,STD
597194116000,0.434998,-3.24300992163588,9.28421082849604,-0.468257850448549,-0.041233405,0.008552114,0.015577064,278.335,-111.56597,-20.769993,STD
597199105000,0.439987,-3.23460562862797,9.27160449868074,-0.443044817849604,-0.03481932,0.0143553335,0.015882496,278.2758,-111.55009,-20.760927,STD
597204061000,0.444943,-3.22872179871574,9.2611064825372,-0.419038169738449,-0.0421497,0.022296581,0.022296581,278.2161,-111.53099,-20.74924,STD
597209076000,0.449958,-3.23875103946228,9.26361385163143,-0.401486942142522,-0.034513887,0.025045475,0.024129177,278.15704,-111.51471,-20.73872,STD
597214048000,0.45493,-3.24869428671887,9.26609972184808,-0.384086203636648,-0.0421497,0.016187929,0.01863139,278.0896,-111.49966,-20.731543,STD
597219097000,0.459979,-3.25879152231793,9.26862409005481,-0.366415984667189,-0.031154128,0.016798794,0.01863139,278.01984,-111.48448,-20.721842,STD
597224811000,0.465693,-3.2735796211388,9.28612636583591,-0.350397545311988,-0.027794369,0.009468411,0.023823744,277.94708,-111.460815,-20.703281,STD
597229105000,0.469987,-3.28854152006549,9.31605039803529,-0.342916588037111,-0.021380283,0.018325957,0.024129177,277.87042,-111.43977,-20.685911,STD
597234074000,0.474956,-3.30417017608989,9.34610412852908,-0.335016269297217,-0.03023783,0.022296581,0.030543262,277.79718,-111.41486,-20.667503,STD
597239102000,0.479984,-3.30579249462637,9.33799262054444,-0.333394001579408,-0.02076942,0.015882496,0.02565634,277.7253,-111.3951,-20.652584,STD
597244087000,0.484969,-3.30740093891921,9.3299504830537,-0.331785607670642,-0.032070424,0.015577064,0.024740042,277.6512,-111.37039,-20.63516,STD
597249107000,0.489989,-3.30902067620106,9.32185188120746,-0.330165921126609,-0.0290161,0.023518313,0.026572637,277.57764,-111.348335,-20.618607,STD
597254108000,0.49499,-3.31063428300317,9.31378393143993,-0.328552364870292,-0.029626964,0.01863139,0.02687807,277.50916,-111.326195,-20.60341,STD
597259085000,0.499967,-3.31224014604137,9.3057547000876,-0.326946552135301,-0.02321288,0.012217305,0.022296581,277.43973,-111.30596,-20.589212,STD
597264065000,0.504947,-3.31284427668389,9.29834798431692,-0.328535443194633,-0.022907447,0.018936822,0.020158553,277.37027,-111.29206,-20.582243,STD
597269094000,0.509976,-3.30847810535763,9.29398185858036,-0.345999590541202,-0.030848695,0.02076942,0.02443461,277.30533,-111.277504,-20.574974,STD
597274472000,0.515354,-3.30344945837145,9.28928251022447,-0.36435765353204,-0.036651913,0.014660766,0.01740966,277.24146,-111.26803,-20.57283,STD
597279167000,0.520049,-3.29163137605004,9.2845554253798,-0.37381212432529,-0.027488936,0.015271631,0.013439035,277.1762,-111.25703,-20.56829,STD
597284129000,0.525011,-3.27914121109184,9.2795595159018,-0.3838042615087,-0.021380283,0.014660766,0.014966198,277.11578,-111.24242,-20.5598,STD
597289088000,0.52997,-3.26665859762393,9.2745666269253,-0.393790357496714,-0.023823744,0.0076358155,0.015271631,277.05795,-111.22934,-20.552956,STD
597294645000,0.535527,-3.25095223687943,9.27292990070922,-0.403516370780142,-0.020158553,0.005192355,0.0125227375,276.99722,-111.216515,-20.544943,STD
597299110000,0.539992,-3.23410416280536,9.28135367385737,-0.40772838929866,-0.0125227375,0.011301007,0.0125227375,276.93707,-111.20306,-20.536114,STD
597304069000,0.544951,-3.21546361020837,9.29067372242401,-0.410045131844772,-0.018936822,0.008857546,0.007941248,276.8819,-111.190025,-20.52783,STD
597309081000,0.549963,-3.1971119389027,9.29984977365704,-0.396281332854139,-0.007941248,0.0070249503,0.008857546,276.82587,-111.17728,-20.5179,STD
597314259000,0.555141,-3.17918662896,9.30896929066667,-0.382758992231111,-0.017104227,0.00580322,0.0033597588,276.77094,-111.16377,-20.508984,STD
597319101000,0.559983,-3.1750647312,9.31309144666667,-0.378637137511111,-0.01038471,-0.0036651916,0.0027488936,276.7202,-111.15057,-20.49877,STD
597324093000,0.564975,-3.17081514144,9.31734130266667,-0.374387592124444,-0.0067195175,0.0018325958,0.0027488936,276.67126,-111.129745,-20.482655,STD
597329100000,0.569982,-3.16179907601243,9.32229535595672,-0.3653714935976,-0.01282817,-0.0070249503,0.008552114,276.6303,-111.10756,-20.465944,STD
597334028000,0.57491,-3.15168675032141,9.32735138681166,-0.355259115110349,-0.012217305,-0.0030543262,0.005497787,276.58423,-111.08883,-20.451519,STD
597339088000,0.57997,-3.15951406606295,9.33655479433888,-0.363086471718131,-0.013439035,-0.004886922,0.005497787,276.564595229485,-111.07561749851,-20.4407631068945,STD
597344094000,0.584976,-3.16900361683492,9.34604459283452,-0.372576072034838,-0.0061086523,-0.00061086525,-0.0015271631,276.54517,-111.062546,-20.430122,STD
597349104000,0.589986,-3.15672590249721,9.35136313968125,-0.382293564811694,-0.01282817,0.0070249503,0.0018325958,276.504,-111.033966,-20.40692,STD
597354042000,0.594924,-3.14232429642676,9.35616379200081,-0.391894678968633,-0.0021380284,0.0030543262,0.004886922,276.4652,-111.00795,-20.38534,STD
597359074000,0.599956,-3.14545435764661,9.3629333974703,-0.358555796577233,-0.016493361,0.013744468,0.01038471,276.4206,-110.98206,-20.3651,STD
597364203000,0.605085,-3.15016108505174,9.36999339028363,-0.320901952762553,-0.023518313,0.008857546,0.010079277,276.3824,-110.9586,-20.346548,STD
597369132000,0.610014,-3.15468427853584,9.37677808604829,-0.284716381274435,-0.018936822,0.0076358155,0.019242255,276.3428,-110.93573,-20.328384,STD
597374084000,0.614966,-3.15922857842085,9.38359444097355,-0.248361958468762,-0.027794369,0.013744468,0.009773844,276.3024,-110.917046,-20.315765,STD
597379110000,0.619992,-3.1603463,9.38893735327234,-0.237587037818438,-0.029932396,0.008552114,0.007330383,276.2667,-110.89497,-20.29913,STD
597384056000,0.624938,-3.1603463,9.39369937619383,-0.235206071108877,-0.025961773,0.013744468,0.018325957,276.22656,-110.871895,-20.281147,STD
597389104000,0.629986,-3.1603463,9.39855960500653,-0.232776002376596,-0.032986723,0.02321288,0.016493361,276.19373,-110.84297,-20.262693,STD
597394078000,0.63496,-3.1603463,9.40334858640796,-0.230381556680406,-0.032986723,0.016187929,0.018936822,276.16486,-110.81124,-20.240631,STD
597399103000,0.639985,-3.1526844677895,9.40059400389065,-0.245167040421829,-0.032070424,0.014049901,0.021380283,276.13165,-110.780304,-20.219185,STD
597404058000,0.64494,-3.14296745253404,9.39573539479881,-0.264601091225555,-0.03756821,0.016798794,0.022907447,276.09918,-110.74923,-20.197815,STD
597409075000,0.649957,-3.14703711444543,9.38900354486989,-0.270098744929257,-0.029932396,0.021991149,0.030543262,276.06183,-110.71419,-20.170753,STD
597414072000,0.654954,-3.15413938559909,9.38190122427525,-0.272466176887306,-0.052534413,0.029321533,0.0290161,276.02298,-110.67981,-20.146358,STD
597419092000,0.659974,-3.16127434681409,9.37476621339171,-0.274844505570397,-0.04550946,0.021991149,0.03359759,275.9886,-110.64493,-20.118269,STD
597424095000,0.664977,-3.16838514580983,9.36765536489562,-0.27721478015237,-0.04184427,0.010995574,0.03481932,275.9532,-110.610596,-20.092146,STD
597429064000,0.669946,-3.17732680277456,9.36241559217025,-0.276493435018398,-0.03573562,0.013133603,0.034208454,275.91632,-110.57694,-20.06579,STD
597434076000,0.674958,-3.18687346073856,9.35764225488116,-0.274902328126761,-0.049480084,0.011301007,0.03481932,275.88422,-110.54243,-20.039743,STD
597439093000,0.679975,-3.1964296425034,9.35286415568336,-0.273309633937747,-0.037873644,0.008552114,0.03604105,275.862,-110.51809,-20.022978,STD
597444135000,0.685017,-3.20603344327245,9.34806224694202,-0.271709003261842,-0.03634648,0.013133603,0.03634648,275.838,-110.49292,-20.006483,STD
597449097000,0.689979,-3.21548486322803,9.34333652874001,-0.270133769343985,-0.05100725,0.00030543262,0.032986723,275.82,-110.46872,-19.991468,STD
597454092000,0.694974,-3.22499914026917,9.33857938194053,-0.268548059263434,-0.044898596,-0.002443461,0.04153884,275.79785,-110.44296,-19.972946,STD
597459075000,0.699957,-3.23083282415541,9.32703995743243,-0.288844263777027,-0.047036625,0.005192355,0.033292156,275.77097,-110.42061,-19.95848,STD
597464105000,0.704987,-3.23548253964768,9.31309044681467,-0.316742716952703,-0.04184427,0.004276057,0.040927973,275.7481,-110.39281,-19.937706,STD
597469089000,0.709971,-3.24008973289093,9.29926850627413,-0.344386035168919,-0.044593163,-0.00061086525,0.04520403,275.724,-110.371376,-19.923857,STD
597474074000,0.714956,-3.24469785053089,9.28544379247104,-0.372034899797297,-0.046120327,0.0009162979,0.04184427,275.69824,-110.350845,-19.910238,STD
597479160000,0.720042,-3.24068126371716,9.27406901659095,-0.386000349543749,-0.044898596,-0.0012217305,0.030848695,275.67502,-110.331795,-19.89814,STD
597484189000,0.725071,-3.23116882529133,9.26455682648627,-0.390756603521627,-0.03390302,0.005497787,0.029626964,275.6488,-110.31193,-19.884325,STD
597489090000,0.729972,-3.23424744833926,9.26351733906682,-0.394021792534599,-0.046731193,-0.0015271631,0.034208454,275.6326,-110.3008,-19.878958,STD
597494096000,0.734978,-3.24609535281732,9.26825636229735,-0.396391378378806,-0.043982297,-0.0009162979,0.033292156,275.612,-110.293144,-19.8752,STD
597499056000,0.739938,-3.25783438721827,9.27295183877026,-0.398739190162119,-0.03573562,0.0061086523,0.03145956,275.59198,-110.28381,-19.869873,STD
597504080000,0.744962,-3.26972489303084,9.27770790203638,-0.401117296291024,-0.043066,0.009773844,0.027794369,275.57275,-110.27468,-19.865442,STD
597509059000,0.749941,-3.27020788783811,9.27739525525947,-0.414875673613504,-0.040927973,0.0125227375,0.020463986,275.55173,-110.2682,-19.862492,STD
597514066000,0.754948,-3.26060038681627,9.27259190603086,-0.438894451248247,-0.038789943,0.011301007,0.019242255,275.531,-110.26069,-19.858837,STD
597519054000,0.759936,-3.25146654502335,9.26337737194396,-0.452433757488325,-0.043066,0.01160644,0.020158553,275.50705,-110.256165,-19.857853,STD
597524054000,0.764936,-3.24269738469005,9.25022335674389,-0.456818337654977,-0.036957346,0.008857546,0.015577064,275.4845,-110.25417,-19.858788,STD
597529059000,0.769941,-3.24231742941935,9.23983235290323,-0.468614780896774,-0.029932396,0.01282817,0.018020526,275.4666,-110.24905,-19.856234,STD
597534066000,0.774948,-3.25778550606452,9.23467621967742,-0.494394914022581,-0.020158553,0.016187929,0.018325957,275.44974,-110.24625,-19.855572,STD
597539060000,0.779942,-3.26683400107833,9.23889903034016,-0.498426726599353,-0.03726278,0.005192355,0.018325957,275.44485,-110.23648,-19.849737,STD
597544077000,0.784959,-3.26918900576414,9.25302910763651,-0.479586679276542,-0.032070424,0.014049901,0.01160644,275.4328,-110.230446,-19.845394,STD
597549845000,0.790727,-3.27189653357514,9.26927433104598,-0.457926445479855,-0.019547688,0.014966198,0.011911872,275.421419923341,-110.230035246722,-19.8468508359895,STD
597553991000,0.794873,-3.27384268654054,9.28095128948142,-0.442357213628076,-0.020463986,0.01863139,0.011911872,275.41324,-110.22974,-19.847898,STD
597559000000,0.799882,-3.27921042418362,9.29935876630151,-0.43292761209181,-0.022296581,0.014660766,-0.0009162979,275.4036,-110.234085,-19.853516,STD
597564029000,0.804911,-3.28925981953052,9.32448277934272,-0.437952309765258,-0.014049901,0.014966198,0.007941248,275.39215,-110.2327,-19.852633,STD
597568989000,0.809871,-3.29222494558086,9.33519049971054,-0.433943732155538,-0.016493361,0.022296581,0.004886922,275.37976,-110.23573,-19.858574,STD
597573996000,0.814878,-3.28759825341567,9.33056371092242,-0.420063645997684,-0.0106901415,0.01863139,0.009773844,275.371,-110.2348,-19.859737,STD
597578993000,0.819875,-3.28287172638137,9.33175582963946,-0.409829806381371,-0.011301007,0.0143553335,0.008246681,275.3603,-110.2361,-19.863365,STD
597584014000,0.824896,-3.27796057197426,9.34157834358084,-0.404918651974262,-0.022602014,0.0125227375,0.006414085,275.3501,-110.23573,-19.865557,STD
597588963000,0.829845,-3.26494146744574,9.34902931395463,-0.39396479239124,-0.008552114,0.013744468,0.00061086525,275.34244,-110.232994,-19.864704,STD
597594047000,0.834929,-3.24103478497496,9.35381076028675,-0.374839396488265,-0.0125227375,0.02107485,0.005497787,275.33356,-110.22627,-19.86123,STD
597598960000,0.839842,-3.21694024243602,9.34435649959309,-0.367399873129578,-0.011911872,0.017715093,0.007330383,275.32703,-110.222015,-19.859568,STD
597604062000,0.844944,-3.19043101811194,9.31342847915725,-0.376236265859481,-0.013439035,-0.0015271631,0.013439035,275.32324,-110.21491,-19.855455,STD
597609022000,0.849904,-3.16948642211872,9.28906540844246,-0.379143016216192,-0.018020526,-0.00030543262,0.0061086523,275.3098,-110.212715,-19.856512,STD
597614079000,0.854961,-3.16730698051393,9.28688589856442,-0.359527827850232,-0.0125227375,-0.00030543262,0.016187929,275.306499682152,-110.209778477995,-19.8551395623472,STD
597619656000,0.860538,-3.16490343180325,9.2844822745601,-0.337895653534044,-0.017104227,-0.00030543262,0.0076358155,275.30286,-110.20654,-19.853626,STD
597624049000,0.864931,-3.16301015773368,9.28258894118176,-0.320856001073759,-0.003970624,0.005497787,0.013744468,275.29407,-110.20032,-19.849674,STD
597629080000,0.869962,-3.16084192148418,9.28042063701004,-0.30134166200531,-0.018936822,0.0061086523,0.012217305,275.28668,-110.194405,-19.847492,STD
597634067000,0.874949,-3.16836598171104,9.29997462298123,-0.308910550940637,-0.028710667,0.0009162979,0.014660766,275.27954,-110.18664,-19.842417,STD
597639042000,0.879924,-3.17876418773461,9.32597068092536,-0.324507870833697,-0.012217305,0.008857546,0.015271631,275.2681,-110.180435,-19.838015,STD
597644095000,0.884977,-3.20199217458034,9.34130564658273,-0.330109894916067,-0.020463986,0.015577064,0.010079277,275.25616,-110.171646,-19.834229,STD
597649012000,0.889894,-3.22551791678657,9.35542138669065,-0.334815043357314,-0.018020526,0.013744468,0.015882496,275.24466,-110.16109,-19.827154,STD
597654090000,0.894972,-3.21864841242339,9.37837971894153,-0.326452743301878,-0.02565634,0.011911872,0.014049901,275.23337,-110.15893,-19.829193,STD
597659052000,0.899934,-3.20940236093978,9.40149484765055,-0.317206682163635,-0.026267206,0.008246681,0.022907447,275.2235,-110.15251,-19.8264,STD
597664110000,0.904992,-3.19613170797718,9.40039205177086,-0.31603462,-0.026267206,0.010995574,0.01282817,275.20975,-110.153076,-19.830467,STD
597669030000,0.909912,-3.18269186314714,9.39591200993582,-0.31603462,-0.027488936,0.013439035,0.014660766,275.19757,-110.147675,-19.82856,STD
597674099000,0.914981,-3.1688449986261,9.39129629203708,-0.31603462,-0.034208454,0.022602014,0.01863139,275.1816,-110.14194,-19.826693,STD
597679084000,0.919966,-3.15522759487045,9.38675706265748,-0.31603462,-0.03970624,0.016798794,0.015577064,275.1694,-110.13763,-19.826406,STD
597684095000,0.924977,-3.14451212647201,9.38214224789713,-0.319163313297883,-0.03390302,0.017715093,0.018936822,275.15262,-110.13061,-19.822773,STD
597689359000,0.930241,-3.13476403110316,9.37726809842405,-0.324037371161172,-0.036957346,0.014049901,0.020463986,275.1389,-110.124245,-19.820602,STD
597694095000,0.934977,-3.12575160697862,9.35516885195643,-0.32854358651069,-0.034513887,0.009162978,0.015577064,275.12024,-110.1135,-19.812815,STD
597699109000,0.939991,-3.11606663820089,9.32127125897539,-0.333386070899556,-0.03268129,0.014966198,0.016798794,275.0997,-110.10063,-19.802862,STD
597704090000,0.944972,-3.12444772868622,9.30565958025311,-0.338184597171555,-0.036957346,0.018020526,0.024740042,275.08182,-110.086624,-19.791859,STD
597709098000,0.94998,-3.14371675817597,9.30084222227802,-0.343001854543994,-0.043676864,0.01160644,0.016493361,275.06494,-110.07698,-19.78532,STD
597714067000,0.954949,-3.15659035240818,9.30781050654133,-0.359317259153019,-0.032986723,0.0030543262,0.014049901,275.04013,-110.071,-19.78085,STD
597719101000,0.959983,-3.1659341569435,9.32182657922279,-0.382676911964338,-0.03573562,0.0125227375,0.014660766,275.01202,-110.06543,-19.777546,STD
597724090000,0.964972,-3.17260686165384,9.32646811821591,-0.399358701906454,-0.034208454,0.008857546,0.019242255,274.989,-110.059425,-19.773012,STD
597729113000,0.969995,-3.17735370569864,9.32409478293369,-0.411225755017762,-0.03359759,0.013439035,0.02076942,274.961,-110.053894,-19.768827,STD
597734093000,0.974975,-3.18205991380995,9.32174176487567,-0.422991218783304,-0.029932396,0.015882496,0.016798794,274.93625,-110.05004,-19.765528,STD
597739101000,0.979983,-3.18679258252911,9.31937551699724,-0.43482283375074,-0.034208454,0.013744468,0.018325957,274.9121,-110.04384,-19.760225,STD
597744132000,0.985014,-3.1942969596601,9.32606391674486,-0.427482445398811,-0.028405234,0.019547688,0.015577064,274.883,-110.035324,-19.75149,STD
597749102000,0.989984,-3.20422224294651,9.3409518934939,-0.402669226818893,-0.03359759,0.029932396,0.021991149,274.85382,-110.02323,-19.739862,STD
597754091000,0.994973,-3.20288835881033,9.34162194725028,-0.38997810382716,-0.027488936,0.029932396,0.013439035,274.8275,-110.01901,-19.734766,STD
597759406000,1.000288,-3.19336709206884,9.33210048166854,-0.385217460514403,-0.032070424,0.026572637,0.008857546,274.79984,-110.01126,-19.726797,STD
597764102000,1.004984,-3.18668872678804,9.32303395383615,-0.375908340364109,-0.032070424,0.026267206,0.014660766,274.77063,-110.00316,-19.718721,STD
597769095000,1.009977,-3.18150700134374,9.31267028651929,-0.360363164031209,-0.03756821,0.03176499,0.011301007,274.7409,-109.9985,-19.714603,STD
597774086000,1.014968,-3.1768590391575,9.32186044208912,-0.351701021217752,-0.027488936,0.042455133,0.01160644,274.70752,-109.990715,-19.706413,STD
597779100000,1.019982,-3.17252757816165,9.34351797320945,-0.347369596404474,-0.024129177,0.03634648,0.0067195175,274.678,-109.984856,-19.70099,STD
597784097000,1.024979,-3.16795381031227,9.35457174862538,-0.356580309725075,-0.024740042,0.02321288,0.01282817,274.65295,-109.97244,-19.689531,STD
597789090000,1.029972,-3.16299308169935,9.34961086461251,-0.386345012922502,-0.023518313,0.022602014,0.011911872,274.62616,-109.963806,-19.681566,STD
597794081000,1.034963,-3.15808911235693,9.35599270343361,-0.3977115,-0.021685716,0.025350908,0.014660766,274.59924,-109.95708,-19.675688,STD
597799108000,1.03999,-3.1532129274486,9.37549734123367,-0.38795912,-0.021380283,0.026572637,0.011301007,274.57327,-109.95233,-19.671888,STD
597804081000,1.044963,-3.15780165655296,9.3735507390784,-0.387760369263914,-0.026572637,0.02321288,0.008857546,274.5498,-109.947075,-19.666925,STD
597809078000,1.04996,-3.17212100712148,9.34968515479753,-0.397306612944345,-0.025350908,0.018020526,0.010079277,274.52698,-109.94204,-19.661915,STD
597814100000,1.054982,-3.18417137006877,9.33972278381342,-0.411568825015449,-0.017104227,0.029626964,0.014966198,274.48975,-109.93639,-19.65538,STD
597819094000,1.059976,-3.19370521621649,9.34448980643875,-0.430636527266022,-0.027488936,0.03359759,0.021380283,274.4571,-109.92914,-19.648312,STD
597824106000,1.064988,-3.20501059682728,9.34060688104599,-0.43205696647161,-0.025350908,0.037873644,0.018325957,274.42728,-109.92592,-19.64436,STD
597829691000,1.070573,-3.21968183062083,9.32593559618725,-0.412495311200512,-0.029932396,0.03359759,0.011301007,274.39944,-109.92126,-19.63989,STD
597834054000,1.074936,-3.23032001767541,9.31970152051419,-0.408098149075522,-0.026267206,0.04550946,0.015577064,274.36713,-109.91616,-19.633625,STD
597839094000,1.079976,-3.24066106106052,9.32487190723085,-0.428780354624531,-0.03634648,0.040927973,0.017715093,274.34152,-109.91273,-19.63032,STD
597844092000,1.084974,-3.25256361128366,9.32981877904462,-0.434506884521329,-0.030543262,0.04062254,0.009773844,274.31067,-109.91314,-19.630318,STD
597849113000,1.089995,-3.2667424336151,9.33454515185768,-0.420328052319638,-0.020158553,0.040011674,0.012217305,274.28207,-109.90973,-19.626825,STD
597854031000,1.094913,-3.28055914221705,9.3320955472796,-0.410038899260983,-0.032070424,0.048258353,0.012217305,274.2522,-109.90975,-19.626923,STD
597859084000,1.099966,-3.29463873791097,9.31801565755019,-0.405345700696344,-0.037873644,0.042455133,0.010079277,274.2274,-109.91034,-19.627127,STD
597864034000,1.104916,-3.29636917496495,9.30255281183657,-0.3961226567855,-0.029932396,0.04337143,0.010079277,274.19232,-109.91665,-19.6328,STD
597869113000,1.109995,-3.27201479523333,9.28306940977368,-0.376639142827959,-0.031154128,0.042760566,0.007941248,274.16003,-109.92311,-19.63952,STD
597874077000,1.114959,-3.25763776080703,9.27415794178975,-0.366204002801429,-0.03145956,0.04184427,0.016798794,274.1283,-109.92833,-19.64472,STD
597879136000,1.120018,-3.26231475966792,9.28585056103388,-0.373219505976446,-0.040011674,0.029932396,0.007330383,274.10034,-109.938484,-19.655622,STD
597884298000,1.12518,-3.26708698107925,9.29778123913988,-0.380377843076552,-0.036957346,0.030543262,0.0106901415,274.07916,-109.93892,-19.657532,STD
597889091000,1.129973,-3.27151806539241,9.30885906559513,-0.387024474173183,-0.044898596,0.03145956,0.011911872,274.06146,-109.94149,-19.662691,STD
597894084000,1.134966,-3.27373707481615,9.31772323814443,-0.392478998871494,-0.037873644,0.02076942,0.007330383,274.04727,-109.94538,-19.668499,STD
597899090000,1.139972,-3.26555904891395,9.31499712197688,-0.391570326374905,-0.022602014,0.012217305,-0.0021380284,274.03226,-109.950165,-19.675106,STD
597904091000,1.144973,-3.25738919123578,9.31227372865808,-0.390662561461713,-0.028405234,0.0076358155,0.002443461,274.02017,-109.95191,-19.678991,STD
597909099000,1.149981,-3.24920789804397,9.30954652335102,-0.389753525931766,-0.021991149,-0.0027488936,0.0021380284,274.01233,-109.95869,-19.686897,STD
597914429000,1.155311,-3.24050057122441,9.30664396658453,-0.388786042031084,-0.018020526,0.0018325958,0.006414085,273.9991,-109.96183,-19.691078,STD
597919094000,1.159976,-3.23287961820129,9.30410354870167,-0.387939266722138,-0.018020526,0.0033597588,0.0015271631,273.9899,-109.96752,-19.697939,STD
597924122000,1.165004,-3.22466565211334,9.30136545199962,-0.387026600858605,-0.02443461,0.0012217305,0.004581489,273.98074,-109.96947,-19.701096,STD
597929101000,1.169983,-3.21653173462093,9.29865403921531,-0.386122829312358,-0.029321533,0.009773844,0.0125227375,273.96802,-109.97125,-19.703808,STD
597934067000,1.174949,-3.20841905451099,9.29594970583776,-0.385221417482942,-0.03634648,0.0036651916,0.013133603,273.9604,-109.97366,-19.707817,STD
597939091000,1.179973,-3.20021162300227,9.29321378741471,-0.384309477686126,-0.0290161,0.0067195175,0.017715093,273.94836,-109.96584,-19.700705,STD
597944805000,1.185687,-3.19087697657695,9.29010211586429,-0.383272291380591,-0.032070424,0.01863139,0.01863139,273.9355,-109.95828,-19.694586,STD
597949102000,1.189984,-3.19973902638889,9.27731652956989,-0.387641838449821,-0.03940081,0.021991149,0.027794369,273.92172,-109.95052,-19.687971,STD
597954077000,1.194959,-3.21634155339506,9.25834228375149,-0.394757222733971,-0.057726767,0.011911872,0.037873644,273.9087,-109.94171,-19.680964,STD
597959079000,1.199961,-3.2330341845679,9.23926506212664,-0.401911223174034,-0.050701816,0.016187929,0.03604105,273.893,-109.92663,-19.666855,STD
597964105000,1.204987,-3.24980690833333,9.22009630645161,-0.409099549086021,-0.051923547,0.017104227,0.03390302,273.8816,-109.908134,-19.650692,STD
597969078000,1.20996,-3.33979038614464,9.21598718032959,-0.427298274221686,-0.05131268,0.022907447,0.04550946,273.87012,-109.887596,-19.6321,STD
597974070000,1.214952,-3.47527904045345,9.22100537955285,-0.452388772552745,-0.052534413,0.026572637,0.064446285,273.8591,-109.86592,-19.612473,STD
597979095000,1.219977,-3.44024968739247,9.24614968318006,-0.412316907873035,-0.06169739,0.036651913,0.028099801,273.8525,-109.86041,-19.609476,STD
597984102000,1.224984,-3.33593604865025,9.27934005784634,-0.345935519854643,-0.05497787,0.024129177,-0.0021380284,273.852,-109.84914,-19.600245,STD
597989094000,1.229976,-3.285277572026,9.3082230189319,-0.359932610833569,-0.026572637,-0.0125227375,0.00580322,273.85764,-109.85148,-19.603662,STD
597994103000,1.234985,-3.25816811104832,9.33533304605821,-0.409633317600075,-0.016493361,-0.01038471,0.010995574,273.85468,-109.86232,-19.615736,STD
597999104000,1.239986,-3.24517133850155,9.33740136981094,-0.428224174150245,-0.03573562,0.01740966,0.01740966,273.84296,-109.85744,-19.613377,STD
598004098000,1.24498,-3.24277929392818,9.32065670811243,-0.423440080008002,-0.03145956,0.036957346,0.023518313,273.83313,-109.85274,-19.609772,STD
598009080000,1.249962,-3.24039299715915,9.30395228188457,-0.418667481486446,-0.03970624,0.032986723,0.015577064,273.82428,-109.84667,-19.60468,STD
598014469000,1.255351,-3.23781175402621,9.28588320261078,-0.413504989829949,-0.030543262,0.009162978,0.017715093,273.8161,-109.83724,-19.595266,STD
598019096000,1.259978,-3.23422385127845,9.29087248069789,-0.395382010492329,-0.036957346,0.016187929,0.020158553,273.80212,-109.83196,-19.590916,STD
598024109000,1.264991,-3.22941005431665,9.31012852306227,-0.3664989170741,-0.043676864,0.002443461,0.01985312,273.8017,-109.82734,-19.587526,STD
598029078000,1.26996,-3.22201972873096,9.3182335,-0.35568290281726,-0.033292156,-0.0033597588,0.024740042,273.7965,-109.82162,-19.582514,STD
598034097000,1.274979,-3.21260287822403,9.3182335,-0.358037115443993,-0.03023783,0.0021380284,0.025961773,273.79196,-109.81651,-19.578745,STD
598039092000,1.279974,-3.20323105748641,9.3182335,-0.360380070628398,-0.044898596,0.00580322,0.024129177,273.78848,-109.803955,-19.568665,STD
598044145000,1.285027,-3.19375041480629,9.3182335,-0.362750231298428,-0.03359759,0.010079277,0.017104227,273.78302,-109.79414,-19.559954,STD
598049097000,1.289979,-3.18236266387807,9.32047144193334,-0.366156672040642,-0.040011674,0.009468411,0.01863139,273.77032,-109.780426,-19.547993,STD
598054129000,1.295011,-3.16863449249834,9.32504735571171,-0.370732729167221,-0.05009095,0.008552114,0.021685716,273.75647,-109.7689,-19.537846,STD
598059065000,1.299947,-3.16227464464248,9.32588169562911,-0.371567095221727,-0.043066,0.021380283,0.017715093,273.74405,-109.75725,-19.527224,STD
598064106000,1.304988,-3.16739623860598,9.32076020862508,-0.366445447778485,-0.042455133,0.019547688,0.014966198,273.7364,-109.744095,-19.515991,STD
598069094000,1.309976,-3.16636707975949,9.3182335,-0.36273334912753,-0.047036625,0.020158553,0.019242255,273.7264,-109.73484,-19.50849,STD
598074081000,1.314963,-3.15927656626911,9.3182335,-0.360369836404216,-0.042760566,0.023518313,0.019547688,273.71603,-109.728035,-19.503004,STD
598079144000,1.320026,-3.15207799602613,9.3182335,-0.357970304637997,-0.03756821,0.0143553335,0.016187929,273.71396,-109.72431,-19.501495,STD
598084526000,1.325408,-3.14442587178206,9.3182335,-0.355419587678527,-0.037873644,0.019242255,0.015577064,273.7066,-109.71972,-19.49885,STD
598089076000,1.329958,-3.13839976066566,9.3182335,-0.353643623708236,-0.04153884,0.02565634,0.022907447,273.7015,-109.71393,-19.494976,STD
598094102000,1.334984,-3.13223222415671,9.3182335,-0.352101736360957,-0.03970624,0.027183503,0.021380283,273.6962,-109.71104,-19.49377,STD
598099055000,1.339937,-3.12615426786366,9.3182335,-0.350582244114425,-0.04153884,0.027183503,0.015882496,273.68906,-109.70671,-19.491444,STD
598104094000,1.344976,-3.11997077871352,9.3182335,-0.34903636859852,-0.034513887,0.03634648,0.020463986,273.6788,-109.70044,-19.486517,STD
598109155000,1.350037,-3.11376029278598,9.3182335,-0.347483743874171,-0.034208454,0.036957346,0.022602014,273.67102,-109.69607,-19.483942,STD
598114070000,1.354952,-3.10772896729026,9.3182335,-0.345975909351315,-0.03970624,0.05131268,0.028099801,273.65643,-109.68952,-19.478765,STD
598119097000,1.359979,-3.10587911620839,9.31623766208394,-0.348756530361795,-0.038789943,0.037873644,0.02107485,273.64966,-109.69035,-19.481138,STD
598124088000,1.36497,-3.11971350370478,9.30701430371442,-0.367202389987458,-0.05131268,0.03604105,0.028710667,273.63547,-109.68463,-19.477285,STD
598129118000,1.37,-3.13412121499949,9.30015272885143,-0.38414596717579,-0.042455133,0.034513887,0.03145956,273.62482,-109.68108,-19.474998,STD
598134102000,1.374984,-3.15108655461562,9.30742374053011,-0.391416832072713,-0.048563786,0.03390302,0.03940081,273.61462,-109.6728,-19.469025,STD
598139087000,1.379969,-3.16805529819234,9.31469621107952,-0.398689155810907,-0.04184427,0.03023783,0.034513887,273.60187,-109.67027,-19.46709,STD
598144145000,1.385027,-3.18527253089266,9.32207517919163,-0.406067974961917,-0.03604105,0.04184427,0.036957346,273.58502,-109.663216,-19.460646,STD
598149114000,1.389996,-3.20932782629832,9.32586917102694,-0.416654656171417,-0.028710667,0.046120327,0.03176499,273.57147,-109.66007,-19.457975,STD
598154134000,1.395016,-3.26095125406091,9.31648288832487,-0.440119897385787,-0.029321533,0.04184427,0.031154128,273.55737,-109.6549,-19.4533,STD
598159075000,1.399957,-3.30328152996333,9.30937272242046,-0.458970059963326,-0.026267206,0.036957346,0.034513887,273.54077,-109.652466,-19.450346,STD
598164109000,1.404991,-3.29850309689761,9.31415150475766,-0.454191626897611,-0.020463986,0.046731193,0.028710667,273.5212,-109.65285,-19.450018,STD
598169087000,1.409969,-3.29073390142925,9.31946265977284,-0.445193260746805,-0.024129177,0.04917465,0.027488936,273.50735,-109.656876,-19.4532,STD
598174093000,1.414975,-3.26350732643635,9.3285381373876,-0.408891127588263,-0.016493361,0.05222898,0.02443461,273.49063,-109.66354,-19.458237,STD
598179279000,1.420161,-3.23489383885576,9.33797751551602,-0.372609704607298,-0.023823744,0.04886922,0.018020526,273.47528,-109.66859,-19.462645,STD
598184098000,1.42498,-3.20223901277671,9.34730766066916,-0.358614769402608,-0.02107485,0.043066,0.017104227,273.46027,-109.673454,-19.466194,STD
598189256000,1.430138,-3.16739860878367,9.35748763476198,-0.345396139286803,-0.01985312,0.049785517,0.01985312,273.4435,-109.669426,-19.462254,STD
598194147000,1.435029,-3.13565876960867,9.36938992427579,-0.353331117723192,-0.015577064,0.049785517,0.025045475,273.43082,-109.66522,-19.4581,STD
598199070000,1.439952,-3.10371126843131,9.38137008605794,-0.361318011782145,-0.036651913,0.04886922,0.017715093,273.4155,-109.658844,-19.453072,STD
598204097000,1.444979,-3.08258908391631,9.39241748534379,-0.360345491949439,-0.035430185,0.042455133,0.013744468,273.40222,-109.65131,-19.445887,STD
598209049000,1.449931,-3.06708571392612,9.40275317325924,-0.355177755913697,-0.035430185,0.03940081,0.013133603,273.38834,-109.64416,-19.439947,STD
598214112000,1.454994,-3.05305883238946,9.40250509529633,-0.371620649505174,-0.058948494,0.030848695,0.003970624,273.3803,-109.64232,-19.44045,STD
598219025000,1.459907,-3.03978016733302,9.40029193438382,-0.391538690997178,-0.057421334,0.02076942,0.0061086523,273.3739,-109.63842,-19.437899,STD
598224114000,1.464996,-3.02602581633114,9.39799949068674,-0.412170262980245,-0.062308256,0.022296581,-0.0018325958,273.36093,-109.63453,-19.436184,STD
598230118000,1.471,-3.00979843896519,9.39529486660395,-0.436511382686736,-0.06169739,0.022296581,0.0061086523,273.3517,-109.62587,-19.429487,STD
598234122000,1.475004,-3.01342435621515,9.39169440603477,-0.449993690908495,-0.059253927,0.024129177,0.00061086525,273.3412,-109.62312,-19.428782,STD
598239061000,1.479943,-3.02376650450421,9.38652322389854,-0.465506924141249,-0.04734206,0.021991149,-0.0027488936,273.332,-109.61799,-19.425266,STD
598244155000,1.485037,-3.04113167585589,9.3741255441879,-0.454402697591561,-0.049480084,0.025961773,0.0009162979,273.31003,-109.607994,-19.41507,STD
598249127000,1.490009,-3.06008698051353,9.35990922651274,-0.435447333554936,-0.05681047,0.025045475,-0.00030543262,273.2905,-109.600685,-19.407463,STD
598254124000,1.495006,-3.06217579256158,9.35173652241379,-0.432157409990148,-0.04795292,0.032986723,0.00061086525,273.26837,-109.593895,-19.399305,STD
598259113000,1.499995,-3.05903763783251,9.34546013103448,-0.433726495546798,-0.056199603,0.04062254,0.005192355,273.24707,-109.585526,-19.390577,STD
598264103000,1.504985,-3.05589885408867,9.3391824816092,-0.43529589561248,-0.038789943,0.047647487,0.008552114,273.2202,-109.58526,-19.388859,STD
598269748000,1.51063,-3.05234806566502,9.33208081206897,-0.437071299093596,-0.040317107,0.046731193,0.007330383,273.19403,-109.58382,-19.38708,STD
598274085000,1.514967,-3.04962002857143,9.32662466666667,-0.438435324761905,-0.03940081,0.06352998,0.010995574,273.16104,-109.58071,-19.382555,STD
598279103000,1.519985,-3.04646363241379,9.32031179195402,-0.44001353108046,-0.038789943,0.062002823,0.008857546,273.13443,-109.57943,-19.380278,STD
598284095000,1.524977,-3.04862827724359,9.32143717688301,-0.43732932275641,-0.053450707,0.06688975,-0.0009162979,273.1014,-109.578636,-19.37881,STD
598289086000,1.529968,-3.05341571802885,9.32622446769832,-0.432541881971154,-0.049785517,0.08093964,0.0030543262,273.06696,-109.57523,-19.373903,STD
598294108000,1.53499,-3.05818225313517,9.33258150443656,-0.438908649622893,-0.05131268,0.08582657,0.01160644,273.03802,-109.56083,-19.35887,STD
598299110000,1.539992,-3.06290505740412,9.33966582179828,-0.450715610980479,-0.046731193,0.09254608,0.005192355,273.00476,-109.55024,-19.347126,STD
598304109000,1.544991,-3.06762502912353,9.34674589026915,-0.462515490993789,-0.046731193,0.083383106,0.005497787,272.98096,-109.53067,-19.327333,STD
598309121000,1.550003,-3.07235727522429,9.35384437060041,-0.474346056832298,-0.052534413,0.082161374,0.009162978,272.9532,-109.51241,-19.308754,STD
598314133000,1.555015,-3.07908048310442,9.35161541403276,-0.474899958373324,-0.056199603,0.081855945,0.016493361,272.92847,-109.49358,-19.289679,STD
598319133000,1.560015,-3.08700436197253,9.34369136968393,-0.468560847004799,-0.047647487,0.08307768,0.016187929,272.90405,-109.47663,-19.272268,STD
598324124000,1.565006,-3.09491397785868,9.33578158861492,-0.462233146036737,-0.047647487,0.093462385,0.016493361,272.8785,-109.461006,-19.25601,STD
598329153000,1.570035,-3.10288381522423,9.32781158480887,-0.455857267822274,-0.04184427,0.077579886,0.016493361,272.86102,-109.44655,-19.240757,STD
598334128000,1.57501,-3.110768074698,9.31992716068178,-0.449549852010591,-0.045814894,0.08277224,0.022296581,272.83984,-109.42849,-19.222284,STD
598339348000,1.58023,-3.11904060423631,9.3116544583816,-0.44293181974185,-0.039095376,0.08155051,0.017104227,272.82556,-109.414665,-19.207767,STD
598344158000,1.58504,-3.11789715842103,9.30589470500469,-0.441913722989971,-0.029321533,0.09712757,0.021991149,272.80515,-109.3968,-19.188923,STD
598349142000,1.590024,-3.11082281351712,9.30117836016007,-0.44427185355269,-0.043066,0.10140363,0.019547688,272.78867,-109.382225,-19.174307,STD
598354121000,1.595003,-3.10375556566869,9.29646674680105,-0.446627618414604,-0.03634648,0.09162979,0.024740042,272.77148,-109.37025,-19.161552,STD
598359113000,1.599995,-3.09666986547601,9.29174283157947,-0.448989534098612,-0.03390302,0.09743301,0.020158553,272.74844,-109.36128,-19.15233,STD
598364132000,1.605014,-3.09579322285561,9.28701755497382,-0.442656354947399,-0.047647487,0.105068825,0.02107485,272.72836,-109.3492,-19.14051,STD
598369124000,1.610006,-3.10047173590547,9.28233918848168,-0.428620803584675,-0.048258353,0.103847094,0.01863139,272.70944,-109.34027,-19.131302,STD
598374132000,1.615014,-3.10516524418946,9.27764582722513,-0.414540266480403,-0.04062254,0.11362094,0.027183503,272.6832,-109.3259,-19.11624,STD
598379156000,1.620038,-3.10987374770759,9.27293747120419,-0.400414743634584,-0.04337143,0.100792766,0.028710667,272.66443,-109.314064,-19.104582,STD
598384046000,1.624928,-3.13321228613333,9.27825381066667,-0.39561336284897,-0.042760566,0.0983493,0.029932396,272.6402,-109.30072,-19.09069,STD
598389129000,1.630011,-3.18277628026667,9.29713546133333,-0.40269393132703,-0.03573562,0.09101892,0.034208454,272.6218,-109.2866,-19.076164,STD
598394069000,1.634951,-3.23094589093333,9.31548591466667,-0.409575302226424,-0.036651913,0.10781772,0.03176499,272.5957,-109.27459,-19.064533,STD
598399106000,1.639988,-3.28006134213333,9.33419669066667,-0.416591793161697,-0.03970624,0.10048734,0.034208454,272.5796,-109.260574,-19.051144,STD
598404026000,1.644908,-3.32142152520717,9.34625069122596,-0.417099733754206,-0.03970624,0.103847094,0.03359759,272.55545,-109.24855,-19.03931,STD
598409050000,1.649932,-3.34800239873437,9.34383419541962,-0.402601051610668,-0.041233405,0.09407325,0.031154128,272.53784,-109.23653,-19.027983,STD
598414070000,1.654952,-3.3745621091457,9.34141962357491,-0.388113913003867,-0.042760566,0.084910266,0.030848695,272.5205,-109.23335,-19.02519,STD
598419097000,1.659979,-3.40115885500979,9.33900168479735,-0.373606573207775,-0.035124753,0.09590584,0.033292156,272.50024,-109.23046,-19.022242,STD
598424108000,1.66499,-3.4235592738065,9.33274762930782,-0.362372235397833,-0.03573562,0.09590584,0.024740042,272.48615,-109.230446,-19.022892,STD
598429044000,1.669926,-3.43740416831007,9.31890244567021,-0.357757270563312,-0.043982297,0.089186326,0.016798794,272.47107,-109.229645,-19.022709,STD
598434082000,1.674964,-3.45027405107309,9.3060322941351,-0.351718206187321,-0.041233405,0.087659165,0.02107485,272.46136,-109.229614,-19.02418,STD
598439089000,1.679971,-3.45975897592721,9.29654717119968,-0.342233271429137,-0.03756821,0.09315695,0.0106901415,272.45123,-109.23561,-19.03199,STD
598444111000,1.684993,-3.46187468125617,9.28580506241359,-0.333955910314043,-0.035124753,0.07880162,0.009162978,272.4476,-109.23968,-19.038145,STD
598449127000,1.690009,-3.44289888477187,9.27157341319376,-0.329211961192969,-0.048258353,0.07086037,0.009773844,272.4403,-109.245415,-19.046265,STD
598454117000,1.694999,-3.42774819722479,9.260772,-0.3271086463321,-0.05955936,0.058948494,0.0106901415,272.4325,-109.26043,-19.063591,STD
598459078000,1.69996,-3.42460887485133,9.260772,-0.333387294357077,-0.055283304,0.053450707,0.011911872,272.42517,-109.27482,-19.080164,STD
598464095000,1.704977,-3.4214341156601,9.260772,-0.339736816054579,-0.060170226,0.046731193,0.016493361,272.41846,-109.293106,-19.10149,STD
598469093000,1.709975,-3.4182713796749,9.260772,-0.346062291327475,-0.065973446,0.038789943,0.0067195175,272.4135,-109.31462,-19.12596,STD
598474385000,1.715267,-3.41492260039646,9.260772,-0.352759853381129,-0.061086524,0.025961773,0.009162978,272.41217,-109.33103,-19.145126,STD
598479093000,1.719975,-3.41194337650324,9.260772,-0.358718304278446,-0.0693332,0.01985312,0.015882496,272.41095,-109.34764,-19.165161,STD
598484103000,1.724985,-3.41106155045305,9.25991280683063,-0.368214537926914,-0.061086524,0.005497787,0.01985312,272.41583,-109.36459,-19.184898,STD
598489092000,1.729974,-3.42057636777855,9.25515529881509,-0.392001591175943,-0.06505715,-0.0143553335,0.013439035,272.42383,-109.38131,-19.205227,STD
598494101000,1.734983,-3.42524952695583,9.25525409130521,-0.418297232022183,-0.062308256,-0.017104227,0.01985312,272.43182,-109.392944,-19.219269,STD
598499064000,1.739946,-3.40642217167756,9.27878828540305,-0.455951976982571,-0.056199603,-0.019242255,0.019242255,272.44498,-109.407906,-19.236835,STD
598504079000,1.744961,-3.39507181587176,9.30047398436573,-0.491206991282407,-0.049480084,-0.03023783,0.014966198,272.46008,-109.42183,-19.252512,STD
598509077000,1.749959,-3.42822577637047,9.30994698961013,-0.51015213629527,-0.04734206,-0.030848695,0.01160644,272.4723,-109.43535,-19.267555,STD
598514101000,1.754983,-3.45538356821023,9.3163898457507,-0.525495310535899,-0.04642576,-0.04550946,0.010079277,272.49347,-109.44757,-19.280493,STD
598519057000,1.759939,-3.44136970448305,9.30237581130358,-0.516152722523498,-0.050701816,-0.050701816,0.0076358155,272.5116,-109.46051,-19.294119,STD
598524067000,1.764949,-3.42720314732543,9.28820908156587,-0.506708338757935,-0.05589417,-0.06078109,0.007941248,272.54413,-109.47345,-19.308064,STD
598529069000,1.769951,-3.41305921141676,9.27406497335269,-0.497279035844693,-0.03726278,-0.06536258,-0.0018325958,272.57574,-109.49026,-19.325125,STD
598534143000,1.775025,-3.39800046222068,9.25971241299189,-0.48700439608859,-0.036651913,-0.064446285,0.004886922,272.60828,-109.50108,-19.336994,STD
598539083000,1.779965,-3.37461243908444,9.2456792767451,-0.468293928736405,-0.050701816,-0.06261369,0.004886922,272.624517217116,-109.508676244688,-19.3449134268208,STD
598544262000,1.785144,-3.34966885387281,9.23130314492458,-0.449740989749287,-0.043066,-0.06414085,0.004581489,272.64154,-109.51664,-19.353216,STD
598549061000,1.789943,-3.32156491798818,9.22193550866286,-0.445057010217081,-0.04184427,-0.042455133,0.0012217305,272.66873,-109.5317,-19.368906,STD
598554067000,1.794949,-3.29619259394816,9.21217951206381,-0.439116152979063,-0.049480084,-0.02687807,0.0036651916,272.69604,-109.541954,-19.38074,STD
598559005000,1.799887,-3.31976713765703,9.20274955672981,-0.420256626323031,-0.054061573,-0.031154128,0.0061086523,272.72217,-109.552956,-19.393076,STD
598564103000,1.804985,-3.34263563270584,9.19406393959609,-0.401236081193457,-0.04428773,-0.019242255,0.009773844,272.73788,-109.560234,-19.40107,STD
598569009000,1.809891,-3.34692913364708,9.19835753020195,-0.388355569403271,-0.040927973,0.01282817,0.01863139,272.74838,-109.564735,-19.406399,STD
598573979000,1.814861,-3.35127864438454,9.20270713177374,-0.375307028107466,-0.04184427,0.032070424,0.023823744,272.7623,-109.58068,-19.423815,STD
598579020000,1.819902,-3.33830665231321,9.22593733405734,-0.364444926377063,-0.042455133,0.03970624,0.026572637,272.76984,-109.59442,-19.438578,STD
598584254000,1.825136,-3.32282246222161,9.25185409620299,-0.3556600255659,-0.029321533,0.03359759,0.022296581,272.7755,-109.608696,-19.453325,STD
598589009000,1.829891,-3.31866609050748,9.26016710003651,-0.372285694706097,-0.024740042,0.022907447,0.039095376,272.77972,-109.61541,-19.461056,STD
598594112000,1.834994,-3.31420553007485,9.2690885003651,-0.390128132060971,-0.02565634,0.016493361,0.029932396,272.78336,-109.628044,-19.47471,STD
598599012000,1.839894,-3.29779229275362,9.28613180124224,-0.400540521821946,-0.021685716,0.004276057,0.03970624,272.7923,-109.63064,-19.478113,STD
598604025000,1.844907,-3.27885948219462,9.305064364685,-0.410006852966578,-0.03176499,-0.01160644,0.03848451,272.8038,-109.638176,-19.4871,STD
598609083000,1.849965,-3.31317085458225,9.33139806230124,-0.42317358054351,-0.02076942,-0.023518313,0.040927973,272.82397,-109.6391,-19.488564,STD
598614127000,1.855009,-3.3597213798593,9.35932865939096,-0.437138718683627,-0.037873644,-0.035430185,0.037873644,272.84833,-109.640594,-19.492056,STD
598619095000,1.859977,-3.371036,9.36427488055327,-0.453431847885644,-0.03848451,-0.043676864,0.03726278,272.87506,-109.63929,-19.491632,STD
598624086000,1.864968,-3.371036,9.36181723393151,-0.470635923432744,-0.028405234,-0.051618114,0.03145956,272.90454,-109.64014,-19.493668,STD
598629109000,1.869991,-3.371036,9.35934383000823,-0.487950303611682,-0.03268129,-0.04550946,0.03481932,272.93262,-109.64158,-19.496374,STD
598634033000,1.874915,-3.371036,9.35691917523653,-0.50492342883587,-0.042760566,-0.04550946,0.030543262,272.96405,-109.64689,-19.502918,STD
598639088000,1.87997,-3.37489176355184,9.34882939237415,-0.492147838784748,-0.03359759,-0.04337143,0.027183503,272.99496,-109.65067,-19.507431,STD
598644074000,1.884956,-3.37937621353306,9.33986039876033,-0.474210216797521,-0.027488936,-0.044593163,0.029321533,273.02618,-109.65357,-19.511465,STD
598649099000,1.889981,-3.36591961710803,9.3410603974359,-0.447223580319462,-0.03573562,-0.05375614,0.029932396,273.0602,-109.65854,-19.51703,STD
598654060000,1.894942,-3.34594882904582,9.34605319871795,-0.417267377372846,-0.029932396,-0.050396383,0.017104227,273.0901,-109.66729,-19.525547,STD
598659073000,1.899955,-3.33673719406936,9.33211453456004,-0.408090342712904,-0.029932396,-0.056199603,0.021991149,273.12708,-109.6638,-19.522951,STD
598664131000,1.905013,-3.32988093725407,9.31383103986789,-0.403519504836046,-0.018020526,-0.05955936,0.016493361,273.16135,-109.66754,-19.526888,STD
598669088000,1.90997,-3.32316158869073,9.29591263670677,-0.399039939127153,-0.009773844,-0.061086524,0.010079277,273.19452,-109.66736,-19.52762,STD
598674101000,1.914983,-3.31636633060156,9.27779180655815,-0.394509767067705,-0.016798794,-0.062002823,0.01985312,273.22797,-109.6641,-19.52534,STD
598679125000,1.920007,-3.28803745604077,9.26751140581593,-0.394067847462776,-0.022296581,-0.074830994,0.007941248,273.26447,-109.66916,-19.531204,STD
598684096000,1.924978,-3.24522173181773,9.2627540092935,-0.396446496048766,-0.018020526,-0.076358154,0.013133603,273.2975,-109.66676,-19.529291,STD
598689089000,1.929971,-3.20221651937644,9.25797555810932,-0.398835671745778,-0.0106901415,-0.08307768,0.0070249503,273.32947,-109.67028,-19.533388,STD
598694128000,1.93501,-3.15881510429699,9.25315308354152,-0.401246858674928,-0.022907447,-0.09682214,0.00030543262,273.36353,-109.67204,-19.53627,STD
598699698000,1.94058,-3.12715270282891,9.2547050725949,-0.419775894789392,-0.03176499,-0.11484267,0.0070249503,273.4004,-109.67206,-19.537125,STD
598704098000,1.94498,-3.10962262690588,9.25908768309932,-0.441688512574103,-0.040927973,-0.115453534,0.0076358155,273.4352,-109.675255,-19.541475,STD
598709073000,1.949955,-3.09978053295488,9.2856119308915,-0.453214897045118,-0.0421497,-0.122478485,0.008246681,273.47668,-109.66804,-19.535503,STD
598714103000,1.954985,-3.09502475212755,9.32365847546648,-0.457970677872445,-0.037873644,-0.12186762,0.0061086523,273.5151,-109.66159,-19.530258,STD
598719125000,1.960007,-3.11161737219076,9.34806712250372,-0.464263901233979,-0.02565634,-0.12583824,-0.0027488936,273.5572,-109.65587,-19.525087,STD
598724128000,1.96501,-3.14017935752608,9.36472838002981,-0.4714044025385,-0.031154128,-0.116675265,0.00030543262,273.59436,-109.64725,-19.517206,STD
598729150000,1.970032,-3.1688498133234,9.3814529123696,-0.478572021477397,-0.02687807,-0.10445796,0.00061086525,273.63098,-109.6411,-19.510988,STD
598734139000,1.975021,-3.19733187305514,9.39806754634873,-0.485692541367114,-0.024740042,-0.09254608,0.0012217305,273.66418,-109.63398,-19.503891,STD
598739122000,1.980004,-3.20028738700423,9.39118681167371,-0.491064787665258,-0.023823744,-0.08735373,-0.004581489,273.69507,-109.628914,-19.498653,STD
598744109000,1.984991,-3.18740147057289,9.36971028428816,-0.495360093142369,-0.022907447,-0.08002335,-0.005192355,273.7212,-109.62248,-19.491785,STD
598749097000,1.989979,-3.17550482294391,9.36652869264022,-0.492001328158435,-0.028099801,-0.06994407,-0.01038471,273.7377,-109.62219,-19.490355,STD
598754094000,1.994976,-3.16516109234843,9.39238801912893,-0.476485716063979,-0.03176499,-0.06169739,-0.002443461,273.7525,-109.618484,-19.485352,STD
598759065000,1.999947,-3.14761989525723,9.42478714127814,-0.461627671838826,-0.03359759,-0.07880162,-0.0036651916,273.76965,-109.616776,-19.482368,STD
598764091000,2.004973,-3.12343732049839,9.46347905888264,-0.447118116883039,-0.032986723,-0.08857546,-0.014966198,273.78198,-109.6158,-19.480007,STD
598769337000,2.010219,-3.11526313995857,9.45863216334583,-0.429329617330834,-0.026267206,-0.077579886,-0.0070249503,273.79242,-109.60786,-19.470778,STD
598774066000,2.014948,-3.11973031438153,9.422894581377,-0.411460723724601,-0.022907447,-0.071776666,-0.005497787,273.80695,-109.60495,-19.466879,STD
598779154000,2.020036,-3.11703040994956,9.3969119188013,-0.397217258569874,-0.024740042,-0.06383542,-0.002443461,273.8115,-109.59516,-19.455864,STD
598784111000,2.024993,-3.10764025076649,9.3828263123331,-0.38782704055583,-0.03176499,-0.058337633,-0.00061086525,273.81506,-109.58553,-19.44506,STD
598789092000,2.029974,-3.09162533077655,9.38019814293871,-0.374064157542825,-0.036957346,-0.05955936,0.0030543262,273.81998,-109.57669,-19.435583,STD
598794106000,2.034988,-3.06877689350971,9.38933767053673,-0.355785474531785,-0.030543262,-0.06383542,0.004886922,273.82416,-109.56824,-19.426332,STD
598799106000,2.039988,-3.06215138778323,9.37161022403701,-0.326889900801548,-0.025350908,-0.06383542,0.013133603,273.82205,-109.556625,-19.413935,STD
598804094000,2.044976,-3.08019116414275,9.31298097441465,-0.28179066239898,-0.031154128,-0.06169739,0.020463986,273.82068,-109.544876,-19.401606,STD
598809066000,2.049948,-3.09463538616747,9.2716756446081,-0.249660313083737,-0.032375857,-0.06963864,0.027183503,273.8291,-109.528885,-19.385765,STD
598814107000,2.054989,-3.09960774674014,9.27664784941807,-0.252146493370069,-0.042455133,-0.06841691,0.025961773,273.83392,-109.51305,-19.370432,STD
598819059000,2.059941,-3.10449231915748,9.28153226882274,-0.254588779578741,-0.036651913,-0.070554934,0.027488936,273.83234,-109.50006,-19.358036,STD
598824076000,2.064958,-3.10944100651972,9.28648080116387,-0.257063123259862,-0.03268129,-0.063224554,0.028099801,273.82736,-109.48766,-19.34648,STD
598829077000,2.069959,-3.11735548175587,9.29765747324018,-0.265098020856842,-0.035124753,-0.06078109,0.02565634,273.82443,-109.47607,-19.335812,STD
598834097000,2.074979,-3.13003028692328,9.31878258968275,-0.281997783138237,-0.03726278,-0.0729984,0.0290161,273.8238,-109.46316,-19.323753,STD
598839069000,2.079951,-3.14172436919899,9.33791868030227,-0.29953936710529,-0.031154128,-0.056505036,0.029932396,273.81348,-109.45766,-19.318491,STD
598844158000,2.08504,-3.14663483118388,9.34282924483627,-0.324091687284635,-0.032070424,-0.061086524,0.02107485,273.8131,-109.453804,-19.31557,STD
598849088000,2.08997,-3.15017697856115,9.34814903669065,-0.344172518561151,-0.019547688,-0.038179077,0.0106901415,273.8004,-109.45193,-19.31307,STD
598854131000,2.095013,-3.14554428768345,9.35741437007194,-0.339539827683453,-0.025350908,-0.03756821,0.006414085,273.7959,-109.450226,-19.311708,STD
598859243000,2.100125,-3.14035278700126,9.36460563379952,-0.334852274449694,-0.019242255,-0.038179077,0.013133603,273.78058,-109.456024,-19.316,STD
598864133000,2.105015,-3.12940032149773,9.3448908985453,-0.330471283673698,-0.029321533,-0.027488936,0.0061086523,273.76184,-109.46585,-19.324991,STD
598869374000,2.110256,-3.11766169742738,9.32376105652743,-0.325775829142617,-0.026267206,-0.0290161,0.011301007,273.74734,-109.46971,-19.327646,STD
598874149000,2.115031,-3.10696680524346,9.30450996024136,-0.321497867802049,-0.035430185,-0.01740966,0.016493361,273.72595,-109.4745,-19.331738,STD
598879102000,2.119984,-3.09587323435614,9.28454123146546,-0.317060434813602,-0.03634648,-0.007941248,0.013744468,273.70605,-109.48018,-19.336428,STD
598884112000,2.124994,-3.08580904945801,9.28742476800729,-0.323534239217911,-0.033292156,-0.0070249503,0.02321288,273.68594,-109.48053,-19.335938,STD
598889025000,2.129907,-3.07627585848445,9.29695810829703,-0.333067390373822,-0.039095376,-0.010079277,0.02107485,273.66446,-109.484406,-19.3393,STD
598894149000,2.135031,-3.08547809791748,9.29153013668361,-0.338962592835354,-0.035124753,-0.025350908,0.01160644,273.64667,-109.484474,-19.338741,STD
598899035000,2.139917,-3.09920289484748,9.28238011282753,-0.343537509221744,-0.044898596,-0.028099801,0.01863139,273.62662,-109.47978,-19.333982,STD
598904132000,2.145014,-3.11440199490736,9.30295847083113,-0.371636877484383,-0.03756821,-0.032070424,0.021991149,273.60956,-109.47913,-19.332417,STD
598909116000,2.149998,-3.12956264219164,9.33328039862361,-0.407011742255161,-0.04153884,-0.034513887,0.018325957,273.59326,-109.47773,-19.33087,STD
598914126000,2.155008,-3.14307264583755,9.32974920931837,-0.419440518533714,-0.030848695,-0.03268129,0.015882496,273.57758,-109.47765,-19.329805,STD
598919164000,2.160046,-3.15638731377978,9.32087281036703,-0.428316973097231,-0.026267206,-0.029932396,0.01160644,273.56262,-109.47872,-19.330284,STD
598924081000,2.164963,-3.17749466032261,9.32509280831675,-0.427526627935477,-0.030848695,-0.03359759,0.008857546,273.55103,-109.48117,-19.331476,STD
598929158000,2.17004,-3.20295889704619,9.33527844982717,-0.422433780590762,-0.02565634,-0.02443461,0.012217305,273.53513,-109.48344,-19.331833,STD
598934106000,2.174988,-3.21720119362531,9.3302101202346,-0.407026028983222,-0.019547688,-0.012217305,0.00580322,273.52017,-109.490944,-19.337423,STD
598939089000,2.179971,-3.2286720591462,9.3210332170088,-0.388672591447527,-0.021380283,-0.0036651916,0.0030543262,273.5041,-109.496155,-19.340773,STD
598944086000,2.184968,-3.24017515266574,9.31183053079179,-0.370267588965915,-0.01863139,0.013439035,0.00580322,273.485,-109.496025,-19.338413,STD
598949092000,2.189974,-3.25169896418441,9.30261126979472,-0.3518294375905,-0.023518313,0.021991149,0.0070249503,273.46634,-109.496704,-19.337273,STD
598954652000,2.195534,-3.27003227885076,9.30255859237829,-0.34824456697925,-0.03573562,0.021685716,0.0070249503,273.45477675137,-109.497701863478,-19.3373245276532,STD
598959127000,2.200009,-3.28713370742219,9.30683403880686,-0.352519933050678,-0.035430185,0.022602014,0.0009162979,273.44547,-109.498505,-19.337366,STD
598964133000,2.205015,-3.29588990584859,9.308656,-0.360215886461158,-0.03756821,0.016493361,0.0030543262,273.4248,-109.49775,-19.33476,STD
598969129000,2.210011,-3.29825733250866,9.308656,-0.369685598045522,-0.02565634,0.01985312,0.004886922,273.3998,-109.50093,-19.33684,STD
598974106000,2.214988,-3.30061575574468,9.308656,-0.379119295914894,-0.025045475,0.021380283,0.010995574,273.3781,-109.50351,-19.33883,STD
598979208000,2.22009,-3.30303341203365,9.308656,-0.388789926119743,-0.03359759,0.019547688,0.010079277,273.3568,-109.50751,-19.342197,STD
598984219000,2.225101,-3.29244233709187,9.31732307817887,-0.369537336083959,-0.018020526,0.009162978,0.0061086523,273.3512,-109.50853,-19.342743,STD
598989187000,2.230069,-3.2731450171162,9.33179637041168,-0.330942665907524,-0.022602014,0.016493361,0.009162978,273.34097,-109.5068,-19.341368,STD
598994164000,2.235046,-3.27003737197982,9.337387,-0.314585829340061,-0.03268129,0.011301007,0.009162978,273.34125,-109.5076,-19.342216,STD
598999145000,2.240027,-3.27711692686257,9.337387,-0.312225977712477,-0.021685716,0.019242255,0.015882496,273.33554,-109.50625,-19.340038,STD
599004123000,2.245005,-3.28419221780944,9.337387,-0.309867547396854,-0.027183503,0.023823744,0.009468411,273.33276,-109.50358,-19.338718,STD
599009110000,2.249992,-3.29128030056397,9.337387,-0.307504853145345,-0.01863139,0.020463986,0.017104227,273.33026,-109.496124,-19.331636,STD
599014098000,2.25498,-3.29710979434115,9.33469854951496,-0.317211402978981,-0.01863139,0.018020526,0.013133603,273.32584,-109.4934,-19.329754,STD
599019134000,2.260016,-3.30198335586095,9.32982488621665,-0.336705659236055,-0.027488936,0.018325957,0.013439035,273.32178,-109.48747,-19.324654,STD
599024658000,2.26554,-3.31052824948494,9.33760517650555,-0.331705070582409,-0.019547688,0.02107485,0.026267206,273.31305,-109.475426,-19.312485,STD
599029817000,2.270699,-3.32031573504358,9.35228655814184,-0.312130293643027,-0.032375857,0.023518313,0.03145956,273.30432,-109.46472,-19.302746,STD
599034092000,2.274974,-3.31519512930863,9.34593182984658,-0.309110091767284,-0.028405234,0.027488936,0.022602014,273.30048,-109.457275,-19.295267,STD
599039091000,2.279973,-3.30088707298267,9.32685440481172,-0.313879410675433,-0.03145956,0.024129177,0.027183503,273.29834,-109.444244,-19.282944,STD
599044074000,2.284956,-3.28929872877761,9.31311058807069,-0.321157296571429,-0.04550946,0.023823744,0.02076942,273.29285,-109.43688,-19.276934,STD
599049105000,2.289987,-3.27983758379971,9.30364899852725,-0.330618451428571,-0.038789943,0.026267206,0.026267206,273.28772,-109.425835,-19.266565,STD
599054128000,2.29501,-3.26432135721703,9.29786270176814,-0.337620788202968,-0.03145956,0.027183503,0.027794369,273.2832,-109.41695,-19.25871,STD
599059076000,2.299958,-3.24343319721311,9.29554174393888,-0.342262611769604,-0.043676864,0.030848695,0.025350908,273.2771,-109.407524,-19.2507,STD
599064068000,2.30495,-3.22235928962629,9.29320014703434,-0.346945712667875,-0.043066,0.025045475,0.025961773,273.27414,-109.39749,-19.241215,STD
599069099000,2.309981,-3.20112074213645,9.29084025640398,-0.351665400291914,-0.046120327,0.035430185,0.024740042,273.26514,-109.38845,-19.233038,STD
599074108000,2.31499,-3.18503486999119,9.29354389331506,-0.350300046872859,-0.04886922,0.04734206,0.038179077,273.26288,-109.3736,-19.219372,STD
599079135000,2.320017,-3.17561080716453,9.30296810374865,-0.340876023408045,-0.05589417,0.036651913,0.035430185,273.264,-109.36381,-19.21119,STD
599084066000,2.324948,-3.16621126340791,9.31051201363776,-0.337044117985494,-0.043676864,0.03176499,0.03940081,273.2678,-109.347725,-19.196175,STD
599089122000,2.330004,-3.15631851685565,9.31545877428747,-0.341990517086526,-0.04795292,0.03145956,0.03604105,273.273,-109.33417,-19.184559,STD
599094460000,2.335342,-3.15289465774723,9.33098437991131,-0.353265675427051,-0.04520403,0.041233405,0.03481932,273.27585,-109.318535,-19.17028,STD
599099106000,2.339988,-3.15684089391574,9.35466167330377,-0.36905062834235,-0.042455133,0.04886922,0.02565634,273.279,-109.30646,-19.15971,STD
599104041000,2.344923,-3.15953932801126,9.37690448326207,-0.382265288011263,-0.051923547,0.0580322,0.027794369,273.2788,-109.290665,-19.145445,STD
599109084000,2.349966,-3.15450274417562,9.38445951679007,-0.377228704175618,-0.04062254,0.059864793,0.03359759,273.27832,-109.27761,-19.133097,STD
599114029000,2.354911,-3.14956403565544,9.39186773427886,-0.372289995655439,-0.028710667,0.07727446,0.030543262,273.26343,-109.268616,-19.1239,STD
599119103000,2.359985,-3.14449649126082,9.39946920961518,-0.36722245126082,-0.04153884,0.09193522,0.028405234,273.2491,-109.25761,-19.113165,STD
599124073000,2.364955,-3.13554850085106,9.40160284148936,-0.366740759574468,-0.03756821,0.112704635,0.026267206,273.22794,-109.248726,-19.103333,STD
599129106000,2.369988,-3.11845629007092,9.39305655762411,-0.375286864964539,-0.04917465,0.12186762,0.0290161,273.20624,-109.23835,-19.09297,STD
599134081000,2.374963,-3.10021685225069,9.38488975778299,-0.382691025744616,-0.040011674,0.12370021,0.024740042,273.18283,-109.22862,-19.082687,STD
599139087000,2.379969,-3.06596236344799,9.37999617178728,-0.377797541943452,-0.03756821,0.12675454,0.022296581,273.1568,-109.2173,-19.07134,STD
599144070000,2.384952,-3.03639163457597,9.37841367287987,-0.372951525424027,-0.040011674,0.12950343,0.01740966,273.1311,-109.207,-19.060682,STD
599149102000,2.389984,-3.04109451908851,9.40192809544257,-0.368248640911486,-0.05131268,0.13469578,0.018325957,273.1043,-109.195816,-19.049326,STD
599154097000,2.394979,-3.04603597958374,9.42480095916748,-0.366058850993915,-0.070554934,0.15332718,0.019242255,273.0675,-109.18332,-19.036623,STD
599159080000,2.399962,-3.05445311429579,9.44163522859159,-0.395518993874239,-0.07147124,0.17195857,0.010995574,273.02963,-109.17372,-19.02657,STD
599164119000,2.405001,-3.06296484253462,9.45865868506923,-0.425310216024341,-0.05955936,0.15699236,0.007941248,272.99384,-109.1668,-19.019629,STD
599169093000,2.409975,-3.06084485186227,9.46561826508244,-0.468288210174588,-0.059253927,0.14110987,-0.0009162979,272.95337,-109.163506,-19.01661,STD
599174084000,2.414966,-3.05620883734239,9.47025442483026,-0.514648887875849,-0.050396383,0.12370021,-0.003970624,272.9187,-109.16013,-19.013056,STD
599179145000,2.420027,-3.03479104735768,9.46043818746174,-0.524887092794328,-0.030848695,0.12064589,0.005192355,272.8869,-109.15722,-19.00891,STD
599184106000,2.424988,-3.0081324290757,9.44589707233218,-0.522463566857784,-0.031154128,0.112399206,-0.00061086525,272.86227,-109.15893,-19.010122,STD
599189096000,2.429978,-2.98131797529076,9.43127095572332,-0.520025873968578,-0.029321533,0.09621128,-0.014660766,272.84402,-109.16162,-19.010702,STD
599194121000,2.435003,-2.95431544417466,9.41654225112222,-0.517571083033054,-0.023823744,0.08399397,-0.0036651916,272.8279,-109.15891,-19.005842,STD
599199104000,2.439986,-2.96547436067416,9.38631999157303,-0.497375205898876,-0.04337143,0.09285152,-0.0036651916,272.821177064035,-109.15988332058,-19.0062393556182,STD
599204053000,2.444935,-2.98449345505618,9.35303687429775,-0.473601327991573,-0.043066,0.07971791,0.0015271631,272.8145,-109.16085,-19.006634,STD
599209079000,2.449961,-3.01066066095037,9.32048365922591,-0.48439483520023,-0.050396383,0.05375614,0.009468411,272.81192,-109.1594,-19.003866,STD
599214039000,2.454921,-3.03796527562751,9.28862761017436,-0.502597921155394,-0.04153884,0.040011674,0.008246681,272.80676,-109.15465,-18.997913,STD
599219093000,2.459975,-3.08255018168826,9.24954957040777,-0.500820632396151,-0.052534413,0.015577064,-0.0009162979,272.8214,-109.15956,-19.004387,STD
599224083000,2.464965,-3.13263321808308,9.20857271350991,-0.491714647821075,-0.06566802,-0.014966198,0.0021380284,272.84192,-109.16141,-19.007732,STD
599229923000,2.470805,-3.18170830797036,9.17439724501852,-0.492284500996295,-0.050701816,-0.036957346,0.007330383,272.8657,-109.16542,-19.012123,STD
599234078000,2.47496,-3.2135830283068,9.15447554480825,-0.49626884103835,-0.0571159,-0.053145275,0.0027488936,272.89624,-109.16998,-19.018534,STD
599239095000,2.479977,-3.25752392403912,9.13982219031785,-0.510049962762836,-0.04550946,-0.057421334,0.005192355,272.92926,-109.17866,-19.028103,STD
599244235000,2.485117,-3.30566554105623,9.13019417858191,-0.529306614596577,-0.038179077,-0.058643065,0.003970624,272.9653,-109.18898,-19.039782,STD
599249105000,2.489987,-3.33587615290682,9.13178650172551,-0.533756369418635,-0.03848451,-0.053450707,-0.00061086525,272.9949,-109.210266,-19.061754,STD
599254098000,2.49498,-3.35703222865233,9.14024866693213,-0.529525154269534,-0.04184427,-0.04520403,0.0012217305,273.02344,-109.22956,-19.081503,STD
599259071000,2.499953,-3.37630103045485,9.15287000395518,-0.505664256189848,-0.044898596,-0.029321533,0.0018325958,273.04868,-109.25536,-19.107153,STD
599264104000,2.504986,-3.39218766011866,9.17405206624918,-0.44211767117996,-0.036651913,-0.024740042,0.0018325958,273.058935848718,-109.269161700429,-19.1206639004091,STD
599269092000,2.509974,-3.39484827548387,9.19645237548387,-0.392130068954839,-0.038179077,-0.0076358155,-0.007330383,273.0691,-109.28284,-19.134054,STD
599274083000,2.514965,-3.3853599262531,9.22017337240695,-0.354176454062531,-0.036651913,0.006414085,-0.004276057,273.09137,-109.31017,-19.161446,STD
599279822000,2.520704,-3.37754761124494,9.24736728373976,-0.316796686709448,-0.037873644,0.0125227375,-0.004276057,273.10608,-109.33942,-19.191723,STD
599284177000,2.525059,-3.37342998862672,9.26795518185408,-0.292091191774114,-0.04062254,0.018020526,0.0021380284,273.11655,-109.36502,-19.218142,STD
599289092000,2.529974,-3.36880996838666,9.28882952160554,-0.264371059232345,-0.054367006,0.007330383,-0.00061086525,273.12762,-109.389175,-19.244469,STD
599294150000,2.535032,-3.36408513922161,9.30772967698985,-0.236021763553453,-0.064751714,0.0070249503,0.0018325958,273.1338,-109.4093,-19.266474,STD
599299116000,2.539998,-3.35740149347228,9.32432023097719,-0.214179835971294,-0.062308256,0.009162978,-0.0030543262,273.1376,-109.433876,-19.293493,STD
599304127000,2.545009,-3.34796591643728,9.33847364579237,-0.20002646056626,-0.06505715,-0.00061086525,-0.003970624,273.14484,-109.45534,-19.317951,STD
599309074000,2.549956,-3.3423057,9.34970982352652,-0.195197281875031,-0.06505715,-0.011911872,0.009468411,273.15015,-109.471664,-19.337582,STD
599314254000,2.555136,-3.3423057,9.35703767817224,-0.20496789841942,-0.067500606,-0.0106901415,0.00580322,273.154,-109.49225,-19.36151,STD
599319019000,2.559901,-3.3423057,9.36377845566005,-0.213955733908612,-0.06261369,-0.01740966,0.010995574,273.16553,-109.502174,-19.37505,STD
599324132000,2.565014,-3.3423057,9.37101152917426,-0.223599973752524,-0.06505715,-0.02107485,0.013439035,273.17514,-109.5132,-19.389803,STD
599329164000,2.570046,-3.34867605233221,9.37887924268469,-0.237806307067117,-0.06811147,-0.013744468,0.02076942,273.183,-109.52114,-19.401127,STD
599334157000,2.575039,-3.36714711458233,9.38811496668276,-0.260895154167069,-0.061391957,-0.022296581,0.011301007,273.1961,-109.53309,-19.41632,STD
599339026000,2.579908,-3.38182853357777,9.38998544030159,-0.280158695081595,-0.048258353,-0.01740966,0.019242255,273.20074,-109.54259,-19.428093,STD
599344089000,2.584971,-3.38683646913861,9.36995359347242,-0.290174681247676,-0.04795292,-0.013133603,0.02107485,273.20752,-109.55585,-19.443832,STD
599349665000,2.590547,-3.3951737008174,9.34158855876518,-0.303526491226093,-0.044898596,-0.0067195175,0.02565634,273.21323,-109.56815,-19.457535,STD
599354014000,2.594896,-3.40508946223316,9.31184099841282,-0.316747513349734,-0.042760566,-0.009162978,0.027794369,273.22006,-109.58017,-19.470957,STD
599358985000,2.599867,-3.41642338957226,9.27783890080152,-0.331859424358384,-0.042455133,0.004276057,0.020463986,273.22043,-109.59458,-19.486273,STD
599364019000,2.604901,-3.4229156588497,9.25836177311725,-0.327196913956149,-0.040011674,0.004276057,0.020463986,273.225036570657,-109.600676783678,-19.492814330333,STD
599368984000,2.609866,-3.42795207575469,9.24325220686368,-0.317124069628217,-0.034513887,-0.009162978,0.01863139,273.22958,-109.60669,-19.499266,STD
599374002000,2.614884,-3.42419705141025,9.23516846691048,-0.326784000453885,-0.029932396,-0.013744468,0.021685716,273.23184,-109.61894,-19.512238,STD
599379024000,2.619906,-3.41937818566204,9.2279402689244,-0.338831174888032,-0.03573562,-0.0067195175,0.02107485,273.23566,-109.63558,-19.529287,STD
599384012000,2.624894,-3.41459194465207,9.22076100736436,-0.350796787408446,-0.029321533,-0.016798794,0.027794369,273.24075,-109.64538,-19.539036,STD
599388956000,2.629838,-3.40984792389159,9.21364507529683,-0.362656849216973,-0.036957346,-0.01863139,0.021991149,273.24112,-109.65799,-19.55203,STD
599394041000,2.634923,-3.40298981245149,9.22559486355258,-0.370272074085177,-0.03359759,-0.022602014,0.021380283,273.24527,-109.667404,-19.561434,STD
599398963000,2.639845,-3.39613055087796,9.23931348219829,-0.377131364308304,-0.035124753,-0.027488936,0.024129177,273.25012,-109.67684,-19.571243,STD
599404046000,2.644928,-3.3890469209352,9.25348084070625,-0.384215023837796,-0.032986723,-0.020463986,0.023518313,273.25363,-109.687355,-19.58139,STD
599409004000,2.649886,-3.38213749003686,9.26729979870004,-0.391124483595266,-0.03481932,-0.026267206,0.015271631,273.2624,-109.69884,-19.592842,STD
599414060000,2.654942,-3.37297036379979,9.27608082234755,-0.386917173859711,-0.042760566,-0.017715093,0.015882496,273.2725,-109.70689,-19.6012,STD
599418999000,2.659881,-3.36344323449821,9.28322606984239,-0.379771821909462,-0.026267206,-0.011301007,0.011301007,273.28458,-109.71911,-19.61315,STD
599424020000,2.664902,-3.35375793054534,9.29048994667405,-0.372507838888162,-0.033292156,-0.0070249503,0.009468411,273.29504,-109.727,-19.621336,STD
599429062000,2.669944,-3.34403211845007,9.29778420418954,-0.365213474738909,-0.028099801,-0.00030543262,0.0125227375,273.30273,-109.73535,-19.629065,STD
599434051000,2.674933,-3.33266715709229,9.30100673676189,-0.354280169427209,-0.029321533,0.01282817,0.01160644,273.30417,-109.74772,-19.640951,STD
599439011000,2.679893,-3.32098978219677,9.30334224588229,-0.342602857936968,-0.034513887,0.01863139,0.01160644,273.30585,-109.75862,-19.651348,STD
599444082000,2.684964,-3.30905107895177,9.30573002143665,-0.3306642195162,-0.031154128,0.016187929,0.0070249503,273.30524,-109.76823,-19.66048,STD
599449096000,2.689978,-3.29724657134569,9.30809095747087,-0.318859776005703,-0.032375857,0.016798794,0.01282817,273.30215,-109.77429,-19.666258,STD
599454125000,2.695007,-3.28043205628994,9.29116932036242,-0.309039948144969,-0.032070424,0.016187929,0.0125227375,273.30017,-109.78324,-19.674843,STD
599459103000,2.699985,-3.26224481340963,9.26843526676204,-0.299946326704816,-0.028099801,0.007330383,0.011301007,273.30063,-109.79062,-19.681866,STD
599464068000,2.70495,-3.21526513710321,9.28591010191655,-0.303165496262727,-0.027183503,0.017715093,0.0106901415,273.29184,-109.792305,-19.683365,STD
599469103000,2.709985,-3.15269287312837,9.32441644300259,-0.312792006144939,-0.028710667,0.022907447,0.0143553335,273.2874,-109.793076,-19.684065,STD
599474079000,2.714961,-3.10933785420466,9.35011718844985,-0.306486922168186,-0.025045475,0.032375857,0.00580322,273.27808,-109.796364,-19.68713,STD
599479183000,2.720065,-3.07467104147923,9.36992660364742,-0.291629772859169,-0.025350908,0.04337143,0.0021380284,273.2669,-109.797035,-19.687664,STD
599484208000,2.72509,-3.05485377164308,9.38217697685539,-0.290545627503826,-0.0106901415,0.04550946,0.0021380284,273.263517547189,-109.794292402876,-19.6846428774593,STD
599489196000,2.730078,-3.0411480776492,9.39131432880643,-0.295114217610941,-0.0106901415,0.047647487,0.011911872,273.26016,-109.79157,-19.681644,STD
599494101000,2.734983,-3.04454532148416,9.39919673505925,-0.305578617265653,-0.0033597588,0.04734206,0.013133603,273.25153,-109.78935,-19.679058,STD
599499067000,2.739949,-3.05905889281827,9.40645339443568,-0.320092148186766,0.0012217305,0.04642576,0.015271631,273.24408,-109.776,-19.665354,STD
599504046000,2.744928,-3.07361045779462,9.41372905030263,-0.334643672644321,0.008857546,0.05467244,0.01985312,273.2323,-109.752884,-19.641203,STD
599509064000,2.749946,-3.08827600369768,9.42106169564112,-0.349309177711205,0.004276057,0.050701816,0.0143553335,273.2246,-109.73249,-19.620186,STD
599514062000,2.754944,-3.10897513203835,9.41104491980425,-0.35747514640767,-0.0015271631,0.051923547,0.019547688,273.21625,-109.70377,-19.590647,STD
599519069000,2.759951,-3.13291952312993,9.39188950694098,-0.362264024625986,0.005192355,0.0720821,0.021991149,273.2034,-109.678444,-19.564135,STD
599524058000,2.76494,-3.14734746063893,9.38680972229343,-0.356225202774601,0.00030543262,0.07849618,0.026267206,273.19614,-109.65439,-19.539026,STD
599529075000,2.769957,-3.15682227933346,9.38917847643463,-0.344381669512917,0.0018325958,0.08674286,0.025045475,273.18253,-109.63234,-19.515339,STD
599534075000,2.774957,-3.16626499280221,9.39153920410175,-0.332578267816999,0.0076358155,0.08857546,0.027183503,273.15918,-109.61511,-19.495798,STD
599539073000,2.779955,-3.17570392918557,9.39389898747782,-0.320779587481759,-0.0021380284,0.08460484,0.018325957,273.1356,-109.60147,-19.48033,STD
599544109000,2.784991,-3.18751411371681,9.3841624375,-0.334734463163717,-0.013744468,0.07086037,0.020158553,273.11533,-109.584816,-19.461863,STD
599549174000,2.790056,-3.20092851969027,9.36627665625,-0.36603476244469,-0.005192355,0.06719518,0.02443461,273.09378,-109.57074,-19.445656,STD
599554086000,2.794968,-3.21277361403412,9.34518247771051,-0.380800602982939,-0.018936822,0.05375614,0.02565634,273.09146,-109.55837,-19.43385,STD
599559028000,2.79991,-3.22319266645019,9.31913430269675,-0.375591076774904,-0.028710667,0.04428773,0.026267206,273.08917,-109.54573,-19.421381,STD
599564034000,2.804916,-3.23607295154825,9.31444884216855,-0.385080908437719,-0.026267206,0.036957346,0.02565634,273.0871,-109.534,-19.408962,STD
599569034000,2.809916,-3.25046833184688,9.324045996192,-0.404274825663894,-0.02565634,0.028405234,0.027183503,273.08835,-109.52152,-19.396288,STD
599574003000,2.814885,-3.26725272659256,9.30274808255196,-0.414587317463509,-0.032070424,0.02443461,0.028405234,273.0903,-109.51127,-19.386103,STD
599579069000,2.819951,-3.28601196054132,9.26053941440309,-0.419277135744804,-0.027794369,0.02076942,0.02565634,273.09467,-109.5024,-19.377043,STD
599584033000,2.824915,-3.29821374907362,9.24288213395746,-0.418851282243898,-0.03481932,-0.002443461,0.027488936,273.10742,-109.48907,-19.363926,STD
599589034000,2.829916,-3.30525628071758,9.24522967718851,-0.414156288928536,-0.035124753,0.0036651916,0.032986723,273.11234,-109.47626,-19.350687,STD
599594035000,2.834917,-3.31229881236153,9.24757722041957,-0.409461295613175,-0.043982297,0.010079277,0.027183503,273.11948,-109.465645,-19.339926,STD
599599013000,2.839895,-3.31930895483776,9.24991396711107,-0.404787894948534,-0.04917465,0.0070249503,0.025961773,273.1277,-109.45279,-19.32684,STD
599604747000,2.845629,-3.33036135016784,9.25552054987725,-0.407993363145448,-0.044593163,0.004581489,0.02321288,273.13358,-109.44249,-19.31621,STD
599609083000,2.849965,-3.34076392664963,9.26176200886818,-0.416315428675785,-0.054061573,0.013744468,0.024740042,273.13678,-109.43113,-19.305033,STD
599614063000,2.854945,-3.35271153524726,9.26893047422216,-0.425873520544115,-0.062002823,0.025350908,0.019242255,273.13934,-109.424164,-19.298264,STD
599619112000,2.859994,-3.36482468300015,9.27619826168646,-0.435564043805802,-0.065973446,0.026572637,0.0106901415,273.14215,-109.4178,-19.292276,STD
599624066000,2.864948,-3.3610294877522,9.28548427666781,-0.434973937106671,-0.054367006,0.037873644,0.015271631,273.13834,-109.41031,-19.28465,STD
599629093000,2.869975,-3.33975983148594,9.29730097172451,-0.423157483886898,-0.06078109,0.03756821,0.0125227375,273.13745,-109.40681,-19.281849,STD
599634125000,2.875007,-3.31846901980266,9.30912942000884,-0.411329277680035,-0.06414085,0.036957346,0.012217305,273.13156,-109.40913,-19.283777,STD
599639096000,2.879978,-3.29743630420696,9.32081447891611,-0.399644457915664,-0.057421334,0.03390302,0.0070249503,273.12653,-109.413666,-19.287867,STD
599644080000,2.884962,-3.28205343239634,9.32967081726257,-0.395440249546664,-0.061086524,0.033292156,0.007330383,273.11636,-109.41225,-19.286062,STD
599649137000,2.890019,-3.27502408251004,9.33435714838647,-0.402469604326286,-0.065973446,0.032986723,0.01038471,273.10724,-109.41171,-19.285032,STD
599654042000,2.894924,-3.2682060162272,9.33890262083313,-0.409287675355363,-0.06719518,0.027794369,0.01160644,273.09845,-109.40599,-19.279388,STD
599659122000,2.900004,-3.26114469579564,9.34361026609899,-0.416349000702501,-0.055588737,0.024740042,0.011911872,273.08932,-109.40013,-19.27334,STD
599664030000,2.904912,-3.25352896540314,9.34825664429319,-0.420086880002094,-0.054061573,0.03390302,0.01282817,273.07776,-109.3989,-19.272245,STD
599669128000,2.91001,-3.2433043525445,9.35336905748691,-0.414974562896335,-0.053450707,0.023518313,0.014660766,273.07324,-109.39768,-19.271082,STD
599674557000,2.915439,-3.23294151882582,9.35252183489212,-0.407783598825817,-0.062308256,0.024129177,0.0143553335,273.06342,-109.39517,-19.268377,STD
599679228000,2.92011,-3.22465681972405,9.34423696277433,-0.399498899724049,-0.05955936,0.024740042,0.017715093,273.057,-109.39156,-19.264315,STD
599684219000,2.925101,-3.22207132940248,9.33525484643068,-0.39904557966969,-0.062308256,0.028405234,0.02107485,273.04404,-109.38776,-19.260265,STD
599689133000,2.930015,-3.24063192699665,9.32597459608558,-0.426886500286926,-0.059253927,0.024129177,0.02076942,273.03357,-109.38442,-19.256514,STD
599694125000,2.935007,-3.25733453139269,9.31619959310788,-0.448889597333048,-0.05681047,0.02076942,0.017715093,273.01868,-109.38445,-19.25627,STD
599699133000,2.940015,-3.26417822636986,9.30479331571062,-0.44204589520976,-0.058337633,0.021685716,0.025961773,273.00424,-109.38132,-19.252884,STD
599704487000,2.945369,-3.27149474851598,9.29259898480308,-0.434729365423801,-0.062308256,0.02687807,0.031154128,272.99133,-109.382744,-19.253502,STD
599709180000,2.950062,-3.27790797945205,9.28191015496575,-0.428316127791096,-0.05589417,0.03268129,0.02565634,272.97824,-109.385124,-19.254807,STD
599714493000,2.955375,-3.28505355798196,9.2705579405266,-0.422006374600442,-0.05497787,0.03359759,0.027183503,272.95807,-109.381,-19.24939,STD
599719128000,2.96001,-3.28914014129994,9.274644182471,-0.43426613735592,-0.050701816,0.032375857,0.02443461,272.93723,-109.380035,-19.24685,STD
599724105000,2.964987,-3.29352825892101,9.27903193352974,-0.4474305039652,-0.058948494,0.04428773,0.025350908,272.91214,-109.37921,-19.244997,STD
599729162000,2.970044,-3.31765634534547,9.28379755154485,-0.434620027090291,-0.05497787,0.035430185,0.026267206,272.89423,-109.379684,-19.244211,STD
599734031000,2.974913,-3.34563135743426,9.28846012658734,-0.415970092058794,-0.03604105,0.03848451,0.025961773,272.86963,-109.38047,-19.243284,STD
599739089000,2.979971,-3.35556695547049,9.30424012966373,-0.422856054106018,-0.03726278,0.043982297,0.03023783,272.84827,-109.379776,-19.241224,STD
599744721000,2.985603,-3.36079387063669,9.32514822695998,-0.438536810520399,-0.03970624,0.03481932,0.030848695,272.83102,-109.38077,-19.240475,STD
599749140000,2.990022,-3.36503268241193,9.31887635740564,-0.435173022650809,-0.038789943,0.040317107,0.028099801,272.80194,-109.387436,-19.245247,STD
599754029000,2.994911,-3.36975182520284,9.30707825404425,-0.428094303536764,-0.030848695,0.03726278,0.022296581,272.77884,-109.39476,-19.250795,STD
599759078000,2.99996,-3.37462540915688,9.29489403971174,-0.420783922516757,-0.03023783,0.04184427,0.03145956,272.75327,-109.3983,-19.25237,STD
599764037000,3.004919,-3.37941211995666,9.28292701280048,-0.413603851318853,-0.035124753,0.03023783,0.023823744,272.7339,-109.408104,-19.260458,STD
599769098000,3.00998,-3.38618381974092,9.27435413843028,-0.419230608536957,-0.03359759,0.036957346,0.02076942,272.7084,-109.41407,-19.264236,STD
599774104000,3.014986,-3.3934900875489,9.26704794691389,-0.428972345570231,-0.030848695,0.045814894,0.022907447,272.68634,-109.42038,-19.268658,STD
599779093000,3.019975,-3.40077154382017,9.25976656667513,-0.438681000396241,-0.03145956,0.034208454,0.022296581,272.6634,-109.426674,-19.273296,STD
599784058000,3.02494,-3.40801797203962,9.25252021412243,-0.448342950929642,-0.028099801,0.03176499,0.01985312,272.63574,-109.43295,-19.277533,STD
599789088000,3.02997,-3.39468733603119,9.25485904250974,-0.435454046901801,-0.034208454,0.037873644,0.01863139,272.60965,-109.43853,-19.28153,STD
599794093000,3.034975,-3.37689194564693,9.25930798301467,-0.417658633290329,-0.03726278,0.030543262,0.015577064,272.58893,-109.44534,-19.286808,STD
599799098000,3.03998,-3.3608008687248,9.25736020645024,-0.415214409424995,-0.031154128,0.040011674,0.015577064,272.5656,-109.453224,-19.292542,STD
599804074000,3.044956,-3.34563409885423,9.25230449331636,-0.420270027536601,-0.033292156,0.038789943,0.012217305,272.54822,-109.46226,-19.30014,STD
599809083000,3.049965,-3.33758637697727,9.25276814052671,-0.418233281366267,-0.03756821,0.038179077,0.013744468,272.52725,-109.467285,-19.303942,STD
599814285000,3.055167,-3.33131884612094,9.25485736110878,-0.414054923099052,-0.035124753,0.038179077,0.008552114,272.50687,-109.47513,-19.31048,STD
599819122000,3.060004,-3.32549107857922,9.256799990858,-0.410169740681037,-0.023823744,0.0290161,0.0070249503,272.4902,-109.48037,-19.31429,STD
599824101000,3.064983,-3.31949222503565,9.25879965046549,-0.40617050080936,-0.03481932,0.028710667,0.013744468,272.47137,-109.48382,-19.31697,STD
599830112000,3.070994,-3.31458425316541,9.26379889637008,-0.40424378738435,-0.025350908,0.030848695,0.01282817,272.4549,-109.49084,-19.322206,STD
599834105000,3.074987,-3.31824675315583,9.27478653019347,-0.411568791189541,-0.03726278,0.029321533,0.015577064,272.4402,-109.49359,-19.324444,STD
599839033000,3.079915,-3.32276686333685,9.28834702593142,-0.42060901627143,-0.038789943,0.015271631,0.011301007,272.44098,-109.49938,-19.330372,STD
599844092000,3.084974,-3.32740713066756,9.30226799750982,-0.429889555778182,-0.03176499,0.008857546,0.0125227375,272.44003,-109.5026,-19.333744,STD
599849041000,3.089923,-3.33194650268174,9.3158862794512,-0.438968304546499,-0.031154128,0.014966198,0.015882496,272.43945,-109.50599,-19.337593,STD
599854095000,3.094977,-3.32360432545926,9.31924730632765,-0.43546390744853,-0.034208454,0.0033597588,0.011301007,272.44855,-109.51184,-19.34429,STD
599859072000,3.099954,-3.31279427844921,9.32044838085578,-0.429458344171056,-0.023518313,0.0009162979,0.009773844,272.45297,-109.51629,-19.34882,STD
599864108000,3.10499,-3.30185608340347,9.32166369355896,-0.423381587758486,-0.017104227,-0.0033597588,0.007941248,272.465,-109.51773,-19.350508,STD
599869025000,3.109907,-3.29117635642971,9.32285028858705,-0.417448424279414,-0.008857546,-0.006414085,0.004886922,272.47714,-109.52041,-19.35297,STD
599874076000,3.114958,-3.2802055813749,9.32406922116523,-0.411353567917244,-0.021991149,-0.0125227375,0.0143553335,272.49146,-109.51946,-19.35242,STD
599879137000,3.120019,-3.26921308631404,9.32529056699342,-0.405246644922007,-0.021685716,-0.01985312,0.0076358155,272.5066,-109.52471,-19.357357,STD
599884136000,3.125018,-3.25835525529068,9.32649695067157,-0.399214535051785,-0.01985312,-0.022296581,0.008246681,272.52478,-109.52225,-19.355135,STD
599889019000,3.129901,-3.24774937633747,9.32767534064965,-0.393322398125142,-0.02321288,-0.025961773,0.01160644,272.54507,-109.52081,-19.354193,STD
599894164000,3.135046,-3.24225461241591,9.32781,-0.39264908,-0.024740042,-0.01863139,0.0070249503,272.5623,-109.52166,-19.355276,STD
599899037000,3.139919,-3.23770479251243,9.32781,-0.39264908,-0.026572637,-0.0290161,0.010079277,272.58572,-109.51935,-19.353554,STD
599904093000,3.144975,-3.23298410927172,9.32781,-0.39264908,-0.031154128,-0.028710667,0.009162978,272.59937,-109.51218,-19.347204,STD
599909075000,3.149957,-3.22833251830945,9.32781,-0.39264908,-0.028405234,-0.028405234,0.018020526,272.6159,-109.50186,-19.337574,STD
599914097000,3.154979,-3.22387209984439,9.32078625300929,-0.399672683978214,-0.03604105,-0.022602014,0.0106901415,272.63007,-109.49616,-19.333017,STD
599919063000,3.159945,-3.21951873000595,9.31207933150259,-0.408379428200833,-0.036957346,-0.017715093,0.019547688,272.64438,-109.48404,-19.321617,STD
599924074000,3.164956,-3.21512591158863,9.30329351119044,-0.417165069622408,-0.028405234,-0.021991149,0.014660766,272.65903,-109.47733,-19.315596,STD
599929914000,3.170796,-3.21000636268479,9.29305419955147,-0.427404172775871,-0.030848695,-0.023518313,0.02076942,272.6713,-109.46493,-19.304134,STD
599934125000,3.175007,-3.20058495546219,9.29387085954382,-0.43314068757503,-0.03145956,-0.014966198,0.016493361,272.68616,-109.46099,-19.30109,STD
599939089000,3.179971,-3.18321585235659,9.30379626859439,-0.43810329623519,-0.032375857,-0.023823744,0.014049901,272.70645,-109.454956,-19.296217,STD
599944092000,3.184974,-3.16571028772379,9.313799657289,-0.443104893964194,-0.025350908,-0.02565634,0.013439035,272.72266,-109.45027,-19.291746,STD
599949095000,3.189977,-3.14820472309098,9.32380304598361,-0.448106491693199,-0.026267206,-0.007941248,0.018325957,272.73523,-109.44458,-19.286402,STD
599954095000,3.194977,-3.15063926861028,9.33064403272643,-0.452943905515096,-0.035430185,-0.009468411,0.019242255,272.76117,-109.44429,-19.287325,STD
599959081000,3.199963,-3.16636042718533,9.33536048371909,-0.457660261295559,-0.02076942,-0.016493361,0.016187929,272.78302,-109.444595,-19.287838,STD
599964110000,3.204992,-3.18221716735258,9.34011761008132,-0.462417291624469,-0.03176499,-0.02076942,0.02443461,272.80444,-109.436516,-19.280897,STD
599969094000,3.209976,-3.19793201980707,9.34483216919633,-0.467131755565469,-0.034513887,-0.01160644,0.025350908,272.82333,-109.432335,-19.276937,STD
599974076000,3.214958,-3.21364056614098,9.34954483643367,-0.471844327667007,-0.030848695,-0.005192355,0.023518313,272.84155,-109.42505,-19.269892,STD
599979152000,3.220034,-3.22964550014157,9.35434642192079,-0.47664581622329,-0.034513887,-0.003970624,0.02321288,272.85822,-109.41701,-19.262346,STD
599984113000,3.224995,-3.24411678092993,9.36608252475714,-0.476454948884278,-0.032375857,-0.004581489,0.023518313,272.8732,-109.40987,-19.255299,STD
599989092000,3.229974,-3.25760811938131,9.38407088210884,-0.471957821979628,-0.03940081,-0.018936822,0.01985312,272.8916,-109.403725,-19.249838,STD
599994148000,3.23503,-3.26989975692177,9.38853484264363,-0.471367905053,-0.04062254,-0.0106901415,0.021991149,272.90414,-109.39973,-19.245644,STD
599999546000,3.240428,-3.28085917316091,9.37209566106636,-0.476847630338139,-0.034513887,-0.008857546,0.019547688,272.9225,-109.39821,-19.244148,STD
600004090000,3.244972,-3.28718817834455,9.35205585863279,-0.46243528445814,-0.031154128,-0.0106901415,0.024740042,272.939,-109.3945,-19.240637,STD
600009081000,3.249963,-3.29172006502323,9.32486420731014,-0.430712044582346,-0.04184427,-0.0106901415,0.023823744,272.95398,-109.393005,-19.23957,STD
600014061000,3.254943,-3.30607166853069,9.30477251633128,-0.40791927743149,-0.03848451,-0.003970624,0.023518313,272.96216,-109.39647,-19.24232,STD
600019095000,3.259977,-3.33532226792396,9.29502216381838,-0.39816912853878,-0.048258353,-0.015271631,0.020158553,272.9756,-109.40012,-19.24632,STD
600024073000,3.264955,-3.35120388688688,9.28882337271486,-0.396042146982784,-0.03634648,-0.017104227,0.021685716,272.98242,-109.403946,-19.250118,STD
600029080000,3.269962,-3.34960716890879,9.28722662139123,-0.404025740207785,-0.032986723,-0.019547688,0.027794369,272.9926,-109.40663,-19.253538,STD
600034058000,3.27494,-3.34801969894775,9.28563911827778,-0.411963093328228,-0.044898596,-0.021685716,0.021991149,273.00262,-109.41498,-19.262962,STD
600039085000,3.279967,-3.34641660302687,9.28403598887816,-0.41997857628051,-0.03604105,-0.022296581,0.023518313,273.01282,-109.42018,-19.268362,STD
600044071000,3.284953,-3.34482658188871,9.28244593453432,-0.427928685291865,-0.03604105,-0.0290161,0.025961773,273.02515,-109.42585,-19.275024,STD
600049099000,3.289981,-3.34322316707069,9.2808424862309,-0.435945762730512,-0.03756821,-0.028099801,0.032986723,273.03522,-109.42985,-19.279629,STD
600054045000,3.294927,-3.34034814228413,9.27601000721202,-0.446405777235724,-0.032986723,-0.042455133,0.021380283,273.05096,-109.44511,-19.295609,STD
600059080000,3.299962,-3.33558434184944,9.26648270480142,-0.460697188488441,-0.031154128,-0.035124753,0.022907447,273.05988,-109.45417,-19.305195,STD
600064036000,3.304918,-3.33455601541642,9.26442611636149,-0.465609291075015,-0.03268129,-0.03940081,0.019547688,273.0773,-109.46782,-19.3191,STD
600069048000,3.30993,-3.33928124888758,9.27387628726127,-0.456158829066745,-0.024740042,-0.038789943,0.022907447,273.0909,-109.479126,-19.330091,STD
600074074000,3.314956,-3.34072449734811,9.28308747134684,-0.443785111137045,-0.029321533,-0.036651913,0.030543262,273.10413,-109.479515,-19.330072,STD
600079172000,3.320054,-3.33629051983471,9.29195561157025,-0.426049177933884,-0.025961773,-0.043982297,0.02076942,273.1197,-109.484436,-19.334167,STD
600084120000,3.325002,-3.33435150609792,9.29826768000795,-0.410180073902076,-0.028405234,-0.03940081,0.026267206,273.13574,-109.48098,-19.330591,STD
600089088000,3.32997,-3.34380180749826,9.29354243062866,-0.400729772501738,-0.03970624,-0.0421497,0.027183503,273.15573,-109.48143,-19.3313,STD
600094091000,3.334973,-3.3518825,9.28915021275664,-0.391241959677922,-0.01985312,-0.048258353,0.017104227,273.1739,-109.48325,-19.332787,STD
600099105000,3.339987,-3.3518825,9.28681397270604,-0.3818971897509,-0.016798794,-0.047647487,0.024740042,273.19073,-109.47891,-19.328966,STD
600104088000,3.34497,-3.3518825,9.28449217689987,-0.372610195625182,-0.0290161,-0.054367006,0.020158553,273.20563,-109.47917,-19.329597,STD
600109079000,3.349961,-3.3518825,9.28216665354675,-0.363308291615257,-0.028099801,-0.061086524,0.020158553,273.22034,-109.47667,-19.326864,STD
600114258000,3.35514,-3.35098145824101,9.28082605743992,-0.354041513165161,-0.027183503,-0.063224554,0.018325957,273.23038,-109.47288,-19.322897,STD
600119095000,3.359977,-3.33913814577297,9.29266957601841,-0.350093747838759,-0.024129177,-0.05222898,0.023823744,273.23837,-109.467316,-19.316948,STD
600124071000,3.364953,-3.32695449416226,9.30485343966252,-0.346032536289415,-0.029321533,-0.05467244,0.014966198,273.2497,-109.465996,-19.316133,STD
600129161000,3.370043,-3.31953774606274,9.31588473431498,-0.355607922580026,-0.022907447,-0.062308256,0.02321288,273.2594,-109.458984,-19.30899,STD
600134079000,3.374961,-3.31451232879855,9.32593588369611,-0.370684342294067,-0.025045475,-0.058337633,0.028710667,273.266,-109.45493,-19.30518,STD
600139343000,3.380225,-3.30550180021332,9.32377343978474,-0.377532146667313,-0.026572637,-0.0693332,0.022907447,273.2848,-109.439125,-19.289993,STD
600144071000,3.384953,-3.29672068519345,9.31938308857752,-0.381922635409677,-0.018020526,-0.058948494,0.024129177,273.2957,-109.42075,-19.271612,STD
600149105000,3.389987,-3.2756340445478,9.32199085338501,-0.375557317819121,-0.029626964,-0.063224554,0.027488936,273.31683,-109.408844,-19.260654,STD
600154060000,3.394942,-3.2511105075969,9.32689540713178,-0.36574790303876,-0.03176499,-0.06414085,0.020158553,273.3333,-109.40068,-19.252653,STD
600159076000,3.399958,-3.23112719028706,9.33551528588282,-0.356213526983877,-0.02321288,-0.0729984,0.026572637,273.35358,-109.387405,-19.239536,STD
600164091000,3.404973,-3.21224102173614,9.3449585920173,-0.346770408197011,-0.022602014,-0.0693332,0.026572637,273.36975,-109.37809,-19.230581,STD
600169095000,3.409977,-3.1976011043956,9.33633476739927,-0.323506633992674,-0.029626964,-0.06291912,0.02321288,273.37442,-109.36007,-19.212198,STD
600174107000,3.414989,-3.18407647165399,9.32281008758336,-0.296457349679722,-0.022907447,-0.063224554,0.024740042,273.38004,-109.341835,-19.19314,STD
600179161000,3.420043,-3.17148502252019,9.3182335,-0.282495268490679,-0.025961773,-0.06536258,0.029321533,273.38354,-109.32129,-19.172512,STD
600184113000,3.424995,-3.15966558437843,9.3182335,-0.275403598200578,-0.034208454,-0.059864793,0.027488936,273.38477,-109.30288,-19.153896,STD
600189087000,3.429969,-3.14779363661649,9.3182335,-0.268280422105473,-0.035430185,-0.055283304,0.02565634,273.38354,-109.27294,-19.123991,STD
600194101000,3.434983,-3.13582621681786,9.3182335,-0.261099962728541,-0.03176499,-0.054367006,0.022296581,273.3817,-109.2449,-19.096083,STD
600199105000,3.439987,-3.11585885795247,9.32768777787934,-0.252270943308958,-0.030543262,-0.06383542,0.03023783,273.3817,-109.21504,-19.06654,STD
600204095000,3.444977,-3.09159106788544,9.34224853300833,-0.242563812078001,-0.038789943,-0.06352998,0.03268129,273.3784,-109.18842,-19.040329,STD
600209079000,3.449961,-3.07416651043891,9.35015246322657,-0.244202903139581,-0.030848695,-0.05589417,0.03268129,273.38,-109.158325,-19.010698,STD
600214109000,3.454991,-3.05988075851127,9.35491433081257,-0.251345746783314,-0.032375857,-0.0580322,0.026572637,273.3842,-109.129715,-18.983269,STD
600219093000,3.459975,-3.04572565163108,9.35963265050415,-0.258423268198893,-0.03359759,-0.056505036,0.029321533,273.38422,-109.09682,-18.951302,STD
600224073000,3.464955,-3.0315819051898,9.3643471834223,-0.26549510942072,-0.040927973,-0.056199603,0.035430185,273.3851,-109.065475,-18.92118,STD
600229211000,3.470093,-3.01681942554862,9.3566659926515,-0.277602081030803,-0.03634648,-0.049785517,0.03726278,273.37744,-109.04623,-18.902414,STD
600234185000,3.475067,-3.00243398065231,9.34228049768472,-0.291987535941212,-0.03390302,-0.045814894,0.032986723,273.3704,-109.02733,-18.884335,STD
600239090000,3.479972,-2.99454027979719,9.34338756571763,-0.284880123524766,-0.040927973,-0.03970624,0.038789943,273.3616,-109.00271,-18.860254,STD
600244110000,3.484992,-2.9898527275351,9.35276286602964,-0.266129890002925,-0.051618114,-0.03940081,0.04184427,273.35336,-108.98074,-18.838905,STD
600249098000,3.48998,-2.98515424002177,9.37901656248145,-0.264192698757297,-0.04428773,-0.032375857,0.038179077,273.3421,-108.95956,-18.817492,STD
600254093000,3.494975,-2.98042127118829,9.41688011546453,-0.273658651250618,-0.043066,-0.028405234,0.03634648,273.33188,-108.93717,-18.795473,STD
600259098000,3.49998,-2.99329092929558,9.43180006380872,-0.281792126516509,-0.043982297,-0.029626964,0.034208454,273.32904,-108.931915,-18.791698,STD
600264107000,3.504989,-3.01941209190634,9.42942536983318,-0.288916064627494,-0.051618114,-0.018936822,0.032375857,273.3213,-108.926994,-18.78823,STD
600269090000,3.509972,-3.04539766852631,9.42706300207911,-0.296003024820553,-0.04886922,-0.014049901,0.032070424,273.31842,-108.92152,-18.783924,STD
600274078000,3.51496,-3.07140931937528,9.42469826389783,-0.303097096151676,-0.04337143,-0.016187929,0.03848451,273.31445,-108.914566,-18.778221,STD
600279147000,3.520029,-3.08252026567541,9.41751945490251,-0.304034399430495,-0.04520403,-0.0018325958,0.03268129,273.3039,-108.911095,-18.7759,STD
600284130000,3.525012,-3.08028890124842,9.40636286575957,-0.29957175911348,-0.057421334,-0.0070249503,0.035430185,273.30002,-108.903336,-18.769651,STD
600289124000,3.530006,-3.07805261107215,9.39518164838453,-0.295099267493337,-0.04795292,0.0012217305,0.03604105,273.29376,-108.90466,-18.771557,STD
600294093000,3.534975,-3.07582751578061,9.38405640426427,-0.290649165198485,-0.049480084,0.0067195175,0.028405234,273.28967,-108.90671,-18.775019,STD
600299073000,3.539955,-3.07525901527778,9.37017403888889,-0.285096215555556,-0.05009095,0.015882496,0.0290161,273.28217,-108.9065,-18.77571,STD
600304092000,3.544974,-3.07970966,9.34792128,-0.276195112,-0.047036625,0.024129177,0.022296581,273.27307,-108.91048,-18.780458,STD
600309110000,3.549992,-3.08229166247855,9.32684975994592,-0.26839065500026,-0.05222898,0.021685716,0.025350908,273.2688,-108.91635,-18.787949,STD
600314108000,3.55499,-3.06735637838681,9.31689274793281,-0.270879856019554,-0.059864793,0.03023783,0.027488936,273.2587,-108.92404,-18.796988,STD
600319083000,3.559965,-3.05248982409382,9.3069815565032,-0.273357602132196,-0.057421334,0.03634648,0.018936822,273.25464,-108.93403,-18.808704,STD
600324667000,3.565549,-3.03580342426023,9.29585711571065,-0.276138654251391,-0.057421334,0.044593163,0.020463986,273.24738,-108.939896,-18.816433,STD
600329095000,3.569977,-3.0309649700584,9.29302269652578,-0.282421484762942,-0.06291912,0.03756821,0.018936822,273.2427,-108.948586,-18.827147,STD
600334102000,3.574984,-3.0499497913689,9.30726189483322,-0.301406365544888,-0.06414085,0.04520403,0.023518313,273.2312,-108.95489,-18.835022,STD
600339092000,3.579974,-3.06819890384579,9.3187507534593,-0.316551890743392,-0.055283304,0.04642576,0.024740042,273.22653,-108.95843,-18.840126,STD
600344109000,3.584991,-3.08424667292203,9.32104320982441,-0.318844423711232,-0.06078109,0.049480084,0.023823744,273.21893,-108.96063,-18.844223,STD
600349250000,3.590132,-3.1006910781086,9.32339232646245,-0.32119361884531,-0.056199603,0.056505036,0.020463986,273.21356,-108.96241,-18.846992,STD
600354089000,3.594971,-3.11616948244584,9.32560344791965,-0.323404814187422,-0.06291912,0.04734206,0.023823744,273.21216,-108.961914,-18.8481,STD
600359297000,3.600179,-3.13314560086398,9.32857486840164,-0.327523571870193,-0.058948494,0.05100725,0.023518313,273.19934,-108.96688,-18.853676,STD
600364111000,3.604993,-3.1525756271415,9.33829010978822,-0.351811178263618,-0.058948494,0.06536258,0.028405234,273.18625,-108.96887,-18.856565,STD
600369066000,3.609948,-3.17145493358005,9.34573842754188,-0.373801846716011,-0.058643065,0.058643065,0.021991149,273.18637,-108.978386,-18.867424,STD
600374082000,3.614964,-3.18315079178029,9.3363815455785,-0.376141018356058,-0.053450707,0.052839845,0.025045475,273.182,-108.98369,-18.873714,STD
600379293000,3.620175,-3.19530133346319,9.32666090923257,-0.378571126692637,-0.06566802,0.059253927,0.02321288,273.172,-108.996,-18.886736,STD
600384178000,3.62506,-3.20669173763148,9.31754839559797,-0.380849207526295,-0.06047566,0.06261369,0.022602014,273.16483,-109.00734,-18.898176,STD
600389306000,3.630188,-3.21812617105798,9.30706016137371,-0.383391428391802,-0.04795292,0.057421334,0.01740966,273.169,-109.01191,-18.903578,STD
600394804000,3.635686,-3.22298711974705,9.28275567171344,-0.388252336475258,-0.057421334,0.064751714,0.018936822,273.16827,-109.0141,-18.906895,STD
600399036000,3.639918,-3.22672875940731,9.26404766875923,-0.391993944879985,-0.05589417,0.062308256,0.013133603,273.165,-109.01895,-18.911741,STD
600404097000,3.644979,-3.24053027178265,9.2520075386082,-0.379502653307912,-0.058643065,0.056199603,0.014966198,273.16083,-109.02068,-18.913826,STD
600409418000,3.6503,-3.25631036550594,9.24220650880787,-0.363526328578451,-0.058337633,0.055588737,0.015271631,273.1557,-109.0245,-18.917831,STD
600414106000,3.654988,-3.26090848496518,9.25600115526424,-0.354330080057354,-0.043982297,0.070554934,0.018020526,273.14816,-109.02872,-18.921701,STD
600419342000,3.660224,-3.26494427095517,9.27094638011696,-0.344466348382066,-0.044898596,0.05955936,0.017715093,273.148,-109.03458,-18.928186,STD
600424064000,3.664946,-3.25514967498376,9.2787820159844,-0.340548509993502,-0.049480084,0.06047566,0.0143553335,273.1399,-109.04064,-18.934305,STD
600430379000,3.671261,-3.24205080298895,9.2892610588694,-0.335308961195582,-0.048563786,0.052534413,0.016187929,273.1351,-109.04407,-18.93788,STD
600434088000,3.67497,-3.23435741957981,9.29541573346329,-0.332231607831926,-0.051923547,0.055588737,0.017715093,273.12677,-109.0481,-18.942215,STD
600439088000,3.67997,-3.223986182846,9.30371267953216,-0.328083113138402,-0.05009095,0.047647487,0.016798794,273.12424,-109.05236,-18.946785,STD
600444076000,3.684958,-3.2157047720389,9.31286058763112,-0.319304685871941,-0.04734206,0.046120327,0.019242255,273.11896,-109.055046,-18.949749,STD
600449098000,3.68998,-3.21044972533872,9.32337101027098,-0.30353937017701,-0.042455133,0.04520403,0.014049901,273.11584,-109.06017,-18.955114,STD
600454093000,3.694975,-3.21373255425559,9.32918559588185,-0.302383291491829,-0.048258353,0.044898596,0.012217305,273.11755,-109.057495,-18.95337,STD
600459083000,3.699965,-3.22328587671048,9.33157398260783,-0.311936643873257,-0.044898596,0.04886922,0.019242255,273.11823,-109.054245,-18.950584,STD
600464445000,3.705327,-3.23355139073917,9.33414042141036,-0.322202190059473,-0.047036625,0.03756821,0.015271631,273.1225,-109.05323,-18.950787,STD
600469096000,3.709978,-3.24245569990504,9.33636655100205,-0.331106527118797,-0.038789943,0.041233405,0.01863139,273.1211,-109.04865,-18.946796,STD
600474065000,3.714947,-3.23742366665229,9.33478308589707,-0.333886276151045,-0.04520403,0.049785517,0.016187929,273.12137,-109.04648,-18.945734,STD
600479188000,3.72007,-3.22096626237301,9.3300809879241,-0.331535214889783,-0.036957346,0.05467244,0.013133603,273.12158,-109.04429,-18.943974,STD
600484200000,3.725082,-3.20486544054054,9.32548077027027,-0.329235094054054,-0.032375857,0.06719518,0.01740966,273.11792,-109.04264,-18.942509,STD
600489094000,3.729976,-3.18914368833621,9.32098885782059,-0.326989126103124,-0.04153884,0.05497787,0.014049901,273.12015,-109.04386,-18.944286,STD
600494101000,3.734983,-3.18769513426163,9.31208682293,-0.31946499397994,-0.05100725,0.050701816,0.015271631,273.1088,-109.044174,-18.944393,STD
600499064000,3.739946,-3.20798089368331,9.2968718811353,-0.304250624105847,-0.040927973,0.06078109,0.016798794,273.09692,-109.04559,-18.945313,STD
600504046000,3.744928,-3.21536474729449,9.29682911514492,-0.301765576415076,-0.03848451,0.07269296,0.014966198,273.08813,-109.041504,-18.94144,STD
600509073000,3.749955,-3.21060244925314,9.31111670546048,-0.311290271953705,-0.0421497,0.06994407,0.014049901,273.08093,-109.03699,-18.937078,STD
600514061000,3.754943,-3.20351356890056,9.3205918470804,-0.319572161552493,-0.039095376,0.06688975,0.018325957,273.0671,-109.03704,-18.93705,STD
600519049000,3.759931,-3.19404212980073,9.32532752954297,-0.326675727278676,-0.04550946,0.070249505,0.020463986,273.05237,-109.03753,-18.937809,STD
600524072000,3.764954,-3.18450423112422,9.33009644153366,-0.33382913759195,-0.04062254,0.07147124,0.024129177,273.0428,-109.03111,-18.931263,STD
600529129000,3.770011,-3.17490177171607,9.33489763363736,-0.341030968361257,-0.050396383,0.07360926,0.021380283,273.032,-109.02552,-18.926119,STD
600534049000,3.774931,-3.17100498629793,9.33468199188791,-0.343683059351032,-0.04153884,0.06505715,0.01282817,273.02426,-109.021454,-18.921923,STD
600539069000,3.779951,-3.1733685943117,9.32877287930187,-0.341319463677483,-0.03970624,0.06688975,0.01282817,273.01294,-109.01544,-18.916143,STD
600544056000,3.784938,-3.17571666466322,9.32290261147984,-0.338971405585054,-0.03940081,0.071776666,0.013133603,273.0064,-109.01064,-18.91133,STD
600549083000,3.789965,-3.17808356854474,9.31698525909538,-0.336604514060964,-0.037873644,0.071776666,0.017104227,273.00098,-109.00504,-18.905651,STD
600553992000,3.794874,-3.18039491351278,9.31120680617011,-0.334293181160275,-0.041233405,0.07360926,0.017104227,272.99356,-109.00049,-18.901104,STD
600559014000,3.799896,-3.18275946320305,9.30529533935595,-0.331928643815143,-0.047647487,0.06414085,0.010079277,272.9897,-108.996956,-18.897743,STD
600563996000,3.804878,-3.18510517936332,9.29943095710423,-0.329582939901672,-0.04062254,0.071776666,0.02076942,272.9698,-108.99568,-18.895607,STD
600569011000,3.809893,-3.18746643318584,9.2935277300885,-0.32722169840708,-0.04062254,0.06963864,0.01740966,272.95584,-108.999886,-18.899572,STD
600574008000,3.81489,-3.19504493299743,9.29248617881841,-0.322627320385299,-0.03726278,0.06780604,0.020158553,272.93756,-108.99718,-18.896091,STD
600579037000,3.819919,-3.21407742744517,9.30200262477771,-0.313111063224659,-0.03726278,0.058337633,0.014049901,272.92255,-108.99786,-18.896246,STD
600584012000,3.824894,-3.22877294516354,9.30726691132319,-0.310625001904762,-0.04153884,0.06078109,0.016798794,272.89957,-108.994514,-18.892162,STD
600589007000,3.829889,-3.2335284493389,9.30251125817676,-0.324891673333333,-0.039095376,0.0580322,0.015882496,272.8814,-108.99417,-18.89108,STD
600594054000,3.834936,-3.24192456319195,9.3003200167146,-0.337670224187635,-0.041233405,0.058948494,0.013744468,272.8614,-108.994514,-18.891106,STD
600599013000,3.839895,-3.25899550179727,9.30458784049245,-0.346205702402948,-0.04184427,0.056505036,0.009468411,272.84357,-108.99584,-18.89209,STD
600604106000,3.844988,-3.27454561831668,9.30901711723498,-0.352536404283507,-0.03634648,0.054367006,0.018020526,272.82443,-108.992325,-18.887688,STD
600609082000,3.849964,-3.26472710450191,9.3139267329762,-0.327990099241784,-0.034208454,0.06261369,0.014966198,272.80316,-108.99323,-18.887798,STD
600614209000,3.855091,-3.25538368079483,9.31859874816057,-0.307553599570549,-0.039095376,0.06872234,0.013744468,272.7843,-108.99314,-18.886854,STD
600619095000,3.859977,-3.25069953796486,9.32094074620852,-0.314579818706642,-0.040011674,0.05955936,0.012217305,272.768,-108.99418,-18.886974,STD
600624082000,3.864964,-3.24591856778618,9.32333115641423,-0.321751278966915,-0.03390302,0.070249505,0.018325957,272.74307,-108.99181,-18.883848,STD
600630092000,3.870974,-3.24015686119425,9.32621191946544,-0.330393844871115,-0.03726278,0.06352998,0.009468411,272.72638,-108.993835,-18.88575,STD
600634069000,3.874951,-3.23665882013722,9.32811178931634,-0.334886456986033,-0.04062254,0.063224554,0.014966198,272.70523,-108.99027,-18.881716,STD
600639093000,3.879975,-3.23430090096055,9.33046978235727,-0.332528513187944,-0.03481932,0.06352998,0.013439035,272.68613,-108.99141,-18.882313,STD
600644060000,3.884942,-3.23196973365352,9.33280102269052,-0.330197321538839,-0.04153884,0.06780604,0.013744468,272.66418,-108.99648,-18.886938,STD
600649697000,3.890579,-3.22932411454545,9.33544672467533,-0.327551674805195,-0.04795292,0.06811147,0.016187929,272.66296,-109.00106,-18.891455,STD
600654207000,3.895089,-3.22703779134948,9.33704088773549,-0.324573124167628,-0.040317107,0.06994407,0.013439035,272.6413,-109.00778,-18.897287,STD
600659107000,3.899989,-3.22252733287197,9.33253038216071,-0.311041880607459,-0.03573562,0.06811147,0.015577064,272.64,-109.01107,-18.900635,STD
600664447000,3.905329,-3.21763728835576,9.32797971696063,-0.297050733416367,-0.043676864,0.06414085,0.009162978,272.63812,-109.020134,-18.909964,STD
600669127000,3.910009,-3.21389082375658,9.33172629892167,-0.30079723713617,-0.036651913,0.06780604,0.013133603,272.63467,-109.02547,-18.91487,STD
600674115000,3.914997,-3.20989779695728,9.33571945080665,-0.304790305630695,-0.04550946,0.067500606,0.019242255,272.63556,-109.031876,-18.922197,STD
600679160000,3.920042,-3.20682726895835,9.34159610777525,-0.310666916055,-0.040011674,0.06261369,0.0076358155,272.6363,-109.042595,-18.933138,STD
600684247000,3.925129,-3.2044176744584,9.34882491643585,-0.317895704587002,-0.034208454,0.06688975,0.010079277,272.63434,-109.04658,-18.93751,STD
600689108000,3.92999,-3.20211513094272,9.35573257102582,-0.324803339942625,-0.040927973,0.06780604,0.021685716,272.6352,-109.050575,-18.942099,STD
600694087000,3.934969,-3.1997566935503,9.36280790782966,-0.331878657045207,-0.04153884,0.05467244,0.018020526,272.63867,-109.05847,-18.950312,STD
600699428000,3.94031,-3.19550856742259,9.3755523305713,-0.350912909454863,-0.043066,0.063224554,0.0143553335,272.63507,-109.062454,-18.954597,STD
600704104000,3.944986,-3.19062619533362,9.39019949781945,-0.375324780095944,-0.047036625,0.06566802,0.018936822,272.6375,-109.06502,-18.957737,STD
600709079000,3.949961,-3.21952531010018,9.39180307222222,-0.39220685892714,-0.040317107,0.065973446,0.014049901,272.63858,-109.06487,-18.957531,STD
600714105000,3.954987,-3.26336223773224,9.38741928333333,-0.405357960103825,-0.03359759,0.0571159,0.020463986,272.64178,-109.06019,-18.952932,STD
600719690000,3.960572,-3.28178840357763,9.37304611857303,-0.413330781402433,-0.038179077,0.057421334,0.015882496,272.64313,-109.05946,-18.95191,STD
600724077000,3.964959,-3.27749387003986,9.35586784989267,-0.415478052655627,-0.03940081,0.05375614,0.01985312,272.6485,-109.0549,-18.946877,STD
600729147000,3.970029,-3.27253073235204,9.33601514366759,-0.417959626681999,-0.03481932,0.056199603,0.013439035,272.6527,-109.059944,-18.951096,STD
600734183000,3.975065,-3.26760087803332,9.31629557196156,-0.420424558989063,-0.048258353,0.059864793,0.01863139,272.65778,-109.05994,-18.950857,STD
600739091000,3.979973,-3.27104322029862,9.31668449811,-0.418703384261954,-0.048563786,0.054061573,0.016187929,272.66483,-109.06436,-18.954622,STD
600744150000,3.985032,-3.2802000963523,9.3304200990361,-0.414124936673597,-0.04550946,0.05100725,0.011911872,272.66992,-109.06748,-18.957323,STD
600749136000,3.990018,-3.29305179977741,9.33035214190317,-0.410630228135782,-0.040317107,0.04886922,0.021991149,272.68948,-109.07215,-18.96223,STD
600754118000,3.995,-3.30994777882329,9.31586963651541,-0.408216527645065,-0.03940081,0.046120327,0.014660766,272.7095,-109.08269,-18.973083,STD
600759077000,3.999959,-3.32676575555724,9.30145399134922,-0.405813970291901,-0.046731193,0.048563786,0.01740966,272.72818,-109.087585,-18.978397,STD
600764106000,4.004988,-3.34382113063186,9.28683485855213,-0.403377499041837,-0.040927973,0.038179077,0.017715093,272.7511,-109.09544,-18.986406,STD
600769091000,4.009973,-3.35553988679162,9.28114415439059,-0.403445008930541,-0.036957346,0.03604105,0.019242255,272.76773,-109.1023,-18.993382,STD
600774084000,4.014966,-3.36254193136623,9.2834782179919,-0.405779023788744,-0.04062254,0.027794369,0.011301007,272.7889,-109.111496,-19.002916,STD
600779103000,4.019985,-3.36958043761898,9.28582443573974,-0.408125192539659,-0.037873644,0.0290161,0.018325957,272.80768,-109.120346,-19.011747,STD
600784117000,4.024999,-3.37661193201054,9.28816831615171,-0.410469024003514,-0.032986723,0.029626964,0.00580322,272.82843,-109.136604,-19.02813,STD
600789472000,4.030354,-3.38544034605621,9.27984710788758,-0.4093889443699,-0.03023783,0.013439035,0.014966198,272.84888,-109.14153,-19.032938,STD
