timestamp,rel_time,acc_x,acc_y,acc_z,gyro_x,gyro_y,gyro_z,azimuth,pitch,roll,label
122024687153000,0,3.62105088983015,9.18818259325609,-0.0214188800186442,-0.06658431,-0.03573562,-0.018936822,239.24481,-43.38083,24.414038,STD
122024692058000,0.004905,3.62011169689996,9.18888697814678,-0.0458379141013286,-0.065973446,-0.04642576,-0.028710667,239.72583,-43.717663,24.563566,STD
122024697054000,0.009901,3.61915507959533,9.18960443113635,-0.070709982251602,-0.06719518,-0.05467244,-0.029321533,240.20215,-44.044838,24.71028,STD
122024702029000,0.014876,3.61820248330018,9.19031886841079,-0.0954775040785857,-0.07238753,-0.050396383,-0.026572637,240.6792,-44.36551,24.851805,STD
122024707066000,0.019913,3.61723801545321,9.19104220922514,-0.120553686479091,-0.07147124,-0.047647487,-0.032375857,241.16016,-44.682297,24.989643,STD
122024712314000,0.025161,3.61623314603473,9.19179585079625,-0.146680310508842,-0.06719518,-0.046731193,-0.028710667,241.63773,-44.990246,25.126303,STD
122024717056000,0.029903,3.61532516379722,9.19247682799332,-0.170287865986944,-0.063224554,-0.062002823,-0.029932396,242.12021,-45.293972,25.2596,STD
122024722070000,0.034917,3.61436509991303,9.19319686588158,-0.195249545271466,-0.053145275,-0.057421334,-0.026572637,242.5953,-45.592583,25.387686,STD
122024727058000,0.039905,3.61341001442153,9.19391317002729,-0.220081786250962,-0.045814894,-0.05497787,-0.023518313,243.07439,-45.885857,25.515097,STD
122024732043000,0.04489,3.61245550335996,9.19462904335656,-0.244899092041417,-0.0421497,-0.046120327,-0.01863139,243.54892,-46.173885,25.63838,STD
122024737106000,0.049953,3.61148605712029,9.19535611791345,-0.270104712746948,-0.038179077,-0.03573562,-0.008857546,244.02011,-46.456505,25.759462,STD
122024742058000,0.054905,3.61053786478792,9.1960672522618,-0.294757731457948,-0.03481932,-0.03176499,-0.015271631,244.49187,-46.736305,25.874205,STD
122024747054000,0.059901,3.60958124748328,9.19678470525137,-0.319629799608221,-0.021380283,-0.022296581,-0.010995574,244.95473,-47.010067,25.987715,STD
122024752035000,0.064882,3.60862750232828,9.19750000415871,-0.344427191813288,-0.024129177,-0.012217305,-0.011911872,245.41745,-47.277794,26.094614,STD
122024757066000,0.069913,3.60766418334116,9.19822248334016,-0.369473503835711,-0.016187929,-0.0009162979,-0.007330383,245.87439,-47.543686,26.198927,STD
122024762056000,0.074903,3.60670871489638,9.19893907469684,-0.394315701607902,-0.011911872,0.008857546,-0.00030543262,246.32756,-47.80271,26.299229,STD
122024767074000,0.079921,3.60574788510562,9.19965968700703,-0.419297294477812,-0.014660766,0.013439035,0.0067195175,246.77695,-48.055977,26.39669,STD
122024772059000,0.084906,3.60479337404405,9.2003755603363,-0.444114600268267,-0.0030543262,0.018020526,0.0030543262,247.22302,-48.308956,26.488811,STD
122024777054000,0.089901,3.60383694821605,9.20109286972039,-0.468981690022193,0.00580322,0.027488936,0.010079277,247.66199,-48.552544,26.580816,STD
122024782254000,0.095101,3.6028412696764,9.20183961822835,-0.494869351027281,0.0036651916,0.025045475,0.009773844,248.10335,-48.793602,26.66855,STD
122024787078000,0.099925,3.60191758635423,9.20253237107497,-0.518885135005848,0.014660766,0.028405234,0.0030543262,248.53891,-49.03446,26.751284,STD
122024791991000,0.104838,3.6009768616109,9.20323790480951,-0.54334399625931,0.028710667,0.030543262,0.016187929,248.97052,-49.267048,26.836607,STD
122024797053000,0.1099,3.60435966642057,9.20157087587487,-0.523691285669888,0.03145956,0.043982297,0.015577064,249.39986,-49.499035,26.91214,STD
122024802030000,0.114877,3.60816403408478,9.19966870197397,-0.499438424430931,0.03268129,0.033292156,0.011911872,249.83182,-49.72712,26.990738,STD
122024807068000,0.119915,3.61201502952225,9.19774321430816,-0.474888310924428,0.038789943,0.04428773,0.015577064,250.33769,-50.001236,27.084482,STD
122024812056000,0.124903,3.61582780547344,9.19583683628572,-0.450581846817554,0.048563786,0.044593163,0.023518313,250.84723,-50.270397,27.177998,STD
122024817055000,0.129902,3.61964898971161,9.19392625414174,-0.426221779842761,0.05375614,0.042455133,0.021991149,251.35309,-50.535347,27.265373,STD
122024822065000,0.134912,3.62347858223677,9.19201146787622,-0.40180811000005,0.056505036,0.05681047,0.021380283,251.85056,-50.794353,27.349125,STD
122024827058000,0.139905,3.62729518013659,9.19010317888945,-0.377477280953212,0.06383542,0.064751714,0.021991149,252.3481,-51.049866,27.430628,STD
122024832053000,0.1449,3.63111330681586,9.18819412551694,-0.35313670593039,0.06352998,0.06658431,0.023823744,252.84076,-51.29897,27.507793,STD
122024837208000,0.150055,3.63505373585122,9.18622392128565,-0.328016452828758,0.06383542,0.08002335,0.026267206,253.3252,-51.544098,27.579386,STD
122024842059000,0.154906,3.63876179041001,9.18436990368604,-0.304377588076864,0.06078109,0.100792766,0.03268129,253.8035,-51.782158,27.648115,STD
122024847051000,0.159898,3.6425776239201,9.18246199689213,-0.280051632018019,0.06658431,0.10323623,0.024129177,254.28238,-52.019672,27.711267,STD
122024852048000,0.164895,3.64639727937883,9.18055217913389,-0.255701311019211,0.061391957,0.11148291,0.03481932,254.74718,-52.244137,27.774574,STD
122024857069000,0.169916,3.65023528019096,9.17863318874683,-0.231234038308582,0.058337633,0.113926366,0.03390302,255.2131,-52.469666,27.830425,STD
122024862050000,0.174897,3.65404270541407,9.17672948607446,-0.206961685117655,0.052839845,0.12736541,0.025350908,255.6702,-52.68855,27.881872,STD
122024867050000,0.179897,3.65786465404197,9.17481852173761,-0.182596745154869,0.052839845,0.13041973,0.038179077,256.12384,-52.898876,27.936972,STD
122024872069000,0.184916,3.66170112607466,9.17290029573628,-0.158139218420226,0.04734206,0.12980886,0.034513887,256.5752,-53.1084,27.98194,STD
122024877062000,0.189909,3.66551772397448,9.17099200674951,-0.133808389373388,0.0421497,0.13958271,0.036651913,257.0171,-53.30964,28.027645,STD
122024882052000,0.194899,3.66933202870512,9.16908486434134,-0.109492179290528,0.041233405,0.122783914,0.03390302,257.4652,-53.50852,28.071985,STD
122024887080000,0.199927,3.67317538024534,9.1671631986042,-0.0849907956639512,0.026572637,0.12889257,0.03726278,257.89954,-53.698303,28.112303,STD
122024892058000,0.204905,3.67698051229927,9.16526064251044,-0.0607330614370021,0.02443461,0.13164146,0.0290161,258.33862,-53.889587,28.148956,STD
122024897820000,0.210667,3.68138492589806,9.16305844720866,-0.0326549046238881,0.023518313,0.13164146,0.038179077,258.77094,-54.070194,28.18844,STD
122024902038000,0.214885,3.68460912176056,9.16144635769409,-0.0121006412712823,0.01740966,0.13683382,0.032986723,259.20056,-54.251225,28.219002,STD
122024907066000,0.219913,3.68845247330077,9.15952469195696,0.0124007423552946,0.02443461,0.13194689,0.029932396,259.6286,-54.42832,28.251541,STD
122024912052000,0.224899,3.69226372047252,9.15761907832026,0.0366974604861842,0.019547688,0.14905111,0.020158553,260.0467,-54.60188,28.275965,STD
122024917050000,0.229897,3.69608414032096,9.15570887836914,0.0610526544729846,0.008246681,0.14813483,0.02076942,260.46753,-54.770603,28.302889,STD
122024922111000,0.234958,3.69995271672212,9.15377460026739,0.0857148467033159,0.011911872,0.14538592,0.012217305,260.88275,-54.942173,28.32139,STD
122024927059000,0.239906,3.70373491708429,9.15188350995964,0.109826391290488,0.0067195175,0.15027285,0.00580322,261.29224,-55.106743,28.338243,STD
122024932050000,0.244897,3.70754998620466,9.1499759853586,0.134147474361341,-0.0030543262,0.1518,0.014660766,261.6994,-55.266502,28.355963,STD
122024937070000,0.249917,3.71138722262707,9.14805737716441,0.158609874083977,-0.007941248,0.15485434,0.015577064,262.10287,-55.426617,28.367722,STD
122024942062000,0.254909,3.71520305613716,9.1461494703705,0.182935830142822,-0.0070249503,0.14569137,0.014049901,262.50543,-55.581738,28.380783,STD
122024947062000,0.259909,3.71902500476506,9.14423850603365,0.207300770105608,-0.021685716,0.13530666,0.011911872,262.90405,-55.7309,28.392275,STD
122024952035000,0.264882,3.72282631487037,9.14233786090422,0.231534139392594,-0.020463986,0.13164146,0.016187929,263.2994,-55.878815,28.403887,STD
122024957063000,0.26991,3.72666966641059,9.14041619516709,0.256035523019171,-0.01863139,0.12522738,0.016187929,263.69604,-56.02361,28.41363,STD
122024962055000,0.274902,3.73048549992068,9.13850828837318,0.280361479078016,-0.013133603,0.118507855,0.01038471,264.0906,-56.167103,28.421885,STD
122024967921000,0.280768,3.73496941005093,9.13626634501319,0.308946426642356,-0.0125227375,0.10934488,0.0143553335,264.48334,-56.305363,28.43218,STD
122024972233000,0.28508,3.73826545854763,9.1346183293691,0.329958750866262,-0.019242255,0.100792766,0.008552114,264.8761,-56.444836,28.437407,STD
122024977213000,0.29006,3.74207211938102,9.1327150088896,0.354226231069196,-0.016187929,0.08368854,0.015577064,265.2691,-56.579403,28.44735,STD
122024982077000,0.294924,3.74579011100624,9.13085602278271,0.377928444664994,-0.0015271631,0.09193522,0.014966198,265.65472,-56.71574,28.450756,STD
122024987163000,0.30001,3.74967779715054,9.12891218985927,0.402712461595139,-0.00580322,0.0852157,0.011911872,266.04623,-56.846573,28.456789,STD
122024991997000,0.304844,3.75337285708399,9.12706466953841,0.42626848555116,0.0009162979,0.077579886,0.01740966,266.43118,-56.97687,28.462889,STD
122024997062000,0.309909,3.75155143071625,9.12886040373392,0.439216637693078,0.005192355,0.0870483,0.01863139,266.81006,-57.10594,28.464712,STD
122025002079000,0.314926,3.748425105711,9.13150573557235,0.449317079858852,0.005497787,0.07391469,0.02076942,267.1942,-57.23173,28.46942,STD
122025007093000,0.31994,3.74530065014465,9.13414948558987,0.459411482294409,0.014966198,0.057726767,0.016493361,267.4768,-57.31656,28.464136,STD
122025012091000,0.324938,3.74218616491917,9.13678479922919,0.469473672835477,0.022602014,0.05467244,0.01740966,267.75604,-57.39851,28.460249,STD
122025017138000,0.329985,3.7390411455248,9.13944594927674,0.479634512303419,0.014049901,0.04520403,0.019242255,268.04,-57.47954,28.456697,STD
122025022120000,0.334967,3.73593663064017,9.14207282653786,0.489664490949998,0.017715093,0.03970624,0.02107485,268.32092,-57.56208,28.452723,STD
122025027090000,0.339937,3.73283959351119,9.14469337651534,0.49967031067571,0.024129177,0.04337143,0.020463986,268.5993,-57.643192,28.447952,STD
122025032090000,0.344937,3.72972386199309,9.14732974470194,0.509736527703589,0.025045475,0.02565634,0.014049901,268.88373,-57.724346,28.44346,STD
122025037136000,0.349983,3.72657946574503,9.14999036747585,0.519895353928125,0.021991149,0.021991149,0.015271631,269.15927,-57.80328,28.438759,STD
122025042101000,0.354948,3.72348554434757,9.15260828108514,0.529891107436809,0.02076942,0.01282817,0.023823744,269.43927,-57.881535,28.43542,STD
122025047064000,0.359911,3.7203928692427,9.15522514014716,0.539882834458682,0.020463986,0.0125227375,0.025961773,269.71536,-57.960087,28.429544,STD
122025052110000,0.364957,3.71724847299464,9.15788576292107,0.550041660683217,0.016493361,0.0036651916,0.021380283,269.99408,-58.036884,28.424728,STD
122025057073000,0.36992,3.71415579788978,9.16050262198308,0.56003338770509,0.017104227,-0.0033597588,0.028405234,270.2684,-58.110035,28.422798,STD
122025062128000,0.374975,3.71100579332499,9.16316799021973,0.570210333120276,0.0143553335,-0.013744468,0.03176499,270.5445,-58.18373,28.41876,STD
122025067096000,0.379943,3.70791000248861,9.16578748564993,0.580212126359177,0.012217305,-0.01740966,0.032375857,270.81757,-58.255898,28.415106,STD
122025072095000,0.384942,3.70479489411682,9.16842332656289,0.590276330143651,0.02076942,-0.016187929,0.025350908,271.08997,-58.32959,28.409834,STD
122025077053000,0.3899,3.70170533474348,9.17103754925672,0.600257990948496,0.015271631,-0.015577064,0.02565634,271.36023,-58.39874,28.406233,STD
122025082022000,0.394869,3.6986089207608,9.17365757196056,0.610261797430802,0.011911872,-0.0125227375,0.024740042,271.62726,-58.470707,28.399342,STD
122025087083000,0.39993,3.69545517731818,9.17632610383903,0.620450822306422,0.008857546,-0.02076942,0.027794369,271.8946,-58.54034,28.393679,STD
122025092052000,0.404899,3.6923587633355,9.17894612654287,0.630454628788728,0.002443461,-0.005497787,0.02443461,272.15134,-58.610493,28.383463,STD
122025097027000,0.409874,3.689258610475,9.18156931288853,0.640470514731468,0.00061086525,-0.010995574,0.02076942,272.4143,-58.679565,28.375347,STD
122025101973000,0.41482,3.6861765288573,9.18417720829871,0.650428016615446,0.007330383,-0.014966198,0.013744468,272.6698,-58.75006,28.36361,STD
122025107051000,0.419898,3.68301219192752,9.18685470382902,0.66065126662896,-0.007941248,-0.017715093,0.016187929,272.9235,-58.8157,28.353256,STD
122025111975000,0.424822,3.67994381952851,9.18945099921918,0.670564477158016,-0.006414085,-0.0061086523,0.012217305,273.1722,-58.88689,28.338009,STD
122025116959000,0.429806,3.67683805835127,9.19207893102758,0.680598482291406,-0.013133603,-0.02076942,0.01160644,273.42697,-58.953316,28.325827,STD
122025121991000,0.434838,3.67370238615146,9.19473217197057,0.690729123108264,-0.015882496,-0.01160644,0.020463986,273.66748,-59.018272,28.31247,STD
122025126974000,0.439821,3.67059724812053,9.19735957650533,0.700761114998248,-0.02107485,-0.0061086523,0.01282817,273.91235,-59.08612,28.295162,STD
122025131979000,0.444826,3.66747840087091,9.19999858106011,0.710837398243155,-0.02443461,-0.0012217305,0.01740966,274.15033,-59.14778,28.28276,STD
122025137008000,0.449855,3.66434459811002,9.20265024018219,0.720961999329796,-0.03176499,-0.00030543262,0.016187929,274.38623,-59.21143,28.266184,STD
122025141975000,0.454822,3.66124943041994,9.20526920833876,0.730961779325291,-0.029321533,-0.007941248,0.01282817,274.62054,-59.274586,28.2502,STD
122025146975000,0.459822,3.65813369890185,9.20790557652535,0.741027996353171,-0.036651913,-0.0036651916,0.0143553335,274.84796,-59.334404,28.234146,STD
122025152005000,0.464852,3.65499927299464,9.21055776292107,0.751154610683217,-0.043676864,-0.0012217305,0.015271631,275.0761,-59.395042,28.217302,STD
122025157079000,0.469926,3.65183742865008,9.21323314935682,0.761369807723109,-0.052534413,-0.0012217305,0.0076358155,275.30164,-59.45607,28.198132,STD
122025162054000,0.474901,3.64873727578958,9.21585633570249,0.771385693665849,-0.05375614,-0.011301007,0.004581489,275.52673,-59.51522,28.180717,STD
122025167046000,0.479893,3.64562652944191,9.21848848569999,0.781435804746484,-0.05955936,-0.017104227,-0.0018325958,275.74872,-59.575397,28.159805,STD
122025172073000,0.48492,3.64249397297362,9.22113909027479,0.791556379346314,-0.06627888,-0.02076942,-0.00061086525,275.9704,-59.633617,28.140507,STD
122025177096000,0.489943,3.63936390909055,9.22378758575504,0.801668900972521,-0.06352998,-0.033292156,-0.004581489,276.195,-59.694775,28.118723,STD
122025182049000,0.494896,3.63627746544872,9.22639917208068,0.811640495560338,-0.06780604,-0.03940081,-0.0027488936,276.41577,-59.752148,28.09864,STD
122025187093000,0.49994,3.63313431549327,9.22905874030732,0.821795295298063,-0.0711658,-0.03390302,-0.002443461,276.6346,-59.810863,28.076967,STD
122025191995000,0.504842,3.63007965231293,9.23164343567746,0.831664214472196,-0.06872234,-0.03390302,0.002443461,276.8542,-59.867542,28.057623,STD
122025197056000,0.509903,3.63207736966334,9.23121848107324,0.827013271547293,-0.07391469,-0.03848451,-0.002443461,277.0716,-59.925205,28.035444,STD
122025202046000,0.514893,3.63493624419784,9.23026552787042,0.819866080235706,-0.071776666,-0.04642576,-0.002443461,277.177567751597,-59.9539368580272,28.0249314211262,STD
122025207072000,0.519919,3.63781574387928,9.22930569965452,0.812667326020869,-0.062002823,-0.03726278,-0.0067195175,277.2843,-59.982876,28.014343,STD
122025212053000,0.5249,3.64066946212704,9.22835446520497,0.805533025435094,-0.06261369,-0.04184427,-0.005192355,277.46326,-60.03693,27.980099,STD
122025217055000,0.529902,3.64353521171051,9.22739922033113,0.79836864648909,-0.051618114,-0.04520403,-0.002443461,277.63965,-60.093414,27.94552,STD
122025222075000,0.534922,3.64641127386746,9.22644053795073,0.791178486091461,-0.04734206,-0.030543262,0.0012217305,277.80963,-60.14785,27.911509,STD
122025227063000,0.53991,3.64926900256046,9.22548796669309,0.784034159385609,-0.040927973,-0.03604105,-0.004581489,277.98557,-60.204712,27.877455,STD
122025232051000,0.544898,3.65212673125346,9.22453539543544,0.776889832679758,-0.033292156,-0.036957346,-0.0018325958,278.15277,-60.258144,27.846323,STD
122025237065000,0.549912,3.65499935588592,9.22357785889057,0.769708266099338,-0.0290161,-0.03481932,0.0061086523,278.31885,-60.311413,27.815596,STD
122025242058000,0.554905,3.65785994918266,9.22262433276999,0.762556777879146,-0.032070424,-0.03145956,0.0033597588,278.4835,-60.366257,27.783009,STD
122025247035000,0.559882,3.66071137574742,9.22167386221079,0.755428206504843,-0.015577064,-0.023823744,0.008246681,278.6433,-60.41861,27.754782,STD
122025252041000,0.564888,3.66357941701389,9.2207178534466,0.748258098347367,-0.02321288,-0.02565634,0.004581489,278.80392,-60.470856,27.724045,STD
122025257065000,0.569912,3.66645777085384,9.21975840717587,0.741062208738266,-0.01160644,-0.025045475,0.0036651916,278.9591,-60.52384,27.695223,STD
122025262054000,0.574901,3.66931607246758,9.21880564494563,0.733916449729547,-0.0036651916,-0.022602014,0.014660766,279.11212,-60.57293,27.669058,STD
122025267064000,0.579911,3.67218640541705,9.2178488722911,0.726740612360598,-0.0012217305,-0.019547688,0.0125227375,279.26385,-60.625774,27.63919,STD
122025272073000,0.58492,3.67505616544576,9.21689229060916,0.719566207294518,0.0061086523,-0.028710667,0.015271631,279.41605,-60.674953,27.614511,STD
122025277058000,0.589905,3.67791217537652,9.21594029226927,0.712426177497271,0.004581489,-0.024129177,0.013744468,279.56165,-60.72471,27.5874,STD
122025282052000,0.594899,3.68077334159401,9.21498657517611,0.705273256974211,0.007941248,-0.019547688,0.01740966,279.70807,-60.77287,27.56318,STD
122025287093000,0.59994,3.68366143508667,9.21402388237142,0.698053018216353,0.008246681,-0.018020526,0.007941248,279.85318,-60.82404,27.534943,STD
122025292753000,0.6056,3.68690416652259,9.21294297753616,0.68994618398317,0.0061086523,-0.015577064,0.013744468,279.9939,-60.869595,27.511957,STD
122025297057000,0.609904,3.68937001742369,9.21212103152715,0.683781552439067,0.0015271631,-0.008552114,0.022602014,280.13147,-60.91609,27.487122,STD
122025302037000,0.614884,3.6922231627507,9.21116998805019,0.67664868415616,0.004276057,-0.01038471,0.01985312,280.26984,-60.964054,27.461191,STD
122025307064000,0.619911,3.69510323535289,9.2102099688617,0.669448497638455,0.004276057,-0.011301007,0.019547688,280.40356,-61.00781,27.438215,STD
122025312055000,0.624902,3.69796268280813,9.2092568246863,0.662299874023999,0.003970624,-0.0018325958,0.022602014,280.53302,-61.051113,27.415173,STD
122025317083000,0.62993,3.70084332833106,9.20829661452522,0.655098255203426,0.005192355,0.0009162979,0.021685716,280.6637,-61.09522,27.391464,STD
122025322076000,0.634923,3.70370392162781,9.20734308840465,0.647946766983234,0.00580322,0.0009162979,0.016493361,280.729001932832,-61.1173994315789,27.3797340789975,STD
122025327058000,0.639905,3.70655821279631,9.20639166298252,0.640811034094591,0.013744468,-0.009773844,0.01740966,280.79416,-61.13953,27.36803,STD
122025332055000,0.644902,3.70942109777605,9.2054373729716,0.633653816662928,0.008857546,-0.0027488936,0.005497787,280.9172,-61.184624,27.341387,STD
122025337066000,0.649913,3.71229200364626,9.20448040934448,0.626476546991111,-0.0009162979,-0.013133603,0.014049901,281.04688,-61.2251,27.320818,STD
122025342061000,0.654908,3.7151537427845,9.20352650127873,0.619322194165184,0.004886922,-0.008246681,0.014966198,281.1691,-61.27121,27.293999,STD
122025347058000,0.659905,3.71801662776423,9.20257221126782,0.61216497673352,0.005192355,-0.01038471,0.0061086523,281.29547,-61.31585,27.26785,STD
122025352042000,0.664889,3.72087206477424,9.20162040390051,0.605026379239141,-0.004276057,-0.01863139,-0.0015271631,281.42072,-61.35907,27.242565,STD
122025357065000,0.669912,3.72374984569343,9.20066114860237,0.597831921932908,-0.006414085,-0.015882496,0.0070249503,281.5414,-61.40036,27.21923,STD
122025362509000,0.675356,3.7268688262477,9.19962149384562,0.590034465119224,-0.0021380284,-0.013744468,-0.00030543262,281.66467,-61.447235,27.189987,STD
122025367064000,0.679911,3.72947848025664,9.1987516137176,0.58351032555524,-0.0036651916,-0.013439035,-0.004581489,281.78564,-61.489773,27.164227,STD
122025372069000,0.684916,3.73234594860237,9.197795795926,0.576341649700632,-0.0106901415,0.003970624,0.00030543262,281.8991,-61.53114,27.138435,STD
122025377058000,0.689905,3.73520425021611,9.19684303369577,0.569195890691912,-0.009162978,-0.00061086525,0.0015271631,282.01843,-61.574665,27.111732,STD
122025382052000,0.694899,3.7380654164336,9.1958893166026,0.562042970168853,-0.022296581,0.0015271631,0.015271631,282.128,-61.61107,27.089228,STD
122025387067000,0.699914,3.74093861398681,9.19493158908514,0.554859971285564,-0.028710667,0.01160644,0.011911872,282.23596,-61.65199,27.062405,STD
122025392005000,0.704852,3.74376769664239,9.19398856645678,0.547787259723115,-0.0290161,0.007330383,0.0009162979,282.34622,-61.690277,27.038042,STD
122025397050000,0.709897,3.74813057805002,9.19553362660727,0.55487595264149,-0.022602014,0.0033597588,0.008246681,282.45123,-61.72408,27.017714,STD
122025402013000,0.71486,3.75294273340083,9.19793975453073,0.566906351068138,-0.023518313,0.003970624,0.004276057,282.55603,-61.762905,26.991398,STD
122025407070000,0.719917,3.75784603173028,9.20039145489521,0.57916460713172,-0.032986723,0.0106901415,-0.0009162979,282.68408,-61.80154,26.973055,STD
122025412015000,0.724862,3.7626407341703,9.20278885618102,0.591151373244912,-0.028710667,0.005192355,-0.0009162979,282.74913483871,-61.8202925576037,26.9648136635945,STD
122025417052000,0.729899,3.76721643942639,9.19624797364745,0.59023060057361,-0.033292156,0.0009162979,0.0015271631,282.8154,-61.839394,26.956419,STD
122025422077000,0.734924,3.77169762203185,9.18728542126827,0.585749417968154,-0.032986723,-0.00030543262,0.00580322,282.94196,-61.878914,26.93568,STD
122025427021000,0.739868,3.76730257011606,9.19011635433532,0.587164854941968,-0.026267206,-0.014660766,0.0015271631,283.07327,-61.919933,26.91207,STD
122025432205000,0.745052,3.75761835453038,9.19980077216425,0.592006962734809,-0.023823744,-0.016493361,0.009773844,283.19855,-61.95558,26.892916,STD
122025437038000,0.749885,3.75707701805016,9.19440466984993,0.596730858050163,-0.014660766,-0.014049901,0.004886922,283.32693,-62.00144,26.863787,STD
122025442047000,0.754894,3.76211114452723,9.17930250068213,0.601764984527233,-0.015882496,-0.014966198,0.0018325958,283.45483,-62.043335,26.83803,STD
122025447029000,0.759876,3.76055174180634,9.17614749822814,0.60177221090317,-0.014966198,-0.011301007,0.002443461,283.5759,-62.09021,26.807507,STD
122025452026000,0.764873,3.75596834274495,9.17843900632123,0.599480511372474,-0.016187929,-0.010995574,0.010079277,283.69662,-62.134953,26.778774,STD
122025457036000,0.769883,3.7513730196916,9.18073647591227,0.5971828498458,-0.025045475,-0.010079277,0.0067195175,283.81122,-62.18218,26.746181,STD
122025462040000,0.774887,3.74678320001916,9.18303119404272,0.594887940009578,-0.008246681,-0.0027488936,0.008857546,283.9217,-62.22691,26.71749,STD
122025467030000,0.779877,3.73940151347068,9.18159227099842,0.596326983264659,-0.022602014,0.0015271631,0.011301007,284.03085,-62.26923,26.688107,STD
122025472025000,0.784872,3.72929351220285,9.1765386925515,0.601380983898574,-0.028099801,-0.0021380284,0.014660766,284.13873,-62.311893,26.660067,STD
122025477037000,0.789884,3.72249586223961,9.17602184850856,0.594693020700245,-0.028099801,0.004276057,0.014049901,284.2422,-62.355305,26.630114,STD
122025482068000,0.794915,3.7177837956577,9.17837768498777,0.580556811113936,-0.022296581,-0.007330383,0.008552114,284.35132,-62.398487,26.601004,STD
122025487051000,0.799898,3.71311668618093,9.18071104479218,0.566555472936919,-0.024129177,-0.0009162979,0.005192355,284.45044,-62.44053,26.571074,STD
122025492058000,0.804905,3.70842709815159,9.18305564293399,0.552486699055257,-0.020158553,-0.0143553335,0.008246681,284.5583,-62.482452,26.543074,STD
122025497049000,0.809896,3.70132866969492,9.18660481627119,0.553221295457627,-0.015882496,-0.01863139,0.008246681,284.60481873019,-62.5099287007726,26.5221232690174,STD
122025502154000,0.815001,3.69185853623245,9.19133998188862,0.567426495651332,-0.004581489,-0.01160644,-0.0012217305,284.6524,-62.538033,26.500694,STD
122025507061000,0.819908,3.68244093424088,9.19604888122207,0.567663901361322,-0.004581489,-0.029626964,0.00030543262,284.75568,-62.587925,26.464293,STD
122025512053000,0.8249,3.67250486740102,9.20101701839343,0.552759801101528,-0.009773844,-0.025350908,0.0033597588,284.85614,-62.643356,26.423248,STD
122025517045000,0.829892,3.66324933056412,9.20797876691456,0.543544165282061,-0.0030543262,-0.029626964,0.0061086523,284.96094,-62.700306,26.381376,STD
122025522082000,0.834929,3.65449940464357,9.21672887556684,0.539169202321785,-0.0018325958,-0.029626964,0.00580322,285.06186,-62.75546,26.339941,STD
122025527059000,0.839906,3.65216266679381,9.22416449141767,0.509107040803136,0.004276057,-0.029321533,0.0033597588,285.16602,-62.812454,26.298084,STD
122025532055000,0.844902,3.66230161419792,9.22923354164018,0.427995387461327,-0.0021380284,-0.020158553,0.0021380284,285.26617,-62.86736,26.2569,STD
122025537097000,0.849944,3.66898358931806,9.2331076115925,0.394804752522152,-0.0036651916,-0.02321288,0.008857546,285.37134,-62.923855,26.214901,STD
122025542058000,0.854905,3.67130945727713,9.23543352812454,0.420389321929799,0.00580322,-0.014966198,0.012217305,285.46906,-62.980812,26.17172,STD
122025547056000,0.859903,3.67365267196358,9.23777679174622,0.446164705501542,0.0125227375,-0.009773844,0.014049901,285.58804,-63.035954,26.132904,STD
122025552043000,0.86489,3.67599072951486,9.24011489812503,0.471883360538013,0.014049901,-0.00061086525,0.0067195175,285.70203,-63.09198,26.092669,STD
122025556997000,0.869844,3.67637543500685,9.23938128169155,0.487298783255169,0.0036651916,-0.0027488936,0.013439035,285.81598,-63.14223,26.057789,STD
122025562051000,0.874898,3.67314190143969,9.23291424832147,0.484065244623376,0.013439035,-0.0030543262,0.00061086525,285.92618,-63.20036,26.015587,STD
122025567051000,0.879898,3.6699429169055,9.22651631265658,0.480866255078665,-0.00061086525,-0.012217305,0.004276057,286.02747,-63.245564,25.981867,STD
122025572123000,0.88497,3.66669786699402,9.22002624671811,0.477621200084511,0.006414085,0.00030543262,0.002443461,286.1215,-63.29693,25.942957,STD
122025576987000,0.889834,3.66358589483916,9.2138023349033,0.474509223055416,0.005192355,-0.00030543262,0.005497787,286.22614,-63.34118,25.90968,STD
122025582053000,0.8949,3.66034468370912,9.20731994648762,0.471268006848716,0.0012217305,-0.0067195175,0.0012217305,286.32788,-63.387447,25.874182,STD
122025587025000,0.899872,3.66000940056867,9.19663423258459,0.475940325760591,0.006414085,-0.01038471,0.0021380284,286.42657,-63.430668,25.842272,STD
122025592059000,0.904906,3.66457859886267,9.17835753483082,0.494217128478817,0.014049901,-0.0106901415,0.005192355,286.5252,-63.473606,25.810432,STD
122025597017000,0.909864,3.67037801264806,9.16438873398916,0.508185993162016,0.022602014,-0.0076358155,-0.0021380284,286.62436,-63.518303,25.777468,STD
122025602084000,0.914931,3.68012016193535,9.16195314580406,0.510621530483839,0.015882496,-0.022907447,-0.0015271631,286.7279,-63.55874,25.748684,STD
122025607004000,0.919851,3.68957967930135,9.15958821707488,0.512986409825336,0.010995574,-0.013133603,0.00030543262,286.81308,-63.60083,25.717134,STD
122025612093000,0.92494,3.69936412724353,9.15714205400522,0.515432521810881,0.007941248,-0.024129177,-0.004581489,286.90884,-63.643566,25.685488,STD
122025617732000,0.930579,3.71682565361247,9.15012634699332,0.529515920997773,0.02443461,-0.022296581,-0.0018325958,287.00064,-63.68816,25.65065,STD
122025622083000,0.93493,3.7390984323029,9.13899011269488,0.555500868231626,0.01985312,-0.028710667,-0.00580322,287.09784,-63.733665,25.613808,STD
122025627257000,0.940104,3.76458240544555,9.12705594943423,0.585082641509901,0.015577064,-0.040317107,-0.0027488936,287.192,-63.77221,25.585089,STD
122025632093000,0.94494,3.77628012171146,9.13173486982219,0.59678030647454,0.015882496,-0.044898596,-0.004276057,287.28516,-63.812424,25.554462,STD
122025637093000,0.94994,3.78837453472419,9.13657246327541,0.608874666446252,0.0143553335,-0.042455133,-0.004581489,287.37103,-63.84435,25.530216,STD
122025642106000,0.954953,3.80050039321075,9.14142263447161,0.62100047175389,0.008552114,-0.04642576,-0.0027488936,287.4593,-63.875378,25.50684,STD
122025647045000,0.959892,3.8112265103948,9.14550732470797,0.63258326029277,0.0125227375,-0.058948494,-0.002443461,287.5544,-63.90306,25.486893,STD
122025652094000,0.964941,3.8064600095224,9.14074102291882,0.639732954364927,0.006414085,-0.06291912,-0.0067195175,287.64706,-63.930267,25.466253,STD
122025657323000,0.97017,3.80152357992015,9.13580479949727,0.64713753949135,0.005192355,-0.07574729,-0.006414085,287.73798,-63.95411,25.449303,STD
122025662095000,0.974942,3.79701858048203,9.13129998822022,0.65389498455222,0.009468411,-0.061086524,-0.0076358155,287.82065,-63.979256,25.430244,STD
122025667375000,0.980222,3.79419345301471,9.12705257941177,0.659377260930147,0.0070249503,-0.06261369,0.003970624,287.91354,-63.997986,25.4178,STD
122025672142000,0.984989,3.81517359836397,9.13124824044118,0.64259318408364,0.0030543262,-0.06414085,0.0021380284,288.00125,-64.020775,25.400908,STD
122025677038000,0.989885,3.83672148836397,9.13555744044118,0.62535491258364,-0.003970624,-0.06414085,0.0061086523,288.08453,-64.03806,25.388645,STD
122025682092000,0.994939,3.83767672568292,9.1336502078463,0.619869557052309,-0.0027488936,-0.046120327,0.005192355,288.16183,-64.057365,25.374094,STD
122025687951000,1.000798,3.83405318863416,9.13002678430739,0.616246021895383,-0.005192355,-0.04428773,0.008857546,288.243,-64.07357,25.36249,STD
122025692097000,1.004944,3.83148906769131,9.12746274368744,0.61368190229125,-0.009468411,-0.043676864,0.010079277,288.31815,-64.0907,25.350386,STD
122025697097000,1.009944,3.82839678483694,9.124370557701,0.61058962105134,-0.014660766,-0.03268129,0.0143553335,288.3883,-64.10565,25.33991,STD
122025702085000,1.014932,3.82531192346141,9.12128579296093,0.607504761286406,-0.014660766,-0.021380283,0.01740966,288.45728,-64.12057,25.329472,STD
122025707096000,1.019943,3.82221283758476,9.11818680416532,0.604405677027769,-0.018325957,-0.013133603,0.017715093,288.52283,-64.1345,25.319273,STD
122025712090000,1.024937,3.81514570115956,9.12912053502635,0.594338379208433,-0.028710667,-0.014660766,0.0290161,288.5841,-64.14594,25.311346,STD
122025717101000,1.029948,3.80594793502635,9.1475159712506,0.580541710800192,-0.04428773,-0.016798794,0.03023783,288.64255,-64.15948,25.300554,STD
122025722120000,1.034967,3.78843428346021,9.16356172268908,0.563761952071182,-0.044898596,-0.011301007,0.024129177,288.7,-64.1732,25.290022,STD
122025727062000,1.039909,3.76503895806228,9.17759866386555,0.545045769925853,-0.059253927,-0.005497787,0.028710667,288.75696,-64.181915,25.282963,STD
122025732086000,1.044933,3.73374320137067,9.18670267799099,0.523573062566086,-0.07086037,-0.013744468,0.02565634,288.81772,-64.20097,25.266424,STD
122025737110000,1.049957,3.69605857775602,9.1914133543176,0.500020148213237,-0.06963864,-0.013439035,0.023518313,288.8731,-64.21819,25.251307,STD
122025742094000,1.054941,3.65575538817853,9.20098028860072,0.483586384251106,-0.08155051,-0.017715093,0.025350908,288.935,-64.237404,25.234411,STD
122025747072000,1.059919,3.61262513148372,9.21535734107358,0.474001867751307,-0.079107046,-0.01038471,0.030543262,288.99237,-64.25684,25.21786,STD
122025752077000,1.064924,3.58658375839628,9.22010552992446,0.462185252667054,-0.08124508,-0.007941248,0.023518313,289.05798,-64.284035,25.193876,STD
122025757211000,1.070058,3.57706075022274,9.21534392639938,0.447900730462909,-0.086437434,-0.0018325958,0.021380283,289.1191,-64.30799,25.17285,STD
122025762095000,1.074942,3.56399602809823,9.22206004816296,0.432380145124691,-0.07513642,-0.0033597588,0.019242255,289.18738,-64.340965,25.143816,STD
122025767115000,1.079962,3.54569194985722,9.24265203464687,0.414076105109461,-0.08124508,0.0021380284,0.02107485,289.2507,-64.371605,25.115547,STD
122025772186000,1.085033,3.52720191384923,9.26345322258709,0.395586107715591,-0.0729984,-0.008552114,0.018020526,289.32535,-64.405365,25.086166,STD
122025777219000,1.090066,3.5088504346088,9.28409853493242,0.377234666799924,-0.06872234,-0.0036651916,0.0076358155,289.39276,-64.43959,25.055193,STD
122025782052000,1.094899,3.49069374055211,9.29786880986518,0.367549157113204,-0.06566802,-0.0021380284,0.008552114,289.46356,-64.47133,25.027487,STD
122025787183000,1.10003,3.46966289920822,9.29261098972823,0.38332229910122,-0.06169739,-0.0036651916,0.007941248,289.5334,-64.50608,24.996944,STD
122025792031000,1.104878,3.46070566327276,9.29037163397908,0.39264908,-0.06688975,-0.005192355,0.002443461,289.60934,-64.55239,24.956177,STD
122025797096000,1.109943,3.47041813101066,9.29279980162187,0.39264908,-0.057421334,-0.009468411,0.0027488936,289.68567,-64.59734,24.917824,STD
122025802003000,1.11485,3.47982762344696,9.29515222385744,0.39264908,-0.06688975,-0.01740966,-0.0030543262,289.76102,-64.644554,24.875443,STD
122025807084000,1.119931,3.48957077222806,9.29758806192121,0.39264908,-0.05497787,-0.023823744,0.004581489,289.83606,-64.68864,24.8379,STD
122025811989000,1.124836,3.50685025960128,9.29584583938311,0.389415983526425,-0.047647487,-0.026267206,0.004581489,289.874965768081,-64.7126059922295,24.8169230379558,STD
122025817122000,1.129969,3.5392092051909,9.28660026086139,0.380170588429566,-0.04550946,-0.03726278,-0.005192355,289.91568,-64.737686,24.794971,STD
122025822056000,1.134903,3.56850635601978,9.27873826793824,0.371121797592088,-0.038179077,-0.03481932,-0.0021380284,289.9909,-64.78065,24.758404,STD
122025827341000,1.140188,3.59404545582803,9.2736308746594,0.360906157668786,-0.022602014,-0.04550946,0.0015271631,290.07263,-64.819984,24.727558,STD
122025832031000,1.144878,3.61163710139127,9.26798714789403,0.351980054751286,-0.025045475,-0.03726278,0.005497787,290.147,-64.85296,24.702076,STD
122025837186000,1.150033,3.61634154240518,9.25857806937297,0.342571162898799,-0.01740966,-0.03390302,-0.0009162979,290.2256,-64.88858,24.675423,STD
122025842041000,1.154888,3.62079076184429,9.25043722233076,0.333672714728925,-0.0061086523,-0.009162978,0.0021380284,290.2944,-64.91719,24.65524,STD
122025847066000,1.159913,3.62549169180424,9.24573619419752,0.324270844991697,-0.0027488936,-0.014049901,0.00030543262,290.3709,-64.94845,24.632767,STD
122025852053000,1.1649,3.63124284352895,9.24052933841819,0.318756361488535,0.004276057,0.003970624,0.012217305,290.42923,-64.97613,24.613876,STD
122025857077000,1.169924,3.64526747718616,9.23117987553439,0.342130770443063,0.0009162979,0.009773844,0.01282817,290.49255,-65.00656,24.591984,STD
122025862132000,1.174979,3.6585098057891,9.22212578133778,0.366462748253273,0.01038471,0.009162978,0.019547688,290.55255,-65.031975,24.57593,STD
122025867120000,1.179967,3.66078398233754,9.21757733325399,0.400575415477267,0.016798794,0.016798794,0.0125227375,290.60782,-65.06028,24.556042,STD
122025872059000,1.184906,3.66303581833849,9.21307356719829,0.434352974302309,0.0143553335,0.013744468,0.013744468,290.66498,-65.07988,24.54357,STD
122025877105000,1.189952,3.66533643880029,9.20847223018329,0.468862300447513,0.01863139,0.01740966,0.017715093,290.71716,-65.10095,24.52972,STD
122025881988000,1.194835,3.66756274274697,9.20401952930255,0.50225687824518,0.028405234,0.017715093,0.018936822,290.77216,-65.12441,24.513138,STD
122025887182000,1.200029,3.67227430589205,9.20766839688916,0.490141507332097,0.025045475,0.012217305,0.013744468,290.8273,-65.147766,24.496107,STD
122025892069000,1.204916,3.67709525990935,9.21248945158632,0.470857681194891,0.03023783,0.0076358155,0.0125227375,290.88132,-65.17014,24.480724,STD
122025897099000,1.209946,3.68399068763748,9.21072232556093,0.46926352,0.0290161,0.008552114,0.009162978,290.92148,-65.18918,24.465797,STD
122025902053000,1.2149,3.69094822792198,9.2084030970328,0.46926352,0.030848695,0.008552114,0.014966198,290.96274,-65.206055,24.45346,STD
122025907071000,1.219918,3.6979956516498,9.20605390673119,0.46926352,0.03023783,0.022602014,0.018020526,291.0024,-65.22477,24.439264,STD
122025911993000,1.22484,3.70490825021264,9.2037496590898,0.46926352,0.024740042,0.014966198,0.0143553335,291.04846,-65.24333,24.42542,STD
122025917049000,1.229896,3.71396039125319,9.20717917640714,0.480867818996862,0.013439035,0.018020526,0.013439035,291.094,-65.256996,24.414886,STD
122025922043000,1.23489,3.72333998317317,9.2118690703079,0.494937221567955,0.010079277,0.01038471,0.01160644,291.14487,-65.27192,24.403511,STD
122025927059000,1.239906,3.72935355253987,9.2089121644313,0.513896980916675,0.0061086523,0.012217305,0.01160644,291.18988,-65.28137,24.397085,STD
122025931986000,1.244833,3.73433664405956,9.20392896884571,0.533829373011934,0.0027488936,0.008246681,0.014660766,291.23853,-65.29036,24.39123,STD
122025937069000,1.249916,3.71960150819143,9.19563429378025,0.543977745904284,0.0021380284,0.005192355,0.009162978,291.28546,-65.29678,24.387413,STD
122025942809000,1.255656,3.69989516942104,9.18578091862341,0.553830915289478,-0.006414085,0.006414085,0.013439035,291.33142,-65.29925,24.387064,STD
122025947057000,1.259904,3.68636920056338,9.18073121971831,0.548602667042254,-0.005192355,-0.0030543262,-0.0036651916,291.37793,-65.3081,24.380325,STD
122025952048000,1.264895,3.67083361807151,9.1755531248104,0.538245612047671,-0.007330383,-0.005192355,0.00030543262,291.42065,-65.309425,24.38048,STD
122025957067000,1.269914,3.68321963643392,9.17649366976562,0.530562699353134,-0.004581489,-0.0009162979,0.005192355,291.4627,-65.31705,24.374384,STD
122025962029000,1.274876,3.70182122437735,9.1788186740226,0.52358708930665,-0.006414085,-0.003970624,0.0067195175,291.5072,-65.32423,24.368628,STD
122025967061000,1.279908,3.72068522891814,9.18117647761413,0.51651307283065,0.0067195175,-0.0106901415,0.013133603,291.5506,-65.33365,24.361761,STD
122025972135000,1.284982,3.73970668341733,9.18355396080638,0.509380012496942,-0.0021380284,-0.004581489,0.008552114,291.59064,-65.344666,24.352022,STD
122025977111000,1.289958,3.74786619471399,9.19749645742873,0.520909939748915,-0.004276057,0.003970624,0.0106901415,291.63126,-65.35284,24.346098,STD
122025982026000,1.294873,3.75230927306022,9.21526914196715,0.538682280970361,0.0030543262,0.005497787,0.016187929,291.6717,-65.361336,24.339863,STD
122025987080000,1.299927,3.7509912130444,9.21623089589972,0.548994986955598,0.005192355,0.0009162979,0.014049901,291.71246,-65.36725,24.336134,STD
122025992073000,1.30492,3.74591186713406,9.20607199192692,0.554074332865944,0.008246681,0.0033597588,0.020463986,291.74973,-65.369675,24.336094,STD
122025997053000,1.3099,3.72334039039088,9.19271564271173,0.548391130130293,0.008246681,0.007941248,0.01863139,291.78445,-65.37475,24.332857,STD
122026002056000,1.314903,3.69407772931596,9.17808451587948,0.538636909771987,0.003970624,0.0033597588,0.013439035,291.82077,-65.37904,24.330463,STD
122026007066000,1.319913,3.6882424914227,9.18044045711351,0.546848226475347,0.005497787,0.011301007,0.01985312,291.85037,-65.37595,24.335691,STD
122026012815000,1.325662,3.69000985862866,9.1892772931433,0.56275453686537,0.0009162979,0.008857546,0.01740966,291.88455,-65.37664,24.336935,STD
122026017050000,1.329897,3.69131178941962,9.1957869470981,0.574471918062404,-0.0009162979,0.005192355,0.011301007,291.9185,-65.38015,24.335674,STD
122026022134000,1.334981,3.69287472121212,9.20360160606061,0.588538309090909,-0.0027488936,0.009162978,0.0143553335,291.95023,-65.38171,24.336052,STD
122026027164000,1.340011,3.69442105223421,9.21133326117103,0.602455293133667,-0.0009162979,0.0070249503,0.013439035,291.98462,-65.38708,24.332771,STD
122026032048000,1.344895,3.69592249969183,9.21884049845917,0.615968324955701,-0.0061086523,-0.0012217305,0.015271631,292.01917,-65.390526,24.331074,STD
122026037064000,1.349911,3.69915999840095,9.21492704737933,0.607416831723423,-0.005192355,0.008857546,0.01160644,292.0484,-65.39619,24.327143,STD
122026042059000,1.354906,3.70388175498964,9.20076148178857,0.579086277400059,-0.008857546,0.0036651916,0.016493361,292.08435,-65.39863,24.32648,STD
122026047054000,1.359901,3.70248875825198,9.193734,0.563786452750659,-0.009468411,0.0070249503,0.006414085,292.10754,-65.402504,24.323309,STD
122026052036000,1.364883,3.69509504717186,9.193734,0.561321882390619,-0.009468411,0.008246681,0.013439035,292.13226,-65.40021,24.326382,STD
122026057063000,1.36991,3.68763455227026,9.193734,0.558835050756754,-0.011911872,0.009468411,0.0061086523,292.16068,-65.4046,24.323244,STD
122026062055000,1.374902,3.68022600034093,9.193734,0.556365533446976,-0.01160644,0.00580322,0.009773844,292.1895,-65.40417,24.325136,STD
122026067049000,1.379896,3.68194175007365,9.18928611185309,0.571763965751743,-0.021685716,0.009162978,0.004886922,292.2185,-65.40694,24.322872,STD
122026072076000,1.384923,3.68903335965825,9.18219460100167,0.597766558911912,-0.022907447,0.016187929,0.009468411,292.24683,-65.40654,24.324186,STD
122026077055000,1.389902,3.69605725544535,9.17517080300501,0.623520867912207,-0.03023783,0.013439035,0.01038471,292.27707,-65.41603,24.314745,STD
122026082166000,1.395013,3.70326736417559,9.16796079465776,0.649957958352156,-0.030543262,0.0076358155,0.008552114,292.3057,-65.42516,24.305862,STD
122026087068000,1.399915,3.71154970550931,9.16766680836306,0.644823166789536,-0.03176499,-0.00030543262,0.013133603,292.3354,-65.4318,24.299276,STD
122026092058000,1.404905,3.72102022314705,9.17240216607214,0.616411584209275,-0.036651913,0.0036651916,0.013133603,292.36295,-65.440025,24.290842,STD
122026097051000,1.409898,3.71834449793955,9.17692523817736,0.593961094127258,-0.033292156,0.003970624,0.012217305,292.38092,-65.4458,24.28384,STD
122026102039000,1.414886,3.70533667047291,9.18126081846238,0.576617306061541,-0.035124753,-0.0009162979,0.020158553,292.3989,-65.44861,24.279497,STD
122026107060000,1.419907,3.69840176173536,9.19292880867679,0.561522876529284,-0.04184427,-0.00580322,0.007941248,292.4218,-65.457726,24.269545,STD
122026112051000,1.424898,3.70358590585683,9.21884952928417,0.551154588286334,-0.040927973,0.0067195175,0.012217305,292.44,-65.46019,24.266352,STD
122026117051000,1.429898,3.70160412292984,9.23088607721724,0.534327798882189,-0.04337143,0.014966198,0.015271631,292.46173,-65.4672,24.259542,STD
122026122066000,1.434913,3.69218555117909,9.22853163097514,0.510781352294455,-0.047036625,0.0143553335,0.01160644,292.48206,-65.47483,24.252047,STD
122026127023000,1.43987,3.68287590807472,9.2262044146198,0.487507227521694,-0.05009095,0.023823744,0.0125227375,292.5016,-65.4795,24.247286,STD
122026132052000,1.444899,3.67343104320243,9.22384339564642,0.463895048082071,-0.043982297,0.03023783,0.01038471,292.52216,-65.486275,24.24072,STD
122026137052000,1.449899,3.66992009233887,9.21645559748682,0.456119211199838,-0.04184427,0.022602014,0.015882496,292.5437,-65.4903,24.23675,STD
122026142057000,1.454904,3.67477739716255,9.20188337869882,0.470691135814755,-0.03634648,0.03023783,0.007330383,292.5586,-65.49925,24.227823,STD
122026147035000,1.459882,3.68348170450502,9.20171783098996,0.474848409494979,-0.048258353,0.040927973,0.018325957,292.58505,-65.50761,24.219812,STD
122026152324000,1.465171,3.69801590685796,9.22109666628408,0.465158931142037,-0.046731193,0.032986723,0.0076358155,292.61523,-65.52506,24.20362,STD
122026156993000,1.46984,3.70299124915203,9.23365750918214,0.456453774088309,-0.044593163,0.027183503,0.008857546,292.63776,-65.53965,24.188509,STD
122026162053000,1.4749,3.69326548738585,9.23852049162067,0.446727997088811,-0.03940081,0.026572637,0.010079277,292.66104,-65.55703,24.170866,STD
122026167034000,1.479881,3.69346908528266,9.2384188575772,0.442132726331592,-0.03756821,0.015882496,0.011301007,292.69067,-65.57347,24.15473,STD
122026172073000,1.48492,3.71180922597625,9.22924907448931,0.446717775867933,-0.030848695,0.00580322,0.009773844,292.72,-65.59039,24.138554,STD
122026177008000,1.489855,3.72772985974158,9.2189368367077,0.446581836703632,-0.01985312,-0.0030543262,0.0061086523,292.7549,-65.61193,24.118147,STD
122026182047000,1.494894,3.73754927070913,9.20420741265642,0.431852704872317,-0.0143553335,-0.0076358155,-0.0027488936,292.79138,-65.63498,24.096384,STD
122026187058000,1.499905,3.74390312461065,9.19310571148987,0.42012294790922,-0.004581489,-0.011301007,-0.0027488936,292.811335885703,-65.6438334842642,24.0883676015586,STD
122026192056000,1.504903,3.74170416074792,9.19090670170441,0.415725015591492,-0.0143553335,-0.022296581,-0.00030543262,292.83124,-65.652664,24.080372,STD
122026197052000,1.509899,3.73950607682271,9.18870857187486,0.411328843150641,-0.015882496,-0.02565634,0.00580322,292.86868,-65.67153,24.063196,STD
122026202039000,1.514886,3.73731195261635,9.18651440184683,0.40694059015574,0.01038471,-0.014049901,0.014966198,292.9091,-65.69208,24.045147,STD
122026207000000,1.519847,3.73512926759774,9.18433167124546,0.402575215560252,0.00580322,-0.01038471,0.00580322,292.95105,-65.71335,24.025555,STD
122026212051000,1.524898,3.72356658139915,9.17960193525474,0.409058695917012,0.015271631,-0.014966198,0.01038471,292.991,-65.72944,24.01272,STD
122026217416000,1.530263,3.71043879459349,9.17435098502734,0.416935373483571,0.017104227,-0.007941248,0.017104227,293.02585,-65.74664,23.997957,STD
122026222178000,1.535025,3.69878650740457,9.16969021615821,0.423926750663805,0.007330383,-0.0106901415,0.02321288,293.0664,-65.76304,23.984383,STD
122026227331000,1.540178,3.68724149723282,9.1651749008018,0.432836171345458,0.020158553,-0.012217305,0.0143553335,293.0973,-65.78546,23.966019,STD
122026232049000,1.544896,3.6894505195463,9.16738396924807,0.457135439860174,0.032375857,-0.010995574,0.013744468,293.12756,-65.80303,23.952047,STD
122026237487000,1.550334,3.69199665420945,9.16993015708419,0.485142947741273,0.032375857,-0.013133603,0.013133603,293.15466,-65.8201,23.939022,STD
122026242055000,1.554902,3.69413544478342,9.17206899232424,0.508669666387993,0.04428773,-0.027794369,0.01282817,293.18506,-65.83783,23.92633,STD
122026247040000,1.559887,3.69646947959323,9.17440307587758,0.534344073667742,0.038789943,-0.022602014,0.018325957,293.20963,-65.85306,23.915041,STD
122026252043000,1.56489,3.6879449830172,9.16152710191646,0.531949991508599,0.034513887,-0.023518313,0.01282817,293.2406,-65.871666,23.901064,STD
122026256995000,1.569842,3.67862325061425,9.14754421130221,0.527289125307125,0.04917465,-0.027488936,0.01160644,293.27045,-65.887726,23.889986,STD
122026262053000,1.5749,3.6774938,9.14860393575437,0.547378501199768,0.047036625,-0.023518313,0.020463986,293.28885,-65.89955,23.880703,STD
122026267924000,1.580771,3.6774938,9.15223075424111,0.574579090734051,0.042455133,-0.01863139,0.021991149,293.3082,-65.91397,23.869232,STD
122026272138000,1.584985,3.6774938,9.15483395865316,0.594102729687802,0.04153884,-0.017715093,0.027794369,293.32794,-65.92504,23.861208,STD
122026277017000,1.589864,3.6774938,9.15784796774818,0.616707341566148,0.040317107,-0.02107485,0.025961773,293.34744,-65.93745,23.851564,STD
122026282045000,1.594892,3.6774938,9.16095402180223,0.640002276701284,0.03481932,-0.010995574,0.021685716,293.3642,-65.95419,23.83633,STD
122026287084000,1.599931,3.6774938,9.16406687112172,0.663348175298329,0.02687807,0.0030543262,0.013744468,293.3806,-65.972015,23.819826,STD
122026292059000,1.604906,3.68433465403842,9.17526513819459,0.666956072980789,0.022907447,0.010995574,0.024740042,293.39542,-65.98522,23.807816,STD
122026297073000,1.60992,3.69425369456724,9.19014349184053,0.661996552716381,0.007330383,0.022602014,0.019242255,293.40503,-66.004196,23.788992,STD
122026302037000,1.614884,3.69842373811947,9.1866286846188,0.6607997,0.009162978,0.019242255,0.015271631,293.40445,-66.016655,23.775658,STD
122026307067000,1.619914,3.70080386085281,9.17710824339147,0.6607997,-0.011301007,0.02321288,0.01740966,293.39807,-66.02718,23.76261,STD
122026312051000,1.624898,3.70316221705618,9.16767486782944,0.6607997,-0.015577064,0.025350908,0.0143553335,293.39154,-66.04052,23.747952,STD
122026317051000,1.629898,3.70552814422649,9.15821120855773,0.6607997,-0.021380283,0.017715093,0.014049901,293.38684,-66.0513,23.73518,STD
122026322067000,1.634914,3.69927724767751,9.16932083210559,0.657326223838756,-0.019547688,0.022296581,0.011301007,293.37787,-66.06341,23.721014,STD
122026327055000,1.639902,3.68950252322488,9.18887017894414,0.652438861612441,-0.0143553335,0.02076942,0.015271631,293.3732,-66.07325,23.7093,STD
122026332049000,1.644896,3.69670473073624,9.20015688795568,0.65764565382416,-0.030543262,0.015882496,0.010079277,293.36395,-66.08098,23.699614,STD
122026337947000,1.650794,3.71184517919943,9.2102507310579,0.667739286132952,-0.03145956,0.013133603,0.009773844,293.35452,-66.08676,23.692665,STD
122026342056000,1.654903,3.71853936125153,9.21014958156107,0.656684673726757,-0.043676864,0.01740966,0.01282817,293.34537,-66.09084,23.687027,STD
122026347051000,1.659898,3.72386572980737,9.2048231017704,0.630052792015366,-0.04642576,0.021380283,0.0070249503,293.3374,-66.097694,23.678991,STD
122026352036000,1.664883,3.72206896179775,9.21654628370787,0.619183595252809,-0.05375614,0.009162978,0.011911872,293.33102,-66.098274,23.676605,STD
122026357064000,1.669911,3.71740486354126,9.23520257932972,0.614519501866525,-0.051923547,0.010079277,0.0106901415,293.31958,-66.10233,23.6707,STD
122026362056000,1.674903,3.71281779251551,9.2386347302148,0.577117122150835,-0.04886922,0.015577064,0.0070249503,293.31424,-66.105736,23.665974,STD
122026367050000,1.679897,3.70825201311694,9.2340688554654,0.522327726460143,-0.04917465,0.018325957,0.0067195175,293.30942,-66.1084,23.661987,STD
122026372070000,1.684917,3.70228591024901,9.23597937199746,0.49536842349934,-0.058643065,0.011911872,0.00580322,293.3076,-66.113754,23.65533,STD
122026377056000,1.689903,3.69527794711609,9.24298748148329,0.490696448077393,-0.06078109,0.003970624,0.01282817,293.3053,-66.117065,23.651009,STD
122026382047000,1.694894,3.68826295634265,9.25000261875642,0.486019787561763,-0.05681047,0.003970624,0.0012217305,293.308988891337,-66.1215811427141,23.6469102318478,STD
122026387041000,1.699888,3.68124374898488,9.25702197270192,0.481340315989922,-0.05222898,0.0012217305,0.0027488936,293.31268,-66.1261,23.642809,STD
122026392052000,1.704899,3.68392192521008,9.25648649369748,0.474554928718487,-0.0580322,-0.007330383,0.00030543262,293.32397,-66.1303,23.639063,STD
122026397058000,1.709905,3.69765610993124,9.24733017933537,0.465398796010313,-0.051923547,-0.018020526,-0.0012217305,293.33682,-66.13778,23.632881,STD
122026402047000,1.714894,3.70532079224508,9.23439077569385,0.462396955151408,-0.053145275,-0.013439035,-0.0021380284,293.35425,-66.14399,23.627592,STD
122026407759000,1.720606,3.70255537686669,9.21226756817148,0.470693207061827,-0.05222898,-0.015577064,-0.0036651916,293.37686,-66.15108,23.622011,STD
122026412026000,1.724873,3.70048954573581,9.19574100540923,0.476890704768717,-0.050396383,-0.01985312,-0.0009162979,293.39902,-66.155304,23.619425,STD
122026417043000,1.72989,3.69806060859411,9.17630960972651,0.484177521266367,-0.046120327,-0.020463986,0.0012217305,293.42047,-66.16026,23.616169,STD
122026422034000,1.734881,3.70244722353858,9.16887052883866,0.48841715,-0.050396383,-0.027794369,-0.004581489,293.4452,-66.16644,23.611578,STD
122026427030000,1.739877,3.7164317401403,9.17819349123149,0.48841715,-0.04337143,-0.03359759,-0.0030543262,293.46918,-66.17056,23.609604,STD
122026431990000,1.744837,3.73031548760717,9.18744927455183,0.48841715,-0.023823744,-0.028405234,0.00061086525,293.49048,-66.16867,23.613716,STD
122026437067000,1.749914,3.74452673476228,9.19692338985775,0.48841715,-0.013133603,-0.026267206,0.00061086525,293.51428,-66.16752,23.617117,STD
122026441995000,1.754842,3.75690495637916,9.19911592383817,0.480026873561657,-0.0125227375,-0.03023783,0.0036651916,293.53796,-66.16504,23.62216,STD
122026447032000,1.759879,3.76626526327738,9.18507565896963,0.451945928432134,-0.0009162979,-0.02076942,0.00580322,293.55652,-66.1638,23.626421,STD
122026451995000,1.764842,3.76974427121104,9.17340846591722,0.436818854103219,-0.0012217305,-0.02565634,0.007941248,293.5817,-66.15484,23.638418,STD
122026457034000,1.769881,3.75494892265713,9.16847658007154,0.461477794108329,0.0061086523,-0.02321288,0.010079277,293.6013,-66.14635,23.65027,STD
122026462020000,1.774867,3.74589639538111,9.17182897690554,0.481570340762216,0.0143553335,-0.021685716,0.016187929,293.62628,-66.135704,23.664928,STD
122026467028000,1.779875,3.75065014841907,9.19559774209535,0.491077846838141,0.013133603,-0.022907447,0.016187929,293.65115,-66.12655,23.677887,STD
122026472017000,1.784864,3.75537969070823,9.21161648273821,0.495450968583547,0.018325957,-0.01863139,0.011301007,293.66742,-66.12218,23.68571,STD
122026477394000,1.790241,3.76045904103373,9.20653702633656,0.485292267932531,0.032070424,-0.0125227375,0.02076942,293.68304,-66.11429,23.6972,STD
122026482023000,1.79487,3.76035814902709,9.2022020265166,0.482167203867799,0.019242255,-0.022602014,0.02565634,293.70547,-66.10516,23.70897,STD
122026487049000,1.799896,3.74658487638306,9.19761083975582,0.495940488496757,0.030848695,-0.013133603,0.01863139,293.71967,-66.09849,23.719107,STD
122026492029000,1.804876,3.73293766234262,9.1930616734071,0.509587714412438,0.015271631,-0.004276057,0.019547688,293.73798,-66.08679,23.733166,STD
122026497052000,1.809899,3.71917261091187,9.18847322710797,0.523352777820965,0.017715093,-0.002443461,0.020463986,293.75537,-66.0785,23.744677,STD
122026502132000,1.814979,3.70520732143569,9.1844959666002,0.537318078564307,0.009773844,0.0012217305,0.018936822,293.768,-66.06937,23.756092,STD
122026507064000,1.819911,3.69107987050847,9.18920521525424,0.551445529491525,0.021380283,-0.0012217305,0.022602014,293.78168,-66.059654,23.768814,STD
122026512229000,1.825076,3.67851549319446,9.193734,0.565235939065628,0.010995574,-0.0036651916,0.021685716,293.79028,-66.05291,23.776833,STD
122026517047000,1.829894,3.69018022734351,9.193734,0.567568890767519,0.021380283,0.0027488936,0.016187929,293.79675,-66.04782,23.7841,STD
122026522070000,1.834917,3.70234128164627,9.193734,0.570001106707453,0.013133603,0.01863139,0.01863139,293.8002,-66.0404,23.792322,STD
122026527061000,1.839908,3.71442486158358,9.193734,0.572417827741936,0.013744468,0.011911872,0.015271631,293.8088,-66.03707,23.79725,STD
122026532052000,1.844899,3.72650844152088,9.193734,0.574834548776418,0.0067195175,0.0125227375,0.020158553,293.80994,-66.030396,23.804651,STD
122026537089000,1.849936,3.73870339085853,9.193734,0.577273543737486,0.0106901415,0.013439035,0.016798794,293.8132,-66.02761,23.808573,STD
122026542051000,1.854898,3.75071675965214,9.193734,0.579676222513904,0.01863139,0.015577064,0.021685716,293.81564,-66.02123,23.815962,STD
122026547059000,1.859906,3.76284149784609,9.193734,0.582101175216908,0.008246681,0.010995574,0.004581489,293.82022,-66.02181,23.815937,STD
122026552033000,1.86488,3.76815874323491,9.19437189541704,0.585461004191272,0.009162978,0.01160644,0.008552114,293.8252,-66.016556,23.821905,STD
122026557068000,1.869915,3.72980965247042,9.19916563187195,0.595048276882394,0.0018325958,0.007941248,0.008246681,293.83316,-66.01688,23.821777,STD
122026562028000,1.874875,3.69718456593854,9.20438535431322,0.602801674061459,0.00061086525,0.0067195175,0.003970624,293.8363,-66.011246,23.827475,STD
122026567042000,1.879889,3.70162903791188,9.21327448389485,0.598357202088115,-0.00580322,0.007330383,0.003970624,293.8399,-66.00439,23.834036,STD
122026572432000,1.885279,3.7059415204184,9.22237077150499,0.593196680443234,-0.01160644,0.006414085,-0.0021380284,293.84238,-66.00962,23.828238,STD
122026577058000,1.889905,3.69959357991116,9.2202547471462,0.58050079059082,-0.01160644,0.007330383,0.005497787,293.84384,-66.010864,23.826408,STD
122026581987000,1.894834,3.6928298534174,9.21800012456417,0.566973328186464,-0.029626964,0.00580322,0.0021380284,293.84747,-66.016266,23.819803,STD
122026587098000,1.899945,3.68581638088551,9.21566225156422,0.55294637335817,-0.033292156,0.007941248,0.008246681,293.84937,-66.01723,23.818087,STD
122026591994000,1.904841,3.67909793801404,9.21342272383818,0.539509478261451,-0.038179077,0.014049901,0.0070249503,293.85062,-66.02056,23.813349,STD
122026597051000,1.909898,3.6840869951027,9.21194609531519,0.533475539054943,-0.037873644,0.01863139,0.005497787,293.85135,-66.02595,23.806332,STD
122026602038000,1.914885,3.69254385312152,9.21073794751088,0.529851163763533,-0.04642576,0.004581489,0.004886922,293.85602,-66.03083,23.799603,STD
122026607124000,1.919971,3.70116859342305,9.20950581602246,0.526154838772134,-0.038179077,0.010079277,0.0061086523,293.85632,-66.03907,23.790598,STD
122026612051000,1.924898,3.70952370460386,9.20831220378428,0.522574069359506,-0.044593163,0.010079277,0.0061086523,293.86267,-66.04686,23.781599,STD
122026617046000,1.929893,3.71799412886775,9.20710211790448,0.518943879950926,-0.028405234,0.01282817,0.0018325958,293.86627,-66.06084,23.76695,STD
122026622054000,1.934901,3.72648659827987,9.20588888265203,0.515304242601943,-0.036651913,0.004581489,-0.0021380284,293.87323,-66.07335,23.752953,STD
122026627721000,1.940568,3.73609658712941,9.20451599843165,0.511185667351007,-0.02687807,0.0076358155,-0.003970624,293.87585,-66.08723,23.738548,STD
122026631985000,1.944832,3.74332739575028,9.20348300419913,0.508086742898917,-0.028710667,-0.0018325958,-0.005192355,293.88495,-66.101006,23.72392,STD
122026638863000,1.95171,3.75001452470064,9.18137861570593,0.496604496324144,-0.01160644,-0.0106901415,-0.011911872,293.89532,-66.11572,23.709196,STD
122026642013000,1.95486,3.75281475861877,9.17017773851295,0.491004031411863,-0.0036651916,-0.0106901415,-0.0030543262,293.9056,-66.12568,23.69893,STD
122026647065000,1.959912,3.76090195793314,9.16330552504684,0.493512466676363,-0.008246681,-0.007941248,-0.005497787,293.91867,-66.13707,23.687677,STD
122026652059000,1.964906,3.77033427017059,9.16094739774184,0.50058669839217,-0.007330383,-0.008857546,0.0030543262,293.93237,-66.14311,23.682312,STD
122026657056000,1.969903,3.77977224859481,9.15858785386057,0.507665179746573,-0.0012217305,-0.007941248,0.0036651916,293.94583,-66.15654,23.669098,STD
122026662073000,1.97492,3.78924800159748,9.15621886613746,0.514771992024948,0.0033597588,-0.009773844,0.0033597588,293.96017,-66.167496,23.658413,STD
122026667095000,1.979942,3.79032547332985,9.15647198515788,0.520282436552062,0.005192355,-0.007941248,0.0033597588,293.9729,-66.17805,23.648188,STD
122026672111000,1.984958,3.78719152051148,9.15803899429149,0.524983375596947,-0.0036651916,-0.003970624,0.016798794,293.98514,-66.18442,23.641968,STD
122026677044000,1.989891,3.78410942536534,9.15958007404749,0.529606527971033,0.010995574,0.010079277,0.019547688,293.9865,-66.19436,23.632559,STD
122026682031000,1.994878,3.78099359149269,9.16113802351905,0.534280288540579,0.010995574,-0.002443461,0.013439035,293.9948,-66.20205,23.624971,STD
122026687142000,1.999989,3.77780028350731,9.16273471085595,0.539070260521921,0.005497787,-0.0027488936,0.016187929,293.99478,-66.20658,23.620474,STD
122026692047000,2.004894,3.77473568251566,9.16426704335204,0.543667171609473,0.010995574,0.003970624,0.014660766,293.99664,-66.21424,23.613272,STD
122026697028000,2.009875,3.76989794058073,9.16248105274792,0.551764757496232,0.0033597588,-0.00030543262,0.013744468,293.99973,-66.217896,23.610048,STD
122026701991000,2.014838,3.76353072688972,9.15770554275093,0.562907388104089,0.006414085,-0.0021380284,0.019547688,293.99994,-66.22051,23.608255,STD
122026706997000,2.019844,3.75710834693057,9.15288865718879,0.574146559738772,0.01160644,-0.0030543262,0.021380283,293.99954,-66.22486,23.604307,STD
122026712000000,2.024847,3.75068981578084,9.14807465829398,0.585378995952979,0.014966198,-0.008246681,0.007941248,294.00122,-66.23187,23.597788,STD
122026716974000,2.029821,3.74430848978867,9.1432885638501,0.596546323102582,0.007330383,-0.019242255,0.018936822,294.00525,-66.233444,23.596369,STD
122026722022000,2.034869,3.73783222649787,9.13843126494524,0.607879790623932,0.010079277,-0.007941248,0.021991149,294.00433,-66.24131,23.588818,STD
122026726993000,2.03984,3.73235245752988,9.13887519681275,0.610313497529881,0.015577064,-0.011911872,0.015882496,294.01154,-66.24839,23.582277,STD
122026731983000,2.04483,3.72759267346614,9.14363508027888,0.605553713466136,0.004581489,-0.011911872,0.02107485,294.009864532827,-66.2497114250025,23.5809201707805,STD
122026737000000,2.049847,3.72028013537428,9.14075249506222,0.600790007687142,0.013744468,0.00580322,0.021380283,294.00818,-66.25104,23.579556,STD
122026741976000,2.054823,3.71086789820265,9.13134055273553,0.596083889101323,0.005192355,0.0009162979,0.025350908,294.00833,-66.25151,23.57897,STD
122026746972000,2.059819,3.70849591852128,9.13124029471621,0.598305477042569,0.0018325958,0.0030543262,0.02076942,294.0021,-66.25397,23.576262,STD
122026752020000,2.064867,3.71300895870052,9.14026609232636,0.607331557401046,0.0036651916,-0.002443461,0.019547688,293.99973,-66.25426,23.575813,STD
122026757040000,2.069887,3.7083432045977,9.14398551221264,0.609186742298851,-0.0015271631,-0.0030543262,0.027183503,293.99634,-66.24931,23.580639,STD
122026762072000,2.074919,3.6885605865353,9.13903975441297,0.599295433267652,-0.0009162979,-0.0018325958,0.015577064,293.99445,-66.250565,23.579533,STD
122026767052000,2.079899,3.67922103858714,9.14663646759414,0.604125482344219,0.0030543262,0.0012217305,0.015577064,293.9903,-66.24598,23.584015,STD
122026772105000,2.084952,3.68325232569144,9.17082427440853,0.628313230226591,-0.0033597588,0.004581489,0.008857546,293.98596,-66.24635,23.58316,STD
122026777243000,2.09009,3.68670031950791,9.19447457644991,0.653074302460457,-0.01038471,0.0015271631,0.008857546,293.98508,-66.247375,23.582064,STD
122026782050000,2.094897,3.68164367653779,9.20458807359402,0.678357517311072,-0.014966198,-0.005192355,0.008857546,293.98444,-66.250114,23.579107,STD
122026787023000,2.09987,3.67555007830207,9.21385988114511,0.694247595755183,-0.014049901,-0.008552114,0.007330383,293.9843,-66.249245,23.578968,STD
122026792074000,2.104921,3.66599974922014,9.21863514540967,0.670371773050346,-0.014966198,-0.0027488936,0.006414085,293.98337,-66.24807,23.57891,STD
122026797051000,2.109898,3.65877540227708,9.22333537728812,0.647306074961967,-0.013744468,-0.002443461,0.007330383,293.98148,-66.247696,23.577778,STD
122026802033000,2.11488,3.66111684692545,9.22801811989007,0.62623304867743,-0.016798794,0.0012217305,0.0067195175,293.9768,-66.247856,23.575829,STD
122026807211000,2.120058,3.66355040782255,9.23288508921824,0.604330975192619,-0.028710667,0.003970624,0.008857546,293.977,-66.24919,23.573036,STD
122026812056000,2.124903,3.665827465093,9.2374390610983,0.583837435981744,-0.027183503,0.0027488936,0.007941248,293.9773,-66.251884,23.569279,STD
122026817061000,2.129908,3.66845524966821,9.24215626090891,0.567184600920973,-0.029626964,0.009468411,0.002443461,293.97806,-66.25134,23.567995,STD
122026822166000,2.135013,3.67337074976875,9.24707186366378,0.586846621854012,-0.035124753,0.008552114,0.0027488936,293.9814,-66.24946,23.568184,STD
122026827062000,2.139909,3.67801853275031,9.25224448741745,0.600715174056755,-0.045814894,-0.0021380284,0.0027488936,293.99533,-66.252815,23.563494,STD
122026832052000,2.144899,3.6822830546136,9.26077370926289,0.579392546928431,-0.04550946,-0.0070249503,0.0036651916,294.00754,-66.256,23.559147,STD
122026837252000,2.150099,3.68672704533286,9.26966187631626,0.557172574770659,-0.042760566,-0.01038471,0.00061086525,294.0176,-66.25774,23.555984,STD
122026842057000,2.154904,3.68491186092254,9.25523773629243,0.538184876109661,-0.048258353,-0.0106901415,-0.008552114,294.0282,-66.26074,23.55134,STD
122026847111000,2.159958,3.68243394420724,9.23789221578866,0.518361529450161,-0.04734206,-0.0125227375,0.0027488936,294.0399,-66.25917,23.551754,STD
122026852043000,2.16489,3.68001584265602,9.22096540393181,0.499016704415604,-0.04642576,-0.01863139,0.005497787,294.0598,-66.26409,23.545767,STD
122026857397000,2.170244,3.67759381133821,9.20321098657318,0.478440304125019,-0.044593163,-0.022296581,0.00061086525,294.07922,-66.26808,23.540827,STD
122026862070000,2.174917,3.67981930173554,9.20098544969914,0.469538330916505,-0.04428773,-0.017104227,-0.00061086525,294.0974,-66.27031,23.537643,STD
122026867058000,2.179905,3.68219480914019,9.19860989268487,0.460036288895519,-0.03359759,-0.01863139,0.0012217305,294.12726,-66.2715,23.536839,STD
122026872156000,2.185003,3.68462270343627,9.19618194768512,0.450324699035258,-0.032070424,-0.014966198,0.003970624,294.15356,-66.2726,23.535685,STD
122026877506000,2.190353,3.68746187003891,9.19392963910506,0.440924370651751,-0.035124753,-0.012217305,-0.0033597588,294.18036,-66.27638,23.532103,STD
122026882070000,2.194917,3.6959654722179,9.19818152898833,0.449427986149805,-0.011911872,-0.0076358155,-0.0033597588,294.20245,-66.279655,23.530115,STD
122026887075000,2.199922,3.7052907414786,9.20284426099222,0.458753270016537,-0.01863139,-0.0030543262,-0.0009162979,294.22336,-66.28574,23.5246,STD
122026892349000,2.205196,3.71549038009325,9.19404462639368,0.44115435530002,-0.009468411,-0.00061086525,0.0070249503,294.24316,-66.291565,23.520674,STD
122026897041000,2.209888,3.72459930885871,9.18493550739915,0.422936483501926,-0.005192355,0.003970624,0.010995574,294.26068,-66.29735,23.516241,STD
122026902038000,2.214885,3.7211271990536,9.19053303457267,0.440507213135683,0.00061086525,-0.0030543262,0.0030543262,294.27994,-66.30355,23.511509,STD
122026907050000,2.219897,3.71649186138098,9.19748618628682,0.46136624234283,0.0106901415,0.0021380284,0.013439035,294.29343,-66.30376,23.512821,STD
122026912050000,2.224897,3.71186762188315,9.20442269039112,0.482175329740222,0.013133603,0.00061086525,0.017104227,294.31305,-66.30524,23.51359,STD
122026917041000,2.229888,3.70725170601642,9.21134670878802,0.502946960780299,0.012217305,-0.0076358155,0.025961773,294.33267,-66.30266,23.51862,STD
122026922201000,2.235048,3.71022053754509,9.19690273327837,0.503574406627847,0.013133603,-0.004581489,0.01038471,294.34937,-66.30631,23.517303,STD
122026927009000,2.239856,3.71496600331856,9.17792096928785,0.498828945809544,0.014966198,-0.004581489,0.014966198,294.36887,-66.30197,23.52413,STD
122026932052000,2.244899,3.72334347130794,9.18212323503472,0.501765181716082,0.018936822,-0.007330383,0.018325957,294.38202,-66.30373,23.523872,STD
122026937150000,2.249997,3.73250513886283,9.19128461559392,0.506346010710265,0.020463986,-0.0106901415,0.011301007,294.39536,-66.307175,23.521856,STD
122026942057000,2.254904,3.71309766373296,9.17187698765697,0.525784876378663,0.022602014,-0.011911872,0.013133603,294.40833,-66.30491,23.525862,STD
122026946989000,2.259836,3.68268050524847,9.14145972330149,0.551132540210368,0.01740966,-0.01160644,0.015271631,294.4218,-66.304474,23.527811,STD
122026952047000,2.264894,3.68722802811415,9.14600722811415,0.549614263131508,0.024129177,-0.003970624,0.015271631,294.43225,-66.30391,23.530119,STD
122026957014000,2.269861,3.69869350381797,9.15747270381797,0.542734977709217,0.026267206,-0.0030543262,0.024740042,294.44437,-66.299866,23.535645,STD
122026962068000,2.274915,3.71035980424219,9.16913900424219,0.535735197454686,0.020463986,-0.01038471,0.019242255,294.45386,-66.29434,23.542587,STD
122026967050000,2.279897,3.7218599048978,9.1806391048978,0.528835137061319,0.027488936,-0.0070249503,0.025350908,294.45932,-66.28369,23.55496,STD
122026972251000,2.285098,3.72431835317408,9.17780040754558,0.530962187303688,0.015271631,-0.0012217305,0.020463986,294.4664,-66.27726,23.562298,STD
122026977190000,2.290037,3.72289528875384,9.16926213990012,0.536654444984656,0.015577064,0.017104227,0.016187929,294.46826,-66.26991,23.570917,STD
122026982119000,2.294966,3.72147510561406,9.16074115969673,0.542335177543775,0.028710667,0.004581489,0.008857546,294.48,-66.26419,23.578518,STD
122026987172000,2.300019,3.72001919459655,9.15200581521151,0.548158821613815,0.013133603,-0.0030543262,0.016187929,294.48428,-66.25488,23.588453,STD
122026992045000,2.304892,3.71861514662735,9.1435816446838,0.553775013490583,0.0012217305,0.00061086525,0.012217305,294.48328,-66.24889,23.596375,STD
122026997094000,2.309941,3.71716038812203,9.1348532151754,0.559594047511884,0.008857546,0.0009162979,0.015882496,294.4854,-66.23912,23.608292,STD
122027002276000,2.315123,3.7149213335247,9.12933596268435,0.566351101550035,0.004581489,-0.003970624,0.006414085,294.48825,-66.233795,23.614954,STD
122027007036000,2.319883,3.70589716882114,9.15640807987726,0.579887367451252,-0.005497787,-0.010079277,0.01160644,294.49103,-66.223656,23.62646,STD
122027012283000,2.32513,3.69723743221162,9.1850420668006,0.59405705610581,-0.002443461,-0.007330383,0.01038471,294.484,-66.218414,23.633131,STD
122027017042000,2.329889,3.70486776725264,9.19648780838774,0.597872223626318,-0.0018325958,-0.005497787,0.0061086523,294.47913,-66.21244,23.64018,STD
122027022610000,2.335457,3.71379521115018,9.20987925389252,0.602335945575088,-0.018020526,-0.009162978,0.011301007,294.4741,-66.20607,23.646986,STD
122027027077000,2.339924,3.71873256185037,9.20995637692747,0.594544142204455,-0.025350908,0.004276057,0.010079277,294.46335,-66.20316,23.6503,STD
122027032038000,2.344885,3.72325478770227,9.2054340566343,0.580977445760518,-0.0290161,-0.002443461,0.009162978,294.46002,-66.1985,23.655298,STD
122027037054000,2.349901,3.72804995592939,9.20865542346833,0.569264088141225,-0.035124753,-0.0036651916,0.013439035,294.44742,-66.19242,23.661264,STD
122027042062000,2.354909,3.73303028971963,9.21861629906542,0.559303420560748,-0.05009095,0.0021380284,0.014049901,294.43488,-66.18741,23.665754,STD
122027047056000,2.359903,3.72466466982789,9.22393486722866,0.548104840667369,-0.03604105,0.0018325958,0.009773844,294.4267,-66.18325,23.670462,STD
122027052044000,2.364891,3.70788592785388,9.22633163013699,0.536120009954338,-0.042455133,-0.0033597588,0.013439035,294.41815,-66.175766,23.677395,STD
122027057179000,2.370026,3.69061270410959,9.22879902739726,0.523781977534247,-0.04734206,-0.008857546,0.0015271631,294.41864,-66.17408,23.67859,STD
122027062058000,2.374905,3.67420061868634,9.23114341517387,0.512059044685634,-0.047647487,-0.0012217305,0.008552114,294.41626,-66.16615,23.685911,STD
122027067034000,2.379881,3.67080846050126,9.22336673926559,0.498896361515446,-0.05131268,0.005192355,0.0036651916,294.41632,-66.1649,23.686373,STD
122027072079000,2.384926,3.67550196700991,9.20928641577618,0.484815846890422,-0.05131268,-0.0076358155,0.004581489,294.4197,-66.160286,23.690487,STD
122027077109000,2.389956,3.67886198194046,9.2005745789734,0.471999433154485,-0.054061573,-0.01038471,0.00030543262,294.42404,-66.16373,23.686674,STD
122027082052000,2.394899,3.68120290382751,9.19589263742459,0.460294811497379,-0.052839845,-0.008552114,0.008857546,294.43066,-66.163414,23.686884,STD
122027087066000,2.399913,3.68357745012363,9.19114344565325,0.448422067619424,-0.05222898,-0.008246681,0.0030543262,294.4452,-66.16336,23.686932,STD
122027092638000,2.405485,3.68621625585995,9.185865723964,0.435228025160716,-0.044898596,-0.005192355,0.0036651916,294.45782,-66.15955,23.690954,STD
122027097051000,2.409898,3.69208230819376,9.18916881285729,0.423438732476181,-0.031154128,-0.00580322,0.0067195175,294.47137,-66.15712,23.693865,STD
122027102039000,2.414886,3.70166391052051,9.19875061528432,0.409066318981045,-0.035430185,-0.017104227,-0.00061086525,294.48727,-66.15733,23.693892,STD
122027107078000,2.419925,3.71905715052293,9.20844428740949,0.399659289895414,-0.032375857,-0.011911872,0.0076358155,294.4987,-66.15426,23.698248,STD
122027112175000,2.425022,3.74360107127916,9.21826206074014,0.394750505744167,-0.02321288,-0.01160644,0.00580322,294.5152,-66.15632,23.69769,STD
122027117086000,2.429933,3.74898367309804,9.21990268303922,0.400335875703922,-0.018936822,-0.008857546,-0.0018325958,294.53137,-66.15777,23.69783,STD
122027122127000,2.434974,3.73951766352941,9.21516957941176,0.414534899941176,-0.014660766,-0.011301007,0.004276057,294.54868,-66.15628,23.701225,STD
122027127027000,2.439874,3.736131743369,9.20817945110724,0.422556643368997,-0.016187929,-0.008857546,0.004581489,294.56345,-66.15659,23.702662,STD
122027132097000,2.444944,3.73854798502115,9.19851453495895,0.42497288502115,-0.008857546,0.003970624,0.013439035,294.57535,-66.153336,23.707903,STD
122027137092000,2.449939,3.7409284834536,9.18899259094302,0.427353383453595,-0.004581489,0.003970624,0.010995574,294.58838,-66.15344,23.709455,STD
122027142116000,2.454963,3.74332280259766,9.17941536436924,0.429747702597661,0.007330383,-0.004581489,0.013744468,294.59976,-66.1502,23.714697,STD
122027147027000,2.459874,3.74012987121432,9.18118320125786,0.437558600072569,0.009468411,0.00030543262,0.008246681,294.59998,-66.161285,23.704926,STD
122027152089000,2.464936,3.73074859175617,9.1952549245283,0.451630533953556,0.009773844,0.0033597588,0.014660766,294.60327,-66.16828,23.69963,STD
122027157032000,2.469879,3.71965187971933,9.20521967995322,0.463504014173083,0.011301007,0.007941248,0.01282817,294.60522,-66.17967,23.68937,STD
122027162441000,2.475288,3.70450689057597,9.21026811509599,0.47360068414482,0.016187929,0.016493361,0.020158553,294.60474,-66.18649,23.683676,STD
122027167004000,2.479851,3.69329308449187,9.21624221043183,0.483871821510921,0.013439035,0.0067195175,0.015882496,294.6084,-66.19707,23.673933,STD
122027172124000,2.484971,3.68351284793059,9.22602214062032,0.498542171246634,0.016187929,-0.0030543262,0.014049901,294.6093,-66.20495,23.66705,STD
122027177018000,2.489865,3.67591741295684,9.23046474464067,0.504417967559732,0.019242255,0.01160644,0.019242255,294.60712,-66.20968,23.662994,STD
122027182077000,2.494924,3.67134200156766,9.22588971545944,0.495267149558976,0.016187929,0.008246681,0.01038471,294.6138,-66.21871,23.654839,STD
122027187010000,2.499857,3.66558759051258,9.22479433651703,0.491911263014963,0.027488936,0.0067195175,0.013133603,294.61346,-66.22419,23.650301,STD
122027192101000,2.504948,3.65523940229226,9.23514220057307,0.507433539942693,0.02321288,-0.002443461,0.014966198,294.6168,-66.23172,23.643291,STD
122027197011000,2.509858,3.65033686833127,9.23375065834366,0.515574071668731,0.02321288,-0.004886922,0.015271631,294.6244,-66.23881,23.636957,STD
122027202085000,2.514932,3.65496783022968,9.21059584885161,0.510943109770323,0.031154128,0.0061086523,0.013133603,294.63052,-66.246086,23.630466,STD
122027206991000,2.519838,3.66070125553746,9.19137301842427,0.517014974476792,0.02443461,-0.0021380284,0.009773844,294.64175,-66.25397,23.623003,STD
122027212093000,2.52494,3.67064849364821,9.18142609191775,0.556803978853827,0.024740042,-0.0027488936,0.010079277,294.6471,-66.26167,23.61589,STD
122027217040000,2.529887,3.67477407592208,9.1718612191239,0.58690496407792,0.023823744,-0.0015271631,0.0015271631,294.6528,-66.270935,23.607224,STD
122027222131000,2.534978,3.66513193436171,9.16221887619895,0.596547105638287,0.02565634,-0.008857546,0.008552114,294.6611,-66.27564,23.603313,STD
122027227059000,2.539906,3.66477266526527,9.15800003983984,0.599479355467467,0.022296581,0.0009162979,0.0070249503,294.6566,-66.28156,23.59704,STD
122027232094000,2.544941,3.68890639299299,9.16765373253253,0.584999098670671,0.021380283,0.005497787,0.008857546,294.65582,-66.284584,23.593946,STD
122027237104000,2.549951,3.71010379681021,9.174581,0.578487998835726,0.01740966,0.00580322,0.014049901,294.6528,-66.28991,23.587845,STD
122027242094000,2.554941,3.72396148334058,9.174581,0.592345692601131,0.015577064,0.009773844,0.0021380284,294.64746,-66.29942,23.577477,STD
122027247033000,2.55988,3.73767753820502,9.174581,0.606061754626649,0.0143553335,0.0143553335,0.003970624,294.63818,-66.30537,23.571001,STD
122027252075000,2.564922,3.75167963349282,9.174581,0.62006385722488,0.01740966,0.011911872,0.003970624,294.63025,-66.31498,23.560966,STD
122027257078000,2.569925,3.76465920325122,9.174581,0.631744495582926,0.004886922,0.015271631,0.013133603,294.6232,-66.3201,23.554499,STD
122027262077000,2.574924,3.77182102979954,9.174581,0.62935722006682,-0.0061086523,0.0125227375,0.005192355,294.61914,-66.32996,23.543516,STD
122027267092000,2.579939,3.7790057787773,9.174581,0.6269623037409,-0.0061086523,0.0143553335,0.006414085,294.6092,-66.32581,23.545904,STD
122027272188000,2.585035,3.7863065725541,9.174581,0.624528705815299,0.0067195175,0.018020526,0.009468411,294.5996,-66.32349,23.546558,STD
122027277112000,2.589959,3.79129500861473,9.17402079260835,0.620251647814411,-0.0070249503,0.013744468,0.005192355,294.5921,-66.32216,23.545555,STD
122027282098000,2.594945,3.78283096096783,9.16978868040415,0.603323556939644,-0.020463986,0.010079277,0.008246681,294.5832,-66.318306,23.547434,STD
122027287121000,2.599968,3.77430410350084,9.16552516263405,0.586269846457503,-0.021685716,0.010079277,0.007330383,294.578859445554,-66.3139875246753,23.5512240818182,STD
122027292108000,2.604955,3.76367748559192,9.16774228976363,0.578708483190898,-0.018325957,0.0012217305,0.011301007,294.57455,-66.3097,23.554987,STD
122027297003000,2.60985,3.75294910255337,9.17080744603917,0.572577972196031,-0.0290161,0.007941248,0.008552114,294.56232,-66.30136,23.561354,STD
122027302098000,2.614945,3.74178237904338,9.17399783852617,0.566196980670219,-0.036957346,-0.0009162979,0.004581489,294.56122,-66.29467,23.566944,STD
122027307067000,2.619914,3.73089181003041,9.17710933219995,0.559973791878903,-0.03573562,-0.0030543262,0.005192355,294.55597,-66.28764,23.572668,STD
122027312118000,2.624965,3.71982152142413,9.18027217272044,0.553647906069899,-0.035124753,-0.0030543262,0.004581489,294.55421852903,-66.2857396287599,23.5737441199161,STD
122027317074000,2.629921,3.7089594445418,9.18337552604048,0.547440998513094,-0.032986723,-0.00061086525,0.006414085,294.5525,-66.283875,23.5748,STD
122027322177000,2.635024,3.68808774686579,9.20229345313421,0.542250709373158,-0.027488936,-0.004581489,0.0061086523,294.55164,-66.28061,23.5767,STD
122027327091000,2.639938,3.66496906185891,9.22541213814109,0.537626972371782,-0.030848695,-0.00030543262,0.008246681,294.54944,-66.27405,23.581585,STD
122027332087000,2.644934,3.68206394419889,9.21424843957182,0.52740477734634,-0.027488936,-0.0036651916,-0.0030543262,294.55872,-66.27599,23.57883,STD
122027337089000,2.649936,3.71514623259669,9.18943706871547,0.514998893289019,-0.028710667,-0.0018325958,0.003970624,294.5646,-66.27199,23.581717,STD
122027342104000,2.654951,3.73823666304503,9.17589378409284,0.508227152609005,-0.021380283,0.0021380284,0.004886922,294.57037,-66.28045,23.572826,STD
122027347596000,2.660443,3.74715997504666,9.17946299708188,0.510011815009331,-0.021991149,0.0009162979,0.0070249503,294.57697,-66.28615,23.566488,STD
122027352078000,2.664925,3.75444225552577,9.1823758180245,0.511468271105154,-0.013744468,0.00061086525,0.004886922,294.58127,-66.2931,23.559076,STD
122027357097000,2.669944,3.76259704484408,9.18563763157002,0.513099228968817,-0.010079277,0.013133603,0.0076358155,294.5818,-66.29776,23.55367,STD
122027362071000,2.674918,3.77067871889654,9.18887019992535,0.514715563779308,-0.01160644,0.00580322,0.010079277,294.5852,-66.3059,23.545261,STD
122027367097000,2.679944,3.77884488170066,9.19213656272268,0.516348796340131,-0.013439035,0.0030543262,0.004581489,294.58347,-66.315384,23.535383,STD
122027372177000,2.685024,3.78036953710914,9.19867222890855,0.524554744141593,-0.0106901415,-0.0027488936,0.0033597588,294.58484,-66.32286,23.527775,STD
122027377160000,2.690007,3.77567718761062,9.20805712389381,0.538631822035398,-0.009468411,-0.0030543262,0.0036651916,294.58545,-66.33111,23.519247,STD
122027382109000,2.694956,3.76665812919398,9.20628419128423,0.543676776397995,-0.0061086523,0.0076358155,0.004276057,294.58032,-66.33782,23.512394,STD
122027387132000,2.699979,3.75274443856537,9.19237021008484,0.53903887952179,-0.009468411,0.0015271631,0.007330383,294.58057,-66.34339,23.506756,STD
122027392066000,2.704913,3.74266559886212,9.18602284010291,0.5363012,-0.015271631,0.0021380284,0.0106901415,294.5736,-66.3488,23.50081,STD
122027397099000,2.709946,3.73789638752288,9.19079215104141,0.5363012,-0.011911872,-0.005192355,0.006414085,294.57117,-66.35552,23.493929,STD
122027402030000,2.714877,3.7332238301786,9.19546480596646,0.5363012,-0.0125227375,0.0009162979,0.004581489,294.56006,-66.36761,23.481297,STD
122027407121000,2.719968,3.72839965872458,9.20028907816752,0.5363012,-0.011301007,-0.0009162979,0.006414085,294.5539,-66.37959,23.46914,STD
122027411987000,2.724834,3.72297320446175,9.20651711064531,0.535499668153915,-0.010995574,0.0021380284,0.0061086523,294.54456,-66.39222,23.456137,STD
122027417726000,2.730573,3.71474423976643,9.21748900628837,0.532756679922144,-0.013439035,0.0009162979,0.009162978,294.5372,-66.40291,23.445116,STD
122027422036000,2.734883,3.70856427150771,9.22572892094625,0.53069669050257,-0.012217305,-0.0012217305,0.002443461,294.52454,-66.42188,23.426176,STD
122027427088000,2.739935,3.70132037367869,9.23538740095823,0.528282057892898,-0.011911872,0.0009162979,-0.0012217305,294.51108,-66.438446,23.409496,STD
122027431992000,2.744839,3.70051033855132,9.24316320768967,0.529814750841057,-0.0125227375,0.0067195175,0.003970624,294.4937,-66.45611,23.391872,STD
122027437155000,2.750002,3.71263456453337,9.24801299936246,0.539514131626698,-0.016798794,0.0036651916,-0.0015271631,294.47906,-66.47705,23.370928,STD
122027441992000,2.754839,3.7239932476779,9.25255656750527,0.548601078142318,-0.015882496,0.0027488936,-0.00580322,294.46448,-66.49828,23.349888,STD
122027447053000,2.7599,3.73587794798686,9.25731054690795,0.558108838389486,-0.0070249503,-0.003970624,0.0018325958,294.45285,-66.51707,23.331533,STD
122027452021000,2.764868,3.7449331734092,9.25755778755477,0.562620957027663,-0.004581489,-0.009773844,-0.00580322,294.44568,-66.544586,23.303486,STD
122027457085000,2.769932,3.74651897274214,9.24487129353868,0.553106151094762,-0.0021380284,-0.01863139,-0.0033597588,294.44153,-66.56653,23.281464,STD
122027462052000,2.774899,3.74807439637695,9.23242780701066,0.543773599540906,-0.0033597588,-0.013744468,0.0012217305,294.43314,-66.58382,23.263517,STD
122027467085000,2.779932,3.74965048801256,9.21981897518148,0.534317039852855,-0.005497787,-0.022907447,0.0036651916,294.432,-66.60048,23.24657,STD
122027472057000,2.784904,3.75120747740501,9.20736296249428,0.524975093743378,-0.00580322,-0.01863139,0.00061086525,294.42535,-66.61688,23.229658,STD
122027477097000,2.789944,3.7527857611013,9.19473659404225,0.515505381677457,0.0018325958,-0.015577064,-0.003970624,294.42206,-66.632744,23.213633,STD
122027482056000,2.794903,3.753409149638,9.18450653248041,0.507221215183973,0.0033597588,-0.01985312,-0.002443461,294.41977,-66.64704,23.199022,STD
122027487051000,2.799898,3.74866491518397,9.18687869924626,0.504849100433899,0.0018325958,-0.014660766,0.008857546,294.41364,-66.659485,23.186256,STD
122027492097000,2.804944,3.74387224109888,9.18927508633343,0.502452765893583,0.004886922,-0.013133603,0.0106901415,294.40875,-66.67541,23.171068,STD
122027497092000,2.809939,3.73912800664485,9.19164725309927,0.500080651143509,0.01282817,0.004276057,0.017104227,294.39728,-66.68649,23.160545,STD
122027502071000,2.814918,3.73440695307918,9.19209108211144,0.499636893621701,0.008246681,0.003970624,0.014966198,294.39105,-66.69879,23.148685,STD
122027507085000,2.819932,3.72971310408602,9.17800973118279,0.513718465107527,0.007941248,-0.007941248,0.009162978,294.38327,-66.71034,23.137867,STD
122027512093000,2.82494,3.72504543752186,9.16533636941913,0.527056762478137,0.0036651916,-0.0021380284,0.012217305,294.37164,-66.72082,23.127728,STD
122027517112000,2.829959,3.72062069673203,9.16976120261438,0.531481503267974,0.0070249503,-0.008552114,0.016493361,294.36774,-66.73241,23.117,STD
122027522125000,2.834972,3.7162012455307,9.17418074611065,0.535900954469299,0.004886922,-0.004886922,0.013133603,294.3604,-66.73651,23.113148,STD
122027527100000,2.839947,3.71116140368624,9.16994130679383,0.540940796313759,0.007941248,-0.0067195175,0.01282817,294.35678,-66.73874,23.111582,STD
122027532298000,2.845145,3.70518029193503,9.16604789353112,0.54692190806497,-0.002443461,-0.010995574,0.0143553335,294.35284,-66.740845,23.10961,STD
122027537091000,2.849938,3.69225147706319,9.17897652840109,0.559850722936813,-0.0036651916,-0.020158553,0.015271631,294.35565,-66.73691,23.11416,STD
122027541995000,2.854842,3.67902324669984,9.19220457459393,0.57307895330016,0.0033597588,-0.01160644,0.016187929,294.3501,-66.73562,23.115824,STD
122027547071000,2.859918,3.67340829063816,9.19577679734141,0.570522890638157,0.0070249503,-0.013744468,0.010079277,294.35083,-66.73602,23.115889,STD
122027552018000,2.864865,3.6689259187568,9.19801803008657,0.5660405187568,-0.0036651916,-0.018020526,0.00030543262,294.3496,-66.73706,23.114979,STD
122027557042000,2.869889,3.66437377880694,9.20029414759449,0.561488378806944,-0.002443461,-0.0076358155,0.005497787,294.3443,-66.73603,23.116266,STD
122027561988000,2.874835,3.6598923130044,9.20253492729079,0.557006913004399,-0.005497787,-0.0027488936,0.0018325958,294.3423,-66.73979,23.112385,STD
122027567042000,2.879889,3.64127197808599,9.19307020943134,0.558868444382802,-0.0070249503,0.005497787,0.007330383,294.33585,-66.73955,23.112434,STD
122027572092000,2.884939,3.61547295962872,9.17759101386963,0.564028248074256,-0.012217305,-0.00061086525,0.0061086523,294.33258,-66.74199,23.10969,STD
122027577135000,2.889982,3.62749970504942,9.18215585158494,0.568819053476165,-0.0061086523,0.01740966,0.003970624,294.33182,-66.73689,23.114235,STD
122027582002000,2.894849,3.64792589049033,9.19123410882797,0.573358215275844,-0.020463986,0.020158553,0.01038471,294.33746,-66.72917,23.120914,STD
122027587029000,2.899876,3.66902357576082,9.20061080888153,0.578046599571505,-0.019242255,0.025350908,0.009773844,294.33707,-66.72766,23.121607,STD
122027592053000,2.9049,3.6901086704095,9.2099819131324,0.582732185945367,-0.022907447,0.018020526,0.0033597588,294.33963,-66.72554,23.122467,STD
122027597091000,2.909938,3.69498195279596,9.212888,0.579188891431713,-0.01985312,0.018020526,0.004581489,294.3382,-66.72183,23.125042,STD
122027602051000,2.914898,3.69260821195343,9.212888,0.572067658989556,-0.021685716,0.011301007,0.007941248,294.3411,-66.71916,23.126518,STD
122027607025000,2.919872,3.69022777103593,9.212888,0.564926326294538,-0.016187929,0.016798794,0.01038471,294.33688,-66.71271,23.131699,STD
122027612064000,2.924911,3.68781622262755,9.212888,0.557691670996952,-0.028405234,0.01038471,0.0067195175,294.33844,-66.70667,23.13612,STD
122027617036000,2.929883,3.69032612078064,9.20312123369511,0.56522137593946,-0.021685716,0.014966198,0.0061086523,294.3282,-66.701904,23.1404,STD
122027622140000,2.934987,3.69519319109828,9.1885197178134,0.57982260722095,-0.02687807,0.01160644,0.00580322,294.3225,-66.697464,23.143782,STD
122027627134000,2.939981,3.6999487931432,9.19736284835536,0.57097965363808,-0.024129177,0.008857546,0.009162978,294.3144,-66.69642,23.144648,STD
122027632056000,2.944903,3.70463298370267,9.2161000018881,0.552242871835437,-0.025045475,0.0143553335,0.0076358155,294.30493,-66.69657,23.143946,STD
122027637190000,2.950037,3.70786309676718,9.21590927602571,0.537683507607514,-0.031154128,0.0125227375,0.00061086525,294.2956,-66.69539,23.144295,STD
122027642057000,2.954904,3.71016711483935,9.20669301127039,0.526163405217499,-0.03573562,0.015882496,0.013439035,294.2828,-66.68909,23.149673,STD
122027647050000,2.959897,3.71253078080079,9.19723814997528,0.514345063069698,-0.03634648,0.013744468,0.0018325958,294.27966,-66.68949,23.148726,STD
122027652086000,2.964933,3.71491480278794,9.18770186287692,0.502424940687098,-0.035430185,0.018020526,0.004886922,294.27307,-66.68222,23.155273,STD
122027657093000,2.96994,3.70985373748329,9.18713069335909,0.500967579705839,-0.036651913,0.012217305,0.0106901415,294.27545,-66.67514,23.161383,STD
122027662079000,2.974926,3.70039502905958,9.19186014633784,0.505696931448522,-0.03390302,0.011911872,0.008552114,294.27478,-66.66983,23.165758,STD
122027667085000,2.979932,3.69089837956718,9.19660857024711,0.510445253715644,-0.03970624,0.0009162979,0.0036651916,294.28122,-66.66498,23.170021,STD
122027672793000,2.98564,3.68006999856386,9.20202287381766,0.515859441390581,-0.032986723,-0.0030543262,0.002443461,294.28543,-66.660416,23.174425,STD
122027677153000,2.99,3.68455930838044,9.20472413118702,0.505842720689113,-0.025045475,-0.0036651916,0.0015271631,294.28772,-66.657715,23.177343,STD
122027682100000,2.994947,3.69620256952568,9.20705283204719,0.487213493130499,-0.02107485,-0.009468411,0.0076358155,294.2927,-66.6536,23.181902,STD
122027687148000,2.999995,3.70808354431064,9.20942907662816,0.468203923549766,-0.014966198,-0.021991149,0.003970624,294.30365,-66.65382,23.182104,STD
122027692099000,3.004946,3.71973621985746,9.21175966040796,0.449559632940772,-0.011301007,-0.026267206,-0.0030543262,294.31366,-66.65348,23.18287,STD
122027697096000,3.009943,3.73230207141268,9.2082717226548,0.438225009529106,-0.004886922,-0.01282817,0.005192355,294.32172,-66.650314,23.186693,STD
122027702099000,3.014946,3.74562596751947,9.19938893974787,0.433783710826845,0.0033597588,-0.011911872,0.008246681,294.335,-66.6509,23.18715,STD
122027707142000,3.019989,3.75592147773362,9.19192068439825,0.441835975868746,0.005192355,-0.0067195175,0.015882496,294.35242,-66.64967,23.18919,STD
122027712093000,3.02494,3.76075330661368,9.18708875461123,0.470826974375828,0.011301007,-0.0061086523,0.0070249503,294.37094,-66.65283,23.187265,STD
122027717044000,3.029891,3.75810792235294,9.18229812941177,0.490276175882353,0.016187929,-0.0125227375,0.010995574,294.38922,-66.64861,23.192812,STD
122027722189000,3.035036,3.74337034428714,9.17738601375872,0.495188701904287,0.021380283,-0.011301007,0.017104227,294.40482,-66.64666,23.19614,STD
122027727058000,3.039905,3.73772022325025,9.17642469107677,0.50260332689681,0.017104227,-0.005192355,0.022907447,294.4154,-66.64157,23.20185,STD
122027732088000,3.044935,3.7449243066002,9.18122726286142,0.514610145017448,0.013133603,-0.004886922,0.021991149,294.4272,-66.6371,23.20716,STD
122027737001000,3.049848,3.75196081982054,9.18591812472582,0.526337679297109,0.013133603,-0.005192355,0.019242255,294.4369,-66.63286,23.21207,STD
122027742716000,3.055563,3.76014597615155,9.19137472467597,0.539979620760219,0.013744468,-0.008857546,0.01740966,294.44736,-66.62876,23.216763,STD
122027746987000,3.059834,3.75879101684489,9.19047144676824,0.557297300842245,0.015271631,-0.004581489,0.014660766,294.45648,-66.624825,23.221172,STD
122027752095000,3.064942,3.74490298020252,9.18121304570834,0.589702739010126,0.013744468,-0.011911872,0.01038471,294.4702,-66.62201,23.224586,STD
122027756995000,3.069842,3.73155796987711,9.17684534914738,0.610651219918072,0.004886922,-0.021685716,0.0070249503,294.47882,-66.61751,23.228966,STD
122027762075000,3.074922,3.7176539561589,9.1861144012575,0.601381877439268,0.0030543262,-0.024740042,0.010079277,294.48743,-66.612785,23.233757,STD
122027767019000,3.079866,3.70548844424549,9.19263038173361,0.591186893322663,0.013439035,-0.015882496,0.005192355,294.4983,-66.609764,23.235529,STD
122027772117000,3.084964,3.70060448221878,9.18530454068924,0.57409301602961,0.004276057,-0.017715093,0.008857546,294.513,-66.603035,23.24058,STD
122027777021000,3.089868,3.69590637516131,9.17825747821738,0.557649631517031,0.007941248,-0.009468411,0.014660766,294.52432,-66.60051,23.242208,STD
122027782097000,3.094944,3.69104348947131,9.17096325123793,0.540629521446506,0.008246681,-0.017715093,0.008552114,294.5412,-66.60009,23.241604,STD
122027787045000,3.099892,3.68857871300501,9.16575807225007,0.52898656950752,0.004581489,-0.01985312,0.01282817,294.55316,-66.595276,23.245255,STD
122027792108000,3.104955,3.69811126749238,9.17052444903175,0.543285401238573,0.0106901415,-0.016798794,0.0143553335,294.566,-66.593475,23.246288,STD
122027797023000,3.10987,3.70334088282989,9.17573429073927,0.557184792710652,0.018020526,-0.0061086523,0.0021380284,294.58173,-66.59868,23.240759,STD
122027802090000,3.114937,3.67923235461049,9.18537739994038,0.571649929781399,0.0061086523,0.005497787,0.0125227375,294.5956,-66.59668,23.242008,STD
122027807051000,3.119898,3.65779113783947,9.19428307362704,0.585283364321062,0.003970624,0.0012217305,0.01160644,294.60828,-66.599304,23.23906,STD
122027812522000,3.125369,3.65252110436532,9.19955321715952,0.595823431269362,0.004276057,0.0125227375,0.01160644,294.61218,-66.598495,23.238901,STD
122027817094000,3.129941,3.64908119005984,9.20394659339301,0.602385468493151,0.010079277,0.019242255,0.008246681,294.61798,-66.60143,23.235054,STD
122027822188000,3.135035,3.65149374231739,9.20877179867465,0.595147801643836,0.0018325958,0.016493361,-0.00030543262,294.6232,-66.6054,23.229723,STD
122027827077000,3.139924,3.6538092052124,9.213402821176,0.588201403287671,-0.013439035,0.014966198,0.009773844,294.6225,-66.602974,23.230936,STD
122027832072000,3.144919,3.65617487041195,9.21813425038327,0.581104397808219,-0.008246681,0.015577064,0.005192355,294.62234,-66.60749,23.2256,STD
122027837035000,3.149882,3.65870473746106,9.22210045492601,0.574243862538941,-0.005192355,0.018936822,0.0070249503,294.62152,-66.606804,23.224947,STD
122027842096000,3.154943,3.66342321339564,9.21738188045171,0.569525386604361,-0.015577064,0.009773844,0.005192355,294.6245,-66.60818,23.222141,STD
122027847272000,3.160119,3.66725370412451,9.21222469027237,0.56403665618677,-0.015882496,0.0021380284,-0.0033597588,294.62503,-66.614494,23.21525,STD
122027852088000,3.164935,3.65828057789883,9.2032513766537,0.550576966848249,-0.01863139,0.0018325958,0.003970624,294.62592,-66.616295,23.212511,STD
122027857408000,3.170255,3.64942962778924,9.19363882261391,0.536110848606788,-0.018325957,0.0033597588,0.0021380284,294.62805,-66.62274,23.205494,STD
122027862076000,3.174923,3.66409920948809,9.19154312432027,0.531919526420401,-0.022296581,0.0067195175,0.008246681,294.6294,-66.624535,23.202915,STD
122027867023000,3.17987,3.67964557209826,9.18932216899494,0.527477694617476,-0.02321288,-0.004276057,-0.0018325958,294.6366,-66.62931,23.198395,STD
122027872201000,3.185048,3.69591787159197,9.18699750623476,0.522828451626664,-0.024740042,-0.0070249503,0.00030543262,294.63986,-66.62878,23.198889,STD
122027877061000,3.189908,3.71119082940184,9.18481560955372,0.51846473572567,-0.018936822,0.0067195175,-0.0030543262,294.64157,-66.63289,23.194847,STD
122027882147000,3.194994,3.71752994538561,9.184157,0.522334386988925,-0.023518313,0.00580322,0.003970624,294.65436,-66.62992,23.197386,STD
122027887067000,3.199914,3.71988043206625,9.184157,0.529385861756959,-0.011911872,0.0018325958,-0.0061086523,294.66403,-66.63362,23.193834,STD
122027892098000,3.204945,3.72228394801955,9.184157,0.536596424675247,-0.009468411,-0.0015271631,-0.003970624,294.67297,-66.62818,23.1991,STD
122027897057000,3.209904,3.7246530666068,9.184157,0.543703795279856,-0.013744468,-0.0027488936,0.004581489,294.68243,-66.6241,23.203196,STD
122027902075000,3.214922,3.72868206498472,9.18746133399034,0.535965184344141,-0.015882496,-0.005192355,-0.004581489,294.68365,-66.62406,23.204605,STD
122027907099000,3.219946,3.7334237465852,9.19220311461516,0.521740109835419,-0.0070249503,-0.0021380284,0.0030543262,294.68314,-66.61726,23.212921,STD
122027912090000,3.224937,3.72832949954825,9.19704661940452,0.530397761657084,-0.0027488936,0.005192355,0.004276057,294.68256,-66.61458,23.216068,STD
122027917109000,3.229956,3.71845969273101,9.20198162587269,0.550137406209446,-0.0036651916,-0.004886922,-0.0015271631,294.68643,-66.612045,23.21937,STD
122027922165000,3.235012,3.72538124861361,9.19692403420958,0.539487698970112,-0.005192355,0.00061086525,0.0061086523,294.68518,-66.606094,23.226175,STD
122027927213000,3.24006,3.73843769974793,9.18821955167447,0.517726919812748,-0.0018325958,0.002443461,0.0061086523,294.68842,-66.60424,23.22915,STD
122027932085000,3.244932,3.7344697113895,9.19170342405262,0.517632444369976,-0.0027488936,-0.004886922,0.0067195175,294.6916,-66.59621,23.23801,STD
122027937108000,3.249955,3.71438232590041,9.20676927779518,0.537719861321641,-0.0036651916,-0.010995574,0.003970624,294.6938,-66.58956,23.245506,STD
122027942088000,3.254935,3.70340170568894,9.21006544674452,0.541644249691745,0.00061086525,-0.0036651916,0.003970624,294.6969,-66.581604,23.254766,STD
122027947072000,3.259919,3.69861690580923,9.20528054694,0.534467034883464,-0.0070249503,-0.00580322,0.007330383,294.7047,-66.5734,23.264029,STD
122027952094000,3.264941,3.69379562471054,9.20045916515463,0.527235098132424,-0.0030543262,0.0030543262,0.007330383,294.70474,-66.57279,23.265268,STD
122027957094000,3.269941,3.68899546431758,9.19565890451606,0.52003484250614,0.0021380284,0.002443461,0.0143553335,294.70816,-66.56917,23.269482,STD
122027962076000,3.274923,3.6870706,9.19088592402597,0.51857163151948,-0.00030543262,-0.005497787,0.011911872,294.71124,-66.56823,23.270836,STD
122027967103000,3.27995,3.6870706,9.18607662677323,0.520976370541459,0.0018325958,-0.0036651916,0.005497787,294.71136,-66.56692,23.272736,STD
122027972133000,3.28498,3.6870706,9.18126445944056,0.523382544657343,0.003970624,0.0009162979,0.0036651916,294.7162,-66.562416,23.278387,STD
122027977173000,3.29002,3.6870706,9.17644272517482,0.52579350241958,0.0015271631,0.010079277,0.0027488936,294.71896,-66.559616,23.28213,STD
122027982084000,3.294931,3.68847207139825,9.17598235432605,0.532330285593011,0.0036651916,0.0070249503,0.011911872,294.72498,-66.55932,23.283148,STD
122027987097000,3.299944,3.69084157430532,9.17835165929618,0.541808297221262,0.008552114,0.0030543262,0.006414085,294.72864,-66.56345,23.279593,STD
122027992093000,3.30494,3.69320304179458,9.18071292951977,0.551254167178323,0.00030543262,0.0012217305,0.012217305,294.73114,-66.56079,23.28239,STD
122027997734000,3.310581,3.69586938248852,9.18337904748038,0.561919529954099,0.008857546,0.0009162979,0.009773844,294.73456,-66.56278,23.281229,STD
122028002087000,3.314934,3.70933926213649,9.18669542543817,0.562493227572701,0.013133603,0.01160644,0.01160644,294.7378,-66.561615,23.282394,STD
122028007095000,3.319942,3.73281944151572,9.1913915593851,0.557797191696857,0.0106901415,0.0027488936,0.0076358155,294.74728,-66.562935,23.281384,STD
122028012084000,3.324931,3.75176408584133,9.18650141485599,0.560276590560889,0.008246681,0.0015271631,0.014660766,294.74747,-66.5596,23.284542,STD
122028017071000,3.329918,3.76624397515917,9.17202172713491,0.569929850106114,0.0021380284,0.007330383,0.014660766,294.74835,-66.559265,23.284512,STD
122028022041000,3.334888,3.77091257392265,9.16617863756906,0.569909947845304,0.00030543262,0.008552114,0.011301007,294.75058,-66.556,23.287607,STD
122028027042000,3.339889,3.76631074093683,9.16847960211386,0.560706281873649,0.0021380284,0.003970624,0.01038471,294.75272,-66.55214,23.291224,STD
122028032026000,3.344873,3.76172455105453,9.17077274494355,0.551533902109056,0.004886922,0.0027488936,0.01038471,294.7506,-66.54639,23.296385,STD
122028037056000,3.349903,3.75709603277444,9.17308705241413,0.542276865548883,-0.0036651916,0.0012217305,0.0076358155,294.75003,-66.541565,23.300379,STD
122028042010000,3.354857,3.74592540012013,9.1811272057263,0.537937759975974,-0.0018325958,0.009162978,0.0009162979,294.73752,-66.54452,23.297373,STD
122028047056000,3.359903,3.72173652595855,9.20047820402443,0.542775534808289,-0.009468411,0.0067195175,0.0036651916,294.72876,-66.54491,23.296522,STD
122028052007000,3.364854,3.70953286478646,9.21123363305802,0.555804001269138,-0.02565634,0.010079277,0.0070249503,294.72253,-66.54929,23.29134,STD
122028057066000,3.369913,3.71929294359388,9.20635349174053,0.585084258074134,-0.026572637,0.01282817,0.005192355,294.7174,-66.554474,23.285666,STD
122028061987000,3.374834,3.71700212904375,9.20163583082558,0.59328802785587,-0.02565634,0.013133603,0.0067195175,294.7155,-66.560234,23.278711,STD
122028067553000,3.3804,3.69061900253415,9.19635909532766,0.561628254005147,-0.026572637,0.015882496,0.0033597588,294.7122,-66.56761,23.270006,STD
122028072078000,3.384925,3.67597863099378,9.19676440129741,0.539817314482386,-0.026572637,0.008857546,-0.00061086525,294.7064,-66.57192,23.263968,STD
122028077168000,3.390015,3.67158671172178,9.20554842328138,0.522249609878367,-0.027794369,0.0012217305,-0.00061086525,294.69998,-66.57582,23.258286,STD
122028082040000,3.394887,3.66960046436956,9.2134491665089,0.508131894789852,-0.0290161,-0.004276057,-0.0030543262,294.70123,-66.5851,23.24797,STD
122028087072000,3.399919,3.68328575145778,9.21801102413858,0.512693657152594,-0.029321533,-0.01038471,-0.01038471,294.70508,-66.59551,23.236649,STD
122028092368000,3.405215,3.69814237224373,9.22358621357245,0.516400054268392,-0.016798794,-0.004886922,-0.0009162979,294.7042,-66.604355,23.228348,STD
122028097101000,3.409948,3.71661679425311,9.23744183717139,0.507162848086407,-0.030543262,-0.011301007,-0.0033597588,294.7092,-66.61743,23.21515,STD
122028102174000,3.415021,3.73566322273086,9.25013206220402,0.496931014978789,-0.01985312,-0.016493361,-0.009773844,294.70947,-66.623825,23.2102,STD
122028107103000,3.41995,3.74497735990529,9.23616080781373,0.482959797059984,-0.005192355,-0.014660766,-0.005192355,294.7094,-66.627365,23.20775,STD
122028112056000,3.424903,3.75433684893449,9.2221215254045,0.468920551299822,-0.004581489,-0.014966198,-0.00030543262,294.71274,-66.63153,23.204802,STD
122028117094000,3.429941,3.76385695911602,9.20784131042818,0.454640373601519,-0.0015271631,-0.010995574,0.0061086523,294.71408,-66.63443,23.203545,STD
122028122378000,3.435225,3.77253109177851,9.19358785530371,0.442140659613282,0.004276057,-0.01740966,0.0061086523,294.713405805423,-66.6341687496013,23.2049502743222,STD
122028127126000,3.439973,3.76123010599463,9.19132761094542,0.467002851938563,0.0015271631,-0.008552114,0.012217305,294.7128,-66.633934,23.206213,STD
122028132354000,3.445201,3.74878664481559,9.18883886673625,0.494378492519137,0.0030543262,-0.010079277,0.013744468,294.71152,-66.63303,23.209246,STD
122028137647000,3.450494,3.73618847342678,9.18631917983895,0.522094495884283,0.012217305,-0.011911872,0.0106901415,294.71402,-66.63118,23.213665,STD
122028142428000,3.455275,3.72516688448212,9.183946102101,0.544823421309436,0.014660766,-0.01282817,0.013744468,294.71637,-66.626045,23.221233,STD
122028147070000,3.459917,3.7210703579801,9.17984991780317,0.524340767411537,0.007330383,-0.0076358155,0.016187929,294.71747,-66.622116,23.227419,STD
122028152015000,3.464862,3.71670643649097,9.17548636085514,0.502521137182086,-0.00061086525,-0.009468411,0.009773844,294.7134,-66.61987,23.231003,STD
122028157081000,3.469928,3.71766730032319,9.1764471444214,0.501726548697603,0.004886922,-0.01160644,0.0070249503,294.70782,-66.616264,23.236025,STD
122028161996000,3.474843,3.71993781173122,9.17871746616179,0.50626756914283,0.00030543262,-0.0070249503,0.011911872,294.70078,-66.61187,23.241161,STD
122028167093000,3.47994,3.72229239904491,9.18107185678453,0.510976741311562,0.0009162979,-0.0012217305,0.01160644,294.69827,-66.611595,23.242928,STD
122028172132000,3.484979,3.72462019293811,9.18339945622498,0.51563232666731,-0.009773844,-0.013133603,0.005497787,294.69992,-66.611206,23.244436,STD
122028177143000,3.48999,3.71915689378553,9.18104680672512,0.507816183926197,0.0027488936,-0.003970624,0.011911872,294.689,-66.60828,23.249233,STD
122028182016000,3.494863,3.71016416878312,9.1765508198285,0.494327101117641,0.01038471,-0.0067195175,0.003970624,294.68585,-66.61073,23.248384,STD
122028187050000,3.499897,3.71507536148778,9.18048158947928,0.485466762837407,0.002443461,-0.008246681,0.0012217305,294.67773,-66.60914,23.251127,STD
122028192069000,3.504916,3.7303992592136,9.19069720127524,0.480358796928799,-0.0067195175,-0.004886922,0.012217305,294.66898,-66.606094,23.255423,STD
122028197055000,3.509902,3.72212924959755,9.19052759543887,0.482046687600613,-0.0027488936,-0.009162978,0.01038471,294.6654,-66.61198,23.251112,STD
122028202041000,3.514888,3.70382724699118,9.18595199923342,0.486622188252204,0.002443461,-0.0021380284,0.00030543262,294.65738,-66.61679,23.247389,STD
122028207282000,3.520129,3.69820119997037,9.18726466483924,0.491524748318269,-0.009162978,-0.0018325958,0.0070249503,294.65295,-66.61608,23.248997,STD
122028212060000,3.524907,3.70046118665481,9.19178473260236,0.496044719327308,-0.0070249503,0.0036651916,0.005497787,294.64514,-66.62103,23.245272,STD
122028217055000,3.529902,3.70282381400701,9.19651008598805,0.500769971564676,-0.002443461,0.0033597588,0.00580322,294.63904,-66.62481,23.242441,STD
122028222192000,3.535039,3.7052536071418,9.20136977374426,0.505629555297081,0.00061086525,0.0061086523,0.009162978,294.63043,-66.62805,23.240011,STD
122028227083000,3.53993,3.70350262490491,9.20603263193193,0.521178632526527,-0.002443461,0.00030543262,0.009162978,294.6228,-66.63499,23.233862,STD
122028232094000,3.544941,3.69869888668669,9.21083647047047,0.545197353713714,-0.0018325958,0.00030543262,0.0061086523,294.617509971009,-66.638211106668,23.2308397703689,STD
122028237086000,3.549933,3.6993795229969,9.21562018005402,0.563651180402121,-0.016187929,0.0018325958,0.0061086523,294.61224,-66.64142,23.227829,STD
122028242095000,3.554942,3.7041779816545,9.22041873892168,0.578046576416925,-0.0009162979,0.004886922,0.01038471,294.6015,-66.64585,23.224411,STD
122028247052000,3.559899,3.70363272251319,9.21987346839328,0.581593751689209,0.0021380284,0.008246681,0.009468411,294.58957,-66.64648,23.2237,STD
122028252065000,3.564912,3.69902759077218,9.21526824047962,0.576988600713669,-0.014966198,0.008246681,0.0021380284,294.57794,-66.647575,23.222345,STD
122028257093000,3.56994,3.69421502255341,9.20559071526837,0.569743645106827,-0.014966198,-0.00580322,0.0033597588,294.5672,-66.64615,23.223969,STD
122028262081000,3.574928,3.68923648389786,9.19065478738927,0.559786567795727,-0.0061086523,-0.008857546,-0.0021380284,294.5534,-66.64842,23.221481,STD
122028267072000,3.579919,3.6923741243031,9.18680881753043,0.558106562151551,-0.004276057,0.0033597588,-0.0015271631,294.53632,-66.65539,23.21403,STD
122028272196000,3.585043,3.70200732477424,9.19162551835493,0.562923162387122,-0.013744468,0.0015271631,-0.0021380284,294.5249,-66.66389,23.20516,STD
122028277049000,3.589896,3.70388948600785,9.19139923725014,0.560362172015692,-0.009468411,0.00580322,0.005192355,294.50928,-66.670364,23.198704,STD
122028282097000,3.594944,3.69937391657015,9.18688357351018,0.551331033140295,-0.008246681,-0.0027488936,0.00061086525,294.49863,-66.67975,23.189142,STD
122028287089000,3.599936,3.69759866969496,9.18605957912217,0.543024184955291,-0.016798794,0.00061086525,0.006414085,294.48453,-66.68312,23.184826,STD
122028292104000,3.604951,3.70005269105309,9.19096772433703,0.535662105506106,-0.0125227375,-0.002443461,-0.0018325958,294.47552,-66.691986,23.175604,STD
122028297069000,3.609916,3.70248224559808,9.19582693490368,0.528373426649635,-0.01282817,0.00030543262,0.005192355,294.4652,-66.695015,23.17193,STD
122028302095000,3.614942,3.7049416496551,9.20074584574115,0.520995199070053,-0.01863139,-0.004276057,0.0009162979,294.45856,-66.70334,23.16304,STD
122028306987000,3.619834,3.70551263733682,9.20046476420743,0.515724415416653,-0.016493361,-0.003970624,0.00061086525,294.45142,-66.70507,23.160988,STD
122028312093000,3.62494,3.70391279631605,9.19406543353509,0.51252473504564,-0.016187929,0.0027488936,-0.0027488936,294.44385,-66.7086,23.156881,STD
122028317038000,3.629885,3.70236340073286,9.18786788355963,0.509425945497137,-0.016798794,-0.0027488936,0.006414085,294.44235,-66.70924,23.156157,STD
122028322920000,3.635767,3.70052041896941,9.18049599499427,0.505739983894651,-0.021380283,-0.011301007,-0.003970624,294.44012,-66.71618,23.14895,STD
122028327042000,3.639889,3.69922889043677,9.17532990783576,0.503156928177981,-0.019242255,-0.0061086523,0.008246681,294.43494,-66.71422,23.150751,STD
122028332094000,3.644941,3.69764596900376,9.16899825516113,0.499991086964829,-0.022602014,-0.016493361,-0.0009162979,294.43768,-66.72092,23.14387,STD
122028337004000,3.649851,3.70426762092916,9.16652807601367,0.501042036780272,-0.01038471,-0.011911872,-0.00030543262,294.43414,-66.72299,23.141802,STD
122028342097000,3.654944,3.7267921625381,9.17103307841507,0.510051848719867,-0.012217305,-0.02687807,-0.011301007,294.44016,-66.73036,23.13428,STD
122028346989000,3.659836,3.74368335891044,9.17627702904814,0.514603417616846,-0.009773844,-0.025045475,-0.003970624,294.44403,-66.730354,23.134382,STD
122028352089000,3.664936,3.73877415396522,9.18609513136999,0.499875807907327,-0.011911872,-0.023518313,0.004886922,294.4527,-66.732796,23.13204,STD
122028357026000,3.669873,3.73868559575837,9.19093579213991,0.489349898939592,-0.011911872,-0.02107485,0.0033597588,294.454752957615,-66.7322758293889,23.1325911960155,STD
122028362075000,3.674922,3.75812604734144,9.17635565644788,0.49421001183536,-0.011911872,-0.023518313,0.008552114,294.456852488301,-66.7317438582698,23.1331548963765,STD
122028367047000,3.679894,3.77422400913039,9.16789058720201,0.503767209806003,-0.0012217305,-0.017104227,0.008246681,294.45892,-66.73122,23.13371,STD
122028372238000,3.685085,3.77902211440981,9.18228470263488,0.532555866533153,-0.004581489,-0.018020526,0.010995574,294.46667,-66.727,23.13763,STD
122028377081000,3.689928,3.779350620404,9.19164124137931,0.5540596081616,-0.0009162979,-0.015882496,0.013439035,294.47498,-66.72186,23.142681,STD
122028382077000,3.694924,3.75494453348296,9.17699779310345,0.544297173393185,0.0036651916,-0.0106901415,0.015882496,294.48236,-66.716125,23.148249,STD
122028387046000,3.699893,3.73164666238677,9.16913892201654,0.532993258069122,0.0009162979,-0.0036651916,0.01038471,294.48383,-66.710915,23.152605,STD
122028392760000,3.705607,3.7100941475384,9.196079565577,0.511440715089602,0.0018325958,-0.009468411,0.0076358155,294.4875,-66.70476,23.158283,STD
122028397039000,3.709886,3.69598964178023,9.21310725731875,0.498870962104403,-0.006414085,-0.01160644,0.0015271631,294.48703,-66.70104,23.161758,STD
122028402047000,3.714894,3.69137612194183,9.21464512938083,0.505022329917915,-0.01038471,-0.0125227375,0.0036651916,294.48785,-66.6961,23.166676,STD
122028407372000,3.720219,3.68647057219354,9.21628034677911,0.511563071452849,-0.008246681,-0.015271631,0.0036651916,294.49493,-66.697685,23.165499,STD
122028412058000,3.724905,3.68215368841504,9.21771933808959,0.517318924003591,-0.007330383,-0.014660766,0.008857546,294.50107,-66.69708,23.166327,STD
122028417059000,3.729906,3.67754661718665,9.21925506057011,0.523461693659217,-0.013439035,-0.01985312,0.0067195175,294.50897,-66.70547,23.15763,STD
122028422054000,3.734901,3.67294507333825,9.22078894055215,0.529597093465226,-0.014049901,-0.016493361,0.009468411,294.5138,-66.71103,23.15185,STD
122028427131000,3.739978,3.66826798862988,9.22234800134671,0.535833214549332,-0.013744468,-0.015882496,0.0027488936,294.5212,-66.7196,23.143017,STD
122028432011000,3.744858,3.6722572864108,9.21812462294752,0.514599745285585,-0.015577064,-0.028405234,-0.0076358155,294.5316,-66.728226,23.134178,STD
122028437049000,3.749896,3.67711755823512,9.21326424962224,0.490298360788758,-0.013744468,-0.03145956,0.0018325958,294.53857,-66.73305,23.129168,STD
122028442023000,3.75487,3.68579484021934,9.20458678642337,0.496718185885412,-0.024129177,-0.014966198,0.0021380284,294.53964,-66.7482,23.112768,STD
122028447020000,3.759867,3.69484377084239,9.19553766682424,0.50576711178406,-0.013133603,-0.007941248,0.00030543262,294.54443,-66.76162,23.099012,STD
122028452023000,3.76487,3.68898328224486,9.18990186109447,0.499906626246255,-0.010079277,-0.007941248,-0.0076358155,294.54993,-66.77617,23.083902,STD
122028457037000,3.769884,3.67939309346914,9.18510666656681,0.490316442477531,-0.014966198,-0.014660766,0.004581489,294.5551,-66.78521,23.074429,STD
122028462592000,3.775439,3.66905548776437,9.17571895210044,0.484197993882183,0.007941248,-0.0061086523,0.005497787,294.55347,-66.7983,23.061409,STD
122028467087000,3.779934,3.66074110514727,9.16740482993723,0.480040802573636,0.0015271631,-0.007941248,0.008857546,294.5569,-66.805916,23.05309,STD
122028472015000,3.784862,3.66183369653301,9.17199077419355,0.489320835951161,0.00061086525,-0.005497787,-0.0015271631,294.55402,-66.82408,23.035135,STD
122028477073000,3.78992,3.66670149418149,9.18172606451613,0.503924223813687,0.0027488936,-0.0012217305,0.0027488936,294.55103,-66.83656,23.022776,STD
122028482135000,3.794982,3.67151030994568,9.19134376997531,0.521944002295309,-0.0012217305,-0.003970624,-0.0015271631,294.55084,-66.85449,23.004889,STD
122028487069000,3.799916,3.67617716734815,9.2006776797037,0.540611461143704,-0.0036651916,-0.0030543262,0.0067195175,294.54807,-66.867256,22.992203,STD
122028492051000,3.804898,3.68099596074157,9.20681323388,0.538873678516858,0.008246681,-0.0106901415,0.004581489,294.5454,-66.878075,22.982218,STD
122028497054000,3.809901,3.68587654853825,9.21169392360191,0.5291125029235,-0.00030543262,-0.0021380284,0.00061086525,294.53745,-66.88613,22.974066,STD
122028502036000,3.814883,3.69702990663223,9.20624832358638,0.53668370663223,0.0030543262,-0.003970624,0.00030543262,294.532,-66.89329,22.967394,STD
122028507057000,3.819904,3.71033636714325,9.19737716465271,0.549990167143253,0.004276057,-0.0143553335,0.00580322,294.52673,-66.89933,22.961506,STD
122028512090000,3.824937,3.71290740976304,9.18650002440761,0.551114414644564,-0.0009162979,-0.003970624,0.010079277,294.5155,-66.90921,22.951479,STD
122028517066000,3.829913,3.70806106004271,9.17438415010678,0.54384489006407,-0.0009162979,-0.0018325958,0.011301007,294.514038905745,-66.9148254722521,22.9460929195459,STD
122028522307000,3.835154,3.70295661492932,9.1616230373233,0.536188222393979,0.002443461,-0.009162978,0.0030543262,294.5125,-66.92074,22.94042,STD
122028527080000,3.839927,3.69830797601953,9.15000144004881,0.529215264029289,0.002443461,-0.005192355,0.0015271631,294.49506,-66.92291,22.938667,STD
122028532308000,3.845155,3.6868594492022,9.15563815520743,0.529987050265932,-0.0027488936,0.0076358155,0.0033597588,294.47833,-66.92696,22.93464,STD
122028537090000,3.849937,3.67357361874093,9.16892426312736,0.534415660419689,-0.005497787,0.010079277,0.0030543262,294.46384,-66.93194,22.929825,STD
122028542072000,3.854919,3.67081661488181,9.17168132456321,0.539200814881809,-0.0036651916,0.01038471,0.0036651916,294.44507,-66.9333,22.929314,STD
122028547071000,3.859918,3.67573690503597,9.16676093165468,0.544121105035971,0.00030543262,0.008552114,0.009162978,294.42642,-66.93323,22.93016,STD
122028552032000,3.864879,3.68043737077325,9.17089095712765,0.548821570773251,-0.004276057,0.0106901415,0.008552114,294.40668,-66.93508,22.928913,STD
122028557087000,3.869934,3.68512243067841,9.18026078341237,0.553506630678409,-0.010079277,0.0027488936,0.0070249503,294.39087,-66.93567,22.929121,STD
122028562077000,3.874924,3.69528741473559,9.18689599544464,0.547237985264409,-0.014660766,0.005192355,0.0009162979,294.37027,-66.936615,22.928541,STD
122028567113000,3.87996,3.70961562768865,9.19167216617152,0.532909772311349,-0.0009162979,-0.0015271631,0.0021380284,294.3552,-66.936264,22.929825,STD
122028572136000,3.884983,3.71782146084123,9.18969320490225,0.524703926500296,-0.0033597588,-0.004276057,0.004581489,294.33768,-66.93632,22.929876,STD
122028578572000,3.891419,3.72238575918246,9.1805648941795,0.520139599563092,-0.008857546,-0.004276057,0.00030543262,294.328017238429,-66.9374652625438,22.9291431571373,STD
122028582420000,3.895267,3.72511469330569,9.17510719690462,0.517410648342713,-0.0021380284,-0.0061086523,0.0012217305,294.32224,-66.93815,22.928705,STD
122028587147000,3.899994,3.72305544066136,9.17574208266993,0.519469906613595,-0.0027488936,0.009468411,0.008552114,294.305,-66.93374,22.933723,STD
122028592223000,3.90507,3.72034922027501,9.17709507983076,0.52217613547737,-0.0015271631,0.011301007,0.01038471,294.29288,-66.93198,22.936325,STD
122028597416000,3.910263,3.71758062246841,9.17847926309637,0.5249447419568,0.0061086523,0.01740966,0.014660766,294.2805,-66.92182,22.947138,STD
122028602173000,3.91502,3.71504447385181,9.17974723147581,0.527480898518065,-0.0018325958,0.014966198,0.013744468,294.27036,-66.9125,22.956738,STD
122028607078000,3.919925,3.71242942046429,9.18105464894505,0.530095960097423,-0.0036651916,0.0143553335,0.009773844,294.25784,-66.90356,22.96622,STD
122028612059000,3.924906,3.70977384841062,9.182382324055,0.532751540469855,-0.0015271631,0.009773844,0.010079277,294.2474,-66.89385,22.976402,STD
122028617192000,3.930039,3.70703723902466,9.18375051444636,0.535488158428436,-0.00061086525,0.007941248,0.01038471,294.23645,-66.88546,22.985125,STD
122028622134000,3.934981,3.70785403990437,9.18741674788325,0.533041509980078,-0.0015271631,0.007941248,0.008246681,294.22647,-66.87795,22.992973,STD
122028627071000,3.939918,3.71020888907262,9.19212654457615,0.528331796890129,-0.0015271631,0.0009162979,0.009162978,294.22282108643,-66.8736181613489,22.9975775101979,STD
122028632038000,3.944885,3.71257804763423,9.19686496065345,0.523593464923797,0.0009162979,0.0012217305,0.011301007,294.21915,-66.86926,23.00221,STD
122028637080000,3.949927,3.71498297967925,9.20167492519175,0.518783585766511,0.00061086525,-0.01160644,0.0015271631,294.21307,-66.86577,23.00604,STD
122028642102000,3.954949,3.70960870796754,9.20176289466223,0.523339841731352,-0.0067195175,-0.017104227,0.0015271631,294.210704692855,-66.8597711784748,23.0123709710392,STD
122028647059000,3.959906,3.70032682359957,9.19944237510998,0.532621740637403,0.0018325958,-0.017104227,0.0021380284,294.20837,-66.85385,23.01862,STD
122028652088000,3.964935,3.69091012065696,9.19708815021019,0.54203845832926,-0.008552114,-0.018936822,0.0036651916,294.2066,-66.844444,23.028414,STD
122028657118000,3.969965,3.68149154523414,9.19473345718056,0.551457048504253,0.005192355,-0.018020526,0.004276057,294.20294,-66.84074,23.03352,STD
122028662069000,3.974916,3.67874065694207,9.19747464894355,0.545479937953673,-0.0012217305,-0.025961773,-0.0012217305,294.20267,-66.83763,23.037228,STD
122028667095000,3.979942,3.68096604862916,9.20415096342873,0.527676792838319,0.00030543262,-0.01863139,0.00061086525,294.19727,-66.833084,23.042772,STD
122028672157000,3.985004,3.68320738024874,9.21087509871007,0.509746128179759,-0.002443461,-0.016187929,-0.0012217305,294.19366,-66.83189,23.044466,STD
122028677154000,3.990001,3.68541993143465,9.21751289088723,0.492045707140876,-0.002443461,-0.009162978,0.005192355,294.18628,-66.82806,23.048754,STD
122028682091000,3.994938,3.68763520482762,9.22077115014385,0.482792586741113,-0.002443461,-0.012217305,-0.004276057,294.183625520532,-66.8283685832381,23.048684319914,STD
122028687061000,3.999908,3.68995620234066,9.21380801219096,0.499039581450237,-0.002443461,-0.008857546,0.0067195175,294.180953297937,-66.8286792291149,23.0486141740708,STD
122028692033000,4.00488,3.69227813385673,9.20684207217048,0.5152931141854,0.012217305,-0.0018325958,-0.0018325958,294.17828,-66.82899,23.048544,STD
122028697053000,4.0099,3.69462248144536,9.19980888252792,0.531703559545521,-0.0036651916,-0.007330383,0.0061086523,294.1719,-66.82308,23.054369,STD
122028702045000,4.014892,3.69726301791279,9.19434963076923,0.550802945230769,0.004276057,-0.004276057,0.004886922,294.16986,-66.82838,23.050053,STD
