timestamp,rel_time,acc_x,acc_y,acc_z,gyro_x,gyro_y,gyro_z,azimuth,pitch,roll,label
2475289669000,0,0.602766031457944,9.81057909844237,0.137076628919003,-1.1777482,0.74464476,0.03604105,312.25858,-65.56212,16.58605,STD
2475294993000,0.005324,0.618649812280374,9.83440496593977,0.142371219762201,-1.1777482,0.7476991,0.03176499,312.4096,-65.56506,16.300428,STD
2475299700000,0.010031,0.632692816850467,9.8554696463136,0.147052218841641,-1.1759156,0.7620544,0.029932396,312.3479,-65.67189,16.229658,STD
2475304695000,0.015026,0.647595049233645,9.87782317902388,0.152019627042575,-1.1936307,0.75625116,0.036651913,312.29617,-65.76641,16.162745,STD
2475309705000,0.020036,0.65487606501106,9.89057110114619,0.142269407337623,-1.1954633,0.74189585,0.034513887,312.24905,-65.86004,16.093687,STD
2475314699000,0.02503,0.659684685481601,9.90018804082043,0.127843535883772,-1.1808025,0.73273283,0.032986723,312.20618,-65.946144,16.027884,STD
2475319662000,0.029993,0.664254029699498,9.89550955701962,0.121044156693525,-1.1606439,0.7312057,0.026572637,312.12405,-66.05833,15.95137,STD
2475324693000,0.035024,0.668821370755522,9.88637516105792,0.116476810868329,-1.1511755,0.74189585,0.036957346,312.045,-66.1616,15.880831,STD
2475329651000,0.039982,0.684081172781796,9.8805240082025,0.117662617418416,-1.1582005,0.77488256,0.035430185,311.92313,-66.29173,15.789121,STD
2475334684000,0.045015,0.70533714138296,9.87627272570118,0.121913815577703,-1.1994339,0.8240572,0.06352998,311.7958,-66.40131,15.709126,STD
2475339700000,0.050031,0.728471020440423,9.87573014673498,0.128582700308514,-1.2754866,0.76174897,0.06536258,311.65457,-66.52655,15.619733,STD
2475344994000,0.055325,0.756106242941241,9.88125730666085,0.139636795080126,-1.2483032,0.7458665,0.05681047,311.49088,-66.65355,15.5310335,STD
2475349676000,0.060007,0.793336451003396,9.87238800380776,0.157248069822991,-1.239751,0.7339546,0.06414085,311.3019,-66.77242,15.443063,STD
2475354582000,0.064913,0.841688648039518,9.85304674127817,0.181424158243285,-1.2437216,0.72265357,0.076052725,311.12393,-66.8877,15.359635,STD
2475359541000,0.069872,0.872697995139952,9.86113512368039,0.205017866886199,-1.2348641,0.70432764,0.081855945,310.91354,-67.020584,15.271956,STD
2475364607000,0.074938,0.891493596027119,9.88932857898305,0.228512355728814,-1.2315043,0.68386364,0.10323623,310.71112,-67.13857,15.197317,STD
2475369579000,0.07991,0.925970297684729,9.92559333045977,0.234270086547619,-1.2428054,0.66950834,0.1133155,310.48834,-67.25201,15.115311,STD
2475374569000,0.0849,0.975014070221675,9.96973260488506,0.22446132077381,-1.2391402,0.6081163,0.11789699,310.28848,-67.360275,15.047464,STD
2475379605000,0.089936,1.01978686789724,10.0044750154139,0.228199535617507,-1.1676689,0.53969944,0.11728613,310.08044,-67.4756,14.967622,STD
2475384579000,0.09491,1.06057806924833,10.0316692127498,0.241796596424358,-1.0546589,0.4596761,0.12034045,309.89584,-67.5947,14.89989,STD
2475389545000,0.099876,1.09383023778802,10.0518955391705,0.252880655345622,-0.9251554,0.3827071,0.11484267,309.70572,-67.742645,14.829083,STD
2475394754000,0.105085,1.11985521885053,10.0649080749935,0.261555662620642,-0.79504114,0.3203988,0.11056661,309.5368,-67.90898,14.767923,STD
2475399574000,0.109905,1.13880731897685,10.0723024482358,0.265652555191588,-0.67256266,0.24404067,0.11026118,309.37112,-68.102875,14.708617,STD
2475404585000,0.114916,1.13395549966636,10.0577469396421,0.251097087127692,-0.528093,-0.027794369,0.053450707,309.2864,-68.334724,14.6556835,STD
2475409576000,0.119907,1.1272769609588,10.0432837755056,0.238723618785019,-0.053450707,-0.087964594,0.030848695,309.13748,-68.65572,14.595778,STD
2475414600000,0.124931,1.11286082816479,10.0288677179775,0.235119578059925,0.04337143,-0.05222898,0.040011674,309.04257,-68.92585,14.544336,STD
2475419598000,0.129929,1.09851930115356,10.0145262658427,0.231534188819476,-0.017104227,-0.043676864,0.04337143,308.94873,-69.273,14.483727,STD
2475424588000,0.134919,1.07782620528118,10.007763,0.227057398147166,-0.040317107,-0.03145956,0.046120327,308.84558,-69.634125,14.423791,STD
2475429588000,0.139919,1.05137387957132,10.007763,0.221766927480941,-0.040011674,-0.029626964,0.04550946,308.74545,-69.976524,14.365287,STD
2475434569000,0.1449,1.03710237068743,10.0009932646563,0.213496952496776,-0.038179077,-0.010079277,0.044898596,308.6166,-70.3155,14.295817,STD
2475439593000,0.149924,1.02755687036008,9.99144761481996,0.203951497022121,-0.053450707,-0.004581489,0.038789943,308.49362,-70.6419,14.227238,STD
2475444738000,0.155069,1.02142314433135,9.9754284461408,0.204408099109415,-0.064751714,0.0076358155,0.040317107,308.34552,-70.97027,14.150319,STD
2475449601000,0.159932,1.01703411611535,9.95787242493639,0.208797131908397,-0.056199603,0.019242255,0.043982297,308.19763,-71.289925,14.074244,STD
2475454628000,0.164959,0.98945725409611,9.950302,0.215826599180778,-0.06505715,0.01740966,0.040317107,308.0206,-71.61282,13.98997,STD
2475459626000,0.169957,0.945645014837529,9.950302,0.224589047032494,-0.06658431,0.017715093,0.038179077,307.8408,-71.92667,13.908983,STD
2475464609000,0.17494,0.905042258083961,9.94006544198063,0.22984336,-0.074830994,0.024740042,0.03359759,307.63953,-72.23769,13.82707,STD
2475469601000,0.179932,0.86901944335845,9.91433487922497,0.22984336,-0.08552113,0.03176499,0.032375857,307.43924,-72.53676,13.748296,STD
2475474619000,0.18495,0.8546916928,9.888282594,0.22984336,-0.080634214,0.022602014,0.02321288,307.22205,-72.843605,13.661536,STD
2475479624000,0.189955,0.8590491368,9.862137839,0.22984336,-0.07360926,0.0290161,0.026572637,306.99863,-73.13506,13.579899,STD
2475484593000,0.194924,0.8619126,9.844957,0.22984336,-0.07849618,0.02321288,0.021991149,306.79526,-73.415474,13.495062,STD
2475489725000,0.200056,0.8619126,9.844957,0.22984336,-0.08246681,0.023518313,0.019547688,306.58865,-73.68536,13.414159,STD
2475494903000,0.205234,0.852135452967937,9.85962275628026,0.232287649310313,-0.08124508,0.017104227,0.017104227,306.3902,-73.94245,13.336541,STD
2475499630000,0.209961,0.835594087892573,9.8844348643464,0.236422994897232,-0.076358154,0.007941248,0.019242255,306.19302,-74.18891,13.26247,STD
2475505301000,0.215632,0.82360536,9.89631015435606,0.23942018,-0.07666359,0.005192355,0.016493361,305.99402,-74.427956,13.188143,STD
2475509630000,0.219961,0.82360536,9.88453248674242,0.23942018,-0.089186326,0.005192355,0.02076942,305.902762014853,-74.5339440471424,13.1561181380368,STD
2475514592000,0.224923,0.821621289356824,9.87170388792189,0.229499818497134,-0.07849618,0.0030543262,0.020463986,305.79816,-74.65543,13.1194105,STD
2475519613000,0.229944,0.811414302984504,9.86149668838888,0.178464844003396,-0.07513642,-0.0070249503,0.015271631,305.615,-74.87692,13.047093,STD
2475524596000,0.234927,0.805920328346457,9.85306540098425,0.142183531653543,-0.063224554,-0.009162978,0.0143553335,305.42636,-75.08935,12.978653,STD
2475529699000,0.24003,0.810730408110236,9.84825522076772,0.137373451889764,-0.060170226,-0.015577064,0.012217305,305.24304,-75.29337,12.911397,STD
2475534616000,0.244947,0.816737773119202,9.8476662640399,0.1340753,-0.06566802,-0.017715093,0.016187929,305.06027,-75.49363,12.847397,STD
2475539635000,0.249966,0.826327011938155,9.85725568309227,0.1340753,-0.058643065,-0.03023783,0.0067195175,304.8844,-75.69027,12.78196,STD
2475544858000,0.255189,0.836064760382916,9.85978721962445,0.132634018303571,-0.05467244,-0.03604105,0.00061086525,304.70895,-75.873375,12.723247,STD
2475549673000,0.260004,0.844553768483063,9.847053884757,0.128389509821429,-0.05009095,-0.043676864,0.00061086525,304.624447169039,-75.9589569786014,12.6959818837924,STD
2475554625000,0.264956,0.855368957641287,9.83740309242543,0.123992963726452,-0.052839845,-0.038179077,0.0070249503,304.53754,-76.046974,12.667941,STD
2475559630000,0.269961,0.88358634424843,9.85621456563972,0.119290065958595,-0.048258353,-0.04337143,-0.0015271631,304.37167,-76.21763,12.607976,STD
2475564639000,0.27497,0.912799054356875,9.87278726325873,0.114321200877819,-0.046731193,-0.040011674,0.0061086523,304.20355,-76.37373,12.555604,STD
2475569673000,0.280004,0.954782535447183,9.86019196115998,0.10592450115266,-0.036651913,-0.032986723,0.0061086523,304.0381,-76.52698,12.500789,STD
2475575290000,0.285621,1.00162822739876,9.84613796594967,0.0965553588490812,-0.04795292,-0.026267206,0.009773844,303.87408,-76.66284,12.456413,STD
2475579638000,0.289969,1.01341573147208,9.84103181218274,-0.0298485272715736,-0.05131268,-0.021685716,0.010995574,303.71036,-76.79326,12.412946,STD
2475584583000,0.294914,1.02343207580372,9.83602405837564,-0.19011014848879,-0.0421497,-0.019547688,0.008552114,303.54697,-76.91611,12.371043,STD
2475589630000,0.299961,1.01054068349132,9.83183652185219,0.214639041343008,-0.03756821,-0.015882496,0.01282817,303.3756,-77.0253,12.337668,STD
2475594704000,0.305035,0.994235781821995,9.82776021130778,0.703786431931046,-0.047647487,-0.02687807,0.008552114,303.21008,-77.12968,12.303003,STD
2475599678000,0.310009,1.00284368547017,9.83049887034177,0.724903610474995,-0.04886922,-0.006414085,0.017715093,303.0561,-77.228874,12.276063,STD
2475604670000,0.315001,1.0351522583993,9.83972958824097,0.304892499758641,-0.053145275,-0.022296581,0.010079277,302.91824,-77.325294,12.245232,STD
2475609642000,0.319973,1.05555030751918,9.83865256521739,-0.0821694913861892,-0.045814894,-0.015577064,0.0076358155,302.71417,-77.385345,12.217661,STD
2475614652000,0.324983,1.06045872368286,9.82392752173913,-0.430667290148338,-0.05467244,-0.016187929,0.006414085,302.5182,-77.4419,12.190357,STD
2475619674000,0.330005,1.06770967118713,9.80920099104052,-0.329529127754022,-0.051618114,-0.009468411,0.008246681,302.35593,-77.51359,12.16693,STD
2475624661000,0.334992,1.07743467660354,9.794613686011,0.258834126438607,-0.058337633,-0.007330383,0.014660766,302.19702,-77.57746,12.145852,STD
2475629644000,0.339975,1.092973418529,9.80044988189533,0.362376149752475,-0.047647487,0.0018325958,0.013744468,302.0606,-77.6541,12.122201,STD
2475634637000,0.344968,1.11410892171146,9.82581213260255,0.0030723308168317,-0.051618114,0.008552114,0.008246681,301.92722,-77.7215,12.100052,STD
2475639599000,0.34993,1.12898229911069,9.85036150444655,-0.305982158213813,-0.046731193,0.0036651916,0.01038471,301.74872,-77.75748,12.085953,STD
2475645448000,0.355779,1.12368289483444,9.87685852582782,-0.491461440688742,-0.045814894,0.013133603,0.009162978,301.5656,-77.792366,12.070381,STD
2475649723000,0.360054,1.11905376365275,9.89140840853109,-0.518096914508862,-0.05955936,0.01985312,0.015577064,301.42178,-77.83452,12.056274,STD
2475654649000,0.36498,1.10960641874437,9.88196135956744,0.0440205218624211,-0.048563786,0.0290161,0.011301007,301.27692,-77.87613,12.039601,STD
2475659661000,0.369992,1.10272702388153,9.87508218020649,0.523056062934613,-0.043982297,0.03604105,0.009773844,301.1499,-77.91441,12.025346,STD
2475664637000,0.374968,1.11266636203984,9.88502120700803,0.42863227778079,-0.054061573,0.043066,0.007330383,301.02304,-77.9488,12.010307,STD
2475669633000,0.379964,1.11540914605199,9.89114863503351,0.341648715410332,-0.05589417,0.04520403,0.01160644,300.84793,-77.96571,12.000837,STD
2475674650000,0.384981,1.09184523943109,9.8832942455452,0.28273890374857,-0.04734206,0.062002823,0.01160644,300.668,-77.982475,11.990459,STD
2475679644000,0.389975,1.06838935948995,9.87547586382213,0.22409915899297,-0.044593163,0.062002823,0.009468411,300.50342,-77.99644,11.983014,STD
2475684671000,0.395002,1.05971045538626,9.85379706308474,0.253786661133387,-0.04550946,0.07422013,0.010079277,300.33194,-78.00765,11.977221,STD
2475689597000,0.399928,1.05550700561347,9.82857627666399,0.308431547682438,-0.03940081,0.090713486,0.011911872,300.16083,-78.017334,11.972086,STD
2475694986000,0.405317,1.05071427730673,9.816227,0.359798961371571,-0.03848451,0.09621128,0.012217305,300.00967,-78.03003,11.963234,STD
2475699825000,0.410156,1.04626941492423,9.816227,0.399802750661807,-0.03176499,0.10751228,0.01160644,299.85336,-78.040825,11.955382,STD
2475704626000,0.414957,1.04212966105622,9.81274228572615,0.452741298981981,-0.03726278,0.10445796,0.011301007,299.6931,-78.04878,11.949232,STD
2475709616000,0.419947,1.03816148609981,9.80480585294362,0.524167760378643,-0.03970624,0.1020145,0.007941248,299.5309,-78.05639,11.942832,STD
2475714854000,0.425185,1.03211067001473,9.79644889669815,0.59376204,-0.040317107,0.10140363,0.0125227375,299.36356,-78.06433,11.93547,STD
2475719700000,0.430031,1.00395708568333,9.78840526744085,0.59376204,-0.03481932,0.098043874,0.008857546,299.19928,-78.074295,11.925708,STD
2475724641000,0.434972,0.975251584201404,9.78020395250888,0.59376204,-0.032986723,0.09437868,0.009468411,299.02707,-101.9208,11.920712,STD
2475729642000,0.439973,0.964401634583745,9.77220814988483,0.596617905416255,-0.035430185,0.10048734,0.007330383,298.85452,-101.91508,11.914743,STD
2475734681000,0.445012,0.960431784698914,9.76426828430405,0.600587755301086,-0.046120327,0.08460484,0.009773844,298.69098,-101.91182,11.911093,STD
2475739654000,0.449985,0.946203509269916,9.76641747824132,0.55998058225499,-0.035430185,0.08093964,0.00580322,298.52692,-101.90402,11.902727,STD
2475744692000,0.455023,0.907160911769466,9.79244593697177,0.412486387441108,-0.032986723,0.08155051,0.006414085,298.3677,-101.899086,11.897177,STD
2475749708000,0.460039,0.871219787293797,9.81649661833674,0.27503127096728,-0.03573562,0.076052725,0.011911872,298.2101,-101.89142,11.88883,STD
2475754655000,0.464986,0.867990310156783,9.81972616291752,0.24273647599182,-0.02687807,0.069027774,0.008857546,298.0544,-101.88251,11.879087,STD
2475759627000,0.469958,0.864744512638037,9.82297202822086,0.210278477079755,-0.036651913,0.070249505,0.013133603,297.9208,-101.866745,11.8617735,STD
2475764655000,0.474986,0.8619126,9.82535984554376,0.176185438475602,-0.03481932,0.07513642,0.016798794,297.78986,-101.85132,11.844383,STD
2475769675000,0.480006,0.8619126,9.82212846094905,0.13417828564592,-0.031154128,0.07422013,0.0143553335,297.66187,-101.836426,11.827373,STD
2475774645000,0.484976,0.8619126,9.81892926145987,0.0925895307527894,-0.023823744,0.06994407,0.015271631,297.54126,-101.82823,11.816258,STD
2475779705000,0.490036,0.858032178595469,9.81855521848265,0.0357304828899126,-0.02076942,0.07147124,0.015577064,297.42102,-101.82016,11.805029,STD
2475784658000,0.494989,0.835735511290778,9.83193302143462,-0.0891308381846385,-0.01740966,0.06872234,0.013133603,297.3051,-101.81254,11.793873,STD
2475789864000,0.500195,0.813722153467755,9.844957,-0.213753817562073,-0.023518313,0.0693332,0.013133603,297.19922,-101.80929,11.786212,STD
2475794952000,0.505283,0.809662266915514,9.844957,-0.25435271275954,-0.011911872,0.058337633,0.0125227375,297.09915,-101.80637,11.778134,STD
2475799654000,0.509985,0.805910382762873,9.844957,-0.291871581709715,-0.011301007,0.04337143,0.0143553335,297.0217,-101.80096,11.765667,STD
2475804559000,0.51489,0.79029133502643,9.844957,-0.32061824004485,0.0015271631,0.047647487,0.01282817,296.94333,-101.79599,11.752587,STD
2475809562000,0.519893,0.767267413628063,9.844957,-0.343642153429441,-0.00061086525,0.040317107,0.012217305,296.87415,-101.79246,11.740614,STD
2475814591000,0.524922,0.748247899136206,9.84432855293374,-0.370203660274939,0.0015271631,0.03970624,0.012217305,296.80743,-101.78823,11.726118,STD
2475819546000,0.529877,0.758245380227536,9.83933022995892,-0.42019110226904,0.0067195175,0.03390302,0.014966198,296.74588,-101.785675,11.712593,STD
2475824544000,0.534875,0.767161341441177,9.835381,-0.456636234344118,0.00030543262,0.0290161,0.016798794,296.69235,-101.77266,11.688231,STD
2475830084000,0.540415,0.772362912617647,9.835381,-0.441031667461765,-0.0036651916,0.01740966,0.009162978,296.6438,-101.75902,11.662403,STD
2475834563000,0.544894,0.779246862536476,9.83714367789001,-0.428312198496072,0.015271631,0.025350908,0.018936822,296.59238,-101.75457,11.64325,STD
2475839559000,0.54989,0.798773703813896,9.84690680287726,-0.413667042050811,0.02321288,0.030543262,0.014966198,296.54642,-101.74456,11.618369,STD
2475844695000,0.555026,0.821532637178393,9.85346196722651,-0.390433759039492,0.014660766,0.021685716,0.01038471,296.49747,-101.737625,11.596216,STD
2475849552000,0.559883,0.851092493508852,9.84923904493872,-0.343982557494326,0.023518313,0.01863139,0.010995574,296.44672,-101.73305,11.574968,STD
2475854850000,0.565181,0.879993053675145,9.844957,-0.292946146780493,0.014660766,0.022907447,0.0036651916,296.39398,-101.727264,11.553737,STD
2475859580000,0.569911,0.866384522531544,9.844957,-0.243048156624274,0.009162978,0.027183503,0.009468411,296.34366,-101.72659,11.536819,STD
2475864865000,0.575196,0.853028721814255,9.844957,-0.188071518541037,0.004886922,0.022296581,0.01282817,296.28485,-101.72788,11.523739,STD
2475869587000,0.579918,0.861167967602592,9.844957,-0.147375261552916,0.007330383,0.022602014,0.009162978,296.2247,-101.72921,11.510705,STD
2475874558000,0.584889,0.869736411231102,9.844957,-0.104533013884989,0.019242255,0.029321533,0.0070249503,296.15866,-101.72758,11.496509,STD
2475879614000,0.589945,0.890064474716673,9.84124229927007,0.000822291165770261,0.016493361,0.023518313,0.0018325958,296.09738,-101.72369,11.48065,STD
2475884577000,0.594908,0.912888959940453,9.83667778832117,0.119509573336535,0.01282817,0.022907447,-0.0070249503,296.03384,-101.7191,11.463684,STD
2475889573000,0.599904,0.931296876655672,9.83836160376703,0.203903441382692,0.0076358155,0.018936822,0.0009162979,295.9685,-101.72021,11.454654,STD
2475894605000,0.604936,0.948028243898099,9.84254409070393,0.275011707394323,0.008552114,0.023518313,0.0012217305,295.9019,-101.71707,11.441418,STD
2475900437000,0.610768,0.969259831971104,9.85074668689371,0.356561615148607,0.01282817,0.02076942,-0.0061086523,295.82373,-101.719696,11.439188,STD
2475904720000,0.615051,0.986191693436532,9.85921279442724,0.415823178897833,0.0067195175,0.02443461,0.002443461,295.74368,-101.72623,11.441924,STD
2475909647000,0.619978,0.998127825474453,9.86625097016423,0.452249855474453,0.004886922,0.018020526,0.008246681,295.65472,-101.72892,11.443973,STD
2475914658000,0.624989,1.00250641532847,9.87062965145985,0.456628445328467,0.008552114,0.014049901,0.0033597588,295.5651,-101.73101,11.445685,STD
2475919649000,0.62998,1.00249427557252,9.87675832824428,0.455081088549618,-0.0021380284,0.019242255,0.0021380284,295.4637,-101.7358,11.454144,STD
2475924663000,0.634994,0.992168918041071,9.88708336232663,0.439593036079991,-0.004886922,0.01740966,0.0009162979,295.36652,-101.73986,11.4610815,STD
2475929682000,0.640013,0.98464127487738,9.8946108620833,0.415027862808214,0.0018325958,0.025961773,0.0067195175,295.26007,-101.74671,11.470926,STD
2475934667000,0.644998,0.980672503740959,9.89857971610275,0.379308897715521,-0.0036651916,0.018325957,0.007330383,295.1599,-101.75077,11.478719,STD
2475939864000,0.650195,0.976027289003436,9.90107298401315,0.343420023451367,-0.0012217305,0.022907447,0.013744468,295.06195,-101.76015,11.490857,STD
2475944681000,0.655012,0.965688533762887,9.8838417552667,0.326188787507844,-0.008246681,0.028710667,0.01282817,294.96674,-101.76655,11.500885,STD
2475949633000,0.659964,0.955060027233677,9.86612760854624,0.308474633388615,-0.01038471,0.035430185,0.0125227375,294.86566,-101.770355,11.505737,STD
2475954745000,0.665076,0.949372311443438,9.85960779279343,0.275317272150644,-0.010995574,0.046120327,0.016493361,294.763,-101.774666,11.511725,STD
2475959703000,0.670034,0.952733632574685,9.87305293692482,0.21817506913776,-0.021685716,0.03573562,0.011911872,294.66565,-101.775696,11.515059,STD
2475964704000,0.675035,0.956124105946482,9.88661468880079,0.160537280257681,-0.016493361,0.036651913,0.009773844,294.56754,-101.77831,11.518494,STD
2475970469000,0.6808,0.933611814348996,9.892841,0.0996911719481474,-0.015882496,0.04062254,0.009773844,294.47272,-101.77929,11.521222,STD
2475974793000,0.685124,0.90361070118816,9.892841,0.0568324317647485,-0.02687807,0.049785517,0.009773844,294.37726,-101.77925,11.523499,STD
2475979702000,0.690033,0.887712941803543,9.892841,0.0207266154219002,-0.022907447,0.04153884,0.0125227375,294.3015,-101.78425,11.526753,STD
2475984675000,0.695006,0.882919692530193,9.892841,-0.00803272055766908,-0.034208454,0.048258353,0.013439035,294.21988,-101.78702,11.529791,STD
2475989830000,0.700161,0.872834956954171,9.89832860996366,-0.0520786108222675,-0.028405234,0.047647487,0.019242255,294.1529,-101.790054,11.529678,STD
2475995201000,0.705532,0.859156118340573,9.90744802615016,-0.106794006222143,-0.03756821,0.044898596,0.010995574,294.0854,-101.78776,11.525944,STD
2475999718000,0.710049,0.846817755179112,9.91383438412533,-0.154308118205744,-0.04153884,0.048563786,0.014966198,294.02255,-101.79721,11.531998,STD
2476004776000,0.715107,0.831640881495561,9.91889344062663,-0.209956619828721,-0.043066,0.04795292,0.01160644,293.96252,-101.80161,11.533418,STD
2476009678000,0.720009,0.809370897918656,9.92360553523009,-0.263822110143212,-0.036957346,0.052534413,0.011911872,293.9082,-101.80713,11.533436,STD
2476014678000,0.725009,0.777368959786137,9.92817733206034,-0.318682564601871,-0.034208454,0.063224554,0.009162978,293.8531,-101.81035,11.531666,STD
2476019750000,0.730081,0.758404429431579,9.92012858505263,-0.352505126732632,-0.045814894,0.06536258,0.008246681,293.81216,-101.812294,11.527303,STD
2476024704000,0.735035,0.763398478610526,9.89016418568421,-0.347511067124211,-0.038789943,0.06566802,0.0012217305,293.7694,-101.81295,11.520569,STD
2476029698000,0.740029,0.768253294548453,9.87790541294015,-0.336329945480648,-0.030848695,0.065973446,0.002443461,293.73566,-101.808655,11.507177,STD
2476034923000,0.745254,0.773107237947425,9.88761289426715,-0.316914364483461,-0.04062254,0.061086524,0.005497787,293.704,-101.80241,11.492564,STD
2476039675000,0.750006,0.770787442622951,9.88626244740806,-0.286722043728844,-0.03726278,0.06994407,0.00061086525,293.6688,-101.79935,11.480234,STD
2476044730000,0.755061,0.757917909836066,9.86910321967213,-0.235244051442623,-0.034208454,0.06414085,0.0067195175,293.64014,-101.79955,11.47182,STD
2476049724000,0.760055,0.747610809045643,9.85329422074689,-0.18409721653278,-0.0290161,0.05497787,0.005497787,293.60614,-101.79568,11.460005,STD
2476054729000,0.76506,0.752030530945136,9.8444550538497,-0.131060518664638,-0.0290161,0.048258353,-0.00580322,293.57373,-101.79055,11.447174,STD
2476060128000,0.770459,0.75697689339445,9.83517640009822,-0.0733409216280593,-0.02076942,0.04184427,-0.0009162979,293.5367,-101.78656,11.437383,STD
2476064688000,0.775019,0.764126019366457,9.83160178112466,-0.0161481721412786,-0.023518313,0.043676864,-0.0018325958,293.49957,-101.77723,11.423042,STD
2476069770000,0.780101,0.772093532127364,9.82761796234755,0.0475916420893836,-0.026572637,0.038179077,0.0015271631,293.45895,-101.76902,11.412281,STD
2476074710000,0.785041,0.7757214,9.83337727645051,0.12457923655531,-0.02076942,0.031154128,0.0030543262,293.41876,-101.760704,11.401106,STD
2476079708000,0.790039,0.7757214,9.84779130375427,0.215869405333467,-0.02076942,0.03268129,-0.0027488936,293.37827,-101.75086,11.389142,STD
2476084768000,0.795099,0.789239356764157,9.86534831798382,0.299127705222983,-0.017104227,0.035124753,-0.0036651916,293.3275,-101.7424,11.381755,STD
2476089785000,0.800116,0.814154709110143,9.88528051244555,0.37387388193632,-0.01985312,0.028099801,0.0021380284,293.27972,-101.73399,11.374816,STD
2476094850000,0.805181,0.829301194635568,9.88714535568513,0.444944586239067,-0.03481932,0.020463986,0.0030543262,293.22055,-101.72019,11.367744,STD
2476099735000,0.810066,0.838100736759146,9.87834610758958,0.510941069470516,-0.025961773,0.01863139,0.0009162979,293.16235,-101.70895,11.361692,STD
2476104695000,0.815026,0.834389647178355,9.86950324056691,0.539600978829376,-0.027183503,0.014660766,0.0012217305,293.09308,-101.697136,11.360001,STD
2476109715000,0.820046,0.816692026637217,9.86065425473955,0.526327749563777,-0.035124753,0.01160644,0.0015271631,293.02466,-101.68527,11.357836,STD
2476114682000,0.825013,0.80445176,9.854534,0.508325119238985,-0.04153884,0.0067195175,0.0018325958,292.9425,-101.67322,11.358107,STD
2476119725000,0.830056,0.80445176,9.854534,0.478564940043134,-0.043676864,0.0021380284,-0.0030543262,292.86182,-101.66004,11.357046,STD
2476124708000,0.835039,0.798010652380773,9.84809293609802,0.441973700020735,-0.038789943,0.008552114,0.005497787,292.792,-101.65263,11.361201,STD
2476129706000,0.840037,0.779965441685203,9.83004784787936,0.392349415359095,-0.038789943,0.02107485,0.004581489,292.722,-101.64122,11.361325,STD
2476134747000,0.845078,0.759477200363497,9.8128933965946,0.343229683496269,-0.040317107,0.03176499,0.0067195175,292.65567,-101.63434,11.364313,STD
2476139706000,0.850037,0.732219872335948,9.79926492232638,0.297800760757605,-0.031154128,0.027794369,0.0067195175,292.622978914131,-101.629727415332,11.3639690661529,STD
2476144739000,0.85507,0.707091688607688,9.78590495536044,0.253797733052461,-0.02687807,0.029626964,-0.0030543262,292.5898,-101.625046,11.36362,STD
2476149744000,0.860075,0.696481812417915,9.7752948575961,0.221968086018594,-0.023518313,0.03848451,-0.0036651916,292.52753,-101.61609,11.361854,STD
2476155750000,0.866081,0.683749960990187,9.7625627402789,0.183772509577953,-0.012217305,0.043676864,-0.005192355,292.47864,-101.60401,11.353432,STD
2476159723000,0.870054,0.682099841099127,9.76305917185413,0.153063636659476,0.0036651916,0.03573562,-0.0027488936,292.43152,-101.59373,11.346254,STD
2476164683000,0.875014,0.686979237914741,9.77281816928608,0.109149034748844,0.005192355,0.046120327,-0.0015271631,292.37805,-101.58287,11.3389225,STD
2476169766000,0.880097,0.69902009942516,9.78740996639399,0.0724834893774044,0.013439035,0.04062254,-0.011911872,292.33838,-101.56945,11.325537,STD
2476174706000,0.885037,0.717847648485519,9.80623744992262,0.0452881532827769,0.0012217305,0.046120327,-0.008857546,292.2932,-101.55934,11.316954,STD
2476180292000,0.890623,0.73913726165377,9.82752698898961,0.0145365040065443,0.01160644,0.050701816,-0.0036651916,292.2613,-101.5525,11.3082695,STD
2476184741000,0.895072,0.756093489542339,9.84448315785983,-0.00995581386491267,0.010995574,0.045814894,0.0012217305,292.23096,-101.545296,11.300614,STD
2476190098000,0.900429,0.77765995733564,9.86530395155709,-0.0396493054896194,0.010079277,0.04795292,0.00580322,292.19412,-101.543106,11.297135,STD
2476194788000,0.905119,0.82158186025425,9.89233266074921,-0.0700567843123966,0.018325957,0.045814894,0.005497787,292.1604,-101.541435,11.293653,STD
2476199647000,0.909978,0.867086450079735,9.9203353255604,-0.101559969728148,0.015577064,0.045814894,0.004276057,292.13812,-101.54818,11.297422,STD
2476204744000,0.915075,0.901393066914977,9.93837865967311,-0.12449849,0.006414085,0.036651913,0.0076358155,292.1195,-101.55583,11.302011,STD
2476209687000,0.920018,0.905112862797423,9.93093930095867,-0.12449849,0.0061086523,0.030848695,0.004886922,292.10022,-101.56143,11.304298,STD
2476214683000,0.925014,0.908872543199749,9.92342017570328,-0.12449849,-0.0012217305,0.034208454,0.004886922,292.08383,-101.575554,11.314811,STD
2476219716000,0.930047,0.916636585851713,9.90789221257625,-0.127918458282496,-0.0012217305,0.038179077,0.008246681,292.076345189175,-101.582499430666,11.319918711441,STD
2476225731000,0.936062,0.927449241304552,9.88626700328484,-0.133324794476771,0.0015271631,0.044593163,0.011301007,292.0674,-101.5908,11.326023,STD
2476229792000,0.940123,0.916827531249755,9.87417276868746,-0.109829837182656,-0.015271631,0.028099801,0.012217305,292.0581,-101.602394,11.335002,STD
2476234730000,0.945061,0.898271429207377,9.86025539788111,-0.0727175943456935,-0.0067195175,0.03604105,0.014049901,292.0367,-101.62118,11.349721,STD
2476239652000,0.949983,0.89064306,9.85721285520843,-0.0547820384973402,-0.005497787,0.05131268,0.010079277,292.01935,-101.63482,11.360922,STD
2476244697000,0.955028,0.89064306,9.86188603104749,-0.0501089563462617,-0.009773844,0.049480084,0.0067195175,292.00497,-101.64865,11.372143,STD
2476249948000,0.960279,0.883061262988144,9.86663831317155,-0.0403022460716932,-0.0036651916,0.0693332,0.0076358155,291.97314,-101.65427,11.376721,STD
2476254671000,0.965002,0.870492352041497,9.87082802889959,-0.0277333534990737,-0.00580322,0.0711658,0.0106901415,291.94745,-101.65847,11.380484,STD
2476259638000,0.969969,0.860296688828654,9.8785356660213,-0.00945814005392062,-0.003970624,0.09193522,0.015271631,291.9131,-101.665504,11.387348,STD
2476264684000,0.975015,0.855618612081317,9.89256970087125,0.0186103404577928,0.00061086525,0.090713486,0.011301007,291.8849,-101.670685,11.392096,STD
2476269633000,0.979964,0.856229572567138,9.90631185388392,0.0499885532396766,-0.0027488936,0.10567969,0.013744468,291.8431,-101.675545,11.397882,STD
2476274658000,0.984989,0.870126026508807,9.92020859803639,0.0916779455368178,-0.009468411,0.10751228,0.015882496,291.80594,-101.67904,11.402083,STD
2476279717000,0.990048,0.878127348919596,9.92918972503014,0.127437343126217,-0.0036651916,0.11881329,0.008552114,291.7597,-101.68,11.404809,STD
2476284666000,0.994997,0.864941153092831,9.92039874422702,0.140623548132245,-0.008857546,0.12705997,0.018936822,291.7146,-101.68521,11.412993,STD
2476289715000,1.000046,0.851226456377379,9.911995,0.156556939999089,-0.012217305,0.118202426,0.021685716,291.67065,-101.68757,11.420141,STD
2476294908000,1.005239,0.833110665709862,9.911995,0.210904297814407,-0.015577064,0.12705997,0.02076942,291.6197,-101.69126,11.429222,STD
2476299698000,1.010029,0.816400741331391,9.911995,0.261034057863583,-0.01740966,0.12370021,0.01985312,291.57004,-101.69134,11.434771,STD
2476304718000,1.015049,0.809904806453021,9.92436608840163,0.2681506,-0.018936822,0.12858713,0.022907447,291.51596,-101.692024,11.441226,STD
2476309652000,1.019983,0.805216649770811,9.93843036263518,0.2681506,-0.01282817,0.12644911,0.016493361,291.46533,-101.69008,11.444419,STD
2476314723000,1.025054,0.788631937041626,9.91699563310745,0.2681506,-0.019547688,0.1328632,0.022907447,291.39844,-101.68552,11.447893,STD
2476319661000,1.029992,0.770320102590513,9.88952830687319,0.2681506,-0.030543262,0.13469578,0.022907447,291.33405,-101.6777,11.447649,STD
2476324662000,1.034993,0.754965636660307,9.87953863440104,0.271876887779898,-0.029932396,0.13683382,0.018325957,291.26868,-101.66847,11.445674,STD
2476329747000,1.040078,0.740296083090672,9.87464868109248,0.276766738969776,-0.02565634,0.13133603,0.023823744,291.20578,-101.66194,11.4465685,STD
2476334682000,1.045013,0.717162872492837,9.87031272492837,0.243975329484241,-0.021685716,0.13103059,0.024129177,291.14114,-101.65196,11.44357,STD
2476339665000,1.049996,0.691524694985673,9.86603960610673,0.201245002405981,-0.028099801,0.13805555,0.022907447,291.0767,-101.643005,11.4417715,STD
2476344836000,1.055167,0.654382088534877,9.864111,0.176276839552239,-0.02321288,0.13103059,0.026572637,291.0195,-101.63715,11.4420805,STD
2476349693000,1.060024,0.611877169272007,9.864111,0.16683130358209,-0.02687807,0.13316862,0.025350908,290.95813,-101.62901,11.440835,STD
2476354661000,1.064992,0.578350516231374,9.86154236085146,0.144825606433318,-0.04153884,0.13347405,0.021380283,290.9049,-101.61499,11.431782,STD
2476359656000,1.069987,0.551787175574271,9.85711504803332,0.113835038018695,-0.038179077,0.11911872,0.02107485,290.85596,-101.60268,11.423503,STD
2476365328000,1.075659,0.531177220005816,9.85197196452457,0.077834178428613,-0.027488936,0.12522738,0.022296581,290.80594,-101.58495,11.409704,STD
2476369732000,1.080063,0.523001130189008,9.84788384704856,0.0492179349299215,-0.035124753,0.12156218,0.022296581,290.76337,-101.566475,11.395549,STD
2476374655000,1.084986,0.522310272406091,9.84839888629442,0.0321722365725888,-0.032986723,0.10995574,0.01863139,290.72894,-101.54662,11.377597,STD
2476379707000,1.090038,0.537045935748223,9.85822284649746,0.0419959977729949,-0.024740042,0.10873401,0.02076942,290.69305,-101.52875,11.36176,STD
2476384669000,1.095,0.552638302382517,9.86580111022904,0.050419146342002,-0.025045475,0.10445796,0.012217305,290.67133,-101.504715,11.338999,STD
2476389668000,1.099999,0.570112320795237,9.87016970435259,0.0569719056986039,-0.028099801,0.105068825,0.014660766,290.649,-101.485085,11.320468,STD
2476394786000,1.105117,0.588002304039146,9.87464229181495,0.0636806519252669,-0.022602014,0.101098195,0.009773844,290.62714,-101.46364,11.29996,STD
2476399729000,1.11006,0.605280574296012,9.87896194789671,0.0701600056959577,-0.0125227375,0.10567969,0.00580322,290.6029,-101.44361,11.280905,STD
2476404859000,1.11519,0.624129174249631,9.883265,0.0787967793370206,-0.01282817,0.10751228,0.0018325958,290.5809,-101.42242,11.26082,STD
2476409689000,1.12002,0.66250526515118,9.883265,0.129964892821534,-0.0125227375,0.10903945,-0.0009162979,290.55878,-101.40355,11.24254,STD
2476414691000,1.125022,0.702247958047566,9.883265,0.182955142024336,-0.010995574,0.1151481,0.008552114,290.52902,-101.39181,11.232034,STD
2476419685000,1.130016,0.752418855213336,9.90314460468347,0.25912683989482,-0.004581489,0.11759156,0.0070249503,290.50012,-101.37674,11.217881,STD
2476424710000,1.135041,0.8049449438718,9.92702008592975,0.340303540951578,-0.01740966,0.1282817,0.0012217305,290.4675,-101.362495,11.205564,STD
2476429704000,1.140035,0.924366221691542,9.93459676119403,0.247452254736842,-0.024129177,0.16279559,0.01038471,290.41223,-101.36013,11.20659,STD
2476435126000,1.145457,1.06939671907131,9.93912858208955,0.106953966315789,-0.05467244,0.19914207,0.017104227,290.35373,-101.35386,11.205423,STD
2476439711000,1.150042,1.12799385530917,9.93822272394256,0.0474508927937872,-0.056505036,0.2284636,0.029626964,290.27008,-101.356895,11.215534,STD
2476444925000,1.155256,1.14262707848002,9.93334539034873,0.0279399153234346,-0.057726767,0.24404067,0.03604105,290.18063,-101.35899,11.225935,STD
2476449737000,1.160068,1.15582175913417,9.9443586883747,0.0785980820634447,-0.061391957,0.24037547,0.044593163,290.104,-101.39259,11.263779,STD
2476454710000,1.165041,1.16915230368539,9.97101931349132,0.198572651738571,-0.05375614,0.23090707,0.04550946,290.02542,-101.425285,11.3003025,STD
2476459713000,1.170044,1.17119963524959,9.988609,0.323274053396072,-0.05222898,0.17898351,0.052839845,289.96808,-101.464836,11.343349,STD
2476464681000,1.175012,1.15173250488953,9.988609,0.454676941939444,-0.048563786,0.14263703,0.059864793,289.90976,-101.503784,11.3854,STD
2476469792000,1.180123,1.11337586180852,9.98658874658819,0.55448405662569,-0.058337633,0.09590584,0.062002823,289.84412,-101.54068,11.428777,STD
2476474651000,1.184982,1.05035490009376,9.98174113605584,0.59811393333889,-0.06627888,0.058643065,0.051618114,289.78687,-101.57517,11.4690485,STD
2476480776000,1.191107,0.987590678618298,9.96678760170604,0.598002815611174,-0.08277224,0.040317107,0.04184427,289.72757,-101.604294,11.507949,STD
2476484665000,1.194996,0.956169815171541,9.9528226722441,0.570073164479753,-0.100792766,0.059253927,0.043676864,289.66843,-101.63304,11.546146,STD
2476489621000,1.199952,0.934851395966803,9.940725,0.53702628490099,-0.090713486,0.09101892,0.030848695,289.60156,-101.64802,11.569919,STD
2476494699000,1.20503,0.953733575689186,9.940725,0.508703027640264,-0.10934488,0.15882497,0.022602014,289.51895,-101.66336,11.595206,STD
2476499647000,1.209978,0.983628365947844,9.94324364533601,0.502269421894684,-0.12156218,0.2049453,0.02107485,289.4438,-101.67223,11.611968,STD
2476504672000,1.215003,1.04637710842528,9.95289749187563,0.555364514397192,-0.11759156,0.24037547,0.023518313,289.3525,-101.680176,11.627553,STD
2476509642000,1.219973,1.11179258709993,9.95862668797103,0.61755549257512,-0.13988814,0.24098633,0.01985312,289.25943,-101.689606,11.64438,STD
2476514673000,1.225004,1.18724473507879,9.95391083331702,0.707154938612117,-0.1441642,0.2302962,0.0143553335,289.16022,-101.69999,11.661117,STD
2476519684000,1.230015,1.2556179964058,9.95916290596111,0.782810124768887,-0.15424347,0.22235495,0.018936822,289.05115,-101.72015,11.688609,STD
2476524651000,1.234982,1.30110859920306,9.99707170863883,0.813137166911062,-0.17592919,0.19303341,0.018020526,288.95227,-101.73721,11.712279,STD
2476529738000,1.240069,1.3476982300526,10.0358963672298,0.84419689378387,-0.19333886,0.16646078,0.02443461,288.83133,-101.76682,11.7487335,STD
2476534656000,1.244987,1.34042513905807,10.0623045507849,0.842595055967467,-0.20922135,0.15210545,0.02443461,288.71625,-101.794426,11.7821865,STD
2476539655000,1.249986,1.31325977692453,10.0849423525629,0.829012355990165,-0.2275473,0.14508049,0.02107485,288.60754,-101.82303,11.8155775,STD
2476544827000,1.255158,1.24548615309395,10.093954,0.781635121208067,-0.23976462,0.14263703,0.020463986,288.49142,-101.859695,11.856034,STD
2476550763000,1.261094,1.1392283077029,10.093954,0.703339917729464,-0.25442538,0.1518,0.021380283,288.37476,-101.8961,11.894942,STD
2476554708000,1.265039,1.05757903687204,10.0396250094787,0.612325600473934,-0.2733622,0.17501289,0.016493361,288.2574,-101.92684,11.926776,STD
2476559653000,1.269984,0.950237107725118,9.94692077962085,0.480587763981043,-0.27091873,0.20922135,0.0106901415,288.1349,-78.04192,11.957771,STD
2476564703000,1.275034,0.886097709789382,9.8379358385907,0.348009983542658,-0.25534168,0.24587326,-0.008857546,288.0256,-78.02909,11.969287,STD
2476569781000,1.280112,0.84833703543434,9.7199338236436,0.215847638085994,-0.23823744,0.2706133,-0.022296581,287.9106,-78.015465,11.980605,STD
2476574662000,1.284993,0.881091502507478,9.62466572250572,0.174783046877529,-0.2275473,0.28038713,-0.03176499,287.8145,-78.023026,11.970699,STD
2476579729000,1.29006,0.966478922769664,9.53927834682386,0.196129904172092,-0.20738874,0.258396,-0.03481932,287.72137,-78.03189,11.959296,STD
2476584693000,1.295024,1.05897167579351,9.49413582483432,0.323524364091385,-0.18936823,0.21166481,-0.036957346,287.65903,-78.04278,11.946804,STD
2476589652000,1.299983,1.17161258465295,9.53720422957796,0.694576652738054,-0.1863139,0.1020145,-0.03176499,287.62228,-78.051834,11.936329,STD
2476594692000,1.305023,1.28609336316707,9.58097611098709,1.07168968657133,-0.20005837,-0.030543262,-0.034513887,287.5929,-78.04582,11.940865,STD
2476599694000,1.310025,1.30859802020445,9.62222982521547,1.3980543835438,-0.21563543,-0.17134771,-0.020463986,287.5983,-78.03357,11.951961,STD
2476604658000,1.314989,1.21330981647625,9.66034536540389,1.66009691892163,-0.23548855,-0.2947425,-0.014660766,287.6373,-78.02435,11.960093,STD
2476609663000,1.319994,1.06695806382763,9.67832544191197,1.82340917361816,-0.25167647,-0.37048978,-0.00580322,287.6089,-77.97056,12.006949,STD
2476614679000,1.32501,0.854188064086002,9.66945984589831,1.85443811166374,-0.28802297,-0.39370266,-0.016187929,287.6004,-77.92001,12.049017,STD
2476619846000,1.330177,0.621848195371063,9.662998,1.80443093846236,-0.30970868,-0.35735616,-0.040011674,287.55896,-77.8769,12.078277,STD
2476624715000,1.335046,0.372892118045916,9.662998,1.5704122928457,-0.33108896,-0.25686884,-0.043982297,287.50464,-77.82867,12.109338,STD
2476629788000,1.340119,0.198888370226261,9.6396763854602,1.32782727382836,-0.34972036,-0.12583824,-0.064751714,287.4331,-77.82707,12.089375,STD
2476634726000,1.345057,0.14833020369239,9.58452210739625,1.09342120331325,-0.33383787,-0.0018325958,-0.08552113,287.3342,-77.82385,12.06811,STD
2476639637000,1.349968,0.0980484791383516,9.5296694019341,0.860296818481388,-0.30024028,0.112704635,-0.10476339,287.25528,-77.867325,12.002458,STD
2476644755000,1.355086,0.0456473660722616,9.4725046398581,0.617346176744582,-0.26389378,0.19730948,-0.12889257,287.14948,-77.91552,11.930292,STD
2476649676000,1.360007,0.044393545775155,9.42645947769554,0.434040663884777,-0.20311269,0.22632557,-0.1414153,287.02567,-77.96584,11.856647,STD
2476654667000,1.364998,0.168692789857271,9.40255579255851,0.376671774627926,-0.17562376,0.2406809,-0.15454891,286.8828,-78.01989,11.77732,STD
2476659673000,1.370004,0.302854617337866,9.39364850120762,0.349549596197334,-0.10751228,0.20952678,-0.17562376,286.83572,-78.11823,11.675615,STD
2476664677000,1.375008,0.461466900858753,9.42365638670722,0.400991418968602,-0.050396383,0.14569137,-0.18967366,286.79474,-78.21666,11.57495,STD
2476669772000,1.380103,0.620379309112301,9.45630739178154,0.453575204825709,0.0012217305,0.0842994,-0.17745635,286.76804,-78.29713,11.49819,STD
2476674647000,1.384978,0.735159709498639,9.51779685529897,0.506866103170603,0.029626964,0.019547688,-0.18051068,286.76193,-78.385216,11.416109,STD
2476679677000,1.390008,0.853589537999824,9.58124136842568,0.561851378796207,0.055283304,-0.035124753,-0.17256944,286.7556,-78.442535,11.365528,STD
2476684671000,1.395002,0.907945893023469,9.62284051760176,0.564528528272827,0.08277224,-0.0720821,-0.15393804,286.76343,-78.497444,11.319172,STD
2476690541000,1.400872,0.949175001475981,9.6640693569857,0.549067632783278,0.09743301,-0.0852157,-0.1386664,286.7805,-78.55001,11.275796,STD
2476694709000,1.40504,0.960342472497415,9.66725134382931,0.561848646102077,0.12156218,-0.06841691,-0.12858713,286.7837,-78.573784,11.26125,STD
2476699680000,1.410011,0.964817166810791,9.65830176830529,0.588696830672056,0.12522738,-0.04642576,-0.13133603,286.7894,-78.5959,11.247715,STD
2476704726000,1.415057,0.979662360207101,9.65548851987796,0.669498141932322,0.13775012,-0.04642576,-0.118202426,286.80386,-78.6031,11.250764,STD
2476709650000,1.419981,1.00582147440828,9.65984846329512,0.809013517827293,0.13103059,-0.028405234,-0.11178834,286.80698,-78.611885,11.25057,STD
2476714639000,1.42497,1.03446230998782,9.67970205034511,0.90979666,0.12095132,-0.027794369,-0.10629055,286.8114,-78.619644,11.250212,STD
2476719673000,1.430004,1.06871604342266,9.73842285302477,0.90979666,0.118507855,-0.042455133,-0.10476339,286.81525,-78.62649,11.250393,STD
2476724620000,1.434951,1.08272766936085,9.78092934403623,0.908291940845496,0.122478485,-0.051923547,-0.10048734,286.7912,-78.62094,11.257962,STD
2476729817000,1.440148,1.05266986389532,9.79094828122798,0.903282315319577,0.11575896,-0.07086037,-0.09743301,286.77454,-78.61491,11.265579,STD
2476734693000,1.445024,1.01684943767262,9.80288821915654,0.895567677388134,0.12308934,-0.06872234,-0.09712757,286.75186,-78.60957,11.273006,STD
2476739661000,1.449992,0.965837047771265,9.81989234438885,0.88196435589564,0.12736541,-0.061086524,-0.102319926,286.73337,-78.60481,11.279468,STD
2476744802000,1.455133,0.913048260234453,9.83748860200143,0.867887327756969,0.124311075,-0.05375614,-0.10934488,286.7177,-78.60645,11.279452,STD
2476749682000,1.460013,0.864871834504289,9.85784260063834,0.838718518850987,0.106901415,-0.021685716,-0.10995574,286.69287,-78.60746,11.279313,STD
2476754664000,1.464995,0.817283900694195,9.88163654518253,0.795889418671454,0.08979719,0.002443461,-0.11484267,286.66858,-78.61161,11.275823,STD
2476759894000,1.470225,0.792212850366265,9.91680016009639,0.730465321750362,0.07269296,0.021991149,-0.121256754,286.64917,-78.629265,11.258006,STD
2476764759000,1.47509,0.787722138848193,9.95721670443374,0.654123150916627,0.048563786,0.02076942,-0.1301143,286.62915,-78.647606,11.238468,STD
2476769716000,1.480047,0.775874969665471,9.98138822198185,0.554020701251583,0.03390302,0.0125227375,-0.13652839,286.61908,-78.67817,11.207175,STD
2476774710000,1.485041,0.755686440077037,9.9864351870515,0.427842527030393,0.014049901,0.005497787,-0.1414153,286.6093,-78.70877,11.174652,STD
2476779743000,1.490074,0.738159498480122,9.9864012187825,0.309467753794736,0.02443461,0.0125227375,-0.14721853,286.61307,-78.74988,11.134328,STD
2476784682000,1.495013,0.723024768394528,9.98261765478762,0.199740883236861,0.022296581,0.033292156,-0.14385876,286.61484,-78.78733,11.096318,STD
2476789690000,1.500021,0.705371079868178,9.97737619944635,0.0935596502905352,0.014966198,0.04337143,-0.14966199,286.63364,-78.83793,11.048919,STD
2476794687000,1.505018,0.654904120116003,9.95214286448721,0.059915006064329,0.028710667,0.04428773,-0.14874569,286.649,-78.88507,11.005569,STD
2476799684000,1.510015,0.604437160363828,9.92690952952808,0.0262703618381229,0.034513887,0.03023783,-0.15057829,286.6939,-78.940895,10.956361,STD
2476804661000,1.514992,0.433634193466035,9.88895332701422,0.0428762557061611,0.031154128,0.015577064,-0.14110987,286.73846,-78.99186,10.91191,STD
2476809642000,1.519973,0.230165621122749,9.84750597748815,0.0730197450781991,0.041233405,-0.0018325958,-0.14080444,286.78778,-79.0451,10.865659,STD
2476814630000,1.524961,0.0377177635728596,9.80893385025302,0.0799662838868119,0.040927973,-0.00030543262,-0.14019357,286.84442,-79.10357,10.814204,STD
2476819667000,1.529998,-0.121698533971083,9.77904321129815,0.0152034145376433,0.01740966,0.013133603,-0.1423316,286.90222,-79.1608,10.7632,STD
2476824627000,1.534958,-0.258436651797601,9.7573363065983,-0.0415974008610681,0.0106901415,0.035124753,-0.13927728,286.95645,-79.25238,10.677407,STD
2476830157000,1.540488,-0.360912934131192,9.75221238922214,-0.0877117263061146,0.0143553335,0.061391957,-0.14813483,287.0053,-79.34518,10.589603,STD
2476834704000,1.545035,-0.4213795,9.76050847714023,-0.118694806652347,0.01985312,0.10476339,-0.15668693,287.0588,-79.46162,10.478857,STD
2476839661000,1.549992,-0.4213795,9.80420835890355,-0.133261308845249,0.021991149,0.14996742,-0.1591304,287.10394,-79.57588,10.369873,STD
2476844793000,1.555124,-0.386003336106195,9.84370475384615,-0.120761641478557,0.038179077,0.15393804,-0.16920967,287.15344,-79.7112,10.241059,STD
2476849676000,1.560007,-0.277769120383481,9.86917147692308,-0.0507277386212843,0.047036625,0.17165314,-0.17104226,287.18576,-79.841286,10.116649,STD
2476855206000,1.565537,-0.155193815663717,9.89801255384615,0.0285856922205582,0.03970624,0.17806722,-0.1704314,287.22385,-79.97186,9.991616,STD
2476859652000,1.569983,-0.0566459305309734,9.92120015384615,0.0923519695302927,0.040317107,0.16676621,-0.16920967,287.26202,-80.09964,9.869338,STD
2476864677000,1.575008,0.0547357884955752,9.94740746153846,0.164422492130701,0.04337143,0.13897185,-0.15790866,287.30673,-80.222565,9.751244,STD
2476869708000,1.580039,0.121455585984766,9.9308670359086,0.234574453797606,0.029932396,0.11026118,-0.13744467,287.35492,-80.33899,9.638957,STD
2476875150000,1.585481,0.187617875446137,9.90723766267682,0.310188507355821,0.018020526,0.07971791,-0.12705997,287.41168,-80.452156,9.529717,STD
2476879778000,1.590109,0.15244498085131,9.8797065048151,0.377523930887904,-0.00061086525,0.049785517,-0.111177474,287.43903,-80.51515,9.468123,STD
2476884679000,1.59501,0.084644620479584,9.84806664185285,0.449844316857666,-0.013133603,0.02565634,-0.092240654,287.47345,-80.57251,9.412083,STD
2476889648000,1.599979,-0.0494002128501154,9.84404528270254,0.539491218567413,-0.027794369,-0.0070249503,-0.07880162,287.50177,-80.610825,9.373969,STD
2476894819000,1.60515,-0.233347784184319,9.85895973205501,0.643893895452264,-0.03848451,-0.022907447,-0.07544186,287.53198,-80.64551,9.339384,STD
2476899691000,1.610022,-0.416669738694658,9.88254008397423,0.676881796695074,-0.049785517,-0.018936822,-0.073303826,287.55103,-80.68785,9.296142,STD
2476904680000,1.615011,-0.610326873356891,9.91233357067138,0.671916232862191,-0.07086037,0.0033597588,-0.07391469,287.56915,-80.72855,9.254173,STD
2476909644000,1.619975,-0.780383831797508,9.93127838817481,0.557133640160174,-0.086132,0.04734206,-0.079107046,287.56714,-80.79649,9.18365,STD
2476914677000,1.625008,-0.942416872750643,9.94557521336761,0.390334894601542,-0.101098195,0.10170906,-0.07971791,287.5556,-80.86099,9.115926,STD
2476919659000,1.62999,-1.05044246780242,9.94709872520161,0.229482303602016,-0.08032878,0.172264,-0.089186326,287.53632,-80.96106,9.01276,STD
2476924651000,1.634982,-1.13237049747984,9.94227933165323,0.0704455240665323,-0.061391957,0.20311269,-0.10598512,287.51306,-81.0604,8.909741,STD
2476929754000,1.640085,-1.11862055053118,9.940725,0.00679267659547344,-0.016493361,0.19639318,-0.12492194,287.51306,-81.19317,8.777021,STD
2476934686000,1.645017,-1.06189753879908,9.940725,-0.01066055652194,0.0036651916,0.17104226,-0.12950343,287.5099,-81.32332,8.646753,STD
2476939642000,1.649973,-0.935775570340557,9.96346034303406,0.0263169465102167,0.019242255,0.15393804,-0.14294247,287.5344,-81.476814,8.496658,STD
2476945234000,1.655565,-0.720235190897833,10.0132005770898,0.125797139926935,0.025961773,0.0852157,-0.1414153,287.5813,-81.623795,8.35336,STD
2476949716000,1.660047,-0.569864491118288,10.061017146952,0.201538234525636,0.0290161,0.06688975,-0.13561209,287.6187,-81.764656,8.216175,STD
2476954739000,1.66507,-0.414501377440452,10.119278218258,0.284074879795115,0.0106901415,0.032070424,-0.1151481,287.6807,-81.896965,8.087186,STD
2476959646000,1.669977,-0.292906235948021,10.1194979066745,0.346752432025989,-0.010995574,0.010079277,-0.09407325,287.7271,-81.99131,7.994726,STD
2476964675000,1.675006,-0.188598419149439,10.0815680183107,0.398906340425281,-0.044898596,-0.005192355,-0.07849618,287.78146,-82.07843,7.9089637,STD
2476969673000,1.680004,-0.148958803681738,10.0413437752496,0.405459394495987,-0.069027774,0.011301007,-0.06261369,287.8123,-82.1307,7.856866,STD
2476974645000,1.684976,-0.1582788074633,9.99940365604815,0.377499392883147,-0.109650314,0.021991149,-0.04153884,287.84882,-82.17481,7.8121896,STD
2476979663000,1.689994,-0.2026345589455,9.93699090773123,0.34400424052725,-0.14080444,0.017715093,-0.028405234,287.86816,-82.198685,7.78684,STD
2476984662000,1.694993,-0.279124903120895,9.85625102307829,0.305759068439553,-0.14996742,0.013744468,-0.02443461,287.88397,-82.218094,7.765552,STD
2476989676000,1.700007,-0.33518824,9.7983208476981,0.28521433504488,-0.15577064,0.02321288,-0.018936822,287.89935,-82.23381,7.7477784,STD
2476994690000,1.705021,-0.33518824,9.802955446482,0.313021366389345,-0.17379116,0.036651913,-0.017715093,287.91434,-82.24866,7.730376,STD
2476999685000,1.710016,-0.330253474209005,9.80961091883519,0.336175192333746,-0.17501289,0.02076942,-0.015882496,287.94263,-82.279274,7.6979938,STD
2477004678000,1.715009,-0.305564811288724,9.82442441356877,0.341112920793061,-0.17379116,-0.008857546,-0.022296581,287.97064,-82.31066,7.664474,STD
2477009673000,1.720004,-0.282749480973115,9.8417575469024,0.335655599092636,-0.15363261,-0.024129177,-0.015577064,287.9995,-82.335884,7.636937,STD
2477014668000,1.724999,-0.265275731710988,9.86622056670076,0.300708089620836,-0.1441642,-0.042455133,-0.015882496,288.0373,-82.36388,7.606471,STD
2477019671000,1.730002,-0.247773996464056,9.89072276651081,0.265704608161894,-0.13225232,-0.044593163,-0.01740966,288.07056,-82.38763,7.5807304,STD
2477024650000,1.734981,-0.23942018,9.9254431449634,0.2592303995216,-0.12644911,-0.0421497,0.0015271631,288.10718,-82.40524,7.561293,STD
2477029731000,1.740062,-0.23942018,9.97059588967935,0.279298348344159,-0.12095132,-0.038179077,0.009468411,288.14346,-82.42629,7.538745,STD
2477034675000,1.745006,-0.287380614952535,9.98014551686528,0.307052619937386,-0.10415252,-0.026572637,0.021380283,288.18542,-82.43829,7.5266223,STD
2477039668000,1.749999,-0.369474016295698,9.96565865663502,0.340855794687942,-0.11759156,-0.020158553,0.035124753,288.22714,-82.44678,7.5173893,STD
2477044672000,1.755003,-0.471786350863316,9.95153186389505,0.36547153557056,-0.11911872,-0.007941248,0.035430185,288.26556,-82.45563,7.5080657,STD
2477049691000,1.760022,-0.587697374523006,9.93762274168033,0.384017299743417,-0.12705997,0.04428773,0.047036625,288.28992,-82.45684,7.505724,STD
2477054665000,1.764996,-0.69812022400622,9.92132719963067,0.375461278044514,-0.13927728,0.11484267,0.05497787,288.30463,-82.47475,7.485527,STD
2477059644000,1.769975,-0.804710505024784,9.90278938915347,0.343020767833609,-0.14905111,0.18845193,0.06047566,288.303,-82.48951,7.4680905,STD
2477064683000,1.775014,-0.885274765587962,9.88583245522004,0.327947654119345,-0.15699236,0.25595254,0.059864793,288.28488,-82.521904,7.43199,STD
2477069694000,1.780025,-0.934733072204473,9.87099518530351,0.332893479616613,-0.16646078,0.3268129,0.06872234,288.24463,-82.54868,7.4007454,STD
2477074653000,1.784984,-0.965130579267572,9.8343113792085,0.342638124453633,-0.16646078,0.36651915,0.06505715,288.21057,-82.594246,7.351163,STD
2477079796000,1.790127,-0.979676793797992,9.77612631856665,0.357184349110061,-0.16371189,0.39920044,0.07238753,288.1585,-82.632645,7.3081555,STD
2477084682000,1.795013,-0.9864111,9.73798819506957,0.36391866,-0.16340645,0.4071417,0.07696902,288.10324,-82.67606,7.2599044,STD
2477089692000,1.800023,-0.9864111,9.7155865852087,0.36391866,-0.15424347,0.40042216,0.095294975,288.04343,-82.71267,7.218746,STD
2477094683000,1.805014,-0.989912882399023,9.68729794353444,0.365669551199512,-0.14477506,0.36896262,0.10781772,287.98962,-82.749405,7.1768847,STD
2477099701000,1.810032,-0.999691371034693,9.64818419320378,0.370558795517347,-0.14874569,0.34605515,0.1282817,287.9359,-82.7773,7.1436353,STD
2477104622000,1.814953,-1.01229884648783,9.62637456738569,0.363394259605457,-0.13530666,0.30970868,0.14660765,287.89862,-82.80158,7.1151843,STD
2477109661000,1.819992,-1.03009295459071,9.63082317570059,0.336703148547198,-0.13164146,0.29535335,0.15882497,287.862,-82.82045,7.091571,STD
2477114653000,1.824984,-1.03765229980139,9.64359751241311,0.302558616613704,-0.13072516,0.310625,0.1695151,287.825,-82.832115,7.0758414,STD
2477119715000,1.830046,-1.00876778383317,9.68692411042701,0.239975562355511,-0.14844026,0.32620203,0.18875736,287.79233,-82.836845,7.066495,STD
2477124634000,1.834965,-0.97046369628821,9.73540968122271,0.182565716062591,-0.15393804,0.3576616,0.20097467,287.7609,-82.84243,7.0576725,STD
2477129710000,1.840041,-0.889595543200249,9.81122352526513,0.137077383249116,-0.1695151,0.38545597,0.22204952,287.7262,-82.838615,7.056966,STD
2477134671000,1.845002,-0.802496580928088,9.88545752997155,0.0960057779436868,-0.183565,0.41355577,0.23518312,287.6889,-82.83452,7.058426,STD
2477139671000,1.850002,-0.694448626449524,9.96062136789954,0.0631216157735701,-0.19364429,0.43035457,0.25473082,287.64716,-82.822205,7.067538,STD
2477144689000,1.85502,-0.572330117613464,10.0227513708396,0.0617566393589259,-0.19425514,0.44990227,0.26267207,287.60852,-82.79947,7.0879593,STD
2477149685000,1.860016,-0.409466447056732,10.0444663979198,0.155855646704463,-0.19608775,0.46120325,0.28221974,287.56763,-82.76817,7.116442,STD
2477154694000,1.865025,-0.246178991928896,10.0662379292738,0.25019950735174,-0.20861048,0.44715336,0.30573806,287.53464,-82.71478,7.1679635,STD
2477159714000,1.870045,-0.190956022094456,10.0418127458932,0.368274435112936,-0.21410827,0.4007276,0.33383787,287.50793,-82.656265,7.225069,STD
2477164677000,1.875008,-0.205595557459959,9.98813463978439,0.500030263593429,-0.2125811,0.3390302,0.35888332,287.48987,-82.593315,7.2865934,STD
2477169681000,1.880012,-0.299873705769816,9.90893842738252,0.507656299918806,-0.22174409,0.2782491,0.39064834,287.45148,-82.477806,7.396248,STD
2477174654000,1.884985,-0.435214508956663,9.81710019466152,0.449653091342738,-0.22113322,0.23854288,0.42088616,287.42438,-82.35964,7.509498,STD
2477179782000,1.890113,-0.561620152768085,9.79068057068754,0.392750233603697,-0.23884831,0.21624629,0.42119157,287.38022,-82.243004,7.614923,STD
2477184756000,1.895087,-0.67842773829105,9.7951727921343,0.338839035233425,-0.25289822,0.21868975,0.43799037,287.33954,-82.11674,7.7304034,STD
2477189653000,1.899984,-0.777074342517257,9.80199680322135,0.266797582624022,-0.27000242,0.22724187,0.45265114,287.31906,-82.01183,7.825838,STD
2477194671000,1.905002,-0.865535308987575,9.81084307768062,0.178336625390704,-0.2706133,0.24556783,0.4633413,287.29443,-81.90624,7.92206,STD
2477201000000,1.911331,-0.92930191470402,9.83608399852274,0.0549991873092751,-0.30207285,0.24740042,0.4538729,287.28406,-81.82653,7.9920964,STD
2477204660000,1.914991,-0.940397542434315,9.85827533122296,-0.0226702624153213,-0.3200934,0.26175576,0.45234573,287.26434,-81.744484,8.065063,STD
2477209645000,1.919976,-0.977405387345857,9.90524341666667,-0.114931832479576,-0.33078352,0.27000242,0.45723262,287.2671,-81.6852,8.118037,STD
2477214668000,1.924999,-1.03765165099229,9.97012383333333,-0.193715374068979,-0.3408628,0.2602286,0.46700647,287.27057,-81.6255,8.170498,STD
2477219701000,1.930032,-1.10631912264798,10.0246212623053,-0.273136902647975,-0.33658674,0.25900686,0.47494772,287.29117,-81.57276,8.220991,STD
2477224660000,1.934991,-1.185224845919,10.0640738922118,-0.352042625919003,-0.3472769,0.2556471,0.462425,287.31488,-81.52311,8.266954,STD
2477229736000,1.940067,-1.29705765776446,10.0962480554955,-0.475746523009528,-0.3555236,0.26297748,0.45081854,287.3552,-81.48661,8.304253,STD
2477234764000,1.945095,-1.43894598060112,10.1198961010706,-0.641282950684609,-0.35827246,0.2706133,0.43799037,287.39603,-81.45484,8.336477,STD
2477239646000,1.949977,-1.53659454561022,10.1420356354988,-0.800169663930416,-0.35155296,0.312763,0.43463063,287.44278,-81.44141,8.353629,STD
2477244677000,1.955008,-1.58897934879043,10.1638626178309,-0.961689469937483,-0.35643986,0.3585779,0.40225476,287.48608,-81.43927,8.358186,STD
2477249678000,1.960009,-1.63189029050674,10.1903668858242,-1.0987896477229,-0.36896262,0.42180246,0.38240165,287.54865,-81.46501,8.342099,STD
2477254697000,1.965028,-1.64730598213598,10.2314755756895,-1.16559079926235,-0.36774087,0.4810564,0.35246924,287.59897,-81.502396,8.313933,STD
2477259632000,1.969963,-1.60833801955417,10.2688724583496,-1.22052040887759,-0.38056904,0.51343226,0.32070425,287.67368,-81.55868,8.272635,STD
2477264667000,1.974998,-1.47633388668361,10.3018736638639,-1.25823579805436,-0.39003745,0.5195409,0.28985557,287.7386,-81.62139,8.223913,STD
2477269662000,1.979993,-1.33882981647178,10.3173711367565,-1.24794499034062,-0.3915646,0.5225952,0.25900686,287.8097,-81.693474,8.167076,STD
2477274654000,1.984985,-1.18814044667006,10.2979269541434,-1.14100421929842,-0.40042216,0.5027421,0.22907446,287.88522,-81.77056,8.103445,STD
2477279693000,1.990024,-1.0439496542861,10.2866851826663,-1.0726024,-0.4083634,0.48899764,0.21013765,287.96085,-81.830536,8.057439,STD
2477284668000,1.994999,-0.915110775669281,10.2899062193753,-1.0726024,-0.42271876,0.48197266,0.1881465,288.0397,-81.89666,8.003566,STD
2477289738000,2.000069,-0.783811657159275,10.293188763318,-1.0726024,-0.4428773,0.50885075,0.19425514,288.08908,-81.932,7.9752173,STD
2477294733000,2.005064,-0.644652301568549,10.2890639353422,-1.05259258146079,-0.46273044,0.5305365,0.20525073,288.14136,-81.9701,7.9431562,STD
2477299767000,2.010098,-0.490720085855119,10.274632499102,-1.00448874835362,-0.4615087,0.57726765,0.226631,288.17792,-82.0022,7.9165945,STD
2477304739000,2.01507,-0.327515376748062,10.2971949698849,-1.00769298158002,-0.48380527,0.61819565,0.2312125,288.20746,-81.99702,7.9254575,STD
2477309685000,2.020016,-0.149691435899127,10.3706446643271,-1.08114198980658,-0.49296826,0.6780604,0.25289822,288.2173,-81.98153,7.944688,STD
2477315232000,2.025563,0.0464814917654756,10.4541722380473,-1.16211439275289,-0.50640726,0.75136423,0.27305678,288.19666,-81.93761,7.989535,STD
2477319746000,2.030077,0.16251492305905,10.5375710573729,-1.20925294145278,-0.50518554,0.81397796,0.27947086,288.16162,-81.89269,8.035192,STD
2477324665000,2.034996,0.288958974572807,10.6284524911928,-1.26062080167757,-0.5002986,0.8762862,0.2959642,288.12143,-81.80631,8.124079,STD
2477329796000,2.040127,0.445799370074678,10.7527582206382,-1.30734780244399,-0.51068336,0.9550878,0.30604348,288.0581,-81.72171,8.209932,STD
2477334720000,2.045051,0.613871343482688,10.892818107943,-1.34736495488798,-0.4905248,0.99082345,0.30757064,287.98917,-81.63842,8.295371,STD
2477339670000,2.050001,0.80678458925569,11.0346788501128,-1.35328697051466,-0.4700608,1.0873401,0.31031954,287.90204,-81.52336,8.412917,STD
2477344946000,2.055277,1.10723364117285,11.1900839331556,-1.22378313131023,-0.4541783,1.1835514,0.2855795,287.80444,-81.41964,8.518966,STD
2477349685000,2.060016,1.38445483751166,11.3288061396579,-1.04721711384448,-0.40011674,1.2846496,0.27916542,287.68564,-81.277664,8.665912,STD
2477354576000,2.064907,1.69040922536029,11.4696420916537,-0.702411365418351,-0.3594942,1.3909402,0.28160888,287.53748,-81.144646,8.802655,STD
2477359546000,2.069877,1.98137886965335,11.5984277873505,-0.342589734839854,-0.30176744,1.4450017,0.27305678,287.34793,-80.97706,8.9725895,STD
2477364566000,2.074897,2.22989441232516,11.6958847830935,0.0423656781948105,-0.24129178,1.4697418,0.28924468,287.13672,-80.80887,9.143381,STD
2477369586000,2.079917,2.43872662181122,11.7721922155612,0.417098045089286,-0.13836098,1.4657712,0.2846632,286.8509,-80.610954,9.338652,STD
2477374549000,2.08488,2.56863649285714,11.8068346428571,0.767854715,-0.02321288,1.4837917,0.32375857,286.55292,-80.40529,9.543163,STD
2477379587000,2.089918,2.67071647281192,11.8052838013656,1.13877807361887,0.09101892,1.4920384,0.3652974,286.1825,-80.16375,9.778434,STD
2477384553000,2.094884,2.59691372898821,11.5887963076764,1.59143426534244,0.183565,1.4853189,0.3885103,285.81396,-79.92746,10.010715,STD
2477389549000,2.09988,2.50194876073766,11.3456849081896,2.01674487751339,0.22418754,1.4941764,0.41722095,285.3688,-79.65451,10.272359,STD
2477394541000,2.104872,2.32656964449732,11.004406526274,2.32484348548483,0.23548855,1.5201381,0.45112398,284.92438,-79.38448,10.532138,STD
2477399575000,2.109906,2.14380498806334,10.6561050864799,2.60205697186358,0.22327125,1.5537357,0.4633413,284.40552,-79.10393,10.790731,STD
2477404591000,2.114922,1.93676717946219,10.2915382775227,2.73708160104001,0.18875736,1.5876387,0.4700608,283.8832,-78.82264,11.047068,STD
2477409659000,2.11999,1.73182106685928,9.90678685764486,2.86820733410901,0.11209377,1.597718,0.45662177,283.29865,-78.547386,11.282814,STD
2477414619000,2.12495,1.58345013823208,9.32814046064345,2.93126494585351,0.02076942,1.5964963,0.46211955,282.71207,-78.266975,11.51648,STD
2477419604000,2.129935,1.434331372263,8.74657749914103,2.99464038830236,-0.044898596,1.572978,0.45478916,282.10672,-78.009514,11.712969,STD
2477424592000,2.134923,1.43877202344065,8.41307187663373,2.89143645095102,-0.08399397,1.5259414,0.44623706,281.51282,-77.748276,11.903169,STD
2477429710000,2.140041,1.60022531830836,8.32453227127829,2.61540336685793,-0.10720685,1.462106,0.4456262,280.93484,-77.48467,12.086438,STD
2477434609000,2.14494,1.68291328236557,8.22094266009564,2.45193440666537,-0.11911872,1.427592,0.45753807,280.33313,-77.21497,12.261884,STD
2477439701000,2.150032,1.72574392454377,8.10196865404509,2.34247822171367,-0.12308934,1.3573426,0.4718934,279.76285,-76.94309,12.432786,STD
2477444621000,2.154952,1.74805074111788,8.02366243273381,2.30350544111788,-0.12736541,1.2776246,0.49357912,279.24777,-76.65734,12.6269865,STD
2477449807000,2.160138,1.75721238745619,7.96869269820144,2.31266708745619,-0.11148291,1.2061534,0.5161811,278.75235,-76.37188,12.819495,STD
2477454621000,2.164952,1.76956171673676,7.93174342205123,2.32687377986045,-0.11148291,1.131017,0.5366451,278.2962,-76.07759,13.025098,STD
2477459620000,2.169951,1.7878658835022,7.9134393508507,2.34975407193653,-0.093767814,1.0983357,0.5687156,277.849,-75.78213,13.233416,STD
2477464652000,2.174983,1.80695123128391,7.92365599349005,2.39965690524412,-0.09132435,1.1071932,0.593761,277.39752,-75.48144,13.444928,STD
2477469635000,2.179966,1.82725596244017,7.99472265854696,2.50625663780449,-0.06841691,1.1490375,0.6178902,276.94638,-75.18207,13.657123,STD
2477474603000,2.184934,1.85387680217891,8.09356913643468,2.60251753001747,-0.063224554,1.1963795,0.63255095,276.4844,-74.87079,13.876321,STD
2477479668000,2.189999,1.88955322421624,8.2318147188563,2.68724906145996,-0.055588737,1.2443326,0.6453791,276.01093,-74.562584,14.091901,STD
2477484634000,2.194965,1.93675821441441,8.40938467567567,2.7672657545045,-0.058643065,1.2815952,0.6377433,275.49933,-74.248566,14.304218,STD
2477489632000,2.199963,2.01889437297297,8.70712910810811,2.83913505405405,-0.06291912,1.3264939,0.61636305,274.97412,-73.94174,14.505392,STD
2477494620000,2.204951,2.06135185664807,9.02842480873581,2.89528608197037,-0.043676864,1.3652838,0.59803706,274.42395,-73.633415,14.702019,STD
2477499653000,2.209984,2.04280268043102,9.39013403550125,2.92774709192804,-0.03970624,1.3875804,0.58551437,273.8696,-73.33292,14.884163,STD
2477504682000,2.215013,1.97381460634473,9.67971807825167,2.97995661928093,-0.01863139,1.4196508,0.5720753,273.29163,-73.04671,15.050999,STD
2477509647000,2.219978,1.80202197491188,9.81798991557984,3.07213804834332,0.005497787,1.4654657,0.5390886,272.7095,-72.77568,15.19874,STD
2477514665000,2.224996,1.62976845677208,9.96037962664616,3.17263605873306,0.04062254,1.520749,0.4709771,272.12372,-72.54671,15.305151,STD
2477519664000,2.229995,1.48250497101798,10.1490614828415,3.40273532430068,0.07513642,1.5806139,0.40408736,271.53104,-72.33356,15.393762,STD
2477525115000,2.235446,1.32545065118749,10.3538003869125,3.65696593512376,0.095294975,1.6209309,0.3555236,270.91443,-72.161285,15.430592,STD
2477529723000,2.240054,1.24142731065237,10.5130021923038,3.91788050916926,0.09437868,1.6310102,0.3231477,270.29874,-72.005325,15.447887,STD
2477535092000,2.245423,1.1415419737717,10.6735948055584,4.21711210052399,0.07360926,1.5812247,0.29535335,269.6538,-71.85939,15.430036,STD
2477539665000,2.249996,1.02905165216275,10.4666124059386,4.40609573031953,0.028710667,1.5430456,0.2864958,269.0111,-71.71334,15.404594,STD
2477544978000,2.255309,0.898164567457027,10.2254197618807,4.6101962968908,0.0067195175,1.4581354,0.25320363,268.3543,-71.5639,15.355552,STD
2477549682000,2.260013,0.780492818377149,10.005260036906,4.64815501640546,-0.023518313,1.3753631,0.2406809,267.71588,-71.40342,15.309074,STD
2477554662000,2.264993,0.655916859529828,9.77218277704752,4.68834090568756,-0.040927973,1.2938126,0.22693644,267.0558,-71.22748,15.250951,STD
2477560468000,2.270799,0.471992449291225,9.46625155179508,4.64584289590577,-0.041233405,1.2492194,0.22693644,266.41687,-71.04895,15.192908,STD
2477564711000,2.275042,0.32569024763296,9.23216767297603,4.58732188255324,-0.0711658,1.1948525,0.19822577,265.81467,-70.87224,15.125599,STD
2477569696000,2.280027,0.206655627342773,9.0538959699115,4.45306823457227,-0.10170906,1.1343768,0.18051068,265.2049,-70.687126,15.055196,STD
2477574653000,2.284984,0.108630369395674,8.91385998879056,4.29436083804326,-0.15363261,1.0784826,0.16218472,264.61798,-70.498856,14.977361,STD
2477579861000,2.290192,0.067640260391819,8.78137259068756,4.01817068170583,-0.20799962,1.0170907,0.14019357,264.05222,-70.31708,14.887218,STD
2477584717000,2.295048,0.0554979689007833,8.66399728067885,3.71461328877285,-0.2415972,0.97585726,0.11636983,263.50327,-70.13271,14.791929,STD
2477589648000,2.299979,0.0422326377209011,8.5508362254902,3.3547229794952,-0.2507602,0.9266826,0.09468412,262.99683,-69.96571,14.691958,STD
2477594775000,2.305106,0.0268695950544431,8.4432948872549,2.8938317208907,-0.20555615,0.8906415,0.07849618,262.5036,-69.805626,14.587586,STD
2477599697000,2.310028,0.0712748556410352,8.39136789184677,2.34753998791392,-0.14385876,0.88086766,0.07971791,262.07745,-69.69145,14.484426,STD
2477604668000,2.314999,0.18166884464725,8.39578374074761,1.68076026768389,-0.058643065,0.88270026,0.07880162,261.66238,-69.593895,14.377714,STD
2477609628000,2.319959,0.283099206933093,8.40294751283026,1.16447857394982,0.03481932,0.9266826,0.0870483,261.31085,-69.5629,14.275096,STD
2477614684000,2.325015,0.365931945165368,8.4167527665843,0.989609447624026,0.12705997,0.990518,0.087659165,260.95563,-69.54953,14.169187,STD
2477619729000,2.33006,0.452628321249416,8.42919536719115,0.849927796148933,0.21960606,1.0729848,0.08979719,260.708,-69.63945,14.088896,STD
2477624651000,2.334982,0.551763719566911,8.43653887770681,0.838912745075557,0.32711834,1.1646146,0.08552113,260.44138,-69.749664,14.003418,STD
2477631096000,2.341427,0.681574292942826,8.44615466910734,0.824489339108895,0.43951756,1.2324207,0.07727446,260.18896,-69.89537,13.929437,STD
2477634694000,2.345025,0.792780601356301,8.44978084100584,0.896488098176418,0.54183745,1.2528846,0.080634214,259.92532,-70.05484,13.856561,STD
2477639740000,2.350071,0.955441241332541,8.45456507444807,1.0113074228215,0.5900958,1.284955,0.06658431,259.64307,-70.22605,13.773366,STD
2477644683000,2.355014,1.14242974548,8.5007238332,1.18073698366,0.6747007,1.2944235,0.05955936,259.36243,-70.41182,13.710842,STD
2477649698000,2.360029,1.34894884968,8.5727653112,1.38725598756,0.75136423,1.2635747,0.044898596,259.0885,-70.60355,13.645381,STD
2477654644000,2.364975,1.55870459398656,8.67455425440163,1.60446984538573,0.82894415,1.2119566,0.040011674,258.79828,-70.77354,13.60676,STD
2477659705000,2.370036,1.7771970080973,8.79822913268691,1.83532979037169,0.9025534,1.1313224,0.036957346,258.5296,-70.953476,13.570665,STD
2477664639000,2.37497,1.98109252405993,8.91792009951384,2.07387034045044,0.96974856,1.0183123,0.0421497,258.2453,-71.09489,13.571293,STD
2477669726000,2.380057,2.16476683793035,9.03875843069749,2.35904890298641,1.0436633,0.8979719,0.055283304,257.99033,-71.2438,13.579769,STD
2477674627000,2.384958,2.29724507284206,9.15759613092527,2.61887485699648,1.0800097,0.7825184,0.060170226,257.71988,-71.32728,13.637702,STD
2477679742000,2.390073,2.29217517716829,9.28941352432209,2.84195053133927,1.0940597,0.67347896,0.067500606,257.4867,-71.4116,13.705092,STD
2477684719000,2.39505,2.2626846866528,9.38616280096631,3.00157316311904,1.0677924,0.6035349,0.07238753,257.21985,-71.427986,13.811412,STD
2477689738000,2.400069,2.18204789414844,9.41841750449604,3.04350434506778,1.0387764,0.58062744,0.080634214,256.97653,-71.44159,13.919437,STD
2477694781000,2.405112,2.10102551028721,9.4508264445041,3.08563603476043,0.99082345,0.6010914,0.08857546,256.7008,-71.42616,14.02089,STD
2477700456000,2.410787,1.94509370342066,9.46752465709995,3.09671239390956,0.93126404,0.6609562,0.101098195,256.42545,-71.39996,14.119797,STD
2477704722000,2.415053,1.76444159432671,9.46070781261472,3.06944409058902,0.86620694,0.7076874,0.11148291,256.15338,-71.362816,14.214904,STD
2477710261000,2.420592,1.54385422180884,9.452309,3.03329141100398,0.80756384,0.7724391,0.116675265,255.83847,-71.334724,14.277168,STD
2477714696000,2.425027,1.57501239750576,9.452309,2.9932308396353,0.73792523,0.8381071,0.12308934,255.51459,-71.2906,14.336305,STD
2477719968000,2.430299,1.614314902736,9.45064391956922,2.944245097264,0.68233645,0.87995136,0.12644911,255.1763,-71.27996,14.35021,STD
2477724662000,2.434993,1.67101384122441,9.43319774201999,2.88754615877559,0.6337727,0.90469146,0.13530666,254.82816,-71.25495,14.362846,STD
2477730336000,2.440667,1.73989799492715,9.42526072574627,2.81649667945984,0.59864795,0.9071349,0.14019357,254.47496,-71.23103,14.374494,STD
2477734651000,2.444982,1.79496718571429,9.520714,2.74307114285714,0.57635134,0.9086621,0.14110987,254.11972,-71.19966,14.38422,STD
2477739669000,2.45,1.85900825161692,9.6317185261194,2.65768311442786,0.5681047,0.9071349,0.14080444,253.77655,-71.15972,14.407625,STD
2477744685000,2.455016,1.90191969524251,9.79798249562352,2.56257743686541,0.5647449,0.88361657,0.13500121,253.44476,-71.11841,14.428618,STD
2477749667000,2.459998,1.93631180948409,9.9846823171661,2.46431424598908,0.5564982,0.86834496,0.14172074,253.11533,-71.07282,14.45033,STD
2477754663000,2.464994,1.91180969547919,10.1165887212488,2.41339056672798,0.5537493,0.84940815,0.15149458,252.80872,-71.04561,14.475543,STD
2477759649000,2.46998,1.87020758301065,10.2321497693611,2.37641100237173,0.5403103,0.82436264,0.15363261,252.5133,-71.015495,14.499717,STD
2477764733000,2.475064,1.77386476576936,10.2453272701459,2.33245732349774,0.535118,0.79290307,0.15332718,252.23904,-71.01533,14.51796,STD
2477769651000,2.479982,1.65934890515804,10.2166985825808,2.28746889782911,0.50243664,0.77946407,0.14813483,251.97166,-71.0078,14.53431,STD
2477774656000,2.484987,1.51832391705888,10.1576338260199,2.23433369890042,0.46731192,0.7593055,0.14721853,251.71848,-71.01707,14.542671,STD
2477779811000,2.490142,1.33568456087761,10.051094157435,2.16838063631693,0.4370741,0.7620544,0.13775012,251.4674,-71.023415,14.545634,STD
2477784662000,2.494993,1.18214636653987,9.92552912798711,2.13366429743131,0.40653083,0.7703011,0.11942416,251.21304,-71.04751,14.530244,STD
2477789678000,2.500009,1.04456536093708,9.76645148939408,2.12936489451356,0.3915646,0.7690793,0.10170906,250.9646,-71.06966,14.51243,STD
2477794626000,2.504957,0.919033120328177,9.60810609218228,2.13904714180602,0.35979962,0.7538077,0.0870483,250.71292,-71.110634,14.470059,STD
2477799688000,2.510019,0.827833238628763,9.44090613712375,2.19984701003344,0.3368922,0.7284568,0.070554934,250.46843,-71.153015,14.423373,STD
2477804627000,2.514958,0.752920755530698,9.34343813696247,2.29747429130002,0.32925636,0.6976081,0.056199603,250.2225,-71.2019,14.3596735,STD
2477809657000,2.519988,0.709016178183777,9.39532561479824,2.48506670135885,0.32834008,0.65240407,0.046120327,249.9911,-71.24878,14.295724,STD
2477814697000,2.525028,0.665024315394813,9.44731624865357,2.67303205855498,0.31978795,0.61117065,0.040927973,249.73688,-71.28658,14.229139,STD
2477819665000,2.529996,0.642458023686065,9.55777325456487,2.61771603304858,0.30940324,0.56321776,0.03940081,249.50018,-71.32368,14.164626,STD
2477824926000,2.535257,0.620897694557406,9.67640237598598,2.52509582112182,0.30298916,0.53969944,0.04337143,249.27034,-71.35829,14.101944,STD
2477829813000,2.540144,0.600388557431201,9.72562444557406,2.36102278407537,0.29046643,0.5357288,0.052839845,249.00546,-71.36681,14.035016,STD
2477834688000,2.545019,0.579929780371604,9.77472565065732,2.19735262741455,0.2843578,0.54275376,0.053450707,248.75223,-71.392166,13.965528,STD
2477839666000,2.549997,0.558372826978615,9.80697941637726,1.91449494975324,0.26206118,0.5534439,0.06047566,248.50021,-71.40753,13.901008,STD
2477844661000,2.554992,0.536513881630415,9.83320978559678,1.59098233035094,0.2443461,0.55924714,0.0729984,248.24937,-71.420166,13.838552,STD
2477849792000,2.560123,0.574182066588185,9.84792316416952,1.27999603906678,0.24312437,0.5717699,0.07971791,248.0238,-71.46278,13.771234,STD
2477854721000,2.565052,0.655010967283818,9.85297507266695,0.997094839156678,0.2501493,0.5714644,0.086437434,247.80115,-71.499504,13.70852,STD
2477859660000,2.569991,0.727772032088041,9.86090996143358,0.83966249563693,0.2602286,0.54550266,0.087659165,247.63399,-71.583534,13.648986,STD
2477864679000,2.57501,0.797989181400467,9.87027243961823,0.736677308118426,0.28313604,0.49602258,0.103847094,247.47327,-71.66422,13.597962,STD
2477869653000,2.579984,0.874203445713438,9.9064278164244,0.73482318373183,0.29932398,0.453262,0.12156218,247.35931,-71.767456,13.565728,STD
2477874874000,2.585205,0.958254545143874,9.96081362029072,0.794153351521804,0.32528573,0.4111123,0.13561209,247.25922,-71.870834,13.540754,STD
2477879767000,2.590098,1.0400067861158,10.0015991093311,0.929682382012367,0.3286455,0.3753767,0.14294247,247.18408,-71.97545,13.532354,STD
2477885148000,2.595479,1.13173655296983,10.0402221770189,1.12762551695147,0.30818152,0.31245756,0.15302174,247.12857,-72.07307,13.533092,STD
2477889667000,2.599998,1.23297686443693,10.0637227507561,1.28137882666785,0.28221974,0.25320363,0.15974127,247.07309,-72.15722,13.543812,STD
2477894657000,2.604988,1.36900461065647,10.0807261247109,1.43866094568582,0.24740042,0.2003638,0.16401732,247.03427,-72.23109,13.559794,STD
2477899683000,2.610014,1.50248916018644,10.0875706844047,1.61102199811614,0.2406809,0.12034045,0.16340645,246.9826,-72.27132,13.592791,STD
2477904679000,2.61501,1.62328824855312,10.0596938970674,1.82938955107788,0.21685717,0.031154128,0.17745635,246.94885,-72.296326,13.63372,STD
2477909693000,2.620024,1.73450543274978,10.0298178588877,2.04851021113916,0.19211712,-0.06994407,0.1826487,246.90352,-72.28247,13.70129,STD
2477914685000,2.625016,1.79679015458025,9.99088993314877,2.26650671722172,0.16126843,-0.19120082,0.19211712,246.89044,-72.25933,13.777976,STD
2477919718000,2.630049,1.85958642961485,9.95164228686589,2.48629365935184,0.13133603,-0.3118467,0.20250183,246.85855,-72.1905,13.879672,STD
2477924654000,2.634985,1.84839933474991,9.90888637194434,2.64294655039489,0.094989546,-0.3576616,0.21135938,246.8416,-72.11574,13.982685,STD
2477929873000,2.640204,1.80610600334712,9.8618937814968,2.78392456708349,0.074830994,-0.4361578,0.21960606,246.86995,-72.03904,14.093478,STD
2477934677000,2.645008,1.67428605198334,9.8041552066632,2.76770329108797,0.029321533,-0.48655418,0.22815818,246.84222,-71.9051,14.223952,STD
2477939730000,2.650061,1.47275925997918,9.733621008329,2.65182534885997,0.02321288,-0.47708577,0.23304509,246.82172,-71.77892,14.351662,STD
2477944737000,2.655068,1.24240629842622,9.68493952886929,2.33882790196472,0.019242255,-0.41233405,0.24098633,246.76076,-71.63161,14.476626,STD
2477949718000,2.660049,0.998540487875902,9.64668628769046,1.93238479284282,0.03573562,-0.301462,0.22602014,246.68694,-71.497,14.588123,STD
2477955482000,2.665813,0.702373452753213,9.58202704553273,1.39456933143782,0.058337633,-0.15821409,0.2275473,246.5983,-71.39556,14.668385,STD
2477959710000,2.670041,0.481134969907923,9.52876571071537,0.980771424931701,0.08857546,0.005497787,0.22418754,246.47444,-71.306335,14.732353,STD
2477964701000,2.675032,0.312030952898117,9.43245884529213,0.536827425875809,0.1255328,0.1685988,0.21013765,246.38152,-71.29667,14.750964,STD
2477969704000,2.680035,0.182474472768711,9.32141012177692,0.111141828705746,0.16982053,0.31398472,0.19700404,246.2474,-71.29449,14.75938,STD
2477974647000,2.684978,0.202057450355047,9.15245855681709,-0.217839407296065,0.2171626,0.42210788,0.17531833,246.15305,-71.379074,14.726747,STD
2477979698000,2.690029,0.313761367545463,8.94301385788511,-0.497099199300106,0.269697,0.45173484,0.16065755,246.04007,-71.47169,14.688823,STD
2477984672000,2.695003,0.453982633772445,8.84468037625155,-0.575316057347952,0.35063666,0.41996986,0.13958271,245.98651,-71.6337,14.634799,STD
2477989672000,2.700003,0.620397958555234,8.83675608994621,-0.488146115270997,0.43004912,0.33444872,0.129198,245.94022,-71.80141,14.581812,STD
2477994732000,2.705063,0.783541608616927,8.82665288133538,-0.393878391177754,0.5195409,0.22449298,0.103847094,245.9549,-71.99396,14.554576,STD
2477999674000,2.710005,0.909791991560909,8.80369820814809,-0.263802274643925,0.5882632,0.09101892,0.09437868,246.00098,-72.18859,14.5351715,STD
2478004669000,2.715,1.03739633450004,8.78049735979306,-0.132331169405869,0.65026605,-0.03145956,0.076052725,246.06415,-72.369156,14.536111,STD
2478009650000,2.719981,1.1074104973973,8.82281741915299,0.00912693427949579,0.7058548,-0.13133603,0.07238753,246.1594,-72.55054,14.544166,STD
2478014682000,2.725013,1.14674255703274,8.9014812646232,0.157714652251746,0.7602218,-0.20158553,0.065973446,246.28261,-72.73788,14.5507965,STD
2478019683000,2.730014,1.15983399045387,9.02796804049875,0.290639134769077,0.8017606,-0.22937989,0.059864793,246.39473,-72.88527,14.584396,STD
2478025382000,2.735713,1.13805710240399,9.24029288374065,0.42130020156808,0.8472701,-0.27091873,0.0580322,246.53151,-73.03318,14.620565,STD
2478029718000,2.740049,1.06337641681682,9.38061793543543,0.471414711843844,0.8762862,-0.26725355,0.05589417,246.63403,-73.16217,14.654618,STD
2478034735000,2.745066,0.914282124824825,9.52009329754755,0.47622421695996,0.89888823,-0.22174409,0.04520403,246.73676,-73.2911,14.685117,STD
2478039623000,2.749954,0.795132914058553,9.61498548314513,0.463274732941865,0.926988,-0.16890424,0.05009095,246.81206,-73.41549,14.7070265,STD
2478044654000,2.754985,0.706468737323296,9.65931719907988,0.427003024086156,0.956615,-0.08979719,0.04153884,246.86713,-73.54134,14.719143,STD
2478049893000,2.760224,0.62014717672522,9.69359918525352,0.370871722515315,0.9773844,0.013439035,0.035430185,246.89243,-73.684105,14.704373,STD
2478054723000,2.765054,0.59624934272271,9.61507790840652,0.148963206373902,0.9795224,0.11301007,0.028710667,246.89569,-73.82281,14.685003,STD
2478059707000,2.770038,0.571589548795483,9.53405305461658,-0.0800206537604251,0.97585726,0.22296582,0.020463986,246.863,-73.97862,14.643249,STD
2478064673000,2.775004,0.612564421594884,9.46472197791546,-0.296743196549415,0.956615,0.31612277,-0.0030543262,246.8068,-74.13093,14.593884,STD
2478069670000,2.780001,0.779940831629859,9.4169001835715,-0.492812688184271,0.93309665,0.3912592,-0.013439035,246.72374,-74.273834,14.544453,STD
2478074661000,2.784992,0.973813560902939,9.39016331188769,-0.646954341930108,0.9101892,0.43004912,-0.017104227,246.67693,-74.433754,14.492082,STD
2478079707000,2.790038,1.22273310275124,9.40480542682557,-0.720165971585699,0.895223,0.44623706,-0.016187929,246.61505,-74.585205,14.438243,STD
2478084666000,2.794997,1.43908023890675,9.44339869632011,-0.753895502500893,0.8720101,0.410196,-0.025045475,246.59326,-74.718704,14.409621,STD
2478089672000,2.800003,1.60693544302251,9.52561370625223,-0.71963936759557,0.852157,0.34147367,-0.03023783,246.5765,-74.841034,14.383828,STD
2478095145000,2.805476,1.79044953254019,9.61549839449803,-0.682187544515898,0.8402451,0.2733622,-0.02687807,246.58847,-74.914406,14.404706,STD
2478099683000,2.810014,1.92072364263261,9.73295233988212,-0.561776635481336,0.81183994,0.21838433,-0.025045475,246.61755,-74.97857,14.425027,STD
2478104671000,2.815002,2.0491485764347,9.89101329697032,-0.369139322458898,0.7693848,0.18020524,-0.030848695,246.6623,-75.03455,14.445243,STD
2478109656000,2.819987,2.13524391626724,10.0757401827252,-0.101430972964883,0.72356987,0.17379116,-0.03023783,246.71237,-75.04038,14.505275,STD
2478114675000,2.825006,2.19636662678274,10.2779155966937,0.213586299375917,0.6606508,0.17165314,-0.01740966,246.7732,-75.03576,14.566522,STD
2478119660000,2.829991,2.23732526040268,10.4809848503915,0.499825754667226,0.59895337,0.17348573,-0.022296581,246.79741,-75.0101,14.63399,STD
2478124656000,2.834987,2.26408459642058,10.6861398530015,0.767419305782066,0.5671884,0.19150625,-0.024740042,246.81848,-74.97691,14.703533,STD
2478129691000,2.840022,2.26052831657923,10.858893137286,1.00479786172919,0.49021935,0.1957823,-0.02107485,246.77805,-74.92326,14.77302,STD
2478134685000,2.845016,2.21792326334752,10.9867084947045,1.19888772168168,0.42271876,0.19028452,-0.02565634,246.73727,-74.87302,14.836781,STD
2478139626000,2.849957,2.14753920010814,11.0822347656123,1.32954164451654,0.3622431,0.18448131,-0.021380283,246.64261,-74.81124,14.896843,STD
2478144656000,2.854987,2.03467492057313,11.1343256577453,1.37295090260431,0.3005457,0.16829337,-0.023823744,246.55527,-74.751816,14.951049,STD
2478149705000,2.860036,1.90593120925298,11.1729529978125,1.40143041814503,0.24953845,0.16554448,-0.03756821,246.41876,-74.700066,14.9880705,STD
2478154667000,2.864998,1.71882364869299,11.1573609317511,1.3702459061249,0.18295415,0.15851954,-0.0571159,246.29129,-74.64899,15.020389,STD
2478159623000,2.869954,1.48977363953818,11.1145370712391,1.31433378589849,0.11209377,0.14569137,-0.06291912,246.15054,-74.622345,15.024029,STD
2478164696000,2.875027,1.17877046342021,11.0212360882487,1.21214700384088,0.05375614,0.12583824,-0.07788532,246.01692,-74.60139,15.018604,STD
2478169697000,2.880028,0.911915823653477,10.9428831168652,1.12733769349212,-0.004581489,0.11056661,-0.093767814,245.8761,-74.61043,14.980807,STD
2478174676000,2.885007,0.820323589550519,10.9245646815213,1.11268294521706,-0.074830994,0.086132,-0.10842858,245.74603,-74.61806,14.939786,STD
2478179772000,2.890103,0.726579057518248,10.9058157868613,1.09768382948905,-0.13958271,0.058643065,-0.11881329,245.62537,-74.67715,14.847736,STD
2478184700000,2.895031,0.654420390428724,10.8822014752734,1.091756,-0.20677789,0.039095376,-0.1301143,245.51065,-74.73291,14.7532835,STD
2478189819000,2.90015,0.59274345038227,10.8537351190361,1.091756,-0.26236662,0.0290161,-0.12797627,245.40186,-74.7812,14.661819,STD
2478194759000,2.90509,0.5575522334681,10.801055123262,1.0892628778227,-0.31887165,0.02565634,-0.13225232,245.29112,-74.84447,14.549972,STD
2478199718000,2.910049,0.543502923380337,10.7261256161621,1.08457977446011,-0.37232238,0.03145956,-0.12858713,245.18068,-74.89733,14.443056,STD
2478204687000,2.915018,0.566301727613746,10.7195920202081,1.06905395815586,-0.40469822,0.048258353,-0.129198,245.06335,-74.95804,14.323779,STD
2478210654000,2.920985,0.640060750387222,10.7979608826234,1.03678435861568,-0.43127087,0.07452556,-0.13469578,244.94165,-75.01117,14.205864,STD
2478215214000,2.925545,0.696793811907152,10.8510807584693,1.00899528286073,-0.4297437,0.08307768,-0.14630222,244.81293,-75.06351,14.08762,STD
2478219777000,2.930108,0.756192230244668,10.8556499607905,0.958735087867001,-0.4184427,0.08674286,-0.14172074,244.67792,-75.10784,13.973765,STD
2478224674000,2.935005,0.82225070519289,10.8580434652042,0.906096693074887,-0.42424592,0.09193522,-0.14538592,244.54636,-75.14949,13.863159,STD
2478229709000,2.94004,0.91343683084531,10.8352469504539,0.865062918916415,-0.40439278,0.09437868,-0.14752395,244.41476,-75.1902,13.756065,STD
2478235154000,2.945485,1.00648043034188,10.8064153808761,0.822689629976852,-0.41355577,0.089186326,-0.13836098,244.2915,-75.21921,13.661731,STD
2478239668000,2.949999,1.01802681794872,10.7332883397436,0.811143246388889,-0.41538838,0.057421334,-0.1469131,244.1763,-75.253914,13.564104,STD
2478244640000,2.954971,1.03074472649573,10.6527416741453,0.798425342268518,-0.4364632,0.018020526,-0.14049901,244.07281,-75.26635,13.491186,STD
2478249672000,2.960003,0.929855099931595,10.4541998556648,0.821730963340744,-0.47036624,-0.028099801,-0.15210545,243.98177,-75.28229,13.41319,STD
2478254669000,2.965,0.786637020803762,10.2127748959384,0.858558460246259,-0.4841107,-0.0852157,-0.15088372,243.90515,-75.29148,13.343498,STD
2478259666000,2.969997,0.6991069,10.0249059481015,0.894505547291581,-0.50885075,-0.14019357,-0.15943582,243.84012,-75.29134,13.279716,STD
2478264684000,2.975015,0.6991069,9.92078037711515,0.929214062324598,-0.52778757,-0.20005837,-0.16707164,243.79309,-75.28847,13.219614,STD
2478269668000,2.979999,0.678772982850262,9.85281438722513,0.927769935209424,-0.5476407,-0.25870144,-0.17592919,243.74557,-75.298584,13.136771,STD
2478274645000,2.984976,0.633854249759162,9.82785955287958,0.882851207329843,-0.5729916,-0.32162055,-0.17012598,243.71594,-75.30188,13.059635,STD
2478280158000,2.990489,0.653306460377394,9.81334188244174,0.812866595650533,-0.59131753,-0.37018433,-0.16493362,243.69101,-75.29743,12.986421,STD
2478284710000,2.995041,0.710888362775734,9.80922880535899,0.742945702509671,-0.6062838,-0.4016439,-0.1704314,243.67874,-75.289764,12.914812,STD
2478289680000,3.000011,0.795345307874329,9.81067961463512,0.664855869854842,-0.6224717,-0.4269948,-0.17959438,243.6904,-75.28443,12.840884,STD
2478294652000,3.004983,0.908964455299264,9.8201480664148,0.584375661026049,-0.63529986,-0.44135013,-0.17501289,243.70642,-75.27399,12.771571,STD
2478299714000,3.010045,1.01121644459923,9.81973643973349,0.499896569101555,-0.6569856,-0.45478916,-0.16340645,243.75224,-75.25736,12.714681,STD
2478304680000,3.015011,1.09283295037351,9.80533323500909,0.41347907529578,-0.6609562,-0.44837508,-0.15882497,243.795,-75.241165,12.658309,STD
2478309646000,3.019977,1.16955690619469,9.7751341020649,0.310068191362832,-0.6637051,-0.4392121,-0.16187929,243.85526,-75.21315,12.624776,STD
2478314777000,3.025108,1.24203265958702,9.72198561986234,0.179611744442478,-0.6753115,-0.42241332,-0.16218472,243.9097,-75.18149,12.593668,STD
2478319633000,3.029964,1.2968072931899,9.68666067244051,0.0664884852876288,-0.6719518,-0.4092797,-0.160963,243.98245,-75.15075,12.575507,STD
2478324660000,3.034991,1.33191911689306,9.67349349794877,-0.0344578176679734,-0.67103547,-0.3726278,-0.16432275,244.04227,-75.11955,12.5550165,STD
2478329648000,3.039979,1.3677080040274,9.66007251422047,-0.143201789964708,-0.6627888,-0.33261612,-0.16065755,244.11948,-75.087074,12.554072,STD
2478334676000,3.045007,1.40769318185593,9.64507828129541,-0.288148163973427,-0.6545421,-0.28985557,-0.1600467,244.18436,-75.05709,12.550039,STD
2478339671000,3.050002,1.4326529983294,9.63813593435535,-0.424882335257469,-0.65057147,-0.25137106,-0.14630222,244.26764,-75.023735,12.56082,STD
2478344655000,3.054986,1.4185813776533,9.65220731014151,-0.542145506208726,-0.6258314,-0.21868975,-0.13897185,244.33943,-74.997154,12.568564,STD
2478349684000,3.060015,1.40067204932772,9.66062525331007,-0.652238226015601,-0.6056729,-0.17470746,-0.13591751,244.43185,-74.96801,12.591331,STD
2478354668000,3.064999,1.37127821490301,9.65082759837832,-0.735520973440419,-0.5815437,-0.13958271,-0.11942416,244.51563,-74.939316,12.618725,STD
2478359666000,3.069997,1.32770614154772,9.60931413456578,-0.806782163305245,-0.5491679,-0.10415252,-0.10354166,244.61345,-74.92428,12.645648,STD
2478364686000,3.075017,1.2491648099914,9.48943519647463,-0.848119722359415,-0.5311473,-0.08368854,-0.08735373,244.70395,-74.90733,12.676179,STD
2478370087000,3.080418,1.16435467886932,9.36802978389081,-0.89159920673772,-0.4877759,-0.04642576,-0.06536258,244.79617,-74.90331,12.70724,STD
2478374657000,3.084988,1.08691880305839,9.40490378127896,-0.910036297840593,-0.45875978,-0.019547688,-0.052534413,244.88458,-74.89841,12.739502,STD
2478379682000,3.090013,1.00177322845227,9.44544904098913,-0.930309029304912,-0.42180246,-0.009468411,-0.057421334,244.97351,-74.910995,12.760376,STD
2478384670000,3.095001,0.927684570928479,9.41926809726411,-0.959835549046747,-0.37598756,-0.011911872,-0.06414085,245.05763,-74.926476,12.7835655,STD
2478389682000,3.100013,0.860473618537268,9.34688723772081,-0.996026059796424,-0.31306845,-0.040317107,-0.07360926,245.14658,-74.9515,12.805044,STD
2478394642000,3.104973,0.816610044316263,9.25263164575127,-1.03825088607203,-0.24617869,-0.06261369,-0.086132,245.24072,-74.99851,12.807276,STD
2478399711000,3.110042,0.780185461639467,9.14791082198462,-1.08378160253236,-0.19975294,-0.0729984,-0.1001819,245.33984,-75.05315,12.8073225,STD
2478404661000,3.114992,0.756252380434408,9.09517785054301,-1.08649462065161,-0.14538592,-0.099265605,-0.106901415,245.45934,-75.124794,12.800134,STD
2478409645000,3.119976,0.73979633106361,9.07460778882951,-1.06181054659541,-0.09285152,-0.105374254,-0.118507855,245.57637,-75.205284,12.78786,STD
2478414679000,3.12501,0.744358318163307,9.06654275157809,-1.02597422433313,-0.04062254,-0.12156218,-0.12217305,245.712,-75.293015,12.7776,STD
2478419758000,3.130089,0.803784841712482,9.09130378151089,-0.961595468942171,-0.0106901415,-0.13713925,-0.12797627,245.8495,-75.385445,12.764369,STD
2478424661000,3.134992,0.866201447960137,9.13098543164123,-0.880302706119589,0.04337143,-0.14935656,-0.1414153,245.99533,-75.487595,12.7441225,STD
2478430128000,3.140459,0.947728078366033,9.2125120052943,-0.744424998235233,0.0693332,-0.17806722,-0.12370021,246.14929,-75.580185,12.733058,STD
2478434645000,3.144976,1.00213651460152,9.27041514781784,-0.639766144961101,0.105068825,-0.183565,-0.13072516,246.29977,-75.67341,12.720796,STD
2478439665000,3.149996,1.04318777892789,9.32058942865275,-0.534857399097723,0.13622294,-0.1872302,-0.129198,246.45679,-75.75931,12.717406,STD
2478444628000,3.154959,1.07811811995362,9.36895134109835,-0.448655280013703,0.16523905,-0.1863139,-0.11789699,246.60655,-75.83025,12.720819,STD
2478449698000,3.160029,1.09859008200696,9.41501314883525,-0.407711318497945,0.1777618,-0.18570304,-0.110872045,246.75708,-75.90058,12.723917,STD
2478454654000,3.164985,1.09624021498258,9.4508816488877,-0.370032814971857,0.20311269,-0.1695151,-0.0983493,246.89194,-75.960175,12.7311125,STD
2478459646000,3.169977,1.05779949581882,9.47223757920129,-0.335863308630394,0.2144137,-0.15974127,-0.092240654,247.02792,-76.01669,12.738828,STD
2478464640000,3.174971,1.01568128761231,9.49409177287854,-0.312714215536606,0.2415972,-0.13744467,-0.089186326,247.15094,-76.06787,12.750648,STD
2478469677000,3.180008,0.950467202516639,9.51917410524126,-0.357862445218386,0.267559,-0.10873401,-0.09590584,247.26883,-76.118645,12.760899,STD
2478474639000,3.18497,0.881216642851316,9.54800157770753,-0.39581628212319,0.29871312,-0.0870483,-0.09468412,247.38141,-76.17119,12.764973,STD
2478479765000,3.190096,0.791105180220273,9.59305716265552,-0.410834855743422,0.32345316,-0.06963864,-0.10354166,247.48688,-76.22775,12.763815,STD
2478484689000,3.19502,0.724278898429613,9.63062166928398,-0.422565633856796,0.35246924,-0.040317107,-0.10842858,247.59097,-76.2955,12.753236,STD
2478489715000,3.200046,0.71078114273696,9.65311792877173,-0.427064885754347,0.38606682,-0.019547688,-0.106901415,247.69226,-76.36379,12.742312,STD
2478494679000,3.20501,0.69667024614433,9.66526503843299,-0.426570320006598,0.4269948,-0.01038471,-0.11362094,247.78769,-76.452034,12.711056,STD
2478499682000,3.210013,0.676912419175258,9.60599155752577,-0.391006206705155,0.45112398,-0.0067195175,-0.122478485,247.87863,-76.53835,12.680294,STD
2478504713000,3.215044,0.65704401472165,9.54638634416495,-0.35524305379299,0.48288897,-0.011301007,-0.13041973,247.9696,-76.6335,12.642646,STD
2478509652000,3.219983,0.704332632909873,9.58203278143443,-0.324848884093228,0.50518554,-0.011911872,-0.13805555,248.05858,-76.728065,12.603625,STD
2478514691000,3.225022,0.781567826021807,9.65926804511354,-0.295885677855357,0.537256,-0.010079277,-0.129198,248.14798,-76.81957,12.568361,STD
2478519741000,3.230072,0.821443333252195,9.73992308788907,-0.277109253919593,0.5403103,-0.015882496,-0.11881329,248.22827,-76.910904,12.527181,STD
2478524651000,3.234982,0.844898105438947,9.81966895281325,-0.263036387668595,0.54092115,-0.019547688,-0.10170906,248.30728,-76.99598,12.491786,STD
2478529715000,3.240046,0.864326478402356,9.83596413048911,-0.261571444295787,0.55741453,-0.018936822,-0.09682214,248.38527,-77.07006,12.465305,STD
2478534697000,3.245028,0.881360285017851,9.82318897340236,-0.2658299026196,0.55863625,-0.0106901415,-0.09560041,248.46188,-77.13544,12.443472,STD
2478539666000,3.249997,0.884665724127746,9.81024975983016,-0.2681506,0.5644395,-0.02107485,-0.08674286,248.54971,-77.19501,12.425466,STD
2478544650000,3.254981,0.871448757851209,9.79703300516891,-0.2681506,0.57787853,-0.03359759,-0.084910266,248.63582,-77.25332,12.406328,STD
2478549674000,3.260005,0.85041802067241,9.78174959256146,-0.273897890413953,0.5870415,-0.046120327,-0.08582657,248.72525,-77.30647,12.3904915,STD
2478554664000,3.264995,0.810251388428241,9.76166586488758,-0.293981209157386,0.59589905,-0.059864793,-0.087964594,248.81857,-77.35693,12.375506,STD
2478559711000,3.270042,0.76016147758883,9.75098451458835,-0.30645782,0.60231316,-0.07971791,-0.09101892,248.91757,-77.409386,12.356321,STD
2478564673000,3.275004,0.696099706790563,9.75556044853154,-0.30645782,0.6114761,-0.10415252,-0.09773844,249.02179,-77.46073,12.336274,STD
2478569713000,3.280044,0.639751994581658,9.76880308902929,-0.292119196461804,0.61453044,-0.12614368,-0.09987647,249.12823,-77.51707,12.30955,STD
2478574648000,3.284979,0.603557034070458,9.80047382711085,-0.246875521806433,0.6188065,-0.14049901,-0.10781772,249.23938,-77.57366,12.280349,STD
2478579749000,3.29008,0.56569129709531,9.84029423620777,-0.198428733360565,0.6197228,-0.14660765,-0.108123146,249.3471,-77.640816,12.238153,STD
2478584741000,3.295072,0.527117486263238,9.90297643651034,-0.145389742837115,0.61941737,-0.15821409,-0.1142318,249.46033,-77.70787,12.19361,STD
2478589663000,3.299994,0.499890556773446,9.97211294967365,-0.0930169202282721,0.6056729,-0.14996742,-0.106901415,249.55014,-77.77413,12.145913,STD
2478594653000,3.304984,0.508098768221402,10.0665072591893,-0.0396634776776022,0.57818395,-0.129198,-0.10262536,249.63937,-77.83888,12.097091,STD
2478599705000,3.310036,0.516408965462899,10.1620744038131,0.0143528733777053,0.56199604,-0.11484267,-0.09987647,249.71652,-77.90561,12.043182,STD
2478605123000,3.315454,0.555289390656514,10.1671008516468,0.0364908170664529,0.54000485,-0.09468412,-0.09773844,249.78554,-77.967224,11.991877,STD
2478609660000,3.319991,0.590115226122122,10.1639351337802,0.0523207406552026,0.5039638,-0.09254608,-0.08124508,249.85522,-78.02037,11.947129,STD
2478614690000,3.325021,0.623946632790089,10.1639003949509,0.0648563406520804,0.4908302,-0.08093964,-0.0729984,249.89908,-78.07815,11.895962,STD
2478619677000,3.330008,0.632877801896213,10.1817626678822,0.051459555284993,0.47952923,-0.06841691,-0.058948494,249.94171,-78.126495,11.852811,STD
2478624952000,3.335283,0.641646,10.1914178797868,0.03651606544394,0.46761733,-0.06627888,-0.0421497,249.98251,-78.158585,11.824762,STD
2478630169000,3.3405,0.641646,10.082932908409,0.0118604194334781,0.453262,-0.073303826,-0.03176499,250.02206,-78.186775,11.799917,STD
2478634768000,3.345099,0.641958692122311,9.98808784736979,-0.00999372939258875,0.44990227,-0.089186326,-0.03023783,250.06073,-78.21377,11.7761,STD
2478639849000,3.35018,0.667177559955083,9.94605647412974,-0.0436188512456595,0.44623706,-0.1151481,-0.032070424,250.10413,-78.23732,11.755132,STD
2478644623000,3.354954,0.690872674112464,9.906564685929,-0.0752123036618295,0.42424592,-0.13836098,-0.028099801,250.14737,-78.25979,11.73497,STD
2478649685000,3.360016,0.726399064493347,9.892841,-0.116515884752024,0.41447207,-0.17623462,-0.026572637,250.20221,-78.282295,11.714429,STD
2478654686000,3.365017,0.766507238055271,9.892841,-0.161080518423746,0.39950588,-0.22174409,-0.027488936,250.26563,-78.30303,11.695069,STD
2478659653000,3.369984,0.795403535090982,9.89789378938373,-0.192064703004926,0.3924809,-0.24404067,-0.030543262,250.33505,-78.31523,11.683976,STD
2478664681000,3.375012,0.814767016675379,9.90757573489494,-0.211428199753695,0.37140608,-0.26908615,-0.029932396,250.41785,-78.32573,11.67407,STD
2478669669000,3.38,0.813866734240536,9.92903757410554,-0.217831892924573,0.3585779,-0.28680122,-0.029932396,250.51459,-101.66841,11.668406,STD
2478675503000,3.385834,0.792769391989993,9.96595787760785,-0.212557555985085,0.3390302,-0.30451632,-0.037873644,250.61768,-101.661156,11.66088,STD
2478679756000,3.390087,0.760894471360326,9.99123427818235,-0.202555182371104,0.33444872,-0.31123585,-0.046731193,250.7179,-101.65598,11.654912,STD
2478684830000,3.395161,0.704276105151956,10.0195432962424,-0.183682390350519,0.3145956,-0.3051272,-0.046120327,250.81848,-101.65185,11.649675,STD
2478689634000,3.399965,0.65740557838432,10.0494639577333,-0.175264946524073,0.30298916,-0.29229903,-0.05467244,250.91486,-101.63821,11.634558,STD
2478694657000,3.404988,0.620512634287175,10.086357004559,-0.183463377118875,0.2828306,-0.26847526,-0.06414085,251.00513,-101.62513,11.619929,STD
2478699955000,3.410286,0.577410767640018,10.1229790328091,-0.196248805956313,0.25870144,-0.24923302,-0.076358154,251.07889,-101.59336,11.586489,STD
2478704779000,3.41511,0.484569703252075,10.1270154710791,-0.260833887812145,0.24129178,-0.23273966,-0.086132,251.14551,-101.56074,11.552195,STD
2478709627000,3.419958,0.391266743021407,10.1310719911315,-0.32574028848318,0.24129178,-0.21533,-0.09437868,251.20038,-101.5184,11.508022,STD
2478714701000,3.425032,0.36391866,10.0912037467726,-0.379505934029972,0.23426682,-0.18173242,-0.098043874,251.24486,-101.475845,11.463884,STD
2478719805000,3.430136,0.36391866,10.0338382333664,-0.428046181259366,0.226631,-0.18509217,-0.113926366,251.29427,-101.428955,11.415284,STD
2478724645000,3.434976,0.358843252807571,9.98238599053628,-0.495788573533123,0.21533,-0.20738874,-0.13072516,251.34895,-101.36564,11.3495865,STD
2478729713000,3.440044,0.348636045009464,9.93135000483701,-0.58765340108307,0.21533,-0.22082779,-0.13255776,251.40125,-101.30423,11.285606,STD
2478734694000,3.445025,0.339122079160166,9.97971047115477,-0.630956891882886,0.1994475,-0.22174409,-0.13164146,251.45782,-101.23929,11.217454,STD
2478739659000,3.44999,0.329963105453145,10.0896180600019,-0.644695385916402,0.21319197,-0.23732115,-0.13622294,251.52164,-101.17505,11.149131,STD
2478744632000,3.454963,0.289965298793735,10.2054920372254,-0.539192172013832,0.1957823,-0.24648413,-0.13530666,251.59915,-101.11509,11.084544,STD
2478749695000,3.460026,0.220923059724369,10.3287821636493,-0.322202280738405,0.19608775,-0.24587326,-0.13225232,251.67728,-101.05737,11.021167,STD
2478754676000,3.465007,0.202024042418136,10.3288192051928,-0.261307094516567,0.18936823,-0.2773328,-0.12186762,251.76787,-100.99588,10.953695,STD
2478759655000,3.469986,0.220502215075567,10.236427931893,-0.316741607665181,0.17165314,-0.28863382,-0.14752395,251.85103,-100.9272,10.879058,STD
2478764678000,3.475009,0.222440683409418,10.2218003974913,-0.270738274094181,0.16187929,-0.29138273,-0.15424347,251.88731,-100.84778,10.7969475,STD
2478769669000,3.48,0.207697363830969,10.285688379087,-0.123305078309685,0.15882497,-0.29168814,-0.15454891,251.92522,-100.76524,10.711951,STD
2478774644000,3.484975,0.254509712131057,10.2875225809875,-0.120566119841255,0.15088372,-0.31764993,-0.14844026,251.97733,-100.688034,10.630969,STD
2478779718000,3.490049,0.353175124291647,10.2381898140286,-0.237170704660821,0.14080444,-0.30451632,-0.15851954,252.0171,-100.608505,10.547987,STD
2478784685000,3.495016,0.440092524455206,10.2013318902341,-0.298913863841808,0.14202617,-0.26145032,-0.17470746,252.0239,-100.526184,10.465184,STD
2478789676000,3.500007,0.512425830641646,10.1820426218725,-0.279624988234463,0.13683382,-0.22113322,-0.1563815,252.02716,-100.4527,10.39185,STD
2478794651000,3.504982,0.578129426753221,10.1686786072588,-0.270040150585227,0.13194689,-0.20738874,-0.15210545,252.05185,-100.39106,10.327558,STD
2478799680000,3.510011,0.634974241280614,10.1639419392151,-0.274777214340513,0.11178834,-0.19333886,-0.15210545,252.06433,-100.334564,10.269327,STD
2478804651000,3.514982,0.6703765,10.1521396267907,-0.298382877919075,0.0870483,-0.19058995,-0.14935656,252.073,-100.29012,10.22374,STD
2478809654000,3.519985,0.6703765,10.1280567430678,-0.354576111213873,0.059253927,-0.21380283,-0.1337795,252.08502,-100.24993,10.183144,STD
2478815283000,3.525614,0.674606451364764,10.0955998411911,-0.417618866439206,0.043066,-0.24678956,-0.118202426,252.10277,-100.221924,10.155133,STD
2478819747000,3.530078,0.709966943672457,10.0292989181141,-0.466239571054591,0.006414085,-0.23487769,-0.12767084,252.11383,-100.190506,10.125374,STD
2478824857000,3.535188,0.745589965660124,9.9532245691998,-0.515396371343734,-0.0012217305,-0.21105394,-0.13194689,252.1505,-100.16157,10.095961,STD
2478829729000,3.54006,0.729935488357658,9.87886588374434,-0.495828266542526,0.0061086523,-0.19975294,-0.12522738,252.1866,-100.133385,10.067966,STD
2478834644000,3.544975,0.714142845512498,9.80385091268244,-0.476087454740815,0.004276057,-0.21166481,-0.11789699,252.23112,-100.11064,10.044458,STD
2478839708000,3.550039,0.612562768725327,9.77226571365909,-0.466436438821826,-0.00030543262,-0.22143865,-0.108123146,252.27124,-100.09139,10.02439,STD
2478844705000,3.555036,0.469823899905255,9.76386914045092,-0.462238244275814,-0.015577064,-0.22937989,-0.09407325,252.31369,-100.07572,10.008261,STD
2478849748000,3.560079,0.337319936832525,9.75713195543081,-0.477660856836778,-0.020158553,-0.23396139,-0.07941248,252.34914,-100.06282,9.995006,STD
2478854735000,3.565066,0.22357774558816,9.75306965220719,-0.52234528880837,-0.028405234,-0.23609942,-0.069027774,252.38568,-100.052536,9.9849415,STD
2478859790000,3.570121,0.110654225899081,9.74796974522386,-0.565641236724515,-0.03940081,-0.2574797,-0.05681047,252.43211,-100.016754,9.949754,STD
2478864649000,3.57498,0.0393980077672451,9.72761112337757,-0.575820703543824,-0.032986723,-0.27947086,-0.054061573,252.47849,-99.98265,9.9158945,STD
2478869706000,3.580037,-0.0347618389281027,9.70642290549803,-0.58641497473239,-0.03756821,-0.30451632,-0.054367006,252.53592,-99.93405,9.867056,STD
2478874640000,3.584971,-0.109008129787346,9.69533161072056,-0.599766469782074,-0.021380283,-0.32742378,-0.059864793,252.59805,-99.887085,9.818818,STD
2478879736000,3.590067,-0.190490097857645,9.70819699560633,-0.62120905854833,-0.00061086525,-0.36041048,-0.035430185,252.66948,-99.849976,9.780265,STD
2478884848000,3.595179,-0.273463717049822,9.72470948698238,-0.636687091616506,0.015271631,-0.37568212,-0.042455133,252.7361,-99.78849,9.716287,STD
2478889730000,3.600061,-0.375183863862499,9.8060854769744,-0.541748304447023,0.025350908,-0.40011674,-0.040927973,252.81404,-99.73851,9.663071,STD
2478894768000,3.605099,-0.480154388164479,9.89006176488505,-0.443775832148814,0.038789943,-0.44715336,-0.046731193,252.90279,-99.673004,9.592792,STD
2478899674000,3.610005,-0.554102534907104,9.9016204284153,-0.415415711768306,0.04734206,-0.49510628,-0.033292156,252.99782,-99.61553,9.530137,STD
2478904579000,3.61491,-0.548968742120219,9.71680378087432,-0.574563416817486,0.061086524,-0.5308419,-0.022907447,253.10156,-99.558235,9.466568,STD
2478909530000,3.619861,-0.534404206446132,9.56346658005197,-0.704797870677593,0.059253927,-0.5345071,-0.040317107,253.17456,-99.47047,9.376343,STD
2478914573000,3.624904,-0.505444075869478,9.45727982940236,-0.791678237207675,0.07452556,-0.5580254,-0.040927973,253.26254,-99.39392,9.295761,STD
2478919536000,3.629867,-0.475201439620128,9.39673599664529,-0.874854292412432,0.095294975,-0.57726765,-0.04795292,253.38242,-99.31964,9.212673,STD
2478924572000,3.634903,-0.441890970414406,9.40149473093241,-0.955751135550074,0.103847094,-0.6035349,-0.05497787,253.50954,-99.24781,9.13136,STD
2478929599000,3.63993,-0.404313504111769,9.41466444855662,-1.02604390005551,0.124311075,-0.6301075,-0.052839845,253.65646,-99.18892,9.057769,STD
2478934575000,3.644906,-0.360221917642487,9.44111901554404,-1.07895381670984,0.14630222,-0.64476824,-0.05375614,253.80582,-99.130455,8.983187,STD
2478939559000,3.64989,-0.310325011213115,9.47935521279746,-1.10083241915389,0.15668693,-0.6826419,-0.036651913,253.99678,-99.0886,8.921313,STD
2478944563000,3.654894,-0.239366486491803,9.56045070893707,-1.00960002569011,0.16584991,-0.6808093,-0.04153884,254.17844,-99.04436,8.85489,STD
2478949593000,3.659924,-0.188582702513493,9.63578795077238,-0.91709285445282,0.16646078,-0.6927212,-0.04795292,254.3899,-99.01582,8.800316,STD
2478954568000,3.664899,-0.179715290476456,9.69785971003164,-0.823985007230597,0.1731803,-0.713796,-0.044593163,254.6015,-98.99253,8.748579,STD
2478959558000,3.669889,-0.175838099598394,9.75955576675934,-0.732304692795799,0.18142697,-0.7495316,-0.043982297,254.81123,-98.970535,8.7008,STD
2478964736000,3.675067,-0.196263888594377,9.82083329904232,-0.645495125554526,0.1881465,-0.77121735,-0.029321533,255.02104,-98.95622,8.659393,STD
2478969621000,3.679952,-0.215270650395365,9.85609438066024,-0.597927941186094,0.19028452,-0.7840455,-0.024740042,255.21838,-98.93523,8.615106,STD
2478974616000,3.684947,-0.233903873094751,9.82348606339468,-0.653827609284254,0.17195857,-0.7883216,-0.009773844,255.4176,-98.9221,8.579213,STD
2478979793000,3.690124,-0.242862534466679,9.80218502605248,-0.720577426501793,0.1554652,-0.80481493,0.008552114,255.61237,-98.90322,8.541727,STD
2478984649000,3.69498,-0.216524056173306,9.82413374268454,-0.812762109696054,0.14813483,-0.7516697,0.008552114,255.689904891105,-98.8930394992876,8.52337046997761,STD
2478989619000,3.69995,-0.188936966883178,9.84430723,-0.897620695186916,0.14538592,-0.6945538,0.0030543262,255.76926,-98.88262,8.504583,STD
2478994608000,3.704939,-0.153214584542056,9.83537692,-0.86189828953271,0.15149458,-0.66920286,0.0067195175,255.97144,-98.86874,8.469597,STD
2479000518000,3.710849,-0.11492168,9.825804,-0.821849066903247,0.1563815,-0.6737844,0.005192355,256.1623,-98.86098,8.435472,STD
2479004744000,3.715075,-0.11492168,9.825804,-0.808642492834068,0.15974127,-0.67256266,0.004581489,256.3422,-98.85635,8.403989,STD
2479009626000,3.719957,-0.11492168,9.825804,-0.793385868459781,0.16554448,-0.6579019,0.004581489,256.51172,-98.85925,8.38183,STD
2479014741000,3.725072,-0.141873840219702,9.82825424592488,-0.78529817,0.17440203,-0.64904433,0.009773844,256.6807,-98.86514,8.361641,STD
2479019676000,3.730007,-0.194508945357902,9.83303935223246,-0.78529817,0.18325958,-0.6001751,-0.004581489,256.8318,-98.86733,8.337268,STD
2479024656000,3.734987,-0.253677914048382,9.84015389857185,-0.787684694045468,0.18112154,-0.5308419,-0.007941248,256.97552,-98.868935,8.314235,STD
2479029694000,3.740025,-0.319302261836199,9.84952850403187,-0.792372143613135,0.17195857,-0.46273044,-0.015271631,257.10358,-98.86682,8.287468,STD
2479034803000,3.745134,-0.393791618581589,9.854534,-0.79487497,0.17501289,-0.4156938,-0.030848695,257.21307,-98.85495,8.249684,STD
2479039661000,3.749992,-0.473017301586697,9.854534,-0.79487497,0.18142697,-0.36926803,-0.040927973,257.302,-98.843185,8.213455,STD
2479044648000,3.754979,-0.550405639459072,9.8760539664159,-0.78900588509314,0.18509217,-0.33628133,-0.053450707,257.38486,-98.81034,8.154815,STD
2479049692000,3.760023,-0.623949634931041,9.92364130118216,-0.776027514084721,0.1826487,-0.30543262,-0.06994407,257.45392,-98.77557,8.094526,STD
2479054648000,3.764979,-0.690847339143944,10.0014744359117,-0.750298629206084,0.18570304,-0.2843578,-0.08093964,257.5172,-98.72681,8.018786,STD
2479059651000,3.769982,-0.739728843930625,10.1881129703209,-0.679198278011501,0.17684549,-0.26358834,-0.09437868,257.57083,-98.673744,7.94035,STD
2479064724000,3.775055,-0.78529817,10.362105,-0.61291564,0.17134771,-0.24495697,-0.08979719,257.61957,-98.60447,7.8457065,STD
2479069652000,3.779983,-0.78529817,10.362105,-0.61291564,0.16646078,-0.21685717,-0.089491755,257.65878,-98.53259,7.749472,STD
2479074660000,3.784991,-0.808380269656766,10.3807905430763,-0.609618199323367,0.16584991,-0.18448131,-0.084910266,257.67578,-98.44499,7.645325,STD
2479080840000,3.791171,-0.930614524908536,10.4797422621951,-0.592156174146341,0.16035213,-0.13805555,-0.082161374,257.68042,-98.359,7.5447726,STD
2479084751000,3.795082,-1.011833236568,10.4818888756088,-0.587118561094043,0.14049901,-0.119729586,-0.06841691,257.68323,-98.277,7.4502935,STD
2479089712000,3.800043,-1.12753894254402,10.2860790048707,-0.600469208752342,0.13041973,-0.09437868,-0.064751714,257.6706,-98.196365,7.3576035,STD
2479094721000,3.805052,-1.23102640508936,10.0975844250213,-0.614167553858723,0.12095132,-0.06658431,-0.062308256,257.65503,-98.09994,7.254098,STD
2479099737000,3.810068,-1.17379051531915,10.0199072893617,-0.630520678638298,0.12583824,-0.049785517,-0.055588737,257.63568,-98.00903,7.1561794,STD
2479104633000,3.814964,-1.11792390520851,9.94408845838298,-0.646482580337021,0.110872045,-0.048258353,-0.054367006,257.6156,-97.90211,7.0419617,STD
2479109708000,3.820039,-1.04035974740422,9.89269011854525,-0.612713601860078,0.11575896,-0.06627888,-0.040011674,257.5969,-97.80634,6.936415,STD
2479114689000,3.82502,-0.956486017777161,9.85296058208403,-0.559740717564316,0.10567969,-0.0870483,-0.028710667,257.5787,-97.709015,6.833283,STD
2479119715000,3.830046,-0.863713372222222,9.80476792307692,-0.50290515042735,0.113926366,-0.12980886,-0.0143553335,257.57846,-97.63267,6.745869,STD
2479124702000,3.835033,-0.765351640160643,9.75066891010195,-0.443888106054989,0.113926366,-0.16493362,-0.009162978,257.582,-97.5566,6.661126,STD
2479129700000,3.840031,-0.67943935321363,9.72701106712916,-0.379031292613752,0.10842858,-0.20738874,0.0070249503,257.59827,-97.49542,6.597748,STD
2479134683000,3.845014,-0.601543045449908,9.72214244939808,-0.310872016965925,0.11484267,-0.21960606,0.017104227,257.6156,-97.43727,6.5357294,STD
2479139891000,3.850222,-0.548493243676643,9.720459,-0.284039807589984,0.106595986,-0.23884831,0.02321288,257.6415,-97.38818,6.491363,STD
2479144719000,3.85505,-0.51231419784331,9.720459,-0.279517429812207,0.10445796,-0.25289822,0.03390302,257.66913,-97.34577,6.4522963,STD
2479149688000,3.860019,-0.509688426440052,9.70584092353,-0.321581659938105,0.11484267,-0.2501493,0.037873644,257.68365,-97.30973,6.4258633,STD
2479154655000,3.864986,-0.528683346151542,9.6820973048817,-0.392812565468703,0.11209377,-0.25167647,0.035430185,257.70288,-97.2737,6.4010615,STD
2479159701000,3.870032,-0.550559961521061,9.67542680947738,-0.489821557683307,0.13469578,-0.24862215,0.040011674,257.72342,-97.25238,6.3883514,STD
2479164707000,3.875038,-0.573932378081123,9.68010138650546,-0.602009161076443,0.1432479,-0.2510656,0.04795292,257.74527,-97.22979,6.3762116,STD
2479169713000,3.880044,-0.591850680941891,9.67704159931637,-0.753428832586403,0.15607607,-0.31398472,0.08155051,257.79535,-97.22446,6.3702474,STD
2479174711000,3.885042,-0.605484799741739,9.66795199696164,-0.935217178161793,0.14996742,-0.3475823,0.0711658,257.8365,-97.209045,6.3548093,STD
2479179717000,3.890048,-0.60855481836975,9.70442575995211,-1.10842913601716,0.14019357,-0.31948254,0.046120327,257.9026,-97.20351,6.336758,STD
2479184685000,3.895016,-0.599061145337723,9.79461555462436,-1.2698217262596,0.12644911,-0.26053402,0.026267206,257.96835,-97.19582,6.317716,STD
2479189660000,3.899991,-0.59376204,9.91364130136986,-1.3659669832551,0.11728613,-0.2284636,0.02687807,258.07593,-97.20199,6.294828,STD
2479194713000,3.905044,-0.59376204,10.071253369863,-1.37987393901715,0.09560041,-0.21533,0.018325957,258.17044,-97.19814,6.2652373,STD
2479199733000,3.910064,-0.574507364236934,10.223080889995,-1.40789165931309,0.043066,-0.21838433,-0.0067195175,258.28595,-97.20469,6.236036,STD
2479204726000,3.915057,-0.522144294473868,10.3658896371329,-1.46025468434047,-0.0030543262,-0.21044308,-0.02321288,258.3935,-97.20982,6.208033,STD
2479209650000,3.919981,-0.44885394715847,10.4886443879781,-1.49251649726776,-0.021685716,-0.19150625,-0.043066,258.49817,-97.20498,6.172829,STD
2479214766000,3.925097,-0.330349646375526,10.5808144236316,-1.48812745231569,-0.032986723,-0.14446963,-0.06780604,258.59082,-97.1904,6.133363,STD
2479219774000,3.930105,-0.201770354673807,10.6646005841285,-1.47567118220058,-0.048258353,-0.112399206,-0.09040806,258.68976,-97.18028,6.0976024,STD
2479224714000,3.935045,0.00552508076923074,10.7060595461538,-1.41117931384615,-0.04734206,-0.07391469,-0.10354166,258.77185,-97.16834,6.0597334,STD
2479229833000,3.940164,0.222460578734573,10.7379340639666,-1.3388935646793,-0.054367006,-0.049785517,-0.12186762,258.84244,-97.166595,6.03878,STD
2479234788000,3.945119,0.453415927926299,10.6595743520772,-1.21516748167912,-0.049785517,-0.035124753,-0.12064589,258.9039,-97.16882,6.020923,STD
2479239630000,3.949961,0.679104283281766,10.5830016527899,-1.09426300258995,-0.053450707,-0.029932396,-0.108123146,258.96405,-97.18659,6.034603,STD
2479244706000,3.955037,0.912664815500744,10.4892234034659,-0.981241927344248,-0.07544186,-0.022602014,-0.09010262,259.0186,-97.20346,6.050074,STD
2479249692000,3.960023,1.14110927758877,10.392769270572,-0.874634504635339,-0.09254608,-0.0067195175,-0.061391957,259.06876,-97.22567,6.071896,STD
2479254726000,3.965057,1.27265716274163,10.2811434553037,-0.811854958325974,-0.13072516,-0.0030543262,-0.028710667,259.11554,-97.2748,6.152453,STD
2479259626000,3.969957,1.38777422681778,10.1706306891375,-0.756598719487783,-0.14172074,0.015577064,-0.0009162979,259.15265,-97.32963,6.2367015,STD
2479264753000,3.975084,1.40373213164155,10.0783643271709,-0.7469909,-0.17562376,0.003970624,0.0290161,259.18835,-97.400475,6.3574934,STD
2479269676000,3.980007,1.3990586000793,9.9942407102498,-0.7469909,-0.18295415,-0.0070249503,0.0580322,259.2177,-97.47836,6.4807677,STD
2479274721000,3.985052,1.25053504163493,9.82358156900088,-0.789740002402578,-0.18906279,-0.02321288,0.09101892,259.24066,-97.56584,6.6194954,STD
2479279680000,3.990011,1.07428029630823,9.63805060225608,-0.8407611332845,-0.19730948,-0.047647487,0.12339478,259.26855,-97.65729,6.7600245,STD
2479284752000,3.995083,0.901234728142659,9.52943055812876,-0.887351686368689,-0.1731803,-0.06566802,0.13897185,259.3041,-97.75654,6.9020133,STD
2479289789000,4.00012,0.731428522658638,9.44452712876332,-0.932037528689208,-0.16554448,-0.1020145,0.15241088,259.35114,-97.85788,7.045844,STD
2479294704000,4.005035,0.566245844532451,9.40243099630242,-0.988599119670137,-0.1554652,-0.121256754,0.16310102,259.40955,-97.95123,7.1702123,STD
2479299737000,4.010068,0.397402549117447,9.38367074223995,-1.05426042516299,-0.1469131,-0.11942416,0.17073683,259.47092,-98.04561,7.292503,STD
2479304722000,4.015053,0.222526145346295,9.38714785338938,-1.14803926064109,-0.13805555,-0.12339478,0.16584991,259.54486,-98.120514,7.3863893,STD
2479309734000,4.020065,0.0409221042902785,9.40732595995796,-1.26406408451918,-0.12522738,-0.12705997,0.16035213,259.61673,-98.19666,7.4788404,STD
2479314751000,4.025082,-0.0960926949694021,9.37420495315464,-1.36346640516289,-0.118507855,-0.11178834,0.14446963,259.69458,-98.246994,7.537412,STD
2479319738000,4.030069,-0.210321690740289,9.31512103364948,-1.45406174840412,-0.116675265,-0.10323623,0.12950343,259.774,-98.29588,7.5926924,STD
2479325538000,4.035869,-0.311988619106254,9.29301046570397,-1.55670431967997,-0.09896017,-0.076358154,0.095294975,259.8537,-98.320885,7.6100235,STD
2479329745000,4.040076,-0.343437243272514,9.34018354151624,-1.62746376920675,-0.08552113,-0.06383542,0.081855945,259.9342,-98.346725,7.628318,STD
2479334698000,4.045029,-0.386088240505895,9.40595908948906,-1.70858706616951,-0.080634214,-0.04886922,0.06261369,260.02502,-98.35705,7.620032,STD
2479339668000,4.049999,-0.45324072882596,9.51628076841681,-1.78053616795324,-0.06505715,-0.036957346,0.04795292,260.11215,-98.36819,7.6095276,STD
2479344658000,4.054989,-0.511800425883318,9.61822604175023,-1.85312782281677,-0.03145956,-0.03634648,0.018020526,260.21045,-98.37762,7.5867558,STD
2479349673000,4.060004,-0.533690905454877,9.68389739817685,-1.92755540581586,-0.010995574,-0.015882496,-0.00580322,260.2987,-98.38593,7.5625906,STD
2479355002000,4.065333,-0.552962505202011,9.75386204969651,-2.00311028323217,0.0030543262,-0.00580322,-0.018936822,260.3966,-98.39013,7.5235834,STD
2479359660000,4.069991,-0.519116705875379,9.81732288201821,-2.02426389400607,0.018936822,0.0009162979,-0.035430185,260.4884,-98.39174,7.478217,STD
2479364691000,4.075022,-0.482560626783005,9.88586548558422,-2.04711142852807,0.04184427,0.015882496,-0.057726767,260.5902,-98.39327,7.421781,STD
2479369677000,4.080008,-0.422479085606502,9.892841,-2.02930759351687,0.021380283,0.032070424,-0.06536258,260.68896,-98.39289,7.3665314,STD
2479374631000,4.084962,-0.360071015913746,9.892841,-2.00701901548436,0.02443461,0.053450707,-0.073303826,260.78082,-98.395424,7.306912,STD
2479379743000,4.090074,-0.260863760950337,9.90428231483752,-1.95197456459227,0.009162978,0.06383542,-0.09987647,260.87445,-98.39454,7.2465925,STD
2479384652000,4.094983,-0.155174415593705,9.91869478969957,-1.88952176094421,-0.0036651916,0.06719518,-0.11759156,260.96332,-98.396736,7.1885,STD
2479389671000,4.100002,-0.0459048029286619,9.94443079636978,-1.8280704924103,-0.011301007,0.09437868,-0.116675265,261.04654,-98.40233,7.140429,STD
2479395375000,4.105706,0.0786122842946391,9.97671269151541,-1.7588943355171,-0.014966198,0.1151481,-0.13225232,261.12912,-98.40006,7.084221,STD
2479399650000,4.109981,0.194888281023459,10.0067742367703,-1.68117730585925,-0.029321533,0.13255776,-0.13836098,261.19714,-98.40412,7.046917,STD
2479404653000,4.114984,0.356950004212766,10.0485969148936,-1.5609379387234,-0.029321533,0.15760323,-0.1432479,261.25604,-98.40746,7.0074773,STD
2479409653000,4.119984,0.500397062791153,10.172462217753,-1.37485470931689,-0.0143553335,0.18509217,-0.1563815,261.2964,-98.41937,6.987978,STD
2479414669000,4.125,0.632031767195146,10.3511094778822,-1.14449405024467,-0.014049901,0.21135938,-0.14569137,261.3299,-98.43366,6.9750314,STD
2479419671000,4.130002,0.758273495950752,10.4021366347469,-1.03405149655267,-0.009468411,0.26389378,-0.15454891,261.33725,-98.44722,6.9755087,STD
2479424654000,4.134985,0.880133453980848,10.3542630246238,-1.01664289865937,-0.020463986,0.2932153,-0.14721853,261.34406,-98.4641,6.98342,STD
2479429703000,4.140034,0.968466445367316,10.2986311106447,-1.01275521568216,-0.035430185,0.32559118,-0.14385876,261.28674,-98.46547,7.0063534,STD
2479434706000,4.145037,0.997199716971514,10.2315864101949,-1.03191078008996,-0.04184427,0.36468655,-0.13255776,261.2199,-98.46927,7.033083,STD
