timestamp,rel_time,acc_x,acc_y,acc_z,gyro_x,gyro_y,gyro_z,azimuth,pitch,roll,label
8336605304000,0,-1.41621329722837,9.76087171828158,-1.17532180394492,-0.010079277,-0.07819075,0.005192355,219.75583,-32.394794,24.992874,STD
8336611050000,0.005746,-1.41291501338415,9.76004713010035,-1.17009952119157,-0.009162978,-0.074830994,0.015271631,220.08,-32.779976,24.975485,STD
8336615294000,0.00999,-1.41047889841114,9.75943808863826,-1.16624233915098,-0.009468411,-0.08246681,0.014660766,220.41046,-33.1593,24.958876,STD
8336620310000,0.015006,-1.40759964471072,9.75871826018071,-1.16168352079198,-0.007330383,-0.08368854,0.024740042,220.73398,-33.52995,24.944729,STD
8336625302000,0.019998,-1.4047341673438,9.75800187587847,-1.15714651496102,0.0009162979,-0.07788532,0.01985312,221.06174,-33.897884,24.929138,STD
8336630299000,0.024995,-1.4018658199074,9.75728477404386,-1.15260496485338,-0.0030543262,-0.07971791,0.014049901,221.38928,-34.25573,24.918219,STD
8336635283000,0.029979,-1.39900493465164,9.75656953779338,-1.14807522986509,-0.003970624,-0.08735373,0.022907447,221.7148,-34.60869,24.910166,STD
8336640308000,0.035004,-1.39612051482615,9.7558484177776,-1.14350823180808,0.0021380284,-0.08674286,0.02443461,222.04274,-34.958195,24.899508,STD
8336645295000,0.039991,-1.39325790752871,9.75513275100771,-1.13897577025379,0.003970624,-0.09040806,0.031154128,222.3702,-35.29838,24.895147,STD
8336650290000,0.044986,-1.3903907081201,9.75441593618605,-1.13443603785682,0.015271631,-0.0852157,0.018936822,222.70058,-35.639057,24.886614,STD
8336655306000,0.050002,-1.38751145441968,9.7536961077285,-1.12987721949782,0.01038471,-0.0842994,0.016493361,223.0293,-35.968,24.883917,STD
8336660304000,0.055,-1.38464253296938,9.75297886238743,-1.12533476053485,0.02321288,-0.082161374,0.0106901415,223.3612,-36.300587,24.878057,STD
8336665293000,0.059989,-1.38177877764414,9.75226290860459,-1.12080048126989,0.01038471,-0.08735373,0.0125227375,223.69395,-36.6193,24.87572,STD
8336670313000,0.065009,-1.37889722788814,9.75154250612116,-1.11623802748955,0.015882496,-0.084910266,0.018325957,224.02592,-36.940266,24.872108,STD
8336675261000,0.069957,-1.37605700713262,9.75083243610363,-1.11174101129331,0.0076358155,-0.08460484,0.017104227,224.36154,-37.25012,24.87027,STD
8336680496000,0.075192,-1.37305204438906,9.75008117972898,-1.10698315361601,0.015577064,-0.089491755,0.01282817,224.69806,-37.559494,24.870668,STD
8336685295000,0.079991,-1.37029735170399,9.7493924921756,-1.10262155686464,0.008246681,-0.09254608,0.016798794,225.0335,-37.856907,24.873138,STD
8336690307000,0.085003,-1.36982798987923,9.74936129898757,-1.10581248282278,0.015271631,-0.09010262,0.020463986,225.371,-38.1553,24.875767,STD
8336695294000,0.08999,-1.37030613949742,9.74960037941357,-1.11202844783035,0.015271631,-0.09132435,0.023823744,225.71028,-38.44469,24.881666,STD
8336700290000,0.094986,-1.37078515202848,9.74983989130614,-1.11825563074149,0.017104227,-0.08368854,0.018020526,226.03976,-38.78736,24.862127,STD
8336705307000,0.100003,-1.37126617802295,9.75008040995407,-1.12450898876093,0.00580322,-0.089186326,0.013744468,226.37196,-39.12005,24.847889,STD
8336710297000,0.104993,-1.37174461527876,9.75031963420226,-1.13072869306969,0.009468411,-0.07544186,0.018936822,226.69817,-39.450264,24.830276,STD
8336715289000,0.109985,-1.37222324429299,9.75055895433191,-1.13695089024591,0.009468411,-0.06383542,0.020158553,227.0287,-39.77235,24.81406,STD
8336720311000,0.115007,-1.37270474968351,9.7507997126835,-1.143210480434,0.010079277,-0.06352998,0.024129177,227.35773,-40.08845,24.800451,STD
8336725299000,0.119995,-1.3731829951809,9.75103884105022,-1.14942769187531,0.015271631,-0.040317107,0.018325957,227.68175,-40.401215,24.779781,STD
8336730303000,0.124999,-1.37366277474564,9.75127873646865,-1.15566484625627,0.0067195175,-0.038789943,0.0143553335,228.01015,-40.704273,24.766212,STD
8336735343000,0.130039,-1.37414600596193,9.75152035775339,-1.16194687225149,0.0027488936,-0.030848695,0.02443461,228.33096,-41.002728,24.750168,STD
8336740311000,0.135007,-1.37462233387513,9.75175852730549,-1.16813915501821,0.011911872,-0.029932396,0.017715093,228.65845,-41.30006,24.732697,STD
8336745308000,0.140004,-1.37510144228541,9.7519980871388,-1.17436758436307,0.0070249503,-0.03573562,0.0125227375,228.9841,-41.585903,24.719109,STD
8336750338000,0.145034,-1.3755837147096,9.75223922901623,-1.180637146021,0.0015271631,-0.03848451,0.016493361,229.30937,-41.8681,24.707005,STD
8336755302000,0.149998,-1.37605965910596,9.75247720680541,-1.1868244430528,0.0021380284,-0.04062254,0.018936822,229.63841,-42.146473,24.696262,STD
8336760291000,0.154987,-1.37653800048256,9.75271638311287,-1.19304290092783,0.003970624,-0.038179077,0.011911872,229.9694,-42.419697,24.68572,STD
8336765294000,0.15999,-1.3770176841681,9.75295623059056,-1.19927880887507,0.008552114,-0.038789943,0.010079277,230.3013,-42.687576,24.679466,STD
8336770312000,0.165008,-1.37749880604177,9.75319679717922,-1.20553341332824,0.01160644,-0.019547688,0.013133603,230.62975,-42.95103,24.67023,STD
8336775301000,0.169997,-1.37797714741837,9.75343597348668,-1.21175187120327,0.014966198,-0.021685716,0.0061086523,230.96725,-43.212833,24.664307,STD
8336780301000,0.174997,-1.37845654346628,9.75367567714218,-1.21798403984932,0.013744468,-0.02443461,0.0106901415,231.29874,-43.46719,24.65972,STD
8336785320000,0.180016,-1.37893776121917,9.75391629167157,-1.22423989073623,0.013439035,-0.0125227375,0.014049901,231.63039,-43.719288,24.65275,STD
8336790308000,0.185004,-1.37941600671656,9.75415542003829,-1.23045710217753,0.020463986,-0.013744468,0.0036651916,231.96925,-43.969852,24.648403,STD
8336795296000,0.189992,-1.37989425221395,9.75439454840502,-1.23667431361883,0.010079277,-0.016798794,0.0076358155,232.30368,-44.208973,24.647717,STD
8336800289000,0.194985,-1.38037297710739,9.7546339164754,-1.24289775722878,0.016493361,-0.018020526,0.012217305,232.64157,-44.450916,24.646463,STD
8336805302000,0.199998,-1.38085361958502,9.7548742433604,-1.24914612951331,0.01282817,-0.015577064,0.01863139,232.97987,-44.682972,24.64803,STD
8336810294000,0.20499,-1.38133224859925,9.75511356349006,-1.25536832668953,0.020463986,-0.017715093,0.010079277,233.32346,-44.91681,24.649916,STD
8336815292000,0.209988,-1.38181145288873,9.75535317126409,-1.26159800246812,0.018020526,-0.014660766,0.02687807,233.66072,-45.13817,24.659014,STD
8336820347000,0.215043,-1.38229612229317,9.75559551165981,-1.26789872496928,0.014660766,-0.017104227,0.01863139,234.00842,-45.362854,24.663507,STD
8336825301000,0.219997,-1.38277110789743,9.75583301004167,-1.27407355766378,0.025045475,-0.005192355,0.022296581,234.34818,-45.58154,24.67274,STD
8336830299000,0.224995,-1.38325031218692,9.75607261781571,-1.28030323344238,0.008857546,0.0030543262,0.022602014,234.69376,-45.791676,24.681898,STD
8336835309000,0.230005,-1.38373066702692,9.75631280087852,-1.28654786642572,0.014660766,0.0018325958,0.017104227,235.0412,-46.006012,24.691536,STD
8336840308000,0.235004,-1.38420996719562,9.75655245659329,-1.29277878863804,0.016798794,-0.009162978,0.005497787,235.39221,-46.21337,24.701525,STD
8336845301000,0.239997,-1.38468869208905,9.75679182466367,-1.29900223224799,-0.0030543262,-0.0021380284,0.009773844,235.73915,-46.41187,24.712376,STD
8336850292000,0.244988,-1.38516722522407,9.75703109685259,-1.30522318299048,0.0012217305,0.004886922,0.0070249503,236.09457,-46.616276,24.722307,STD
8336855306000,0.250002,-1.38564796358091,9.75727147167833,-1.31147280170874,0.004581489,0.004886922,-0.00030543262,236.273281817182,-46.7142498307831,24.7289236346635,STD
8336860291000,0.254987,-1.38612592144067,9.75751045622286,-1.31768627384885,0.005192355,0.004276057,0.0076358155,236.45096,-46.811657,24.735502,STD
8336865319000,0.260015,-1.38660800210645,9.75775150221883,-1.32395334263932,0.008552114,0.0067195175,0.00061086525,236.80896,-47.006622,24.745998,STD
8336870354000,0.26505,-1.38709075392669,9.75799288379992,-1.33022913646589,-0.007941248,0.004581489,0.0067195175,237.168,-47.192608,24.76191,STD
8336875267000,0.269963,-1.38756180848336,9.75822841661181,-1.3363528653775,0.0012217305,0.006414085,0.0067195175,237.53018,-47.384514,24.775078,STD
8336880261000,0.274957,-1.38804062925601,9.75846783262292,-1.34257755542118,0.0036651916,0.002443461,0.0067195175,237.711556506228,-47.4758009359243,24.7831689269557,STD
8336885302000,0.279998,-1.38852395635151,9.7587095018484,-1.34886082785013,0.005497787,0.0070249503,0.00580322,237.89464,-47.567947,24.791336,STD
8336890254000,0.28495,-1.38899875019735,9.75894690434881,-1.35503316767717,0.002443461,0.008857546,0.009468411,238.25989,-47.74827,24.80942,STD
8336895298000,0.289994,-1.38948236493048,9.75918871739647,-1.36132017940731,0.0027488936,0.015271631,0.008857546,238.62723,-47.928585,24.826674,STD
8336900283000,0.294979,-1.38996032279024,9.75942770194101,-1.36753365154742,0.0030543262,0.021991149,0.008857546,238.99574,-48.104908,24.845766,STD
8336905310000,0.300006,-1.39044230757681,9.75966869999625,-1.37379947390416,0.009162978,0.018936822,0.0143553335,239.36676,-48.279243,24.867733,STD
8336910287000,0.304983,-1.39091949840289,9.75990730101493,-1.38000297457444,0.0125227375,0.030848695,0.007330383,239.73695,-48.452892,24.884378,STD
8336915291000,0.309987,-1.39139927796764,9.76014719643335,-1.38624012895541,0.004581489,0.03359759,0.01038471,240.11014,-48.620243,24.907747,STD
8336920346000,0.315042,-1.39188394737207,9.76038953682906,-1.39254085145657,0.005192355,0.036957346,0.0070249503,240.48505,-48.79036,24.92702,STD
8336925308000,0.320004,-1.39235970001001,9.76062741873678,-1.39872565562091,0.004886922,0.040927973,0.010079277,240.85999,-48.954597,24.94909,STD
8336930259000,0.324955,-1.39283439797665,9.76086477329646,-1.40489674901423,0.00030543262,0.042760566,0.014966198,241.23755,-49.11618,24.971668,STD
8336936221000,0.330917,-1.39340602982417,9.76115059593527,-1.41232798690778,0.0125227375,0.04153884,0.0125227375,241.61829,-49.28009,24.99411,STD
8336940304000,0.335,-1.39379750463689,9.76134633794036,-1.41741717582415,0.004886922,0.03970624,0.014966198,241.99968,-49.434925,25.01965,STD
8336945299000,0.339995,-1.39427642128875,9.7615858018922,-1.42364311230155,0.008552114,0.038179077,0.009773844,242.3858,-49.594814,25.04382,STD
8336950287000,0.344983,-1.39475466678614,9.76182493025892,-1.42986032374285,-0.00061086525,0.043066,0.006414085,242.77277,-49.74766,25.069166,STD
8336955303000,0.349999,-1.3952355969014,9.76206540096612,-1.43611243532857,0.004276057,0.03573562,0.014049901,243.16522,-49.901474,25.098873,STD
8336960258000,0.354954,-1.39571067838487,9.76230294728872,-1.44228851445681,0.0018325958,0.032070424,0.009468411,243.56085,-50.052975,25.12434,STD
8336965288000,0.359984,-1.39619295080907,9.76254408916616,-1.44855807611473,0.0018325958,0.033292156,0.0021380284,243.95917,-50.20354,25.152082,STD
8336970344000,0.36504,-1.39667771609271,9.7627864775026,-1.45486004504962,0.00030543262,0.03023783,0.005497787,244.36153,-50.35058,25.183203,STD
8336975295000,0.369991,-1.39715241405934,9.76302383206227,-1.46103113844294,0.005497787,0.031154128,0.0061086523,244.76709,-50.499466,25.211803,STD
8336980274000,0.37497,-1.39762979664385,9.76326252896242,-1.46723713198068,-0.002443461,0.027183503,0.00580322,245.17737,-50.643387,25.242807,STD
8336985286000,0.379982,-1.39811034324227,9.76350280790669,-1.47348425783148,0.0009162979,0.03176499,0.010079277,245.5872,-50.788437,25.274256,STD
8336990306000,0.385002,-1.39859165687437,9.76374347037681,-1.47974135515211,0.011911872,0.04062254,0.0027488936,246.00192,-50.934464,25.303282,STD
8336995299000,0.389995,-1.39907038176781,9.76398283844719,-1.48596479876206,0.0036651916,0.04337143,0.0030543262,246.41815,-51.073635,25.335934,STD
8337000294000,0.39499,-1.39954929841966,9.76422230239904,-1.49219073523947,-0.0033597588,0.042455133,-0.004886922,246.83847,-51.217186,25.364466,STD
8337005568000,0.400264,-1.40005496537099,9.76447514181486,-1.49876442672732,-0.0018325958,0.050396383,0.0027488936,247.2561,-51.35654,25.395718,STD
8337010306000,0.405002,-1.40050924106599,9.76470228499881,-1.50467002973632,0.010079277,0.06047566,-0.0027488936,247.67978,-51.49964,25.42208,STD
8337015289000,0.409985,-1.40098700716733,9.76494117366188,-1.51088100900897,0.004886922,0.065973446,0.0009162979,248.1029,-51.635174,25.452559,STD
8337020307000,0.415003,-1.40146812904101,9.76518174025054,-1.51713561346215,0.0012217305,0.059864793,-0.0030543262,248.53152,-51.77504,25.480406,STD
8337025303000,0.419999,-1.40194714157208,9.76542125214312,-1.52336279637328,0.002443461,0.06047566,-0.00061086525,248.95822,-51.91185,25.509415,STD
8337030296000,0.424992,-1.40242586646552,9.7656606202135,-1.52958623998323,0.008857546,0.053450707,0.0033597588,249.39214,-52.048542,25.540092,STD
8337035348000,0.430044,-1.40291024823232,9.76590281678702,-1.5358832231832,0.0030543262,0.05467244,0.007941248,249.8262,-52.181503,25.570593,STD
8337040305000,0.435001,-1.40338552147421,9.76614045899108,-1.5420617951789,0.010079277,0.054367006,0.01038471,250.26547,-52.31721,25.602905,STD
8337045290000,0.439986,-1.40386347933398,9.76637944353561,-1.54827526731901,0.0076358155,0.04734206,0.010079277,250.70908,-52.44874,25.636532,STD
8337050298000,0.444994,-1.40434364241556,9.76661953071696,-1.55451740743489,0.005497787,0.042760566,0.00580322,251.15549,-52.58138,25.669502,STD
8337055314000,0.45001,-1.40482457253082,9.76686000142415,-1.56076951902061,0.0033597588,0.05497787,0.0033597588,251.60204,-52.712605,25.701498,STD
8337060286000,0.454982,-1.40530128396085,9.76709836273918,-1.56696678752224,-0.002443461,0.06047566,0.0021380284,252.05536,-52.842728,25.734194,STD
8337065287000,0.459983,-1.40578077588797,9.76733811433541,-1.57320020260202,0.004581489,0.08155051,0.0021380284,252.50418,-52.974697,25.762838,STD
8337070343000,0.465039,-1.40626554117161,9.76758050267186,-1.57950217153691,-0.0033597588,0.0729984,-0.006414085,252.96436,-53.104088,25.792164,STD
8337075288000,0.469984,-1.40673966386299,9.76781756958714,-1.58566578632786,-0.004886922,0.07513642,0.0030543262,253.41595,-53.23188,25.821856,STD
8337080300000,0.474996,-1.40722021046141,9.76805784853142,-1.59191291217866,-0.0015271631,0.084910266,0.004276057,253.87335,-53.362106,25.847383,STD
8337085294000,0.47999,-1.40769903123406,9.76829726454253,-1.59813760222233,-0.008552114,0.07696902,-0.0018325958,254.33792,-53.489212,25.87534,STD
8337090302000,0.484998,-1.40817700631505,9.76814974482457,-1.59507517291054,-0.007941248,0.074830994,-0.0012217305,254.79997,-53.616436,25.903158,STD
8337095298000,0.489994,-1.40865332243493,9.76791158427783,-1.5898357478146,-0.0012217305,0.076358154,0.0070249503,255.26608,-53.742836,25.931759,STD
8337100333000,0.495029,-1.40913335679514,9.76767156459151,-1.58455542248272,0.0030543262,0.08246681,0.005497787,255.65872,-54.154427,25.773672,STD
8337105309000,0.500005,-1.40960776612511,9.76743435744969,-1.57933697186674,-0.017104227,0.07696902,0.0018325958,256.0513,-54.555843,25.619698,STD
8337110289000,0.504985,-1.41008255681306,9.76719695962688,-1.57411432635477,-0.007330383,0.06811147,-0.0018325958,256.4413,-54.95854,25.466349,STD
8337115291000,0.509987,-1.41055944496991,9.76695851305867,-1.56886860891484,-0.008857546,0.059864793,-0.002443461,256.831,-55.349804,25.31492,STD
8337120307000,0.515003,-1.4110376678797,9.76671939910702,-1.56360820933893,-0.0033597588,0.05497787,-0.007941248,257.22168,-55.740444,25.163437,STD
8337125307000,0.520003,-1.41151436535756,9.7664810478793,-1.55836458934699,-0.009773844,0.04734206,-0.0067195175,257.61322,-56.121582,25.016384,STD
8337130258000,0.524954,-1.41198639120014,9.76624503249362,-1.55317235683098,-0.005497787,0.034208454,0.0009162979,258.0063,-56.499813,24.872349,STD
8337135309000,0.530005,-1.41246795099228,9.76600425008337,-1.54787525191512,0.0015271631,0.03023783,0.0021380284,258.39835,-56.87276,24.728395,STD
8337140302000,0.534998,-1.41294398109367,9.76576623254737,-1.54263897299117,0.0030543262,0.033292156,-0.006414085,258.79132,-57.24028,24.58614,STD
8337145281000,0.539977,-1.41341867644213,9.76552888239481,-1.5374173762032,-0.011301007,0.040011674,-0.00061086525,259.18158,-57.597042,24.449652,STD
8337150282000,0.544978,-1.41389546925949,9.76529048349685,-1.53217270748727,0.00030543262,0.03268129,-0.00061086525,259.376942626383,-57.7766930391864,24.3801670717918,STD
8337155310000,0.550006,-1.41437483624322,9.76505079750225,-1.52689972322338,0.002443461,0.042760566,-0.0036651916,259.57336,-57.957314,24.310307,STD
8337160303000,0.554999,-1.41485086634462,9.76481277996625,-1.52166344429943,0.0012217305,0.043066,-0.0033597588,259.9621,-58.304554,24.174667,STD
8337165292000,0.559988,-1.41532651508803,9.76457495311123,-1.51643136027148,-0.01038471,0.047647487,0.0030543262,260.34784,-58.64604,24.04086,STD
8337170310000,0.565006,-1.41580492867681,9.76433574381909,-1.51116886324757,0.0009162979,0.054367006,0.00061086525,260.73334,-58.98762,23.906303,STD
8337175306000,0.570002,-1.41628124479669,9.76409758327236,-1.50592943815163,-0.0012217305,0.061391957,0.007941248,261.11526,-59.315517,23.777412,STD
8337180302000,0.574998,-1.41675756091657,9.76385942272562,-1.50069001305568,0.0018325958,0.046120327,0.0067195175,261.5027,-59.643196,23.648863,STD
8337185342000,0.580038,-1.41723807197426,9.76361916468808,-1.49540444410381,-0.0030543262,0.04917465,0.0067195175,261.695450375188,-59.804223873937,23.5849898874437,STD
8337190297000,0.584993,-1.41771047917482,9.76338295862141,-1.4902080166918,-0.0015271631,0.038789943,0.003970624,261.88495,-59.962536,23.522194,STD
8337195305000,0.590001,-1.41818793936864,9.76314422603173,-1.48495600690788,-0.00030543262,0.03756821,0.0070249503,262.26938,-60.27665,23.39939,STD
8337200287000,0.594983,-1.41866292073559,9.76290673286843,-1.47973126394791,-0.0015271631,0.034513887,0.008857546,262.65704,-60.58524,23.278095,STD
8337205304000,0.6,-1.41914123898487,9.76266757124653,-1.47446981564801,-0.0015271631,0.02321288,0.01282817,263.04715,-60.887684,23.160748,STD
8337210300000,0.604996,-1.41961755510475,9.7624294106998,-1.46923039055206,-0.0036651916,0.022602014,0.013439035,263.4355,-61.184612,23.043953,STD
8337215290000,0.609986,-1.42009329918766,9.76219153617453,-1.46399725780011,0.006414085,0.022602014,0.01038471,263.82727,-61.478294,22.92978,STD
8337220312000,0.615008,-1.42057209413442,9.76195213620141,-1.45873056588021,0.013133603,0.032070424,0.005497787,264.21707,-61.76619,22.8161,STD
8337225303000,0.619999,-1.42104793355683,9.7617142140059,-1.45349638440426,0.0033597588,0.033292156,0.0033597588,264.60986,-62.04799,22.70459,STD
8337230298000,0.624994,-1.42152415433721,9.76147610112941,-1.44825800803231,0.0106901415,0.031154128,-0.00030543262,265.00198,-62.33005,22.592384,STD
8337235304000,0.63,-1.42200142385205,9.76123746388022,-1.44300809569639,0.0033597588,0.035124753,0.002443461,265.3922,-62.60213,22.482347,STD
8337240309000,0.635005,-1.42247859802739,9.76099887430127,-1.43775923208446,0.0012217305,0.03481932,-0.0018325958,265.78595,-62.873764,22.371464,STD
8337245300000,0.639996,-1.42295443744979,9.76076095210576,-1.43252505060851,0.005497787,0.03726278,-0.013439035,266.17886,-63.141476,22.260328,STD
8337250292000,0.644988,-1.42343037221169,9.76052298224001,-1.42728982040856,0.006414085,0.033292156,-0.0033597588,266.57315,-63.399315,22.156069,STD
8337255306000,0.650002,-1.42390840444249,9.76028396362885,-1.42203151828065,0.004886922,0.03359759,-0.0018325958,266.96793,-63.657467,22.047323,STD
8337260909000,0.655605,-1.42444259163618,9.76001686724307,-1.41615551771768,0.0018325958,0.021380283,0.007941248,267.36716,-63.9064,21.946335,STD
8337265291000,0.659987,-1.42486036930578,9.7598079762271,-1.41156000915675,0.0021380284,0.02565634,0.0018325958,267.7635,-64.154495,21.841589,STD
8337270431000,0.665127,-1.42535041431302,9.759562951165,-1.40616956780504,-0.004581489,0.018325957,0.007330383,268.16635,-64.39142,21.745768,STD
8337275339000,0.670035,-1.42581834055729,9.75932898559987,-1.40102243042095,-0.0021380284,0.0067195175,0.004581489,268.57147,-64.62884,21.647245,STD
8337280297000,0.674993,-1.42629103377634,9.75909263652247,-1.39582285683695,0.004581489,0.007330383,0.01160644,268.97516,-64.85784,21.553883,STD
8337285341000,0.680037,-1.42677192619201,9.75885218780394,-1.39053309298908,0.00580322,0.01160644,0.009468411,269.38333,-65.08514,21.458912,STD
8337290308000,0.685004,-1.42785509776463,9.75800700054191,-1.38620820014902,0.0027488936,0.009468411,0.01160644,269.79373,-65.30585,21.36855,STD
8337295299000,0.689995,-1.42929409480271,9.75680783425658,-1.38237086553167,0.0067195175,0.010079277,0.008246681,270.20383,-65.52553,21.27667,STD
8337300287000,0.694983,-1.43073222688564,9.75560938876846,-1.37853583746688,0.004581489,0.030543262,0.0061086523,270.4918,-65.86114,21.065447,STD
8337305309000,0.700005,-1.43218016179351,9.75440277424534,-1.37467466847302,0.0009162979,0.03848451,0.005497787,270.78198,-66.19206,20.856998,STD
8337310296000,0.704992,-1.43361800555806,9.75320456902296,-1.37084040925909,-0.0012217305,0.046120327,0.005497787,270.923806243238,-66.3555388759767,20.7532971769185,STD
8337315291000,0.709987,-1.43505815586966,9.75200444167469,-1.36699999923832,0.007941248,0.043066,0.004276057,271.06586,-66.51928,20.64943,STD
8337320916000,0.715612,-1.4366799467611,9.75065294691314,-1.36267521317889,0.0018325958,0.043066,0.0021380284,271.34756,-66.83911,20.443966,STD
8337325301000,0.719997,-1.43794422286047,9.74959938166345,-1.35930380217967,-0.00061086525,0.029626964,0.009773844,271.6303,-67.15263,20.244112,STD
8337330755000,0.725451,-1.43951671130881,9.74828897234265,-1.35511048961645,0.004886922,0.019547688,0.0018325958,271.91202,-67.46538,20.04184,STD
8337335308000,0.730004,-1.44082942489613,9.74719504244942,-1.35160991167359,0.0030543262,0.014660766,0.004581489,272.19427,-67.76668,19.847887,STD
8337340247000,0.734943,-1.44225342937841,9.74600836998234,-1.3478125573007,0.0027488936,0.012217305,0.0027488936,272.47873,-68.06659,19.653528,STD
8337345242000,0.739938,-1.44369357969001,9.74480824263407,-1.34397214727993,-0.0027488936,0.016493361,0.006414085,272.76147,-68.35803,19.464127,STD
8337350493000,0.745189,-1.44520753950706,9.74354660725755,-1.33993491144027,0.0009162979,0.022907447,0.006414085,273.04404,-68.646545,19.275915,STD
8337355604000,0.7503,-1.44668113475082,9.74231860908398,-1.33600531472032,0.0027488936,0.027183503,0.008552114,273.32513,-68.92725,19.09197,STD
8337360249000,0.754945,-1.44802037362917,9.7412025747431,-1.3324340024988,0.012217305,0.028099801,0.009162978,273.60504,-69.20432,18.910168,STD
8337365271000,0.759967,-1.44946830853705,9.73999596021998,-1.32857283350494,0.0076358155,0.03756821,0.0033597588,273.88098,-69.47574,18.729319,STD
8337370250000,0.764946,-1.45090384575456,9.73879967712347,-1.32474472509784,0.0033597588,0.03848451,0.0009162979,274.1588,-69.741936,18.552597,STD
8337375252000,0.769948,-1.45234601429482,9.73759786791506,-1.32089893312109,0.008857546,0.03726278,0.003970624,274.4343,-70.00348,18.378199,STD
8337380284000,0.77498,-1.4537968323865,9.73638885073458,-1.31703007561868,0.0009162979,0.040927973,0.0021380284,274.7083,-70.259735,18.204226,STD
8337385390000,0.780086,-1.45526898603835,9.73516205388969,-1.313104323153,-0.00030543262,0.022296581,0.005192355,274.989,-70.51004,18.036074,STD
8337390307000,0.785003,-1.45668664751626,9.73398066726879,-1.30932388349892,0.006414085,0.023823744,0.005192355,275.2629,-70.75646,17.868309,STD
8337395362000,0.790058,-1.4581440969307,9.7327661239764,-1.30543734242684,0.0030543262,0.020463986,0.006414085,275.5438,-70.9955,17.70523,STD
8337400729000,0.795425,-1.45969150167991,9.73147661777457,-1.30131091988801,0.002443461,0.022296581,0.015271631,275.82266,-71.22843,17.546648,STD
8337405235000,0.799931,-1.46099066430335,9.73039398037091,-1.29784647793533,0.007941248,0.01740966,0.008552114,276.10535,-71.46052,17.386835,STD
8337410231000,0.804927,-1.46243110293333,9.7291936127569,-1.2940052990637,0.014966198,0.01740966,0.0076358155,276.38593,-71.68387,17.23342,STD
8337415218000,0.809914,-1.46386894669788,9.72799540753452,-1.29017103984977,0.013439035,0.024740042,0.0070249503,276.6664,-71.90378,17.080545,STD
8337420282000,0.814978,-1.46532899097774,9.72677870185051,-1.28627757912,-0.0030543262,0.032070424,0.009468411,276.94733,-72.117584,16.93069,STD
8337425191000,0.819887,-1.4667443459086,9.72559923735549,-1.28250329027276,0.009162978,0.023518313,0.005497787,277.23154,-72.330986,16.781452,STD
8337430190000,0.824886,-1.46818564949372,9.72439814894428,-1.27865980484857,0.004886922,0.021685716,0.0076358155,277.5119,-72.534454,16.63662,STD
8337435241000,0.829937,-1.46964194563463,9.72318456671483,-1.27477633917991,0.0009162979,0.018936822,0.014660766,277.79572,-72.73414,16.494635,STD
8337440210000,0.834906,-1.47107459966833,9.72199068627569,-1.27095591928137,0.008246681,0.014049901,0.015577064,278.08154,-72.93093,16.353888,STD
8337445208000,0.839904,-1.47251561493507,9.72078983813022,-1.26711320270803,0.011301007,0.018325957,0.01740966,278.36597,-73.12039,16.217443,STD
8337450212000,0.844908,-1.47395836011209,9.71958754839033,-1.26326587302956,0.009773844,0.007941248,0.014049901,278.65717,-73.30688,16.082361,STD
8337455210000,0.849906,-1.47539937537883,9.71838670024486,-1.25942315645623,0.0067195175,0.00030543262,0.005497787,278.9471,-73.49007,15.948227,STD
8337460254000,0.85495,-1.47685365329108,9.71717479987556,-1.25554507274356,0.006414085,-0.005497787,0.009773844,279.2403,-73.666435,15.819025,STD
8337465271000,0.859967,-1.47830014660706,9.71596938668112,-1.25168774800397,0.0143553335,0.0009162979,0.01863139,279.53308,-73.83997,15.690646,STD
8337470371000,0.865067,-1.47977057034863,9.71474403143064,-1.24776660864342,0.0061086523,0.0021380284,0.009162978,279.83038,-74.01215,15.560446,STD
8337475271000,0.869967,-1.48118333041406,9.71356672932723,-1.24399923945388,0.012217305,0.00580322,0.010995574,280.1256,-74.17607,15.437729,STD
8337480265000,0.874961,-1.48262319240727,9.7123668422447,-1.24015959828396,0.01038471,0.01038471,0.014049901,280.42133,-74.33722,15.314526,STD
8337485285000,0.879981,-1.48407055067839,9.71116070825305,-1.23629996699181,0.009468411,0.016493361,0.014049901,280.569410771142,-74.4170770605187,15.252681675246,STD
8337490328000,0.885024,-1.48477521413787,9.71106711093468,-1.2370740655533,0.008246681,0.01160644,0.0061086523,280.71817,-74.4973,15.190554,STD
8337495274000,0.88997,-1.48524677713708,9.7113028973583,-1.23919610151175,0.009773844,0.0076358155,0.0067195175,281.01602,-74.65032,15.071708,STD
8337500267000,0.894963,-1.48572282122423,9.71154092437268,-1.24133830238933,0.013439035,-0.011301007,0.0027488936,281.20734,-74.880516,14.87482,STD
8337505274000,0.89997,-1.48620020010354,9.71177961879707,-1.24348650983857,0.015271631,-0.004581489,0.008246681,281.39175,-75.102585,14.683622,STD
8337510264000,0.90496,-1.4866759581638,9.71201750279502,-1.24562742359365,0.010079277,-0.016493361,0.0067195175,281.5871,-75.32235,14.492851,STD
8337515319000,0.910015,-1.48715791347334,9.71225848548232,-1.24779622500286,0.01282817,-0.01740966,0.011911872,281.7768,-75.53389,14.308383,STD
8337520404000,0.9151,-1.48764272905178,9.71250089833394,-1.24997789763705,0.013439035,-0.02107485,0.009468411,281.97076,-75.74254,14.124456,STD
8337525337000,0.920033,-1.48811305260114,9.71273606501969,-1.25209435606467,0.011911872,-0.018325957,0.010995574,282.1629,-75.94352,13.946038,STD
8337530301000,0.924997,-1.48858633176168,9.71297270954189,-1.25422411475811,0.0070249503,-0.009773844,0.007330383,282.35443,-76.14152,13.768344,STD
8337535340000,0.930036,-1.48906676159448,9.71321292947489,-1.25638605151399,0.022296581,-0.0018325958,0.009162978,282.54526,-76.333046,13.59555,STD
8337540324000,0.93502,-1.48954194760096,9.71345052743998,-1.25852439102408,0.005497787,0.0021380284,0.01038471,282.73483,-76.51974,13.424401,STD
8337545299000,0.939995,-1.49001627552677,9.71368769635577,-1.26065886916667,0.0143553335,0.0015271631,0.009162978,282.92355,-76.70273,13.2558975,STD
8337550321000,0.945017,-1.49049508454053,9.71392710586233,-1.2628135122284,0.0033597588,-0.004276057,0.011301007,283.11276,-76.87869,13.091548,STD
8337555313000,0.950009,-1.49097103328538,9.71416508520456,-1.26495528406515,0.0061086523,-0.0061086523,0.012217305,283.3012,-77.050995,12.92926,STD
8337560304000,0.955,-1.49144688668794,9.71440301687465,-1.26709662686107,0.022602014,-0.0067195175,0.009773844,283.4913,-77.21886,12.769401,STD
8337565334000,0.96003,-1.49192645844007,9.71464280775836,-1.26925470224946,0.02076942,-0.017715093,0.013744468,283.68524,-77.3797,12.614362,STD
8337570452000,0.965148,-1.4924144203143,9.71488679379072,-1.27145053323112,0.01160644,-0.015271631,0.010079277,283.8758,-77.53886,12.459074,STD
8337575401000,0.970097,-1.4928862693404,9.71512272323077,-1.27357385631207,0.0076358155,-0.009468411,0.018325957,284.069,-77.688866,12.310947,STD
8337580303000,0.974999,-1.49335363727855,9.71535641208006,-1.27567701447387,0.010079277,-0.009162978,0.022602014,284.26352,-102.163536,12.1632185,STD
8337586050000,0.980746,-1.49390156945737,9.71563038389093,-1.2781427121393,0.01038471,-0.0061086523,0.017715093,284.45602,-102.020134,12.017749,STD
8337590344000,0.98504,-1.49431096927917,9.71583508807674,-1.27998501347484,0.004276057,-0.0012217305,0.00030543262,284.6484,-101.87867,11.872362,STD
8337595298000,0.989994,-1.49478329501675,9.71607125587751,-1.28211048175994,0.02076942,-0.0061086523,0.0070249503,284.84332,-101.74731,11.734909,STD
8337600339000,0.995035,-1.49526391553414,9.71631157115479,-1.28427327659749,0.006414085,0.0018325958,0.0061086523,285.03357,-101.612656,11.592841,STD
8337605306000,1.000002,-1.49573748072158,9.71654835869343,-1.28640432241342,0.012217305,-0.005192355,0.014966198,285.23032,-101.48759,11.457843,STD
8337610308000,1.005004,-1.4962143828894,9.71678681475711,-1.2885503846585,0.014660766,-0.0070249503,0.008552114,285.42377,-101.36182,11.320655,STD
8337615328000,1.010024,-1.49669300121856,9.71702612891938,-1.29070416963856,0.0070249503,-0.0106901415,-0.00030543262,285.62048,-101.24185,11.187559,STD
8337620461000,1.015157,-1.49718239322724,9.7172708300339,-1.29290643623272,-0.004276057,-0.020463986,0.0106901415,285.8203,-101.1297,11.060542,STD
8337625417000,1.020113,-1.49765490964942,9.71750709317896,-1.29503276259949,0.0076358155,-0.019547688,0.0067195175,286.01862,-101.01532,10.929037,STD
8337630302000,1.024998,-1.49812065676853,9.7177399716018,-1.29712862706715,-0.0009162979,-0.017715093,0.0033597588,286.22034,-100.90704,10.803005,STD
8337635339000,1.030035,-1.49860089591673,9.71798009619051,-1.29928970574136,-0.010079277,-0.014660766,-0.0030543262,286.42218,-100.80098,10.677135,STD
8337640306000,1.035002,-1.49907446110417,9.71821688372915,-1.3014207515573,-0.0033597588,-0.013744468,0.0027488936,286.6249,-100.701546,10.555958,STD
8337645302000,1.039998,-1.49955079121821,9.71845505375996,-1.30356423955738,-0.01160644,-0.009468411,-0.0030543262,286.82642,-100.59964,10.4318495,STD
8337650321000,1.045017,-1.50002931420507,9.71869432025008,-1.30571759549661,-0.008246681,0.0033597588,0.0030543262,287.02612,-100.50726,10.315002,STD
8337655828000,1.050524,-1.5005543642327,9.71895685074642,-1.30808032336219,-0.0027488936,-0.002443461,0.005192355,287.23077,-100.41544,10.197303,STD
8337660300000,1.054996,-1.5009807349833,9.71917004057384,-1.30999899396594,0.005497787,0.00030543262,0.009162978,287.43018,-100.32973,10.084118,STD
8337665321000,1.060017,-1.50145944865476,9.71940940240825,-1.31215320798684,0.0009162979,0.009162978,0.015271631,287.63037,-100.24816,9.974123,STD
8337670434000,1.06513,-1.5019469338175,9.71965315007989,-1.31434689376434,-0.003970624,0.005497787,0.004276057,287.83417,-100.16676,9.862131,STD
8337675430000,1.070126,-1.50242326393155,9.71989132011071,-1.31649038176442,-0.011911872,-0.00030543262,0.0067195175,288.03714,-100.093475,9.757627,STD
8337680306000,1.075002,-1.50288815296999,9.72012376948425,-1.31858238486458,0.0009162979,-0.014660766,0.0070249503,288.24442,-100.02096,9.651046,STD
8337685345000,1.080041,-1.50336858280279,9.72036398941725,-1.32074432162046,-0.0009162979,-0.013439035,0.013744468,288.4499,-99.95233,9.548931,STD
8337690298000,1.084994,-1.50738068865069,9.72332551161223,-1.32637698586982,0.011911872,-0.015577064,0.008857546,288.6613,-99.88588,9.445064,STD
8337695306000,1.090002,-1.51384724944888,9.72817533936697,-1.33446014466579,0.015271631,-0.011911872,0.012217305,288.87183,-99.82564,9.347252,STD
8337700322000,1.095018,-1.5203241402164,9.7330329144504,-1.342556215856,0.016493361,-0.015882496,0.004886922,288.9947,-99.73579,9.204518,STD
8337705306000,1.100002,-1.52675971110662,9.7378595002191,-1.35060063746924,-0.00061086525,-0.025961773,0.008857546,289.1184,-99.65336,9.068492,STD
8337710289000,1.104985,-1.53319399075067,9.74268511757171,-1.3586434450332,0.008552114,-0.030543262,0.008857546,289.1691,-99.56127,8.908951,STD
8337715317000,1.110013,-1.53968637647217,9.74755431364816,-1.36675888481478,0.0033597588,-0.034208454,0.003970624,289.2215,-99.47176,8.752036,STD
8337720374000,1.11507,-1.53222426363184,9.74597537872298,-1.37591117949995,0.0021380284,-0.026572637,0.008246681,289.1916,-99.3946,8.591073,STD
8337725449000,1.120145,-1.51770012825979,9.74113443839028,-1.38559386901086,0.0015271631,-0.038179077,0.013133603,289.16663,-99.3229,8.431857,STD
8337730296000,1.124992,-1.50086441749409,9.75188391843972,-1.39170471359338,0.010079277,-0.03726278,0.011301007,289.0345,-99.27957,8.274513,STD
8337735329000,1.130025,-1.48187307218282,9.77087516459811,-1.39645250034476,0.0015271631,-0.028405234,0.012217305,288.90167,-99.244446,8.123103,STD
8337740297000,1.134993,-1.47046860613134,9.77937323336269,-1.39530729397142,0.00061086525,-0.033292156,0.0067195175,288.61258,-99.26171,7.982509,STD
8337745300000,1.139996,-1.46343505304365,9.78171780818164,-1.39061824225876,-0.00061086525,-0.03634648,-0.0009162979,288.31934,-99.28744,7.846172,STD
8337750295000,1.144991,-1.45641274689274,9.78405863393032,-1.38593668853005,-0.0018325958,-0.030543262,0.00580322,287.73938,-99.41217,7.7375116,STD
8337755440000,1.150136,-1.44917956067724,9.78646975474653,-1.38111454760227,-0.0015271631,-0.026572637,0.00061086525,287.16513,-99.5438,7.628911,STD
8337760351000,1.155047,-1.44352023309246,9.76945341239358,-1.37132720693922,-0.006414085,-0.027183503,0.009468411,286.0241,-99.87895,7.570713,STD
8337765301000,1.159997,-1.43882753313205,9.73660465967135,-1.3572493030588,-0.006414085,-0.032986723,0.005497787,285.47466095353,-100.051194266747,7.5446884073627,STD
8337770293000,1.164989,-1.43444327424332,9.7142258444256,-1.35864078980924,0.0036651916,-0.044593163,0.014660766,284.92056,-100.2249,7.518443,STD
8337775332000,1.170028,-1.43035196510386,9.7019519597287,-1.37500619725307,0.0009162979,-0.038789943,0.008246681,283.26596,-100.75349,7.483622,STD
8337780258000,1.174954,-1.42627202651902,9.69139285974964,-1.38897312972075,0.004886922,-0.04550946,0.0030543262,281.4404,-101.32847,7.411991,STD
8337785306000,1.180002,-1.42161683237362,9.68906523837265,-1.39130067818488,0.005192355,-0.048563786,0.0036651916,279.7182,-101.898254,7.354378,STD
8337790638000,1.185334,-1.41669973744824,9.68660666523833,-1.39375917430429,0.0076358155,-0.048258353,0.0125227375,278.41156,-102.28098,7.2258196,STD
8337795475000,1.190171,-1.41223912451613,9.68437633548387,-1.39598943419355,0.007941248,-0.040927973,0.0012217305,277.15265,-102.6583,7.1009603,STD
8337800668000,1.195364,-1.40604332714328,9.68285084870958,-1.39891257789973,-0.004886922,-0.038179077,0.002443461,275.94226,-103.03173,6.9898276,STD
8337805301000,1.199997,-1.38410660127559,9.69162528250766,-1.40768737819638,0.0067195175,-0.032375857,0.007941248,274.77142,-103.40294,6.884433,STD
8337810622000,1.205318,-1.35918036437664,9.7022127945292,-1.41718593730252,0.00580322,-0.022907447,0.01038471,273.63748,-103.76157,6.787058,STD
8337815258000,1.209954,-1.34314784842466,9.72225343946917,-1.41317772460955,0.005497787,-0.015577064,0.0061086523,272.5398,-104.11292,6.6951375,STD
8337820344000,1.21504,-1.32555911327977,9.74423935840029,-1.40878044899341,0.0030543262,-0.01985312,0.0076358155,271.4796,-104.45642,6.6139765,STD
8337825305000,1.220001,-1.3375416828559,9.74210356972517,-1.3918482171441,0.0030543262,-0.015882496,0.008246681,270.44745,-104.787964,6.536629,STD
8337830233000,1.224929,-1.35812962046435,9.73295341238912,-1.37126027953565,0.0027488936,-0.009468411,0.008552114,269.44644,-105.10684,6.4633145,STD
8337835303000,1.229999,-1.37931079815811,9.7235395938636,-1.35007910184189,0.008857546,0.00030543262,0.014049901,268.46033,-105.421455,6.399675,STD
8337840327000,1.235023,-1.40029979948621,9.71421118670932,-1.32909010051379,0.011301007,-0.004886922,0.0143553335,267.50388,-105.721794,6.3369894,STD
8337845303000,1.239999,-1.39849124606467,9.71708163209274,-1.34019787550336,0.0027488936,-0.007941248,0.010079277,266.57022,-106.0083,6.2779083,STD
8337850291000,1.244987,-1.38391861690055,9.7267969210901,-1.36934308310962,0.00061086525,0.0030543262,0.0143553335,265.65936,-106.28562,6.224177,STD
8337855313000,1.250009,-1.37262579591959,9.72360152795279,-1.35332278289829,0.005192355,0.011911872,0.0106901415,264.79184,-106.52684,6.158026,STD
8337860297000,1.254993,-1.36307873681368,9.71405421962196,-1.31513439693969,-0.00580322,0.028405234,0.010995574,263.93988,-106.75369,6.097484,STD
8337865297000,1.259993,-1.3599066,9.70157828702852,-1.30089518656854,-0.013744468,0.040317107,0.014660766,263.08588,-106.98946,6.0438924,STD
8337870358000,1.265054,-1.3599066,9.68749751808454,-1.29854839991285,-0.011301007,0.0580322,0.019547688,262.24554,-107.21407,5.993859,STD
8337875299000,1.269995,-1.3599066,9.67375061443858,-1.29625725727981,-0.027183503,0.06688975,0.02107485,261.43872,-107.403824,5.938158,STD
8337880299000,1.274995,-1.3599066,9.65983956035443,-1.29393875633564,-0.0290161,0.058948494,0.01985312,260.64874,-107.5886,5.8842297,STD
8337885286000,1.279982,-1.37853011363118,9.68002597978646,-1.31947397978646,-0.029932396,0.03634648,0.03145956,259.87885,-107.76015,5.832152,STD
8337890312000,1.285008,-1.41345615076189,9.72992024411734,-1.36936824411734,-0.028405234,0.022296581,0.028710667,259.12305,-107.92133,5.7766676,STD
8337895266000,1.289962,-1.43829999581858,9.74635030578512,-1.39999275510626,-0.03023783,0.03848451,0.02687807,258.3814,-108.07467,5.7264686,STD
8337900287000,1.294983,-1.45722364291617,9.7416197768595,-1.41891650100354,-0.02687807,0.04520403,0.025350908,257.66022,-108.22117,5.674246,STD
8337905310000,1.300006,-1.47087463572153,9.74242438299168,-1.41850938770043,-0.014660766,0.055283304,0.01740966,256.9286,-108.37525,5.620795,STD
8337911070000,1.305766,-1.48207056996144,9.74802188248427,-1.40171536943373,-0.018020526,0.044898596,0.019547688,256.21582,-108.51779,5.5689235,STD
8337915256000,1.309952,-1.47038914002746,9.76320485997254,-1.40101687199451,-0.00030543262,0.032375857,0.01863139,255.50479,-108.6679,5.514882,STD
8337920349000,1.315045,-1.44647531261032,9.78711868738968,-1.40579963747794,-0.0106901415,0.028405234,0.0027488936,254.80698,-108.799446,5.457486,STD
8337925367000,1.320063,-1.42867507189974,9.79968835488127,-1.38948342546174,-0.003970624,0.042760566,0.008857546,254.12543,-108.92804,5.403947,STD
8337930296000,1.324992,-1.41533049646626,9.80413662410479,-1.35834623760837,0.0021380284,0.036957346,0.0027488936,253.46033,-109.04339,5.3410506,STD
8337935338000,1.330034,-1.4067186012844,9.79593101284404,-1.34611249357798,-0.005192355,0.025961773,-0.0009162979,252.80875,-109.14899,5.2841415,STD
8337940309000,1.335005,-1.40435776454748,9.77232264547483,-1.35791667726258,-0.00061086525,0.019547688,0.006414085,252.16925,-109.25257,5.228699,STD
8337945235000,1.339931,-1.40201829929581,9.74892799295809,-1.36961400352095,-0.0030543262,0.014660766,0.00061086525,251.54086,-109.33869,5.1760125,STD
8337950290000,1.344986,-1.39961756911976,9.72492069119762,-1.38161765440119,0.007330383,0.0067195175,0.0015271631,250.92683,-109.42386,5.1260915,STD
8337955235000,1.349931,-1.3982137,9.70994502739793,-1.38770003718151,0.0027488936,0.0027488936,0.0015271631,250.62639158,-109.461278815,5.102611651,STD
8337960290000,1.354986,-1.3982137,9.70756373202164,-1.38531876666995,0.0012217305,-0.0009162979,0.002443461,250.31927,-109.49953,5.0786095,STD
8337965251000,1.359947,-1.3982137,9.70522671790457,-1.38298177695524,0.0015271631,0.00061086525,0.002443461,250.02534971781,-109.535571285644,5.05470638875185,STD
8337970425000,1.365121,-1.3982137,9.70278936433841,-1.38054444883915,0.002443461,0.0070249503,-0.003970624,249.71881,-109.57316,5.029777,STD
8337975274000,1.36997,-1.39665893983172,9.70285980887274,-1.36973145781624,-0.0125227375,0.006414085,-0.003970624,249.12668,-109.647415,4.9858537,STD
8337981093000,1.375789,-1.39133081885458,9.70818809675877,-1.33776245377187,0.006414085,0.008857546,-0.0030543262,248.54071,-109.724464,4.940903,STD
8337985303000,1.379999,-1.3914090819979,9.7119908559558,-1.3215994,-0.0009162979,0.008552114,0.0027488936,247.97177,-109.77978,4.895021,STD
8337990302000,1.384998,-1.40233781851801,9.71636244185728,-1.3215994,0.008246681,-0.013744468,0.0061086523,247.41675,-109.839,4.846351,STD
8337995265000,1.389961,-1.41318785239465,9.72070254604392,-1.3215994,0.00061086525,-0.036957346,-0.0015271631,246.87654,-109.87599,4.792951,STD
8338000284000,1.39498,-1.42416031260558,9.72509162178697,-1.3215994,-0.01038471,-0.058948494,0.0030543262,246.35126,-109.910866,4.741348,STD
8338005294000,1.39999,-1.43511309715564,9.72947282710131,-1.3215994,-0.0143553335,-0.06261369,0.004581489,245.84236,-109.93567,4.6769385,STD
8338010297000,1.404993,-1.43439419975036,9.72578226625229,-1.3215994,-0.003970624,-0.055588737,0.006414085,245.34363,-109.95805,4.612865,STD
8338015258000,1.409954,-1.43197367760342,9.72094107030772,-1.3215994,-0.005497787,-0.057726767,0.0030543262,244.85449,-109.97224,4.546637,STD
8338020335000,1.415031,-1.4294965578816,9.71598667566741,-1.3215994,-0.01038471,-0.04550946,0.002443461,244.36354,-109.98438,4.4805093,STD
8338025771000,1.420467,-1.4273004117359,9.71070394041357,-1.32106523239615,-0.014966198,-0.036651913,-0.0030543262,243.87955,-109.99228,4.411754,STD
8338030304000,1.425,-1.43517482392527,9.70676665209505,-1.3092536141121,-0.01038471,-0.030848695,-0.0015271631,243.3999,-109.99852,4.345652,STD
8338035389000,1.430085,-1.44400813210593,9.70234990576818,-1.2960036518411,-0.0125227375,-0.024740042,-0.007330383,242.92305,-109.99846,4.2778535,STD
8338040307000,1.435003,-1.43529216760314,9.70490697975196,-1.292869,-0.0015271631,-0.015577064,-0.0061086523,242.45062,-110.000824,4.213163,STD
8338045238000,1.439934,-1.42094948484434,9.70968796552771,-1.292869,-0.0106901415,-0.01863139,-0.0061086523,241.98502,-109.99358,4.145954,STD
8338050933000,1.445629,-1.4043845734042,9.71520970837762,-1.292869,-0.010995574,-0.03023783,0.0036651916,241.53238,-109.9833,4.075035,STD
8338055280000,1.449976,-1.39174055759555,9.71942446099722,-1.292869,-0.0030543262,-0.028710667,0.0036651916,241.08128,-109.96994,4.0026197,STD
8338060283000,1.454979,-1.37396568159969,9.73513024180208,-1.30387248880023,-0.0030543262,-0.03481932,0.0036651916,240.865694543818,-109.958236303321,3.96283619034614,STD
8338065276000,1.459972,-1.35535442835458,9.75374139787876,-1.31783092873407,-0.0143553335,-0.03634648,0.008857546,240.65054,-109.946556,3.9231322,STD
8338070389000,1.465085,-1.36116517809276,9.75515411930282,-1.3468820368827,0.0012217305,-0.040317107,-0.005192355,240.22134,-109.93005,3.8394277,STD
8338075360000,1.470056,-1.37547133068216,9.75038528558549,-1.38026317577882,-0.011301007,-0.03359759,-0.0030543262,239.79372,-109.9055,3.7704523,STD
8338080263000,1.474959,-1.38072826648721,9.73918024493782,-1.36027844841584,-0.005192355,-0.03023783,-0.00580322,239.37164,-109.89005,3.6990638,STD
8338085316000,1.480012,-1.38303385873553,9.72534702849111,-1.32108376538663,-0.009468411,-0.018020526,-0.0009162979,238.95111,-109.86682,3.63195,STD
8338090309000,1.485005,-1.38531207407213,9.7116780695126,-1.28235448528277,-0.007330383,-0.013744468,-0.005192355,238.53583,-109.85124,3.556678,STD
8338095299000,1.489995,-1.38758892056315,9.6980173234075,-1.24364847532517,-0.013133603,-0.011301007,-0.0009162979,238.1237,-109.83107,3.4862313,STD
8338100289000,1.494985,-1.39123261726047,9.69692012610708,-1.24400083765097,-0.002443461,-0.01038471,0.00061086525,237.71483,-109.81377,3.4148774,STD
8338105310000,1.500006,-1.39607205070451,9.70659879086151,-1.27787727602657,-0.004581489,-0.004276057,0.0027488936,237.30902,-109.78968,3.345676,STD
8338110290000,1.504986,-1.40604596201443,9.7239356791539,-1.30070120749234,-0.0036651916,-0.01160644,-0.004581489,236.9184,-109.74965,3.2653987,STD
8338115252000,1.509948,-1.42013721803894,9.74742094237422,-1.31479236542453,-0.012217305,-0.015577064,-0.013133603,236.52948,-109.70539,3.186596,STD
8338120674000,1.51537,-1.42554856768163,9.76016176146656,-1.31880793536327,-0.010079277,-0.014049901,-0.007330383,236.14175,-109.67151,3.111604,STD
8338125303000,1.519999,-1.4234127511852,9.76229762256697,-1.3145363023704,-0.0106901415,-0.008246681,-0.014660766,235.7561,-109.63234,3.0311334,STD
8338130263000,1.524959,-1.42112421158219,9.76458620996338,-1.30995922316439,-0.01038471,0.002443461,-0.004276057,235.36697,-109.59845,2.9594395,STD
8338135288000,1.529984,-1.41880568103681,9.7669047889285,-1.30532216207362,-0.006414085,0.004276057,0.00030543262,234.9819,-109.56348,2.8841026,STD
8338140266000,1.534962,-1.4156423236376,9.7666178236376,-1.29727036098151,-0.007941248,0.0036651916,-0.004886922,234.59909,-109.52575,2.8097854,STD
8338145302000,1.539998,-1.41097387218081,9.76194937218082,-1.28326525034363,-0.010079277,0.003970624,-0.003970624,234.22092,-109.48812,2.7386644,STD
8338150261000,1.544957,-1.40554086660505,9.75951589345862,-1.27671481902341,-0.015577064,0.0033597588,-0.0015271631,233.85205,-109.44347,2.6641479,STD
8338155311000,1.550007,-1.39809126093654,9.76199914720682,-1.28664765251078,-0.018020526,-0.0030543262,0.004886922,233.48929,-109.398315,2.5905848,STD
8338160214000,1.55491,-1.3908585051756,9.76441011614294,-1.29629135203327,-0.01740966,-0.0018325958,0.0009162979,233.1298,-109.34819,2.5153027,STD
8338165288000,1.559984,-1.38337349544054,9.76690517149312,-1.30627139106593,-0.006414085,0.011301007,0.0009162979,232.950548494997,-109.324106975131,2.47907751721986,STD
8338170307000,1.565003,-1.38101359749282,9.76248248712331,-1.30616209732243,-0.005497787,0.0125227375,-0.00030543262,232.77324,-109.300285,2.443245,STD
8338175312000,1.570008,-1.38568054496373,9.74848159597877,-1.29216123054379,-0.004581489,0.0143553335,-0.004581489,232.42435,-109.246635,2.3697217,STD
8338180203000,1.574899,-1.39024119233241,9.73479960625091,-1.27847926462684,-0.0033597588,0.01038471,0.004276057,232.07782,-109.20047,2.3035247,STD
8338185290000,1.579986,-1.39498460128037,9.72056932987683,-1.26424901301787,-0.005497787,0.013133603,-0.00030543262,231.73114,-109.15226,2.233334,STD
8338190277000,1.584973,-1.40082114896829,9.70827465993747,-1.26629511145154,-0.00580322,0.018936822,-0.0015271631,231.38959,-109.10465,2.166318,STD
8338195300000,1.589996,-1.40941512283162,9.6996810450201,-1.30496763489058,-0.0027488936,0.02443461,-0.0036651916,231.05055,-109.056595,2.098013,STD
8338200366000,1.595062,-1.41652659165004,9.69341079035816,-1.34159389956937,-0.00061086525,0.028405234,-0.0067195175,230.7105,-109.00292,2.032534,STD
8338205306000,1.600002,-1.40658858387774,9.71328649459091,-1.35153180357105,-0.012217305,0.026572637,-0.004276057,230.3746,-108.94572,1.9676915,STD
8338210257000,1.604953,-1.39598452745175,9.73375130051201,-1.3606496601024,-0.014966198,0.029932396,-0.0125227375,230.03375,-108.90105,1.9020808,STD
8338215290000,1.609986,-1.38174667791453,9.75748113233557,-1.36539562646711,-0.01038471,0.04886922,-0.0036651916,229.69493,-108.854866,1.8426299,STD
8338220336000,1.615032,-1.37157979196429,9.78001637007389,-1.36668820098522,-0.009162978,0.053450707,-0.013744468,229.35944,-108.80472,1.780015,STD
8338225325000,1.620021,-1.38628991785714,9.79472634236453,-1.34707463152709,-0.014966198,0.050701816,-0.009468411,229.02687,-108.753685,1.7241042,STD
8338230264000,1.62496,-1.40071090819171,9.80540141546081,-1.32867899180829,-0.0009162979,0.05100725,-0.0018325958,228.70053,-108.70375,1.6686873,STD
8338236108000,1.630804,-1.41701670112169,9.79724864669321,-1.31237319887831,-0.015271631,0.0421497,-0.008246681,228.38017,-108.64334,1.6089139,STD
8338240306000,1.635002,-1.42872986312033,9.79139215742449,-1.30066003687967,-0.007330383,0.039095376,-0.0076358155,228.06314,-108.58804,1.5494413,STD
8338245296000,1.639992,-1.44265284510537,9.78443077546858,-1.28673705489463,-0.01160644,0.029321533,-0.002443461,227.75362,-108.52496,1.4876679,STD
8338250397000,1.645093,-1.45912894182288,9.77600092566257,-1.2752505634777,-0.018020526,0.025961773,0.0021380284,227.44283,-108.46451,1.4286122,STD
8338255311000,1.650007,-1.49824100568843,9.75427205171299,-1.29263370801551,-0.01160644,0.023518313,-0.0027488936,227.13753,-108.4062,1.367122,STD
8338260237000,1.654933,-1.53744858130945,9.73249011580017,-1.31005930223474,-0.006414085,0.01985312,-0.005497787,226.83658,-108.34038,1.3008668,STD
8338265287000,1.659983,-1.5372999610734,9.7163378832202,-1.30289071285532,-0.007330383,0.020463986,-0.007941248,226.53793,-108.27465,1.2332995,STD
8338270681000,1.665377,-1.53065430415625,9.70007899518652,-1.29123429988892,-0.0143553335,0.015577064,0.0009162979,226.24574,-108.208916,1.1670799,STD
8338275400000,1.670096,-1.51392083412015,9.68752906738869,-1.27450078617051,-0.013133603,0.01863139,-0.009773844,225.93718,-108.15314,1.0981772,STD
8338280230000,1.674926,-1.49679376052948,9.6746839410349,-1.25737366787004,-0.007330383,0.024740042,-0.00580322,225.6357,-108.095825,1.0352567,STD
8338285287000,1.679983,-1.48640845519288,9.68014850296736,-1.26213504480712,-0.009773844,0.016187929,0.0018325958,225.34,-108.03633,0.96908784,STD
8338290285000,1.684981,-1.47753144362018,9.68902569992582,-1.27101205637982,-0.011301007,0.014049901,-0.0027488936,225.04341,-107.978584,0.9014581,STD
8338295265000,1.689961,-1.47805562173277,9.69495615212942,-1.28662502063152,-0.016187929,0.013133603,0.0036651916,224.75685,-107.91647,0.83929116,STD
8338300295000,1.694991,-1.48275022303869,9.69965036127083,-1.30540347487574,-0.016187929,0.016187929,0.0015271631,224.47163,-107.85534,0.77345014,STD
8338306139000,1.700835,-1.49424427740763,9.71311217398546,-1.30218330204422,-0.007330383,0.028710667,-0.0030543262,224.19077,-107.79616,0.70897794,STD
8338310311000,1.705007,-1.5043276636382,9.72521227957803,-1.2920998947557,-0.009468411,0.03023783,0.002443461,223.91562,-107.73424,0.64577556,STD
8338315255000,1.709951,-1.51627691136685,9.73955142676156,-1.28015062207248,-0.013439035,0.03573562,-0.0061086523,223.63551,-107.67793,0.5793927,STD
8338320487000,1.715183,-1.52892223177872,9.75472586407228,-1.26750527525237,-0.016798794,0.02565634,-0.0106901415,223.363,-107.62145,0.5141084,STD
8338325313000,1.720009,-1.52610035917176,9.75257755303529,-1.26723282041412,-0.009468411,0.032070424,-0.0018325958,223.08553,-107.56552,0.45573887,STD
8338330307000,1.725003,-1.51709771649882,9.74357519237647,-1.27173414175059,-0.015577064,0.019547688,0.0021380284,222.81805,-107.50497,0.3919603,STD
8338335306000,1.730002,-1.49850591876091,9.72790917059337,-1.26201171500873,-0.0067195175,0.01038471,-0.008857546,222.54959,-107.44464,0.32153624,STD
8338340297000,1.734993,-1.47243817835951,9.70705454275742,-1.24115752268761,-0.008552114,0.011301007,-0.006414085,222.28604,-107.380165,0.25552,STD
8338345251000,1.739947,-1.46211809802487,9.69817195976591,-1.24794130790051,-0.01038471,0.008246681,-0.01038471,222.02785,-107.32015,0.18542625,STD
8338350285000,1.744981,-1.45770975757132,9.69376398756401,-1.2655746697147,-0.010079277,0.008857546,-0.007941248,221.77182,-107.26075,0.118100874,STD
8338355254000,1.74995,-1.44783390249175,9.691729,-1.27502206699856,-0.009162978,0.004581489,0.004276057,221.52524,-107.2003,0.05190432,STD
8338360287000,1.754983,-1.43291434462443,9.691729,-1.27750862968428,-0.02321288,0.005192355,0.002443461,221.27872,-107.13624,-0.016983263,STD
8338365246000,1.759942,-1.41821414842654,9.691729,-1.27995863253714,-0.02107485,0.0067195175,0.008552114,221.03673,-107.081566,-0.07864965,STD
8338370253000,1.764949,-1.40337166357821,9.691729,-1.28243234987619,-0.01282817,-0.0030543262,0.008552114,220.79953,-107.025185,-0.14350243,STD
8338375927000,1.770623,-1.40938008810512,9.7028951549101,-1.2907362846473,-0.007330383,0.0009162979,0.008246681,220.56099,-106.97091,-0.20702006,STD
8338380287000,1.774983,-1.42175564787591,9.71527045623395,-1.29898668654416,-0.008246681,-0.00061086525,0.009468411,220.32921,-106.91763,-0.2713815,STD
8338385254000,1.77995,-1.43737381088643,9.71971401937898,-1.3024458,-0.010995574,0.0030543262,0.007330383,220.0956,-106.86522,-0.32671532,STD
8338410213000,1.804909,-1.52030154653929,9.71379048598617,-1.3024458,-0.016187929,-0.006414085,0.016187929,218.9755,-106.60588,-0.612922,STD
8338415203000,1.809899,-1.5368811130647,9.71260620650262,-1.3024458,-0.002443461,-0.0033597588,0.010079277,218.7605,-106.55346,-0.68170315,STD
8338420237000,1.814933,-1.55360687216068,9.71141148447451,-1.3024458,-0.0033597588,-0.0033597588,0.0070249503,218.55235,-106.4958,-0.74722165,STD
8338425188000,1.819884,-1.56872095737656,9.71344920607076,-1.31271440983542,-0.007941248,-0.0125227375,-0.0021380284,218.34708,-106.44186,-0.81649125,STD
8338430187000,1.824883,-1.58287521672415,9.71816739105154,-1.33158675563221,-0.0036651916,-0.015577064,0.0015271631,218.14305,-106.390724,-0.88245267,STD
8338435247000,1.829943,-1.59227531204288,9.72550992956618,-1.33570217591424,-0.0125227375,-0.009162978,0.0009162979,217.94124,-106.33175,-0.95554143,STD
8338440186000,1.834882,-1.59701429763551,9.73498809868751,-1.32622420472899,-0.0021380284,-0.00030543262,-0.002443461,217.7416,-106.28037,-1.0280994,STD
8338445188000,1.839884,-1.59445752275402,9.72987444213417,-1.33133775449196,-0.005192355,-0.006414085,-0.00061086525,217.54686,-106.22571,-1.1019669,STD
8338450259000,1.844955,-1.58493144335033,9.71082188544527,-1.35038991329933,-0.00580322,-0.007330383,0.004886922,217.3502,-106.17546,-1.1742479,STD
8338455254000,1.84995,-1.56844968570008,9.7036497269292,-1.36694063389021,-0.0030543262,-0.009773844,0.0036651916,217.15706,-106.12418,-1.2494191,STD
8338460246000,1.854942,-1.54467905849244,9.70840394172633,-1.38120298042959,-0.0018325958,-0.013439035,0.004886922,216.96698,-106.073006,-1.3221688,STD
8338465244000,1.85994,-1.52321090779882,9.71315157044657,-1.37728938474853,-0.0018325958,-0.015271631,-0.0009162979,216.77837,-106.027336,-1.394164,STD
8338470309000,1.865005,-1.50402036648039,9.71794930596904,-1.35330120810049,-0.009468411,-0.016798794,-0.009468411,216.59239,-105.98058,-1.4664924,STD
8338475246000,1.869942,-1.48531479836803,9.72262579565798,-1.32991924796004,-0.0070249503,-0.027794369,0.0033597588,216.40727,-105.94174,-1.5272388,STD
8338480245000,1.874941,-1.46637432135898,9.72736101379754,-1.30624365169873,-0.0009162979,-0.024740042,-0.0018325958,216.21852,-105.90307,-1.5940968,STD
8338485223000,1.879919,-1.45977242026222,9.7218404022646,-1.28877115834327,-0.0009162979,-0.024129177,-0.004886922,216.0331,-105.87087,-1.6603266,STD
8338490251000,1.884947,-1.4693378057211,9.70270973122765,-1.27920572294398,-0.00580322,-0.02443461,-0.004276057,215.84888,-105.83938,-1.726453,STD
8338495192000,1.889888,-1.47966603775811,9.69269648672566,-1.26790989469027,-0.00580322,-0.025045475,-0.004886922,215.761324174009,-105.820502490989,-1.75694383778534,STD
8338500239000,1.894935,-1.49154757895772,9.69507259646018,-1.25365204525074,-0.0009162979,-0.032070424,-0.0015271631,215.67189,-105.80122,-1.7880888,STD
8338505233000,1.899929,-1.50330434867257,9.6974237539823,-1.23954392159292,-0.0012217305,-0.02565634,0.0015271631,215.49294,-105.76087,-1.8480934,STD
8338510303000,1.904999,-1.5152400359882,9.6998106920354,-1.22522109681416,0.0018325958,-0.025961773,0.0015271631,215.31624,-105.7279,-1.9122202,STD
8338515247000,1.909943,-1.51769366570611,9.70465075939998,-1.22963727558472,0.003970624,-0.02107485,-0.002443461,215.13799,-105.69515,-1.9752907,STD
8338520376000,1.915072,-1.50315125757426,9.71434590062173,-1.26841708121978,-0.0027488936,-0.030543262,-0.00061086525,214.96591,-105.66107,-2.0374734,STD
8338525236000,1.919932,-1.48940945680728,9.72350729245375,-1.29744134319272,-0.0070249503,-0.040317107,0.004886922,214.79597,-105.61794,-2.1020215,STD
8338530298000,1.924994,-1.47517501569932,9.73299711803856,-1.31167578430068,0.0015271631,-0.028405234,0.008246681,214.62418,-105.577446,-2.1652362,STD
8338535288000,1.929984,-1.46124231553009,9.73827661060172,-1.31759031553009,0.0018325958,-0.02687807,0.0033597588,214.4593,-105.5401,-2.2261498,STD
8338540303000,1.934999,-1.44748081065903,9.73368934651385,-1.30382881065903,0.0018325958,-0.03359759,0.0067195175,214.375155467886,-105.522412157001,-2.25491772320836,STD
8338545237000,1.939933,-1.4400623815893,9.7291506361133,-1.28932760916601,0.00061086525,-0.021685716,0.0036651916,214.29237,-105.50501,-2.283221,STD
8338550291000,1.944987,-1.45910295877262,9.72439039240755,-1.27028698227773,0.004581489,-0.01282817,0.003970624,214.12614,-105.474045,-2.3380947,STD
8338555249000,1.949945,-1.47519980164316,9.72008739059639,-1.25493330164316,0.005497787,-0.009468411,0.003970624,213.96031,-105.44733,-2.3939176,STD
8338560285000,1.954981,-1.47758677342242,9.71770036896808,-1.25732027342242,0.0009162979,-0.018325957,0.0009162979,213.79689,-105.42066,-2.4504607,STD
8338565291000,1.959987,-1.47995952575105,9.71532756708735,-1.25969302575105,-0.0030543262,-0.019547688,0.013133603,213.63216,-105.39142,-2.505463,STD
8338570427000,1.965123,-1.48239389569908,9.71289314630042,-1.26212739569908,0.009162978,-0.015271631,0.0021380284,213.46796,-105.36719,-2.5675664,STD
8338575385000,1.970081,-1.48639958549374,9.70888744227595,-1.26613309243616,0.0033597588,-0.013439035,0.0015271631,213.30763,-105.338806,-2.624726,STD
8338580258000,1.974954,-1.49999345278182,9.69529376424896,-1.27972700703952,-0.0021380284,-0.0125227375,0.0061086523,213.14752,-105.314575,-2.6827621,STD
8338585376000,1.980072,-1.51275851374976,9.68252887444401,-1.29305744312512,0.008246681,-0.023823744,0.0067195175,212.99089,-105.29491,-2.7428644,STD
8338590304000,1.985,-1.50819513428737,9.68709211095533,-1.29533913285631,0.003970624,-0.022602014,0.004581489,212.83226,-105.26988,-2.801054,STD
8338595954000,1.99065,-1.50296317528524,9.69232390606266,-1.29795511235738,-0.0033597588,-0.03145956,0.004581489,212.68121,-105.25201,-2.8633728,STD
8338600292000,1.994988,-1.49894614198414,9.69634081352736,-1.29996362900793,0.006414085,-0.0290161,0.005192355,212.52809,-105.23802,-2.9246316,STD
8338605257000,1.999953,-1.49434850013537,9.70093831135177,-1.30226244993231,0.003970624,-0.020158553,0.004886922,212.37439,-105.22281,-2.9863143,STD
8338610293000,2.004989,-1.48150201568995,9.69714541939712,-1.3107656562067,0.0021380284,-0.022296581,0.010995574,212.22508,-105.21022,-3.0460904,STD
8338615291000,2.009987,-1.46805935146976,9.69266490563565,-1.31972743235349,0.002443461,-0.021991149,-0.0033597588,212.07262,-105.19888,-3.1102371,STD
8338620350000,2.015046,-1.44488768233238,9.69987424891431,-1.30530830678954,-0.005497787,-0.027488936,0.004581489,211.9321,-105.18722,-3.1710875,STD
8338625303000,2.019999,-1.41976651331427,9.70992242273064,-1.28521122467959,0.0018325958,-0.025961773,0.007330383,211.7895,-105.181145,-3.2360163,STD
8338630253000,2.024949,-1.42978433567912,9.71502103166329,-1.27501415276571,-0.00030543262,-0.025961773,0.012217305,211.65192,-105.17111,-3.2953556,STD
8338635271000,2.029967,-1.44370161989574,9.7196602232841,-1.26573601172893,0.0036651916,-0.013133603,0.008246681,211.51123,-105.16523,-3.3546813,STD
8338640300000,2.034996,-1.45809769018752,9.72245901027878,-1.27013842641897,-0.005192355,-0.01985312,0.008552114,211.38489,-105.14778,-3.410718,STD
8338645231000,2.039927,-1.4723044045728,9.72482684957882,-1.27724182069795,0.005497787,-0.019242255,0.008246681,211.25388,-105.13739,-3.465965,STD
8338650283000,2.044979,-1.48685973231047,9.72725279241877,-1.28451952256318,0.004581489,-0.024740042,0.010995574,211.12598,-105.11431,-3.5191863,STD
8338655240000,2.049936,-1.50114135534998,9.72963311677698,-1.29166037136482,0.008857546,-0.02321288,0.007330383,210.99672,-105.09648,-3.5732195,STD
8338660299000,2.054995,-1.49568521289694,9.72216244847068,-1.28499557179038,-0.00030543262,-0.025350908,0.0033597588,210.87135,-105.074905,-3.6267483,STD
8338665782000,2.060478,-1.48545540685759,9.71193242879408,-1.27476571234171,-0.0009162979,-0.034208454,0.011301007,210.74922,-105.05669,-3.67786,STD
8338670303000,2.064999,-1.47305282616552,9.710882,-1.27560731250874,0.006414085,-0.027183503,0.0030543262,210.6251,-105.0414,-3.7393575,STD
8338675247000,2.069943,-1.45887264742937,9.710882,-1.27797065506639,0.0021380284,-0.024129177,0.013439035,210.50755,-105.02125,-3.7937577,STD
8338680294000,2.07499,-1.44439704830289,9.710882,-1.28038323392732,0.0070249503,-0.0290161,0.01282817,210.38712,-105.00147,-3.8466258,STD
8338685285000,2.079981,-1.43008206608765,9.710882,-1.28276904353599,0.009773844,-0.028099801,-0.0009162979,210.26515,-104.980675,-3.8992555,STD
8338690298000,2.084994,-1.43065767561096,9.70716850806372,-1.27586521000297,-0.0018325958,-0.020158553,0.002443461,210.1449,-104.956505,-3.946765,STD
8338695313000,2.090009,-1.43540954565153,9.70241648916593,-1.26636142030276,0.0009162979,-0.017715093,0.008857546,210.02626,-104.9383,-3.9970832,STD
8338700322000,2.095018,-1.43284259595474,9.70498351927506,-1.28253075068589,0.0015271631,-0.017104227,-0.0021380284,209.90842,-104.91769,-4.0458474,STD
8338705320000,2.100016,-1.42804993083008,9.7097763345349,-1.30649437657955,-0.007330383,-0.025045475,0.008552114,209.79544,-104.89352,-4.0869884,STD
8338710284000,2.10498,-1.43238593676259,9.71450984623031,-1.31565037046866,0.002443461,-0.011301007,0.012217305,209.67659,-104.87689,-4.1337047,STD
8338715311000,2.110007,-1.43956387116445,9.71929525242284,-1.32043567672581,-0.00030543262,-0.01160644,0.008246681,209.5651,-104.854706,-4.1807585,STD
8338720301000,2.114997,-1.44668897414144,9.72404543680732,-1.32518576191044,0.0036651916,-0.018325957,0.015577064,209.45169,-104.841644,-4.2210307,STD
8338725305000,2.120001,-1.45383406738731,9.72880894836241,-1.32994917398738,0.011301007,-0.02565634,0.013744468,209.33875,-104.83018,-4.264743,STD
8338730289000,2.124985,-1.46597828125789,9.72316673570805,-1.31056880162089,0.0070249503,-0.023518313,0.0143553335,209.22687,-104.81596,-4.305289,STD
8338735886000,2.130582,-1.48158577895759,9.71276151994565,-1.27935375189751,0.004276057,-0.035430185,0.008246681,209.12143,-104.80516,-4.3494067,STD
8338740307000,2.135003,-1.48120114559011,9.70127057058766,-1.27051144559011,0.0033597588,-0.03268129,-0.002443461,209.01073,-104.79586,-4.3949695,STD
8338745294000,2.13999,-1.47651562595899,9.68721420739723,-1.26582592595899,-0.0012217305,-0.03848451,-0.0018325958,208.90712,-104.78457,-4.440111,STD
8338750256000,2.144952,-1.48102104084967,9.69453761703431,-1.27652421403186,-0.0018325958,-0.041233405,0.006414085,208.80878,-104.76667,-4.4905334,STD
8338755305000,2.150001,-1.49089711584967,9.71428966390931,-1.29627641559436,0.007330383,-0.04153884,0.010995574,208.71194,-104.75095,-4.5414004,STD
8338760296000,2.154992,-1.47563775930428,9.71740159603516,-1.32384718081167,0.008246681,-0.03023783,0.005497787,208.61368,-104.73317,-4.591103,STD
8338765286000,2.159982,-1.44882558500094,9.71293280699458,-1.35512805083224,0.006414085,-0.03359759,0.0076358155,208.52121,-104.716484,-4.6379175,STD
8338770310000,2.165006,-1.42755335158039,9.71344423877092,-1.37076447925433,0.0076358155,-0.028405234,0.0021380284,208.43036,-104.70699,-4.6935577,STD
8338775299000,2.169995,-1.41118919724043,9.71811980908112,-1.3731021911782,0.010079277,-0.013439035,0.011301007,208.33958,-104.696106,-4.7433257,STD
8338780266000,2.174962,-1.39489720393385,9.72277476152265,-1.37542959449065,0.0076358155,-0.01160644,0.008246681,208.25249,-104.68991,-4.7922435,STD
8338785292000,2.179988,-1.37841168785595,9.72748500733927,-1.37778464362462,0.015577064,-0.0061086523,0.0070249503,208.1618,-104.68626,-4.836314,STD
8338790305000,2.185001,-1.36724868327562,9.7233317098187,-1.38799901356692,0.014049901,-0.008246681,0.015577064,208.07297,-104.68027,-4.878518,STD
8338795298000,2.189994,-1.36237834691383,9.70872039559992,-1.4074804607252,0.010995574,-0.01282817,0.004886922,207.98274,-104.67799,-4.9257007,STD
8338800283000,2.194979,-1.36454316577778,9.71057837362963,-1.40809427161481,0.004276057,-0.016493361,0.008857546,207.90097,-104.667305,-4.960447,STD
8338805518000,2.200214,-1.37444623466667,9.73038502844445,-1.38828792702222,0.012217305,-0.014660766,0.00580322,207.81848,-104.661644,-4.9996505,STD
8338810290000,2.204986,-1.38790785410355,9.73518905365805,-1.36800048820909,0.0015271631,-0.015577064,0.0076358155,207.73924,-104.651505,-5.0352077,STD
8338815297000,2.209993,-1.40689658312048,9.72569454044154,-1.34426475043065,0.0021380284,-0.014966198,0.005192355,207.65933,-104.6473,-5.0722136,STD
8338820370000,2.215066,-1.42760777164925,9.71841089862177,-1.32912814139303,-0.0027488936,-0.02321288,0.0036651916,207.58327,-104.6391,-5.112927,STD
8338825343000,2.220039,-1.44963409989825,9.71400553177319,-1.32472286654334,0.0009162979,-0.019547688,0.0061086523,207.50449,-104.63334,-5.151882,STD
8338830256000,2.224952,-1.47498356989743,9.71227233902031,-1.32020909001465,-0.004276057,-0.005192355,0.0021380284,207.42363,-104.62282,-5.1961865,STD
8338835339000,2.230035,-1.5106494816412,9.71736757567511,-1.31511395976554,-0.005192355,-0.0018325958,0.009162978,207.34637,-104.61326,-5.2366877,STD
8338840239000,2.234935,-1.52799587020489,9.7213176438904,-1.31116397404098,0.008246681,0.0061086523,0.004276057,207.26144,-104.60873,-5.2837896,STD
8338845301000,2.239997,-1.51602900730684,9.72371106645273,-1.30877060146137,0.00061086525,0.013744468,0.00061086525,207.17691,-104.59777,-5.327866,STD
8338850245000,2.244941,-1.50434110328314,9.72604869607504,-1.30643302065663,-0.00061086525,0.01160644,0.0067195175,207.09953,-104.593185,-5.380979,STD
8338855307000,2.250003,-1.49237424038509,9.72844211863737,-1.30403964807702,-0.0027488936,0.01160644,-0.00030543262,207.01886,-104.58834,-5.43727,STD
8338860232000,2.254928,-1.47614469215541,9.72865925087882,-1.31483628333025,-0.0033597588,0.0015271631,0.004886922,206.94345,-104.581856,-5.4884963,STD
8338865308000,2.260004,-1.44916314606846,9.72416222479186,-1.35530867289547,-0.00061086525,-0.0067195175,0.010995574,206.86772,-104.57657,-5.540482,STD
8338870411000,2.265107,-1.4236463205298,9.71798555629139,-1.39028597682119,0.010995574,-0.009162978,0.004581489,206.7895,-104.57532,-5.5882573,STD
8338875332000,2.270028,-1.40606305187016,9.70479832282436,-1.39907754230016,0.011911872,-0.007330383,0.004276057,206.71387,-104.57078,-5.6322713,STD
8338880460000,2.275156,-1.38888604182553,9.69222707324907,-1.40754145557397,0.008857546,-0.0067195175,0.007330383,206.64174,-104.57322,-5.671022,STD
8338885319000,2.280015,-1.3937071343763,9.70186905698301,-1.40272031268131,0.010079277,-0.0106901415,0.0076358155,206.57082,-104.57722,-5.71027,STD
8338890251000,2.284947,-1.39803037339125,9.71143199705493,-1.39803037339125,0.012217305,0.00030543262,0.0033597588,206.49722,-104.579025,-5.7438307,STD
8338895301000,2.289997,-1.39565652884209,9.71855375379178,-1.39565652884209,-0.002443461,0.0070249503,-0.0012217305,206.42659,-104.57665,-5.777564,STD
8338900326000,2.295022,-1.39329443599863,9.72564025430717,-1.39329443599863,0.0036651916,0.009468411,0.003970624,206.35484,-104.578835,-5.8097486,STD
8338905306000,2.300002,-1.3909534962254,9.73266329362392,-1.3909534962254,0.0143553335,0.014966198,-0.0009162979,206.28006,-104.580086,-5.8450055,STD
8338910478000,2.305174,-1.38885372481914,9.74004644963829,-1.38777009619737,0.0070249503,0.0125227375,0.005497787,206.20572,-104.575745,-5.8736954,STD
8338915335000,2.310031,-1.39316779222315,9.7486745844463,-1.37051373648674,0.007330383,0.018325957,0.004276057,206.12747,-104.57756,-5.904693,STD
8338921479000,2.316175,-1.39862499422649,9.75958898845298,-1.34868481450566,0.005192355,0.02107485,0.007330383,206.05023,-104.576,-5.931459,STD
8338925321000,2.320017,-1.40203752191152,9.76641404382304,-1.33503463249861,0.008552114,0.017715093,0.0027488936,205.9733,-104.57694,-5.9605365,STD
8338930262000,2.324958,-1.40642619949917,9.77519139899833,-1.31747983049527,0.0027488936,0.021991149,0.0070249503,205.89507,-104.57353,-5.985463,STD
8338935346000,2.330042,-1.41786619575961,9.76784412889196,-1.29522979711377,0.005192355,0.022602014,0.0061086523,205.8184,-104.56934,-6.010621,STD
8338940299000,2.334995,-1.43193184432144,9.75377823554413,-1.27178708214886,0.003970624,0.0290161,0.0027488936,205.73984,-104.56264,-6.0345755,STD
8338945301000,2.339997,-1.45033149608177,9.73537857602215,-1.26759112402044,-0.0033597588,0.01985312,0.0015271631,205.66824,-104.55264,-6.0642247,STD
8338950414000,2.34511,-1.47118591618399,9.71452426479983,-1.272804729046,-0.004276057,0.024129177,0.002443461,205.59174,-104.544365,-6.092696,STD
8338955299000,2.349995,-1.47858277510999,9.71238386140792,-1.27746988295097,-0.011301007,0.022296581,0.0027488936,205.51894,-104.531296,-6.1255703,STD
8338960279000,2.354975,-1.48326658874921,9.71425742598994,-1.28215370637178,-0.011301007,0.027794369,0.002443461,205.482038738486,-104.525277918302,-6.14083837769323,STD
8338965287000,2.359983,-1.4879767370836,9.71614152467002,-1.28686386454274,-0.0125227375,0.024129177,0.007330383,205.44493,-104.519226,-6.1561923,STD
8338970425000,2.365121,-1.49280915364551,9.71807453166248,-1.29169629119657,-0.010995574,0.025350908,-0.0009162979,205.36969,-104.51042,-6.1933646,STD
8338975327000,2.370023,-1.49741960634821,9.71991875125707,-1.29630675352766,-0.015271631,0.01740966,0.004276057,205.29837,-104.49796,-6.2256985,STD
8338980319000,2.375015,-1.50211470628536,9.72179683045255,-1.30100186326996,0.00030543262,0.018936822,0.011301007,205.22429,-104.49211,-6.2587757,STD
8338985301000,2.379997,-1.50680040097423,9.72367114747014,-1.30568756774434,-0.0009162979,0.021685716,-0.0015271631,205.15202,-104.47562,-6.2926164,STD
8338991051000,2.385747,-1.51220841873036,9.72583439974859,-1.31109559679447,0.0012217305,0.017104227,0.0061086523,205.0838,-104.46104,-6.3190036,STD
8338995297000,2.389993,-1.51620188714645,9.72743182047454,-1.31508907355044,-0.0021380284,0.013439035,0.00580322,205.01286,-104.44903,-6.350735,STD
8339000305000,2.395001,-1.52091203548083,9.72931591915462,-1.3197992317214,-0.00580322,0.0070249503,0.003970624,204.94504,-104.4371,-6.381042,STD
8339005298000,2.399994,-1.52414444048961,9.7257391887993,-1.31730267853118,-0.009162978,0.007941248,0.004276057,204.87692,-104.42459,-6.410391,STD
8339010293000,2.404989,-1.52646793553526,9.71876855809209,-1.31033219339421,0.0015271631,0.0076358155,-0.00580322,204.81075,-104.41673,-6.4434,STD
8339015320000,2.410016,-1.52880631583447,9.71175327069166,-1.3033170524966,-0.004886922,0.00580322,-0.00061086525,204.73895,-104.40053,-6.469069,STD
8339020306000,2.415002,-1.53112562440256,9.70479519967942,-1.29635912679231,-0.00061086525,0.0009162979,0.0012217305,204.66795,-104.39191,-6.498565,STD
8339025411000,2.420107,-1.53757585974136,9.70923541382234,-1.30344266427814,-0.008857546,0.007941248,0.0012217305,204.5934,-104.37882,-6.5255957,STD
8339030288000,2.424984,-1.54747755519398,9.72408818963324,-1.32324595179139,-0.0106901415,0.0021380284,0.0021380284,204.52472,-104.368484,-6.5528965,STD
8339035296000,2.429992,-1.56017877763512,9.72712391330746,-1.32535214824326,-0.009162978,-0.007330383,0.0018325958,204.45538,-104.35655,-6.581673,STD
8339040301000,2.434997,-1.57449107503732,9.72235304787499,-1.31581061664178,-0.009773844,-0.0061086523,0.0015271631,204.38539,-104.34398,-6.609775,STD
8339045273000,2.439969,-1.57731728101898,9.71760312137862,-1.30916678101898,-0.008246681,-0.010995574,0.0070249503,204.32127,-104.33762,-6.6401496,STD
8339050298000,2.444994,-1.57250974655345,9.71279548651349,-1.30435924655345,-0.004276057,-0.008857546,0.00030543262,204.25465,-104.33368,-6.673238,STD
8339055295000,2.449991,-1.56775567553444,9.7080413162114,-1.30812704893112,-0.0030543262,-0.005192355,0.017104227,204.19026,-104.32569,-6.700817,STD
8339060236000,2.454932,-1.56307248384798,9.70335802672209,-1.31749343230404,0.004581489,-0.00061086525,0.0125227375,204.12383,-104.324326,-6.735708,STD
8339065303000,2.459999,-1.55829333997645,9.70403121695614,-1.32977788007065,-0.005497787,-0.007330383,0.0106901415,204.06242,-104.314835,-6.764813,STD
8339070477000,2.465173,-1.55343117108233,9.70889348739084,-1.34436438675302,0.0070249503,0.005497787,0.01038471,203.99467,-104.31359,-6.793041,STD
8339075329000,2.470025,-1.54620329556089,9.70302304379124,-1.33461166874625,-0.00580322,-0.005497787,0.013744468,203.9365,-104.30446,-6.821444,STD
8339080294000,2.47499,-1.53669538509298,9.68876145110978,-1.30608808626275,0.007330383,-0.006414085,0.014966198,203.87238,-104.30545,-6.848908,STD
8339085303000,2.479999,-1.532289,9.68598115838173,-1.30052742338813,0.0030543262,-0.008246681,0.014049901,203.81519,-104.30338,-6.8782806,STD
8339090300000,2.484996,-1.532289,9.6930470019687,-1.31465930731371,0.0018325958,-0.019242255,0.013439035,203.76152,-104.30514,-6.9075623,STD
8339095296000,2.489992,-1.532289,9.70011143153854,-1.32878836316567,0.0012217305,-0.02321288,0.013439035,203.70775,-104.30235,-6.9357533,STD
8339100318000,2.495014,-1.532289,9.7072126255537,-1.34299094893198,-0.003970624,-0.026267206,0.013439035,203.681205501751,-104.300330146073,-6.95124974996498,STD
8339105291000,2.499987,-1.53681454818421,9.71540751274281,-1.35259256818521,-0.009162978,-0.020158553,0.004276057,203.65492,-104.29833,-6.966595,STD
8339110289000,2.504985,-1.54632619234935,9.7249190824184,-1.35734837785285,-0.0070249503,-0.02443461,0.013133603,203.59668,-104.29317,-6.986267,STD
8339115293000,2.509989,-1.5558492550549,9.73444207054498,-1.3621098967758,-0.015271631,-0.022602014,0.0106901415,203.53499,-104.288895,-7.009882,STD
8339120457000,2.515153,-1.56567681217149,9.744269550698,-1.36702366250683,-0.0143553335,-0.01863139,0.010995574,203.47531,-104.285934,-7.0303483,STD
8339125281000,2.519977,-1.56422033194568,9.75556512340172,-1.3631074097532,-0.012217305,-0.015577064,0.009773844,203.40775,-104.285645,-7.049027,STD
8339130591000,2.525287,-1.54909912141937,9.77068670234909,-1.3479861465953,-0.013439035,-0.016187929,0.005497787,203.34079,-104.28519,-7.0685396,STD
8339135252000,2.529948,-1.53989483871907,9.77003556069869,-1.34272412011645,-0.014966198,-0.02076942,0.0067195175,203.27159,-104.29055,-7.090187,STD
8339140306000,2.535002,-1.53519788015526,9.75124821688501,-1.34742098059195,-0.018936822,-0.01282817,0.01160644,203.19992,-104.29491,-7.1112323,STD
8339145201000,2.539897,-1.53073655216752,9.73650803949302,-1.34722490433505,-0.0143553335,-0.024740042,0.010079277,203.14001,-104.301605,-7.1361275,STD
8339150303000,2.544999,-1.52624896642175,9.72753268056576,-1.3382497328435,-0.010995574,-0.026572637,0.009468411,203.07625,-104.30608,-7.158215,STD
8339155276000,2.549972,-1.5209052207908,9.7195554915271,-1.3302727103954,-0.015577064,-0.03176499,0.0030543262,203.01717,-104.311554,-7.1825414,STD
8339160292000,2.554988,-1.51138441436924,9.714794988901,-1.32551230718462,-0.015271631,-0.029321533,0.0021380284,202.95752,-104.318146,-7.2050033,STD
8339165276000,2.559972,-1.50601436038916,9.70760766990966,-1.32651091223072,-0.004886922,-0.030543262,0.005192355,202.90099,-104.333534,-7.2318473,STD
8339170439000,2.565135,-1.52074036606771,9.68797309818326,-1.35596287233198,-0.0106901415,-0.03145956,0.004276057,202.84404,-104.345276,-7.259545,STD
8339175307000,2.570003,-1.52964054509539,9.67323712755361,-1.38104644117846,-0.005497787,-0.040317107,0.006414085,202.79456,-104.36354,-7.28782,STD
8339180301000,2.574997,-1.51349111433395,9.67727456955934,-1.39315851424954,-0.0021380284,-0.034208454,0.007941248,202.7416,-104.379616,-7.3152285,STD
8339185275000,2.579971,-1.49740635890596,9.68129584239406,-1.40522208082053,-0.008246681,-0.030848695,0.009468411,202.69626,-104.40303,-7.349028,STD
8339190301000,2.584997,-1.50156108490773,9.67836227840399,-1.40400085754613,-0.0033597588,-0.029932396,0.0067195175,202.65024,-104.42954,-7.3827505,STD
8339195228000,2.589924,-1.51097453001496,9.67365545755611,-1.39929413499252,-0.008552114,-0.021685716,0.007330383,202.60197,-104.45063,-7.41387,STD
8339200299000,2.594995,-1.49084579165108,9.68371964901053,-1.39078383055036,-0.0012217305,-0.02076942,0.004581489,202.55225,-104.47032,-7.4375324,STD
8339205252000,2.599948,-1.46282537790686,9.69772966082505,-1.38144369263562,-0.01160644,-0.023823744,0.014049901,202.50278,-104.48195,-7.457091,STD
8339210294000,2.60499,-1.4538847131592,9.71562435638666,-1.35758123363016,-0.0021380284,-0.004581489,0.018325957,202.44612,-104.501114,-7.4789133,STD
8339215242000,2.609938,-1.45154052044128,9.73437824082319,-1.32945062727812,0.0027488936,-0.01160644,0.010995574,202.39821,-104.51646,-7.502907,STD
8339220460000,2.615156,-1.44906841098249,9.75415547788661,-1.29978500400712,-0.0061086523,-0.022602014,0.0061086523,202.35152,-104.52468,-7.519886,STD
8339225282000,2.619978,-1.44678391274364,9.77243179776393,-1.27237073888394,-0.018020526,-0.022296581,0.013744468,202.30455,-104.53217,-7.5349956,STD
8339230293000,2.624989,-1.44281499691168,9.76807118789686,-1.25757276238214,-0.01863139,-0.016493361,0.018936822,202.26262,-104.54424,-7.55564,STD
8339235245000,2.629941,-1.4382522868097,9.7543829146623,-1.24844743746392,-0.010995574,-0.032070424,0.018325957,202.2272,-104.55483,-7.576801,STD
8339240322000,2.635018,-1.45434270869945,9.75215934681408,-1.25983635493163,-0.014660766,-0.03634648,0.008246681,202.18297,-104.55346,-7.594456,STD
8339245295000,2.639991,-1.48205607873145,9.75677833827951,-1.28293087818834,-0.0125227375,-0.03634648,0.005192355,202.14276,-104.55435,-7.6108594,STD
8339250301000,2.644997,-1.50247059653608,9.73329966948454,-1.29852819769072,-0.004276057,-0.028099801,0.007941248,202.09943,-104.5539,-7.6256366,STD
8339255324000,2.65002,-1.51734820470103,9.6886669485567,-1.30844660313402,-0.0033597588,-0.024740042,0.016187929,202.05804,-104.5518,-7.639854,STD
8339260294000,2.65499,-1.50389417520216,9.68198388140162,-1.30574992506739,-0.008857546,-0.01863139,0.007941248,202.01323,-104.55546,-7.6617956,STD
8339265303000,2.659999,-1.47405578133942,9.69690287061995,-1.29580379377981,-0.004276057,-0.027794369,0.0030543262,201.97299,-104.55991,-7.681051,STD
8339270383000,2.665079,-1.44516657110141,9.69126274284328,-1.28952146443474,-0.01282817,-0.03145956,0.0061086523,201.92975,-104.56148,-7.702267,STD
8339275326000,2.670022,-1.41760429757399,9.6774818219311,-1.28492766424066,-0.00061086525,-0.029932396,0.010079277,201.88779,-104.569595,-7.724518,STD
8339280319000,2.675015,-1.40467751041625,9.68191383872914,-1.27706605333803,-0.00030543262,-0.0290161,0.0021380284,201.85435,-104.56872,-7.7465434,STD
8339285308000,2.680004,-1.39987370434345,9.69632505630404,-1.26745849135331,-0.005497787,-0.028405234,0.006414085,201.82188,-104.56695,-7.76371,STD
8339290301000,2.684997,-1.39040503647112,9.70599030574678,-1.26882372420932,-0.003970624,-0.02443461,0.007330383,201.79002,-104.56619,-7.779157,STD
8339295301000,2.689997,-1.37846153153248,9.71315657333134,-1.27598986708071,0.0030543262,-0.023823744,0.01282817,201.75978,-104.5642,-7.792129,STD
8339300292000,2.694988,-1.36653952490272,9.72030994163424,-1.28314311089494,0.00580322,-0.017715093,0.0076358155,201.73578,-104.55376,-7.807713,STD
8339305305000,2.700001,-1.35456496685124,9.72749484151452,-1.2903278857378,-0.004886922,-0.015271631,0.0030543262,201.71315,-104.54115,-7.8216233,STD
8339310291000,2.704987,-1.35486460319807,9.73457075584594,-1.28833416523384,-0.003970624,-0.009773844,-0.00030543262,201.69203,-104.523254,-7.833881,STD
8339315905000,2.710601,-1.36278815911279,9.74249422902338,-1.28041055416094,-0.00030543262,-0.00580322,0.0027488936,201.6708,-104.50383,-7.845461,STD
8339320406000,2.715102,-1.36914083548831,9.74884683906465,-1.27405783356259,-0.009468411,-0.0027488936,0.0027488936,201.65004,-104.48238,-7.85396,STD
8339325345000,2.720041,-1.37611170165553,9.75581763244252,-1.26708691886913,-0.00580322,0.0076358155,0.0021380284,201.62633,-104.46512,-7.8611183,STD
8339330300000,2.724996,-1.3790601,9.75742394631332,-1.25608634603951,-0.00580322,0.0030543262,0.0067195175,201.61127,-104.44074,-7.868467,STD
8339335330000,2.730026,-1.3790601,9.75506856248778,-1.24195433821631,-0.0030543262,-0.0070249503,0.009468411,201.59471,-104.419044,-7.8762374,STD
8339340279000,2.734975,-1.3790601,9.75275110830237,-1.22804990348132,0.0027488936,-0.004581489,0.0106901415,201.57217,-104.39605,-7.8829026,STD
8339345286000,2.739982,-1.3790601,9.75040649462155,-1.213982515177,-0.0009162979,-0.008857546,0.005192355,201.5542,-104.37288,-7.891733,STD
8339350333000,2.745029,-1.39992989132199,9.73759468493964,-1.21827201506036,0.0012217305,-0.0027488936,0.014049901,201.5305,-104.34498,-7.891242,STD
8339355322000,2.750018,-1.44247970288937,9.71395592816149,-1.24191077183851,-0.005497787,-0.00580322,0.011301007,201.50969,-104.31772,-7.896512,STD
8339360249000,2.754945,-1.46314920930267,9.69499848278545,-1.25666390167283,0.003970624,-0.0070249503,0.009468411,201.48721,-104.291466,-7.8996186,STD
8339365303000,2.759999,-1.45844186690819,9.68087657848668,-1.26137126864423,-0.004581489,0.003970624,0.0143553335,201.4625,-104.259674,-7.901256,STD
8339370264000,2.76496,-1.45382114557479,9.6670145351099,-1.26599201410231,0.0009162979,-0.0015271631,0.009162978,201.43854,-104.24274,-7.914251,STD
8339375298000,2.769994,-1.44913243136549,9.65294851488037,-1.27068075279129,-0.004276057,0.009468411,0.00580322,201.40736,-104.220955,-7.923827,STD
8339380240000,2.774936,-1.44043491253073,9.64546294090795,-1.26886132522197,0.0009162979,0.01038471,-0.003970624,201.37877,-104.20384,-7.9361634,STD
8339385619000,2.780315,-1.42234630825683,9.65063093624279,-1.25335685352897,-0.0018325958,0.011301007,0.0015271631,201.34798,-104.18246,-7.9446115,STD
8339390233000,2.784929,-1.40683026064209,9.65506394060697,-1.24005742382242,-0.005497787,0.012217305,0.004581489,201.31693,-104.16581,-7.955191,STD
8339395297000,2.789993,-1.38980094440431,9.65992929260095,-1.22546091059443,-0.0015271631,0.019242255,0.01160644,201.2847,-104.149414,-7.9627914,STD
8339400245000,2.794941,-1.37751833480496,9.67070690647086,-1.22396340647086,0.010995574,0.01740966,0.010079277,201.26225,-104.14105,-7.9789352,STD
8339405214000,2.79991,-1.37315058608536,9.69254587810923,-1.24580237810922,0.0067195175,0.013439035,0.007941248,201.23892,-104.12905,-7.992902,STD
8339410141000,2.804837,-1.3726529189589,9.71563630739726,-1.26730803550685,-0.0033597588,0.013744468,0.009468411,201.21771,-104.112564,-8.000907,STD
8339415193000,2.809889,-1.39386140873425,9.74744923583562,-1.28851663601096,0.007941248,0.022907447,0.00580322,201.1948,-104.10177,-8.0106535,STD
8339420187000,2.814883,-1.40940059649915,9.77156319299829,-1.30405586287491,-0.005192355,0.01038471,0.008246681,201.17969,-104.085495,-8.018862,STD
8339425206000,2.819902,-1.41422223989367,9.78120647978734,-1.30887740557729,-0.004276057,0.008552114,0.004581489,201.15854,-104.07707,-8.02864,STD
8339430166000,2.824862,-1.42218878539863,9.78588987130487,-1.31041550486712,-0.004886922,0.009162978,0.004276057,201.13959,-104.067345,-8.039542,STD
8339435221000,2.829917,-1.43664406279486,9.78107134487907,-1.30559707906838,-0.0018325958,0.017715093,0.0033597588,201.11876,-104.0597,-8.051153,STD
8339440193000,2.834889,-1.443751584,9.77635575666667,-1.2993173705,-0.00061086525,0.02321288,0.0067195175,201.09978,-104.05504,-8.06422,STD
8339445207000,2.839903,-1.43669010235294,9.77164800392157,-1.28990203705882,0.0015271631,0.018325957,0.0070249503,201.08122,-104.05208,-8.078307,STD
8339450191000,2.844887,-1.42967087129412,9.76696841882353,-1.28054303788235,-0.0018325958,0.02321288,0.0027488936,201.0572,-104.0493,-8.094241,STD
8339455211000,2.849907,-1.42260093952941,9.76225503254902,-1.27111643758824,-0.0036651916,0.026572637,0.006414085,201.0356,-104.04608,-8.107999,STD
8339460258000,2.854954,-1.41856527492952,9.75517272523962,-1.26054517521143,-0.0036651916,0.016187929,0.0030543262,201.02615596587,-104.045045462645,-8.1154796164302,STD
8339465290000,2.859986,-1.42309360208607,9.74158793290735,-1.24696019374178,0.00030543262,0.015271631,0.011301007,201.01674,-104.044014,-8.122938,STD
8339470391000,2.865087,-1.42842764833239,9.73077768965517,-1.2346664258338,0.008552114,0.0070249503,0.012217305,200.99623,-104.04267,-8.137414,STD
8339475311000,2.870007,-1.43730608360656,9.735217,-1.23022720819672,0.0076358155,0.0018325958,0.009162978,200.97224,-104.04722,-8.150898,STD
8339480548000,2.875244,-1.44576549523583,9.73994537352606,-1.2268285038798,0.002443461,-0.00580322,0.004886922,200.95093,-104.05177,-8.166205,STD
8339485322000,2.880018,-1.4414178230601,9.74429263712438,-1.23987138421453,0.008857546,0.0033597588,0.005192355,200.92662,-104.05834,-8.180171,STD
8339490233000,2.884929,-1.43694538526056,9.74876465462153,-1.25328855751236,0.009773844,0.007941248,0.00061086525,200.90567,-104.059845,-8.197397,STD
8339495290000,2.889986,-1.43215793264861,9.75355220402898,-1.29382976175449,0.008857546,0.005497787,0.007941248,200.88501,-104.06025,-8.210817,STD
8339500243000,2.894939,-1.42745083776918,9.758259446363,-1.33619410718468,-0.004581489,0.010995574,-0.002443461,200.85973,-104.06162,-8.22952,STD
8339505303000,2.899999,-1.41833792257072,9.75015998203474,-1.35796553019355,-0.0018325958,0.0143553335,0.005192355,200.83789,-104.06318,-8.240014,STD
8339510230000,2.904926,-1.4089710965062,9.74079354719603,-1.37669893780645,-0.007941248,0.017715093,-0.00061086525,200.81334,-104.06356,-8.256657,STD
8339515303000,2.909999,-1.43348773021597,9.74817846017077,-1.39619164643898,-0.009162978,0.019547688,0.00061086525,200.79398,-104.066414,-8.268961,STD
8339520296000,2.914992,-1.46230764721246,9.75778478151683,-1.4154049913109,-0.0067195175,0.015577064,0.0030543262,200.7752,-104.06936,-8.282464,STD
8339525293000,2.919989,-1.4652514,9.75029048180473,-1.41948639061144,-0.004276057,0.016493361,-0.0009162979,200.75525,-104.07437,-8.295154,STD
8339530227000,2.924923,-1.4652514,9.74097062292899,-1.42181636749507,-0.0018325958,0.024129177,0.005192355,200.73541,-104.07766,-8.303999,STD
8339535324000,2.93002,-1.4652514,9.73134287248521,-1.42422331767258,0.0012217305,0.026572637,0.0012217305,200.71411,-104.088135,-8.32105,STD
8339540235000,2.934931,-1.4652514,9.72206645843195,-1.42654243329389,-0.0009162979,0.01985312,-0.0061086523,200.69365,-104.09718,-8.337181,STD
8339545291000,2.939987,-1.45352100559278,9.70481855578211,-1.42303416853093,-0.008857546,0.023518313,-0.00030543262,200.67033,-104.10368,-8.349764,STD
8339550307000,2.945003,-1.43952822120594,9.68616160734052,-1.41836990706865,-0.005497787,0.0076358155,0.0021380284,200.65405,-104.11375,-8.366515,STD
8339555295000,2.949991,-1.42569966727676,9.66772368191889,-1.41015322796455,0.004276057,0.014660766,0.00061086525,200.63046,-104.12388,-8.381288,STD
8339560235000,2.954931,-1.41202770214816,9.64949455370388,-1.40103852109623,0.0027488936,0.010995574,0.0021380284,200.61488,-104.13091,-8.395716,STD
8339565292000,2.959988,-1.41088767527286,9.65003902714849,-1.41060217471338,0.0021380284,-0.0015271631,-0.0018325958,200.59178,-104.14184,-8.406293,STD
8339570369000,2.965065,-1.41534722117766,9.65895765330643,-1.42844003237641,-0.0036651916,0.0015271631,-0.00030543262,200.56612,-104.14964,-8.414155,STD
8339575291000,2.969987,-1.41480516387755,9.66556033612245,-1.43395874414286,-0.00030543262,0.01282817,-0.00030543262,200.54333,-104.16602,-8.425643,STD
8339580295000,2.974991,-1.40991503040816,9.67045046959184,-1.42906876385714,0.0067195175,0.022907447,-0.00030543262,200.532308480937,-104.171953893726,-8.4312509051336,STD
8339585284000,2.97998,-1.38785698753565,9.68396553607267,-1.43263959777121,-0.008246681,0.019547688,-0.0012217305,200.52132,-104.17787,-8.436842,STD
8339590302000,2.984998,-1.35232364275906,9.70427022879476,-1.44279199713742,-0.0030543262,0.019242255,0.002443461,200.49896,-104.19465,-8.446965,STD
8339595298000,2.989994,-1.3375056775996,9.72711861200202,-1.44934518849218,0.002443461,0.034208454,0.0070249503,200.4742,-104.20621,-8.455643,STD
8339600264000,2.99496,-1.33270906753404,9.7511016623298,-1.45414174847201,-0.0070249503,0.029626964,0.007330383,200.45534,-104.2152,-8.465467,STD
8339605388000,3.000084,-1.34434230529103,9.763703399038,-1.44579999095812,0.0018325958,0.032375857,0.009162978,200.4339,-104.22554,-8.4661455,STD
8339610290000,3.004986,-1.36258947750947,9.77054624045282,-1.43211457011466,-0.0009162979,0.03756821,0.010995574,200.41344,-104.23071,-8.466921,STD
8339615288000,3.009984,-1.38119399948985,9.77752309100185,-1.41816113613351,-0.0033597588,0.046731193,0.009773844,200.39255,-104.23613,-8.466162,STD
8339620351000,3.015047,-1.40004047703819,9.78459067690215,-1.40402623492372,-0.006414085,0.052534413,-0.00030543262,200.37115,-104.24174,-8.467413,STD
8339625304000,3.02,-1.41993494553887,9.7861475905477,-1.39551493745583,-0.008857546,0.055283304,0.002443461,200.3491,-104.24472,-8.465222,STD
8339630299000,3.024995,-1.44106399655477,9.78379987190813,-1.39081959823322,-0.004581489,0.054367006,-0.0015271631,200.32591,-104.251205,-8.467738,STD
8339635319000,3.030015,-1.46229879857676,9.78144040292501,-1.38610075881429,-0.004886922,0.051618114,0.004886922,200.29156,-104.25213,-8.467918,STD
8339640878000,3.035574,-1.48581359228995,9.77882759653514,-1.38087525516294,-0.0076358155,0.049785517,0.0027488936,200.25706,-104.25548,-8.47178,STD
8339645308000,3.040004,-1.49866158552992,9.76856047780602,-1.38373988552992,-0.008552114,0.040011674,0.003970624,200.22672,-104.25738,-8.473703,STD
8339650312000,3.045008,-1.50803239256942,9.74981896157607,-1.39311069256942,-0.0027488936,0.034208454,0.002443461,200.196,-104.26094,-8.47705,STD
8339655302000,3.049998,-1.52459419413629,9.73044579239303,-1.38904670776545,-0.010079277,0.029321533,0.0036651916,200.16165,-104.26879,-8.487895,STD
8339660289000,3.054985,-1.54982377751717,9.71026174632858,-1.36886313590069,-0.008246681,0.030543262,0.007941248,200.1278,-104.27943,-8.498205,STD
8339665334000,3.06003,-1.56604246464487,9.69879372747477,-1.35488363535513,-0.013133603,0.029321533,0.0067195175,200.09235,-104.28823,-8.509662,STD
8339670380000,3.065076,-1.57499228088712,9.69431919316603,-1.34593381911288,-0.0015271631,0.026267206,0.0070249503,200.05792,-104.29993,-8.519512,STD
8339675325000,3.070021,-1.57452195037901,9.68984524412051,-1.34452043308066,-0.015271631,0.027488936,0.004886922,200.0149,-104.30768,-8.532691,STD
8339680284000,3.07498,-1.56067607539359,9.68522985607386,-1.35375101640428,-0.014966198,0.027488936,0.002443461,199.97366,-104.32091,-8.546058,STD
8339685292000,3.079988,-1.55473297202585,9.68708733932539,-1.36648712687336,-0.020158553,0.03268129,0.0015271631,199.93031,-104.329506,-8.561039,STD
8339690312000,3.085008,-1.56444323985054,9.70165253827509,-1.38590761182589,-0.014966198,0.04062254,0.004886922,199.88686,-104.339935,-8.575236,STD
8339695204000,3.0899,-1.56070539457746,9.70923348420523,-1.40315917853119,-0.011911872,0.03970624,0.0030543262,199.84575,-104.34943,-8.588826,STD
8339700283000,3.094979,-1.53134484014085,9.70433996478873,-1.41783953239437,-0.008857546,0.03359759,0.004886922,199.80489,-104.35862,-8.600294,STD
8339705237000,3.099933,-1.51146245072141,9.7063239526484,-1.42527135072141,-0.0106901415,0.032375857,0.005192355,199.7626,-104.37015,-8.613331,STD
8339710904000,3.1056,-1.50620712723928,9.72209025234821,-1.42001602723928,-0.01038471,0.01863139,-0.0021380284,199.72588,-104.38349,-8.62901,STD
8339715315000,3.110011,-1.50911270477855,9.72934172331003,-1.4173675,-0.00030543262,0.019242255,0.0036651916,199.69089,-104.40439,-8.640116,STD
8339720433000,3.115129,-1.5273930316317,9.72705663771562,-1.4173675,-0.00030543262,0.017715093,0.012217305,199.675254520273,-104.413782588117,-8.6467641607788,STD
8339725279000,3.119975,-1.54470183662005,9.72489299473193,-1.4173675,-0.0021380284,0.018325957,0.0125227375,199.66045,-104.422676,-8.653059,STD
8339730302000,3.124998,-1.56264284517483,9.72265032475524,-1.4173675,-0.0012217305,0.021380283,0.00580322,199.62923,-104.443306,-8.667237,STD
8339735443000,3.130139,-1.57976227529228,9.72025358335635,-1.41695667100249,0.004276057,0.027488936,0.007330383,199.59743,-104.46155,-8.675858,STD
8339740303000,3.134999,-1.57119314190371,9.71596892718402,-1.40838744813587,-0.008552114,0.024129177,0.015271631,199.56795,-104.47521,-8.6848,STD
8339745264000,3.13996,-1.56244592570192,9.71159522774556,-1.39964014059652,-0.005497787,0.025350908,0.014966198,199.5319,-104.49062,-8.698002,STD
8339750284000,3.14498,-1.56472951884085,9.70717190367985,-1.37595362569457,-0.020158553,0.023823744,0.010079277,199.4983,-104.498116,-8.710555,STD
8339755249000,3.149945,-1.56910383457222,9.70279749659614,-1.34970777698252,-0.011301007,0.021380283,0.007330383,199.46526,-104.51099,-8.722524,STD
8339760291000,3.154987,-1.56376854735945,9.70471894761499,-1.33051137103918,-0.010079277,0.01863139,0.005497787,199.42381,-104.51931,-8.729988,STD
8339765329000,3.160025,-1.55349428875639,9.70985618419932,-1.31509998313458,-0.0021380284,0.009468411,0.016493361,199.38617,-104.529076,-8.735231,STD
8339770367000,3.165063,-1.57665684208955,9.71448409552239,-1.33723670447761,-0.009468411,-0.00580322,0.004276057,199.34482,-104.53832,-8.747426,STD
8339775365000,3.170061,-1.60791187238806,9.71894919309701,-1.36849168815298,-0.010995574,-0.0027488936,0.0076358155,199.30312,-104.545784,-8.751776,STD
8339780692000,3.175388,-1.62513121113233,9.71713347498568,-1.36575831245942,-0.01160644,-0.01038471,0.005497787,199.26936,-104.55193,-8.76127,STD
8339785333000,3.180029,-1.63361811752912,9.71288993316784,-1.34878454397556,0.002443461,-0.0143553335,0.009468411,199.2348,-104.55925,-8.767777,STD
8339790307000,3.185003,-1.63481175611541,9.70805979717832,-1.36050797772356,-0.016187929,-0.018325957,0.007330383,199.1992,-104.56685,-8.781647,STD
8339795300000,3.189996,-1.62973941471306,9.70298734984619,-1.39601431457516,-0.014660766,-0.016493361,0.0061086523,199.1639,-104.58092,-8.793946,STD
8339800265000,3.194961,-1.61541285812469,9.69340234882793,-1.4093710632419,-0.011301007,-0.01282817,0.004276057,199.12544,-104.593,-8.808545,STD
8339805307000,3.200003,-1.59614653369576,9.68136089605985,-1.41177940408978,-0.0106901415,-0.01863139,-0.00030543262,199.08948,-104.60513,-8.824585,STD
8339810292000,3.204988,-1.57709801579052,9.66945557236908,-1.41416051855362,-0.013744468,-0.029626964,-0.0018325958,199.05522,-104.61917,-8.838829,STD
8339815372000,3.210068,-1.55768648701247,9.65732336688279,-1.41658701032419,-0.0036651916,-0.025961773,-0.0021380284,199.01881,-104.63638,-8.853352,STD
8339820381000,3.215077,-1.54241005561248,9.66546473544481,-1.42037837098277,-0.008552114,-0.032070424,-0.0009162979,198.98878,-104.64898,-8.868881,STD
8339825326000,3.220022,-1.52917555887285,9.68311103819283,-1.42478985454122,0.00030543262,-0.021380283,-0.0015271631,198.9533,-104.66677,-8.883621,STD
8339830301000,3.224997,-1.52528963986543,9.69688371825063,-1.41405704684609,-0.007330383,-0.03023783,-0.007330383,198.9313,-104.67932,-8.897193,STD
8339835309000,3.230005,-1.53033175660219,9.70696763582843,-1.38884635786375,-0.003970624,-0.03756821,-0.00030543262,198.907,-104.693665,-8.9064865,STD
8339840320000,3.235016,-1.54112804539071,9.70793560026081,-1.38789911462534,-0.008246681,-0.040927973,0.002443461,198.8949,-104.71002,-8.9232,STD
8339845299000,3.239995,-1.55547744447788,9.70315238399037,-1.40224846376768,-0.008246681,-0.030543262,0.005192355,198.887951291157,-104.718538730727,-8.92964501412514,STD
8339850373000,3.245069,-1.54310348021967,9.69234713041757,-1.40480450189986,-0.0015271631,-0.027794369,0.007941248,198.88087,-104.72722,-8.936213,STD
8339855303000,3.249999,-1.51507238611716,9.67833180288937,-1.40013266101326,-0.005192355,-0.032070424,-0.00061086525,198.87161,-104.740616,-8.954309,STD
8339860291000,3.254987,-1.49381980764856,9.67813999514611,-1.39264869032653,-0.009468411,-0.034208454,0.0067195175,198.85843,-104.75362,-8.967334,STD
8339865338000,3.260034,-1.47723132131791,9.6876190807021,-1.3831695800255,-0.015882496,-0.03176499,0.0106901415,198.84459,-104.76677,-8.983245,STD
8339870385000,3.265081,-1.46064283498725,9.69709816625809,-1.37369046972446,-0.015882496,-0.02687807,0.0061086523,198.838023440505,-104.773847123397,-8.98934093078926,STD
8339875322000,3.270018,-1.44441589680329,9.70637065395175,-1.36441795782506,-0.004276057,-0.02321288,0.0036651916,198.8316,-104.78077,-8.995304,STD
8339880297000,3.274993,-1.43284430764448,9.70965641455287,-1.36113215985278,-0.0076358155,-0.03390302,0.0009162979,198.824,-104.7881,-9.005814,STD
8339885325000,3.280021,-1.42565953921715,9.70726145006466,-1.36352707432607,-0.0021380284,-0.033292156,0.016187929,198.80864,-104.787544,-9.006021,STD
8339890296000,3.284992,-1.41855622102855,9.70489363612852,-1.36589483881428,-0.0033597588,-0.0290161,0.01160644,198.79787,-104.78725,-9.009541,STD
8339895299000,3.289995,-1.41140717639013,9.70251057977718,-1.36827784539938,-0.0067195175,-0.03023783,0.0061086523,198.7895,-104.78515,-9.009406,STD
8339900280000,3.294976,-1.41693085157772,9.71044549474094,-1.36034309614336,-0.005497787,-0.027794369,0.007941248,198.7849,-104.77814,-9.008863,STD
8339905303000,3.299999,-1.43567043768991,9.72918537436697,-1.34160360786911,-0.01160644,-0.028099801,0.007330383,198.78099,-104.77021,-9.0107565,STD
8339910290000,3.304986,-1.45244125390814,9.73749849717969,-1.33751957598711,-0.0012217305,-0.023823744,0.004276057,198.77284,-104.76985,-9.01001,STD
8339915371000,3.310067,-1.46714498621072,9.73259713366237,-1.35222335946817,-0.011911872,-0.020158553,0.0027488936,198.76512,-104.76323,-9.009121,STD
8339920294000,3.31499,-1.4872991181244,9.73211452976077,-1.35159265458373,-0.0125227375,-0.014049901,0.011911872,198.75478,-104.758896,-9.008811,STD
8339925366000,3.320062,-1.51518822602871,9.73676281148325,-1.33299991598086,-0.010995574,-0.011911872,-0.002443461,198.74315,-104.75712,-9.015537,STD
8339930227000,3.324923,-1.52425326260303,9.73639863791451,-1.31517077651907,-0.0067195175,-0.009162978,-0.00061086525,198.73006,-104.75439,-9.017041,STD
8339935325000,3.330021,-1.50085738067855,9.72704008970673,-1.29645397326049,-0.0106901415,-0.010079277,0.0027488936,198.71681,-104.75232,-9.0221615,STD
8339940233000,3.334929,-1.48075192426237,9.72228551561749,-1.2839008597309,-0.004581489,-0.008552114,0.0015271631,198.7042,-104.75582,-9.035539,STD
8339945301000,3.339997,-1.46675813148967,9.72928232676598,-1.28623321129265,-0.0018325958,-0.01160644,-0.0018325958,198.69327,-104.757385,-9.048649,STD
8339950278000,3.344974,-1.45301560847669,9.73615350456511,-1.28852368361365,-0.012217305,-0.019547688,-0.0009162979,198.68536,-104.75278,-9.057418,STD
8339955311000,3.350007,-1.43911845791927,9.74310199519462,-1.29083992777511,-0.017715093,-0.02107485,0.005192355,198.67667,-104.74952,-9.065282,STD
8339960268000,3.354964,-1.42668383613579,9.74814714998263,-1.29391085545685,-0.0070249503,-0.027794369,0.008857546,198.67438,-104.7453,-9.074477,STD
8339965982000,3.360678,-1.42396797752246,9.73728377224676,-1.30477428991017,-0.011911872,-0.030848695,0.006414085,198.6714,-104.73655,-9.08337,STD
8339970686000,3.365382,-1.42173217092163,9.72834059253561,-1.31371751631346,-0.005497787,-0.03145956,0.0027488936,198.66835,-104.73226,-9.085545,STD
8339975300000,3.369996,-1.41953914123282,9.71956851957913,-1.32248963506874,-0.0106901415,-0.030543262,-0.00061086525,198.6656,-104.72476,-9.088354,STD
8339980252000,3.374948,-1.41846941700381,9.712351215001,-1.33154350566794,-0.0125227375,-0.013133603,0.009468411,198.65887,-104.71776,-9.0874195,STD
8339985289000,3.379985,-1.43296120799119,9.73167350210294,-1.33637410266373,-0.01160644,-0.00580322,0.004276057,198.65366,-104.7136,-9.092149,STD
8339990255000,3.384951,-1.44424246262714,9.74844685139979,-1.3396397422261,-0.0076358155,-0.0009162979,0.0070249503,198.6487,-104.70354,-9.08974,STD
8339995298000,3.389994,-1.42085003594885,9.7390902129226,-1.32560434484162,-0.004581489,-0.004276057,0.00580322,198.64351,-104.69533,-9.0900135,STD
8340000380000,3.395076,-1.39763235966142,9.73022978483422,-1.31221638078734,-0.01160644,-0.0012217305,0.008857546,198.63469,-104.685875,-9.089607,STD
8340005284000,3.39998,-1.38351902787739,9.73493434338375,-1.31692084108985,-0.020463986,0.002443461,0.011301007,198.62663,-104.67714,-9.089895,STD
8340010450000,3.405146,-1.37045622529877,9.74034261072056,-1.32184260695958,-0.02107485,0.0036651916,0.0125227375,198.61467,-104.66427,-9.082887,STD
8340015300000,3.409996,-1.38678218619508,9.75258694288225,-1.32592410783831,-0.0106901415,-0.005497787,0.014660766,198.60503,-104.65169,-9.075634,STD
8340020375000,3.415071,-1.40386553702988,9.76539931107206,-1.33019495669596,-0.017104227,-0.009162978,0.005497787,198.59576,-104.63603,-9.069156,STD
8340025361000,3.420057,-1.4297724184818,9.75552014886586,-1.33483984989234,-0.0067195175,-0.009162978,0.01160644,198.58923,-104.6237,-9.0584135,STD
8340030228000,3.424924,-1.45777922404486,9.73918276235542,-1.3395076467578,-0.0106901415,0.0036651916,0.0125227375,198.57938,-104.609634,-9.051398,STD
8340036032000,3.430728,-1.49117792950779,9.71970008487306,-1.3450740928246,-0.016187929,0.0076358155,0.008552114,198.57083,-104.59938,-9.047537,STD
8340040235000,3.434931,-1.51536379426669,9.70559159185819,-1.34910506677683,-0.025961773,0.01160644,0.005497787,198.55896,-104.587234,-9.042669,STD
8340045289000,3.439985,-1.5121726972028,9.68725240297203,-1.32925079440559,-0.015271631,0.018020526,-0.0012217305,198.54782,-104.57402,-9.038703,STD
8340050278000,3.444974,-1.49825117762238,9.66869047377622,-1.30140775524476,-0.024129177,0.027488936,0.005192355,198.53539,-104.553024,-9.031777,STD
8340055293000,3.449989,-1.47740696969607,9.66631304221295,-1.28955395778705,-0.03359759,0.01985312,-0.0009162979,198.52025,-104.544975,-9.04104,STD
8340060282000,3.454978,-1.45367904189511,9.67105873678983,-1.28480826321017,-0.018936822,0.02107485,-0.003970624,198.50066,-104.53898,-9.046681,STD
8340065337000,3.460033,-1.42405763916595,9.67572366505177,-1.27384623498623,-0.009468411,0.0076358155,-0.006414085,198.48672,-104.52439,-9.051727,STD
8340070427000,3.465123,-1.39164361788734,9.68035432240904,-1.25995460137741,-0.0076358155,0.007330383,0.0009162979,198.46925,-104.510635,-9.054171,STD
8340075317000,3.470013,-1.38177268617807,9.69300217476672,-1.26812451759331,-0.013744468,0.004886922,0.0030543262,198.46303,-104.500435,-9.060136,STD
8340080320000,3.475016,-1.38642988200816,9.71163066631027,-1.29141030222589,-0.012217305,-0.0021380284,0.011301007,198.45895,-104.49018,-9.062557,STD
8340085324000,3.48002,-1.40300269600166,9.72307099927491,-1.31289356527346,-0.01038471,-0.013133603,0.014660766,198.45912,-104.475,-9.0607395,STD
8340090309000,3.485005,-1.43020094688212,9.72801623907189,-1.33267408555003,-0.016798794,-0.014966198,0.01038471,198.45868,-104.45866,-9.058747,STD
8340095290000,3.489986,-1.45737737368966,9.73295751077274,-1.35243873379428,-0.019547688,-0.01160644,0.012217305,198.47348,-104.44399,-9.061024,STD
8340100290000,3.494986,-1.48465746484359,9.73791763093018,-1.37227877419204,-0.009773844,-0.002443461,0.01038471,198.48628,-104.43249,-9.065074,STD
8340105586000,3.500282,-1.50405718975901,9.74129208842939,-1.36898474530967,-0.014049901,0.006414085,0.009162978,198.50108,-104.41871,-9.070308,STD
8340110294000,3.50499,-1.51728131437161,9.74349592124945,-1.35576066672533,-0.024129177,0.016798794,0.007330383,198.51231,-104.40649,-9.075363,STD
8340115333000,3.510029,-1.53143517246908,9.74585469643643,-1.34160685789216,-0.029932396,0.03176499,0.012217305,198.51605,-104.40089,-9.085458,STD
8340120452000,3.515148,-1.54581373956592,9.74825091992961,-1.32722834084177,-0.034513887,0.03573562,0.005497787,198.51892,-104.395905,-9.099,STD
8340125340000,3.520036,-1.54304087866559,9.74638863658487,-1.31879880263638,-0.020463986,0.025350908,0.002443461,198.52722,-104.39469,-9.113524,STD
8340130300000,3.524996,-1.52859114433178,9.74157247759075,-1.3139822412898,-0.016798794,0.030543262,0.010079277,198.5299,-104.38957,-9.125428,STD
8340135300000,3.529996,-1.51719667344889,9.73685517913186,-1.31753812655111,-0.021991149,0.0125227375,0.0076358155,198.53821,-104.38887,-9.147772,STD
8340140315000,3.535011,-1.50792089690503,9.73221719400319,-1.32681390309497,-0.021685716,0.0076358155,0.0076358155,198.5416,-104.38833,-9.165757,STD
8340145290000,3.539986,-1.49871910462073,9.72761620177683,-1.33601569537927,-0.010995574,0.0067195175,0.007941248,198.54951,-104.38782,-9.182415,STD
8340150321000,3.545017,-1.48941373437304,9.72296341948723,-1.34532106562696,-0.013439035,-0.0067195175,0.012217305,198.56223,-104.38379,-9.198389,STD
8340155336000,3.550032,-1.48995868699412,9.72379116580363,-1.35477274959529,-0.018020526,-0.018936822,0.014049901,198.57437,-104.381966,-9.214419,STD
8340160294000,3.55499,-1.50189417902569,9.73095236131919,-1.36432114322055,-0.016187929,-0.027794369,0.005192355,198.5886,-104.38219,-9.232285,STD
8340165281000,3.559977,-1.51389948333417,9.73815544361772,-1.37392538666734,-0.018020526,-0.018020526,0.013744468,198.60321,-104.37708,-9.240505,STD
8340170430000,3.565126,-1.52629477346539,9.74559251415213,-1.38384161877231,-0.01985312,-0.018325957,0.012217305,198.62166,-104.37581,-9.254536,STD
8340175447000,3.570143,-1.54204142263752,9.74675110437236,-1.36913220564175,-0.020158553,-0.009468411,0.00580322,198.63449,-104.37378,-9.26606,STD
8340180304000,3.575,-1.56078598803143,9.74206536671368,-1.33164317271811,-0.021991149,-0.008857546,0.0021380284,198.64938,-104.37077,-9.277274,STD
8340185302000,3.579998,-1.55783540853761,9.73729279166461,-1.30158186841924,-0.018936822,-0.0030543262,0.0015271631,198.65822,-104.372574,-9.29139,STD
8340190304000,3.585,-1.53184600336868,9.73256735107275,-1.28031780515906,-0.021380283,0.00030543262,0.0033597588,198.66713,-104.37286,-9.305438,STD
8340195289000,3.589985,-1.50594492684587,9.72785797055487,-1.25912601080641,-0.01740966,-0.0021380284,-0.007941248,198.67299,-104.37662,-9.326968,STD
8340200321000,3.595017,-1.47979964759556,9.72310418865598,-1.23773441418002,-0.0143553335,0.004886922,0.002443461,198.67618,-104.3752,-9.340672,STD
8340205320000,3.600016,-1.45893926596064,9.71835491137976,-1.23003938935958,-0.014966198,0.004276057,0.00061086525,198.6806,-104.37812,-9.36095,STD
8340210294000,3.60499,-1.4446616148866,9.71359559496453,-1.23955782340893,-0.013439035,-0.0015271631,-0.00030543262,198.68489,-104.379944,-9.37747,STD
8340215292000,3.609988,-1.43288703633066,9.70967065769613,-1.25104149768326,-0.003970624,-0.005192355,0.0027488936,198.68279,-104.384125,-9.384616,STD
8340220439000,3.615135,-1.4242357823963,9.70678685619844,-1.26546023416603,-0.0070249503,-0.0067195175,-0.0009162979,198.68127,-104.38716,-9.393867,STD
8340225468000,3.620164,-1.41578286690458,9.70396916866554,-1.27954840703797,-0.007330383,-0.019547688,-0.0015271631,198.68549,-104.39115,-9.399586,STD
8340230640000,3.625336,-1.40863525246959,9.70172738064516,-1.29667034200952,-0.014660766,-0.01863139,0.004886922,198.68636,-104.39207,-9.403478,STD
8340235331000,3.630027,-1.41813821130619,9.70647890967742,-1.33943316063458,-0.01740966,-0.021991149,0.01160644,198.69197,-104.39373,-9.408133,STD
8340240267000,3.634963,-1.42929981564678,9.7107008027047,-1.37688577786451,-0.02076942,-0.015882496,0.01282817,198.69582,-104.39458,-9.409208,STD
8340245298000,3.639994,-1.44941967849732,9.70915308862549,-1.35831359677171,-0.018936822,-0.009773844,0.013744468,198.70088,-104.3946,-9.408555,STD
8340250293000,3.644989,-1.46939557095178,9.7076164494234,-1.33987431142912,-0.016493361,-0.0012217305,0.008246681,198.70088,-104.39941,-9.40853,STD
8340255520000,3.650216,-1.49029927262536,9.70600843879092,-1.32057858680736,-0.014660766,0.0106901415,0.005497787,198.69846,-104.4035,-9.40692,STD
8340260482000,3.655178,-1.51014319221676,9.70448195155954,-1.30226112256914,-0.0143553335,0.017104227,0.007941248,198.6909,-104.4122,-9.405027,STD
8340265282000,3.659978,-1.52933924502586,9.70300530127525,-1.2845416892069,-0.01740966,0.015882496,0.005497787,198.68199,-104.42156,-9.405057,STD
8340270393000,3.665089,-1.54977904208988,9.70143297635797,-1.26567418422473,-0.014049901,0.021685716,0.007941248,198.6661,-104.42764,-9.39918,STD
8340275328000,3.670024,-1.54218343916346,9.71519410879332,-1.22710165002139,-0.015577064,0.015271631,0.010079277,198.65427,-104.43225,-9.394967,STD
8340280524000,3.67522,-1.5325139410528,9.729923527712,-1.188986210384,-0.018936822,0.013744468,0.008857546,198.63971,-104.43708,-9.390612,STD
8340285282000,3.679978,-1.5354302068,9.728465372,-1.207941854,-0.011911872,0.0067195175,0.009773844,198.62393,-104.4432,-9.397219,STD
8340290976000,3.685672,-1.5389201641696,9.726720365984,-1.230626476688,-0.009773844,-0.00030543262,0.009773844,198.60318,-104.444466,-9.400789,STD
8340295264000,3.68996,-1.5415483582688,9.725406248352,-1.247709662864,-0.016493361,-0.003970624,0.006414085,198.58366,-104.44568,-9.405275,STD
8340300279000,3.694975,-1.5446221440448,9.723869331392,-1.267689182144,-0.0106901415,0.00030543262,0.0076358155,198.5644,-104.44906,-9.408416,STD
8340305307000,3.700003,-1.54770389776,9.7223284304,-1.2877204928,-0.02687807,-0.008246681,0.0143553335,198.5502,-104.44571,-9.411827,STD
8340310292000,3.704988,-1.550759295984,9.72080070736,-1.30758049352,-0.02076942,-0.004886922,0.0106901415,198.53113,-104.450035,-9.416914,STD
8340315287000,3.709983,-1.54967958749703,9.71516968090154,-1.29968066519573,-0.018020526,-0.0009162979,0.00580322,198.517,-104.44645,-9.420854,STD
8340320404000,3.7151,-1.54735436928114,9.70819405053381,-1.28340394344484,-0.017104227,0.00030543262,-0.00061086525,198.50256,-104.4448,-9.426214,STD
8340325328000,3.720024,-1.54511685227995,9.70148152289443,-1.26774113752313,-0.015271631,0.013133603,0.01160644,198.48312,-104.445305,-9.425685,STD
8340330322000,3.725018,-1.54284752654804,9.69467356939502,-1.25185566782918,-0.013439035,0.006414085,0.004276057,198.46773,-104.45072,-9.433428,STD
8340335250000,3.729946,-1.53224098675242,9.68760392048343,-1.24223490441932,-0.014660766,0.0009162979,0.004276057,198.44977,-104.45209,-9.435011,STD
8340340253000,3.734949,-1.51484433166658,9.68014807770113,-1.23726444636651,-0.018325957,0.0076358155,-0.002443461,198.42975,-104.455795,-9.440258,STD
8340345236000,3.739932,-1.49751722147414,9.67272204040666,-1.23231385822397,-0.010079277,-0.004886922,0.004276057,198.41953,-104.45366,-9.443061,STD
8340350277000,3.744973,-1.47998843109082,9.66520956719747,-1.22730564734167,-0.008246681,-0.0033597588,0.005192355,198.4029,-104.45174,-9.44823,STD
8340355236000,3.749932,-1.46510310819209,9.66948155250341,-1.24528151746542,-0.0076358155,-0.010079277,0.0009162979,198.39758,-104.44994,-9.4561825,STD
8340360831000,3.755527,-1.44944501073446,9.67992053847652,-1.27659776688097,-0.01282817,-0.013439035,0.0009162979,198.393311396046,-104.447258154584,-9.4591166065009,STD
8340365250000,3.759946,-1.45845663706707,9.69760046166166,-1.30491991085085,-0.016493361,-0.008552114,0.0030543262,198.38994,-104.44514,-9.461434,STD
8340370232000,3.764928,-1.47756033798799,9.72148015015015,-1.33835157447447,-0.003970624,-0.015882496,0.008857546,198.38919,-104.44138,-9.462482,STD
8340375240000,3.769936,-1.48145920629891,9.73298170142203,-1.34443821259782,-0.014049901,-0.013744468,0.009468411,198.37906,-104.43481,-9.457919,STD
8340380241000,3.774937,-1.4768883362092,9.73755242832602,-1.3352964724184,-0.015271631,-0.0106901415,0.0076358155,198.37112,-104.43219,-9.452924,STD
8340385251000,3.779947,-1.47230924019851,9.7421313808933,-1.32613828039702,-0.0070249503,-0.0067195175,0.007330383,198.36545,-104.427376,-9.448769,STD
8340390257000,3.784953,-1.4677338001527,9.74670667761023,-1.3169874003054,-0.016798794,-0.0030543262,0.0027488936,198.35878,-104.41971,-9.446326,STD
8340395390000,3.790086,-1.46979584401688,9.75600580838323,-1.29838924422303,-0.009773844,-0.01282817,0.0015271631,198.35513,-104.41693,-9.443678,STD
8340400256000,3.794952,-1.47894489845882,9.76972967664671,-1.27094203313046,-0.015882496,-0.0061086523,-0.0036651916,198.34541,-104.41092,-9.442462,STD
8340405244000,3.79994,-1.47838084773116,9.77289986437267,-1.25355767287453,-0.01160644,-0.0027488936,0.007330383,198.3445,-104.39914,-9.436404,STD
8340410289000,3.804985,-1.46379742729148,9.76074699285642,-1.25112709857128,-0.0125227375,-0.002443461,0.004581489,198.34149,-104.3888,-9.435563,STD
8340415284000,3.80998,-1.44935854025556,9.74871456605292,-1.24872061321058,-0.016493361,0.0030543262,0.0061086523,198.3395,-104.37031,-9.431934,STD
8340420417000,3.815113,-1.43452074102525,9.73634971184224,-1.24624764236845,-0.015577064,-0.014966198,0.007330383,198.34387,-104.35378,-9.430533,STD
8340425293000,3.819989,-1.42908926012118,9.73218102731426,-1.25356480767779,-0.016187929,-0.021991149,0.012217305,198.34377,-104.33562,-9.426914,STD
8340430887000,3.825583,-1.43441028314462,9.73750221702424,-1.27484906645809,-0.017104227,-0.027183503,0.015882496,198.34816,-104.318085,-9.42424,STD
8340435262000,3.829958,-1.43852156161225,9.73561183499661,-1.29329474539289,-0.020463986,-0.021991149,0.0125227375,198.35207,-104.29679,-9.41671,STD
8340440302000,3.834998,-1.44319819914737,9.72625846226141,-1.31667778657107,-0.01985312,-0.029321533,0.009468411,198.36107,-104.276024,-9.409232,STD
8340445232000,3.839928,-1.45234174283005,9.72201999738125,-1.33429812956475,-0.02107485,-0.023518313,0.0125227375,198.36154,-104.25461,-9.398299,STD
8340450287000,3.844983,-1.4698279619469,9.72639165486726,-1.3430412619469,-0.017104227,-0.021991149,0.008857546,198.36472,-104.23687,-9.390976,STD
8340455345000,3.850041,-1.48231607614279,9.73055821392344,-1.34928533943466,-0.024129177,-0.010995574,0.007330383,198.36667,-104.2202,-9.384335,STD
8340460290000,3.854986,-1.47007706136327,9.7336178677758,-1.3431658400323,-0.014660766,-0.016187929,0.005192355,198.37248,-104.20908,-9.379802,STD
8340465311000,3.860007,-1.45764994443547,9.73672454563075,-1.33695228967857,-0.016187929,-0.004276057,0.0033597588,198.36882,-104.197105,-9.377092,STD
8340470382000,3.865078,-1.44509907609433,9.73986216032951,-1.33067686369892,-0.015577064,-0.015882496,-0.0012217305,198.37302,-104.18878,-9.377334,STD
8340475317000,3.870013,-1.43288481159748,9.74291562681312,-1.32456973942174,-0.013439035,-0.018936822,0.004886922,198.37155,-104.17322,-9.371453,STD
8340480302000,3.874998,-1.42054679568729,9.74600003014053,-1.31840073951866,-0.009468411,-0.024129177,0.010079277,198.37366,-104.159615,-9.367944,STD
8340485675000,3.880371,-1.40748822002883,9.74888672423733,-1.31141803900552,-0.021991149,-0.01985312,0.010079277,198.37502,-104.14682,-9.366044,STD
8340490307000,3.885003,-1.40109479159741,9.74249338481864,-1.2986311598895,-0.02443461,-0.028099801,0.0106901415,198.38164,-104.13617,-9.363493,STD
8340495281000,3.889977,-1.39422930951237,9.73562799831852,-1.2849001718232,-0.024740042,-0.031154128,0.013439035,198.39621,-104.11747,-9.35737,STD
8340500610000,3.895306,-1.38687383021379,9.72827262142686,-1.27018918762431,-0.018020526,-0.021991149,0.0021380284,198.40862,-104.102806,-9.354858,STD
8340505239000,3.899935,-1.38048454260389,9.72188342277204,-1.25741059016575,-0.01985312,-0.022907447,0.008552114,198.42552,-104.08284,-9.347316,STD
8340510289000,3.904985,-1.3790601,9.71855091322458,-1.26982609534884,-0.01740966,-0.02107485,0.0067195175,198.4377,-104.06933,-9.344637,STD
8340515303000,3.909999,-1.3790601,9.71616984127535,-1.28887429800664,-0.015882496,-0.017715093,0.0106901415,198.45009,-104.05329,-9.338518,STD
8340520387000,3.915083,-1.3790601,9.71375552739624,-1.30818843089701,-0.020463986,-0.01863139,0.007941248,198.46315,-104.03544,-9.333588,STD
8340525232000,3.919928,-1.3790601,9.71145471096346,-1.32659460199336,-0.01863139,-0.0106901415,0.0061086523,198.47276,-104.01878,-9.32674,STD
8340530294000,3.92499,-1.38271313456326,9.70722892729251,-1.31656421432387,-0.010995574,-0.0018325958,0.0027488936,198.48401,-103.99979,-9.320545,STD
8340535242000,3.929938,-1.38740069032545,9.70254132258384,-1.29781418706103,-0.01985312,0.00030543262,0.0018325958,198.4947,-103.97811,-9.31423,STD
8340540344000,3.93504,-1.38521132978804,9.69445394573716,-1.29972026888366,-0.011301007,0.0018325958,0.0033597588,198.50658,-103.96623,-9.309139,STD
8340545232000,3.939928,-1.38080135454545,9.68563436363636,-1.30854012727273,-0.016187929,-0.0033597588,0.004581489,198.51947,-103.95024,-9.304667,STD
8340550290000,3.944986,-1.38524556983275,9.69143007557299,-1.32130080474912,-0.0018325958,-0.0030543262,0.008857546,198.52849,-103.93872,-9.299291,STD
8340555277000,3.949973,-1.39510712291968,9.70622219925666,-1.33609313437952,-0.004276057,-0.01160644,0.0061086523,198.54102,-103.924095,-9.296321,STD
8340560290000,3.954986,-1.40484384665862,9.710882,-1.34738311204304,-0.007941248,-0.006414085,0.013133603,198.54915,-103.91211,-9.288058,STD
8340565322000,3.960018,-1.41453672811887,9.710882,-1.35707594289737,-0.0027488936,-0.014660766,0.00580322,198.56247,-103.90496,-9.285772,STD
8340570367000,3.965063,-1.42425465080706,9.710882,-1.3667938148489,0.0067195175,-0.0125227375,0.013439035,198.57191,-103.8955,-9.277489,STD
8340575409000,3.970105,-1.43396679475034,9.710882,-1.37650590808568,0.010995574,-0.004581489,0.0030543262,198.58054,-103.89104,-9.276457,STD
8340580281000,3.974977,-1.45657375039858,9.69751356953056,-1.34898100930027,0.013744468,-0.0067195175,0.0106901415,198.59372,-103.88703,-9.2707205,STD
8340585557000,3.980253,-1.48640970953646,9.67762303395335,-1.30422712251747,0.01038471,0.0070249503,0.0106901415,198.595874436901,-103.886081837061,-9.26979630451278,STD
8340590297000,3.984993,-1.49725260706969,9.66603324924684,-1.28632735170717,0.005497787,0.010995574,0.009162978,198.59781,-103.88523,-9.268966,STD
8340595300000,3.989996,-1.50206408833099,9.65641008576019,-1.27670433894356,0.010079277,0.0106901415,0.010995574,198.6068,-103.88772,-9.267816,STD
8340600250000,3.994946,-1.48775393153854,9.66290382418116,-1.26739343921664,0.011911872,0.01740966,0.005497787,198.61385,-103.88341,-9.27549,STD
8340605307000,4.000003,-1.46421912340849,9.67702474346389,-1.25797952579454,0.007330383,0.013744468,0.010079277,198.62428,-103.87651,-9.28012,STD
8340610287000,4.004983,-1.44104266612402,9.69093065171542,-1.24870895256099,0.008857546,0.009468411,0.006414085,198.63142,-103.87402,-9.289296,STD
8340615337000,4.010033,-1.41754043534357,9.70503202454077,-1.23930807006512,0.002443461,0.010079277,0.010079277,198.63858,-103.8667,-9.294813,STD
8340620340000,4.015036,-1.41340588054239,9.71649732190745,-1.23681193780623,0.005497787,0.0009162979,0.009162978,198.65154,-103.86348,-9.3043375,STD
8340625297000,4.019993,-1.42297790301442,9.72606924442988,-1.23920493093054,0.0021380284,-0.0021380284,0.00580322,198.6623,-103.857445,-9.312887,STD
8340630288000,4.024984,-1.43261557986692,9.73570682064724,-1.24161433756427,-0.0027488936,-0.0067195175,-0.0009162979,198.6795,-103.84584,-9.314765,STD
8340635322000,4.030018,-1.44233629020062,9.74542742947878,-1.24404450245993,-0.003970624,-0.008246681,0.0070249503,198.6969,-103.83239,-9.3133,STD
