timestamp,rel_time,acc_x,acc_y,acc_z,gyro_x,gyro_y,gyro_z,azimuth,pitch,roll,label
27940353852000,0,0.781646450958292,9.82593773223514,0.142715995233182,-0.016493361,0.0143553335,0.0061086523,299.6124,-97.094124,-6.0943055,STD
27940358860000,0.005008,0.785595530666324,9.82640233926504,0.139463811613186,-0.02565634,0.013133603,0.014660766,299.54547,-96.95879,-6.000515,STD
27940363778000,0.009926,0.789473640491425,9.82685859672771,0.136270073785083,-0.018020526,0.013744468,0.012217305,299.47577,-96.835724,-5.9144106,STD
27940368787000,0.014935,0.793423508753711,9.82732329653058,0.133017240767399,-0.03145956,0.009468411,0.011911872,299.4081,-96.70853,-5.827304,STD
27940373811000,0.019959,0.79738520532982,9.82778938792799,0.1297546667844,-0.025350908,0.016493361,0.0143553335,299.33722,-96.58785,-5.741802,STD
27940378804000,0.024952,0.80132245672403,9.82825260336335,0.126512224129719,-0.01985312,0.008857546,0.01038471,299.27185,-96.469635,-5.6603746,STD
27940383798000,0.029946,0.805260496672495,9.82871591157168,0.123269132077351,-0.0125227375,0.020158553,0.01282817,299.19934,-96.35299,-5.5778284,STD
27940388778000,0.034926,0.809187496861393,9.82917792095844,0.120035131592611,-0.017715093,0.010079277,0.01038471,299.1352,-96.24022,-5.5000377,STD
27940393805000,0.039953,0.813151559100266,9.82964429067475,0.116770609416548,-0.022602014,0.007941248,0.01038471,299.06586,-96.1298,-5.4223013,STD
27940398793000,0.044941,0.817084867723202,9.83010704224527,0.113531413750306,-0.018936822,0.009773844,0.018325957,298.99854,-96.02093,-5.3447824,STD
27940404446000,0.050594,0.821542564925579,9.83063148784032,0.109860368621745,-0.013744468,0.0125227375,0.0143553335,298.93158,-95.91713,-5.272344,STD
27940408826000,0.054974,0.824996432561598,9.83103783344554,0.107016006749623,-0.015882496,0.0125227375,0.014049901,298.86523,-95.81237,-5.198284,STD
27940413805000,0.059953,0.828922644196241,9.83149975005933,0.103782655662571,-0.015577064,0.019547688,0.013744468,298.7963,-95.71199,-5.126853,STD
27940418788000,0.064936,0.832852010047902,9.831962037765,0.100546706984767,-0.015577064,0.018325957,0.016187929,298.72998,-95.613014,-5.056415,STD
27940423835000,0.069983,0.836831843371872,9.8324302629407,0.0972691968549508,-0.017715093,0.015577064,0.018936822,298.66235,-95.516106,-4.987442,STD
27940428801000,0.074949,0.840747803801202,9.83289097350589,0.0940442879378381,-0.022296581,0.007941248,0.01863139,298.59674,-95.42133,-4.920242,STD
27940433796000,0.079944,0.844686632303922,9.83335437448719,0.0908005464877822,-0.018325957,0.004581489,0.011911872,298.5309,-95.33056,-4.855594,STD
27940438771000,0.084919,0.848609689721546,9.8338159200091,0.0875697929914802,-0.0067195175,0.016798794,0.0070249503,298.46307,-95.24198,-4.7918963,STD
27940443800000,0.089948,0.852575329068928,9.83428247527136,0.0843039720200425,-0.009773844,0.013133603,0.0076358155,298.40097,-95.154655,-4.7301583,STD
27940448789000,0.094937,0.856509426246119,9.83474531961484,0.0810641269561128,-0.009468411,0.019547688,0.0070249503,298.33273,-95.07267,-4.671255,STD
27940453820000,0.099968,0.860476642702012,9.83521206042303,0.0777970071892997,-0.009773844,0.009468411,0.017104227,298.2707,-94.989296,-4.6106186,STD
27940458803000,0.104951,0.861609624036499,9.83568396647257,0.0794927274881738,-0.016187929,0.014049901,0.0106901415,298.20276,-94.91179,-4.5559416,STD
27940463794000,0.109942,0.861131397270581,9.83616217825769,0.0840358846606836,-0.014966198,0.01160644,0.008246681,298.1402,-94.83336,-4.4987164,STD
27940468782000,0.11493,0.860653457958138,9.83664010259835,0.0885763110234322,-0.005497787,0.013744468,0.004886922,298.0651,-94.71269,-4.3767715,STD
27940474539000,0.120687,0.860101834738064,9.83719170853844,0.0938167349549366,-0.008246681,0.008552114,0.0067195175,297.9933,-94.5941,-4.258631,STD
27940478777000,0.124925,0.859695758794573,9.83759777176132,0.0976744588774163,-0.014660766,0.013744468,0.015577064,297.91843,-94.47885,-4.1435714,STD
27940483790000,0.129938,0.859215424036499,9.83807809147256,0.102237641988174,-0.015577064,0.004276057,0.008246681,297.84964,-94.37122,-4.036814,STD
27940488775000,0.134923,0.858737772177532,9.83855572836875,0.106775337541161,-0.016493361,-0.0018325958,0.0018325958,297.77896,-94.26371,-3.9310772,STD
27940493785000,0.139933,0.858257724872934,9.83903576063553,0.111335789842158,-0.019547688,0.014049901,0.01038471,297.70523,-94.15703,-3.8266811,STD
27940498802000,0.14495,0.857777006843559,9.83951646360607,0.115902614032597,-0.015882496,0.021380283,0.016798794,297.6361,-94.05624,-3.728244,STD
27940503784000,0.149932,0.857299642438068,9.83999381305779,0.120437578775823,-0.022907447,0.009773844,0.01863139,297.56836,-93.95573,-3.6319783,STD
27940508804000,0.154952,0.856818636955217,9.84047480347281,0.125007133776024,-0.022296581,0.014966198,0.011301007,297.4943,-93.859985,-3.5394998,STD
27940513793000,0.159941,0.856340601824949,9.84095282362829,0.129548470408693,-0.015882496,0.016798794,0.016798794,297.4251,-93.76297,-3.4460123,STD
27940518784000,0.164932,0.855862375059031,9.84143103541341,0.134091627581202,-0.019242255,0.020463986,0.0125227375,297.3543,-93.67189,-3.3602254,STD
27940523794000,0.169942,0.855382327754432,9.84191106768019,0.138652079882199,-0.018325957,0.016493361,0.009468411,297.28577,-93.58272,-3.275348,STD
27940528808000,0.174956,0.854901897178533,9.84239148320627,0.143216173262877,-0.021991149,0.01038471,0.0143553335,297.21744,-93.49394,-3.1920223,STD
27940533795000,0.179943,0.854424053683916,9.8428693117321,0.147755689355705,-0.022602014,0.018020526,0.018325957,297.14682,-93.40885,-3.1122444,STD
27940538780000,0.184928,0.853946401824949,9.84334694862829,0.152293384908693,-0.014660766,0.027183503,0.016493361,297.07803,-93.32673,-3.0352,STD
27940544289000,0.190437,0.853418541425541,9.84387479249209,0.157308061899948,-0.019242255,0.015882496,0.014966198,297.01352,-93.24404,-2.9593794,STD
27940548800000,0.194948,0.852986307215752,9.84430701316184,0.161414289510686,-0.02107485,0.014660766,0.014966198,296.9441,-93.164635,-2.8857517,STD
27940553793000,0.199941,0.852507888814183,9.84478541657662,0.165959267223036,-0.01985312,0.012217305,0.02076942,296.87888,-93.085846,-2.8131425,STD
27940558814000,0.204962,0.852026787513507,9.84526650280646,0.170529732493156,-0.018936822,0.013744468,0.013744468,296.81335,-93.012,-2.746256,STD
27940563787000,0.209935,0.851550285468444,9.84574298992476,0.1750565048071,-0.019242255,0.02076942,0.019242255,296.7476,-92.93522,-2.6761534,STD
27940568792000,0.21494,0.851070717252972,9.84622254311742,0.179612405758494,-0.020463986,0.013133603,0.008552114,296.68597,-92.86622,-2.6146927,STD
27940573856000,0.220004,0.850585495785809,9.84670774938468,0.18422201263519,-0.018936822,0.0143553335,0.012217305,296.62054,-92.794,-2.549328,STD
27940578806000,0.224954,0.850111197550727,9.84718203276204,0.188727848740965,-0.020463986,0.014966198,0.02107485,296.55798,-92.72429,-2.4873044,STD
27940583791000,0.229939,0.84963354569176,9.84765966965822,0.193265544293953,-0.019547688,0.008246681,0.017104227,296.49768,-92.659,-2.4296353,STD
27940588775000,0.234923,0.849155989650618,9.84813721073958,0.19780232957702,-0.013133603,0.00580322,0.010995574,296.43658,-92.59398,-2.3717244,STD
27940593805000,0.239953,0.848674025989515,9.84861915930284,0.202380987276424,-0.009162978,0.005497787,0.0106901415,296.3773,-92.52981,-2.3149314,STD
27940598794000,0.244942,0.848195990859247,9.84909717945832,0.206922323909093,-0.018936822,0.010995574,0.02076942,296.3176,-92.46509,-2.2584236,STD
27940603815000,0.249963,0.84771488955857,9.84957826568816,0.211492789179213,-0.017715093,0.015271631,0.02107485,296.25882,-92.40608,-2.206266,STD
27940608859000,0.255007,0.847231584447913,9.85006155565894,0.216084190657502,-0.025350908,0.009773844,0.008552114,296.20178,-92.34711,-2.1564186,STD
27940613897000,0.260045,0.846748854244207,9.85054427074078,0.220670130516268,-0.014049901,0.0143553335,0.02565634,296.14133,-92.2839,-2.0993762,STD
27940618787000,0.264935,0.846280305078641,9.85101280522872,0.225121350426822,-0.02443461,0.009773844,0.02321288,296.08545,-92.22713,-2.0528698,STD
27940623806000,0.269954,0.845799395413615,9.85149369982891,0.229689995157102,-0.019242255,0.0061086523,0.01160644,296.02856,-92.1726,-2.0054626,STD
27940628800000,0.274948,0.845320881194221,9.85197219905851,0.234235883139372,-0.020463986,0.015882496,0.011301007,295.96967,-92.11522,-1.9568176,STD
27940633790000,0.279938,0.844842750246128,9.85245031502881,0.238778130041962,-0.021685716,0.005192355,0.01863139,295.91815,-92.06067,-1.9105972,STD
27940638789000,0.284937,0.844363756937608,9.85292929333253,0.243328569373834,-0.028099801,0.0036651916,0.018936822,295.86176,-92.00855,-1.8675269,STD
27940643791000,0.289939,0.843884476175611,9.85340855908072,0.247881739515468,-0.024740042,0.0036651916,0.0106901415,295.834574565087,-91.9834379796041,-1.84566983033393,STD
27940648791000,0.294939,0.843405387049266,9.85388763319926,0.252433089117261,-0.0106901415,0.007330383,0.018325957,295.8074,-91.958336,-1.8238215,STD
27940653778000,0.299926,0.842927543554648,9.8543654617251,0.256972605210089,-0.015577064,-0.002443461,0.013133603,295.75778,-91.90751,-1.7825384,STD
27940658877000,0.305025,0.843718308569429,9.85421424082775,0.257934231287614,-0.022907447,0.0012217305,0.006414085,295.70377,-91.85996,-1.7429078,STD
27940663781000,0.309929,0.84512682630131,9.85374475011496,0.256995219956613,-0.022296581,-0.004886922,0.004276057,295.65582,-91.81401,-1.7045491,STD
27940668784000,0.314932,0.846563778628512,9.85326578151055,0.256037252238628,-0.012217305,-0.0036651916,0.00061086525,295.59885,-91.76566,-1.6680943,STD
27940673813000,0.319961,0.848008198627212,9.85278432376287,0.255074306075577,-0.015882496,0.002443461,0.011911872,295.54266,-91.714066,-1.6288267,STD
27940678796000,0.324944,0.849439406591722,9.85230726988403,0.254120167930721,-0.02076942,-0.006414085,0.013744468,295.49078,-91.66827,-1.5941633,STD
27940683765000,0.329913,0.850866593502349,9.85183155631311,0.253168710487054,-0.021991149,-0.0033597588,0.0061086523,295.4342,-91.62347,-1.5597996,STD
27940688780000,0.334928,0.852306992447166,9.85135143887334,0.252208445025192,-0.021380283,-0.002443461,0.0076358155,295.38116,-91.57695,-1.5231919,STD
27940693798000,0.339946,0.853748253046386,9.85087103422473,0.251247605127362,-0.015271631,0.0012217305,0.020158553,295.32687,-91.53127,-1.48638,STD
27940698792000,0.34494,0.855182620410377,9.85039292724683,0.250291360717285,-0.018936822,0.0033597588,0.013133603,295.27313,-91.491516,-1.4555008,STD
27940703794000,0.349942,0.856619285519444,9.84991405437869,0.249333584477957,-0.022602014,0.0033597588,0.0125227375,295.246599862495,-91.4699768975688,-1.43757359412116,STD
27940708828000,0.354976,0.858065141608817,9.84943211794961,0.248369680921624,-0.017104227,0.0015271631,0.0143553335,295.2199,-91.4483,-1.4195317,STD
27940713803000,0.359951,0.859494051828252,9.84895582996101,0.247417074606018,-0.02107485,0.0018325958,0.01038471,295.16592,-91.40954,-1.3878233,STD
27940718785000,0.364933,0.860924972574628,9.84847887181845,0.246463127939818,-0.015271631,0.004581489,0.009773844,295.11218,-91.37165,-1.3555586,STD
27940723810000,0.369958,0.86236824370079,9.84799779701589,0.245500947691393,-0.016493361,-0.0036651916,0.0076358155,295.06195,-91.3364,-1.3255812,STD
27940729509000,0.375657,0.864005099849645,9.84745219596121,0.244409710828551,-0.015271631,-0.0021380284,0.013744468,295.00858,-91.30087,-1.2940755,STD
27940733793000,0.379941,0.865235542338099,9.84704206174148,0.243589416264521,-0.014966198,0.00061086525,0.01863139,294.95764,-91.2678,-1.2641827,STD
27940738781000,0.384929,0.866668186393282,9.84656452918125,0.242634320726382,-0.022296581,0.0027488936,0.020463986,294.90686,-91.23542,-1.2341022,STD
27940743805000,0.389953,0.86811117030131,9.84608355011497,0.241672331956613,-0.018325957,0.0015271631,0.008857546,294.8567,-91.207375,-1.2071714,STD
27940748791000,0.394939,0.869543239920224,9.84560620902729,0.240717619375787,-0.023823744,-0.0015271631,0.016187929,294.8069,-88.82489,-1.174991,STD
27940753816000,0.399964,0.870986511046386,9.84512513422473,0.239755439127362,-0.020158553,0.0018325958,0.020463986,294.75598,-88.85124,-1.1475844,STD
27940758804000,0.404952,0.87241915510157,9.8446476016645,0.238800343589223,-0.022602014,-0.007941248,0.015882496,294.71014,-88.87517,-1.1212332,STD
27940763806000,0.409954,0.873855820210637,9.84416872879636,0.237842567349895,-0.015882496,0.005497787,0.0143553335,294.6571,-88.8996,-1.093438,STD
27940768792000,0.41494,0.875287889829551,9.84369138770869,0.236887854769069,-0.018936822,0.0027488936,0.01740966,294.61188,-88.92176,-1.0662267,STD
27940773805000,0.419953,0.876727714338099,9.84321146174148,0.235927972264521,-0.02107485,-0.0033597588,0.0125227375,294.56424,-88.93966,-1.0422881,STD
27940778793000,0.424941,0.878160358393282,9.84273392918124,0.234972876726382,-0.01740966,-0.00580322,0.0143553335,294.51675,-88.95863,-1.016114,STD
27940783793000,0.429941,0.87959644906608,9.84225524778566,0.234015483444367,-0.022296581,-0.015882496,0.0143553335,294.4736,-88.97318,-0.9923564,STD
27940788771000,0.434919,0.881026220939918,9.84177867258822,0.233062302692792,-0.01985312,-0.0027488936,0.013133603,294.4249,-88.986824,-0.9689803,STD
27940793800000,0.439948,0.882470640938618,9.84129721484055,0.232099356529741,-0.009773844,-0.008857546,0.018936822,294.38492,-89.00087,-0.9440688,STD
27940799497000,0.445645,0.884106922651205,9.84075180525842,0.231008502624213,-0.025961773,-0.008552114,0.008857546,294.33975,-89.00618,-0.92455226,STD
27940803791000,0.449939,0.885340237321004,9.8403407136759,0.230186293273618,-0.022602014,-0.0061086523,0.010995574,294.2961,-89.017494,-0.90040445,STD
27940808800000,0.454948,0.886778912957013,9.8398611706538,0.229227176683695,-0.014049901,-0.004276057,0.01282817,294.25293,-89.02326,-0.87964845,STD
27940813797000,0.459945,0.888214141975407,9.83938277646706,0.228270357837649,-0.02076942,-0.002443461,0.011911872,294.2094,-89.02567,-0.8594901,STD
27940818784000,0.464932,0.889646498812456,9.83890533964311,0.227315453778167,-0.022602014,0.004581489,0.019547688,294.1643,-89.03078,-0.83680475,STD
27940823822000,0.46997,0.891093503774368,9.83842302026892,0.226350784307208,-0.024129177,-0.004886922,0.017715093,294.12378,-89.03079,-0.817463,STD
27940828808000,0.474956,0.892525573393282,9.83794567918124,0.225396071726382,-0.020463986,-0.0033597588,0.018325957,294.0785,-89.03214,-0.7957323,STD
27940833792000,0.47994,0.893957068575927,9.83746852956613,0.224441742102869,-0.022296581,0.002443461,0.022602014,294.03506,-89.03114,-0.7739043,STD
27940838799000,0.484947,0.895395169775667,9.83698917801659,0.223483008470259,-0.024129177,-0.0061086523,0.015577064,293.99573,-89.026794,-0.755528,STD
27940843802000,0.48995,0.896832122102869,9.83651020941218,0.222525040752274,-0.023518313,-0.0067195175,0.01863139,293.95282,-89.024254,-0.73353803,STD
27940848796000,0.494944,0.89826648946686,9.83603210243427,0.221568796342197,-0.01985312,0.004581489,0.020463986,293.9093,-89.01881,-0.71430427,STD
27940853820000,0.499968,0.899709473374887,9.83555112336799,0.220606807572428,-0.024740042,0.007330383,0.016798794,293.8688,-89.010025,-0.6961484,STD
27940858810000,0.504958,0.899146939537641,9.83522772258447,0.219653452821577,-0.018325957,0.014660766,0.02443461,293.8241,-89.00568,-0.6746845,STD
27940863795000,0.509943,0.897482293255393,9.83498991121926,0.218702226729314,-0.029932396,-0.0036651916,0.022602014,293.78644,-88.992775,-0.6572459,STD
27940869063000,0.515211,0.89572314448611,9.8347385992289,0.217696999236026,-0.021991149,-0.0009162979,0.018325957,293.7262,-89.12602,-0.50249314,STD
27940873836000,0.519984,0.894129291586377,9.83451090140621,0.216786226490115,-0.022907447,-0.0012217305,0.017715093,293.6723,-89.24099,-0.34964463,STD
27940878817000,0.524965,0.892465981028328,9.83427328086255,0.215835763668538,-0.01985312,0.0012217305,0.015882496,293.6171,-89.33891,-0.2009497,STD
27940883793000,0.529941,0.890804340125527,9.83403589884585,0.214886254935319,-0.01740966,-0.00030543262,0.011301007,293.56342,-89.40999,-0.055826563,STD
27940888777000,0.534925,0.88914002777433,9.83379813518602,0.213935219660727,-0.020463986,0.0021380284,0.01985312,293.50806,-89.44599,0.089846045,STD
27940893806000,0.539954,0.8874606885259,9.83355822478369,0.21297559759092,-0.021380283,-0.010079277,0.017715093,293.45773,-89.44501,0.22850457,STD
27940898778000,0.544926,0.885800383347297,9.83332103358854,0.212026852128387,-0.015882496,-0.004886922,0.0143553335,293.40195,-89.40793,0.36643016,STD
27940903814000,0.549962,0.884118706581521,9.83308078924848,0.211065894334879,-0.009468411,-0.011911872,0.0106901415,293.35342,-89.342834,0.5009034,STD
27940908815000,0.554963,0.88244871740248,9.83284221459704,0.210111615159873,-0.014660766,-0.0061086523,0.0143553335,293.3,-89.25659,0.6336802,STD
27940913879000,0.560027,0.880757690567314,9.83260063450608,0.209145314471565,-0.014049901,-0.00061086525,0.022296581,293.2489,-89.15988,0.7638582,STD
27940918767000,0.564915,0.879125435596878,9.83236745056363,0.208212597693434,-0.023518313,-0.008246681,0.02076942,293.2002,-89.055855,0.8895722,STD
27940923853000,0.570001,0.877427062278621,9.83212482095411,0.207242099016353,-0.01160644,-0.013133603,0.016493361,293.14944,-88.94872,1.0138885,STD
27940928778000,0.574926,0.87578245185935,9.83188987191225,0.206302321984379,-0.020158553,-0.008857546,0.013744468,293.09848,-88.83762,1.1353557,STD
27940933767000,0.579915,0.874116469852904,9.83165186972548,0.20535033262143,-0.014660766,-0.008857546,0.013133603,293.0504,-88.72843,1.2534055,STD
27940938959000,0.585107,0.87238269984339,9.83140418334471,0.204359607271174,-0.020158553,-0.007330383,0.017715093,293.00098,-88.61804,1.3693818,STD
27940943763000,0.589911,0.87077849508112,9.83117500665495,0.203442919177447,-0.016798794,-0.007330383,0.015271631,292.976055890132,-88.5651715645982,1.4243836414649,STD
27940948789000,0.594937,0.869100157625839,9.83093523936878,0.202483869560654,-0.021380283,0.00061086525,0.020463986,292.94998,-88.50986,1.4819272,STD
27940953702000,0.59985,0.867459554379162,9.83070086279159,0.201546382340737,-0.03023783,0.0018325958,0.01985312,292.90073,-88.4025,1.5920916,STD
27940958716000,0.604864,0.865785224096477,9.83046166797009,0.200589622536002,-0.018936822,0.00580322,0.025350908,292.84872,-88.29486,1.7020671,STD
27940963718000,0.609866,0.864114900986386,9.83022304561327,0.199635152543324,-0.029626964,0.0067195175,0.022602014,292.79755,-88.19125,1.806828,STD
27940968703000,0.614851,0.862450254704139,9.82998523424806,0.198683926451062,-0.034208454,0.011911872,0.022907447,292.74432,-88.087685,1.9113592,STD
27940973737000,0.619885,0.860769245800461,9.82974508531877,0.197723350292897,-0.02687807,0.002443461,0.020463986,292.69534,-87.98793,2.0117059,STD
27940978709000,0.624857,0.859108940621859,9.82950789412362,0.196774604830364,-0.03176499,0.008857546,0.022602014,292.64063,-87.88901,2.110881,STD
27940983705000,0.629853,0.857440621098066,9.82926955799913,0.195821279743715,-0.03604105,0.007941248,0.02565634,292.59106,-87.79288,2.20712,STD
27940988742000,0.63489,0.855758610401239,9.82902926595368,0.194860131132536,-0.03756821,0.009468411,0.021991149,292.5393,-92.29959,2.299563,STD
27940993704000,0.639852,0.854101644533133,9.82879255181243,0.193913293846717,-0.03390302,0.007941248,0.01985312,292.48898,-92.391014,2.3908622,STD
27940998705000,0.644853,0.852431655354092,9.82855397716099,0.192959014671711,-0.032070424,0.0143553335,0.018020526,292.43628,-92.47916,2.4788308,STD
27941003792000,0.64994,0.850732948104786,9.82831129984608,0.191988325176959,-0.038179077,-0.0012217305,0.0125227375,292.39063,-92.56335,2.5628276,STD
27941008909000,0.655057,0.849024222923991,9.82806719136949,0.191011911152063,-0.03145956,0.0012217305,0.019242255,292.33832,-92.64839,2.6475668,STD
27941013854000,0.660002,0.847372933883728,9.82783128821985,0.190068317766659,-0.030848695,0.0021380284,0.01985312,292.2912,-92.72789,2.7268212,STD
27941018786000,0.664934,0.845725985947109,9.82759600524027,0.189127205010984,-0.034513887,-0.0012217305,0.023518313,292.24496,-92.808044,2.8067112,STD
27941023818000,0.669966,0.844045644905531,9.82735595172177,0.188167010488162,-0.03268129,-0.0061086523,0.021991149,292.1992,-92.88482,2.8831737,STD
27941028806000,0.674954,0.842379996830135,9.82711799724039,0.187215211942885,-0.034513887,0.0021380284,0.02076942,292.1509,-92.960556,2.9586735,STD
27941033790000,0.679938,0.840715684478937,9.82688023358057,0.186264176668294,-0.030848695,0.0012217305,0.016187929,292.10693,-93.032906,3.0307174,STD
27941038776000,0.684924,0.83905070426564,9.82664237450997,0.18531275975836,-0.021991149,0.0015271631,0.02076942,292.0606,-93.10557,3.1030595,STD
27941043799000,0.689947,0.837373368603508,9.82640275033997,0.184354282594581,-0.028710667,-0.005497787,0.026572637,292.01694,-93.175224,3.1725497,STD
27941048806000,0.694954,0.835701375838169,9.8261638894562,0.183398858513547,-0.030543262,-0.0027488936,0.026267206,291.97073,-93.2427,3.2397242,STD
27941053828000,0.699976,0.834024374107087,9.82592431299159,0.18244057216744,-0.034513887,-0.00030543262,0.025350908,291.9269,-93.30963,3.3064854,STD
27941058820000,0.704968,0.832944939578433,9.82592263244048,0.182315220136861,-0.025350908,0.0015271631,0.02443461,291.8828,-93.374756,3.371323,STD
27941063804000,0.709952,0.832466192233863,9.82616201061189,0.183033340153913,-0.035430185,0.007941248,0.022296581,291.83698,-93.43717,3.4337711,STD
27941068785000,0.714933,0.831987733059845,9.82640124469531,0.183751027915737,-0.02687807,0.0030543262,0.01740966,291.8018,-93.526825,3.5224411,STD
27941073815000,0.719963,0.831504567100136,9.82664283221581,0.184475775846268,-0.03145956,0.016493361,0.018020526,291.7595,-93.616066,3.6109936,STD
27941078809000,0.724957,0.831024859187057,9.8268826906805,0.185195336714076,-0.034513887,0.01160644,0.01863139,291.72385,-93.70298,3.6970158,STD
27941083788000,0.729936,0.830546592126741,9.82712182870526,0.185912736305749,-0.030848695,0.0070249503,0.01985312,291.68423,-93.78918,3.7822623,STD
27941088816000,0.734964,0.830063618280734,9.8273633201671,0.186637196066129,-0.026572637,0.01282817,0.018936822,291.64304,-93.87373,3.8658895,STD
27941093784000,0.739932,0.829586407845777,9.82760192986926,0.18735301072197,-0.033292156,0.01282817,0.01863139,291.6048,-93.95747,3.9488058,STD
27941098795000,0.744943,0.829105066966234,9.82784260483252,0.188075021036063,-0.030543262,0.0012217305,0.016493361,291.56827,-94.039444,4.029673,STD
27941103804000,0.749952,0.828623918200392,9.82808318373713,0.188796743180006,-0.019547688,0.007941248,0.02076942,291.52646,-94.12195,4.1110554,STD
27941108796000,0.754944,0.828144402401015,9.82832294614316,0.189516015877662,-0.027183503,0.008857546,0.015577064,291.48965,-94.19954,4.1878123,STD
27941113750000,0.759898,0.82766853676197,9.82856088343472,0.190229813342444,-0.014966198,-0.004886922,0.013133603,291.45514,-94.27848,4.265249,STD
27941118741000,0.764889,0.827189117019443,9.82880059781142,0.190948941955025,-0.02076942,-0.006414085,0.009773844,291.41687,-94.35383,4.3396683,STD
27941124615000,0.770763,0.826624879077628,9.82908272208486,0.191795297689407,-0.019547688,-0.009773844,0.013439035,291.38312,-94.42962,4.414075,STD
27941128790000,0.774938,0.826223841725385,9.82928324452981,0.192396852880255,-0.018325957,-0.011301007,0.0125227375,291.3492,-94.50173,4.484936,STD
27941133756000,0.779904,0.825746823404129,9.82952175817331,0.193112379365945,-0.021991149,-0.0036651916,0.014049901,291.3137,-94.57417,4.5562453,STD
27941138792000,0.78494,0.825263081103315,9.82976363386978,0.19383799180693,-0.01863139,-0.008552114,0.018020526,291.28223,-94.64595,4.626665,STD
27941143767000,0.789915,0.824785198270403,9.83000257977723,0.1945548150583,-0.025350908,-0.0015271631,0.008857546,291.24512,-94.71272,4.692487,STD
27941148766000,0.794914,0.82430501007307,9.83024267838856,0.195275096351486,-0.018020526,0.0018325958,0.01038471,291.2105,-94.78278,4.761152,STD
27941153710000,0.799858,0.823830105002533,9.83048013538684,0.195987452965511,-0.020463986,-0.0015271631,0.008246681,291.17584,-94.84746,4.824885,STD
27941158730000,0.804878,0.823347899611332,9.83072124261405,0.196710760045286,-0.015882496,-0.0015271631,0.015577064,291.156787740198,-94.8797667025841,4.85662404140477,STD
27941163733000,0.809881,0.822867327186596,9.83096153334269,0.197431617678775,-0.02076942,0.0036651916,0.0076358155,291.1378,-94.911964,4.8882556,STD
27941168733000,0.814881,0.822387042932412,9.83120167998335,0.198152043057036,-0.023518313,0.004276057,0.013744468,291.1021,-94.97637,4.9516807,STD
27941173714000,0.819862,0.821908583758394,9.83144091406677,0.198869730818861,-0.01740966,0.007330383,0.0106901415,291.06427,-95.03698,5.011102,STD
27941178709000,0.824857,0.821428779788464,9.83168082056079,0.199589435771744,-0.021991149,0.011301007,0.0067195175,291.02606,-95.0974,5.070758,STD
27941183702000,0.82985,0.820949167932236,9.83192063099614,0.200308852554476,-0.016187929,0.014966198,0.009468411,290.98718,-95.15807,5.130255,STD
27941188732000,0.83488,0.820466001972528,9.83216221851664,0.201033600485007,-0.02443461,0.0036651916,0.009162978,290.95154,-95.21498,5.1865273,STD
27941193898000,0.840046,0.819969772281105,9.83241033802577,0.201777943985827,-0.020463986,0.0015271631,0.0070249503,290.91235,-95.27147,5.241921,STD
27941198707000,0.844855,0.819507834885431,9.83264131106475,0.20247084911464,-0.026572637,0.01038471,0.01282817,290.87335,-95.32838,5.298335,STD
27941203788000,0.849936,0.819019770026329,9.83288534808098,0.203202945384029,-0.0143553335,0.008857546,0.006414085,290.838,-95.380684,5.3494544,STD
27941208811000,0.854959,0.818537276464576,9.83312659939618,0.203926684719031,-0.01863139,0.005192355,0.010995574,290.8009,-95.43589,5.4042478,STD
27941213766000,0.859914,0.81806131476868,9.83336458471707,0.204640626268888,-0.029932396,0.009773844,0.013133603,290.76196,-95.48759,5.455427,STD
27941218772000,0.86492,0.817580454173391,9.8336050195337,0.205361916157604,-0.024129177,0.008857546,0.012217305,290.7258,-95.538956,5.5059,STD
27941223793000,0.869941,0.81709815272534,9.83384617479024,0.206085367322454,-0.02565634,0.008857546,0.016187929,290.68817,-95.5906,5.5572867,STD
27941228777000,0.874925,0.816619405380769,9.83408555296165,0.206803487339505,-0.025045475,0.0012217305,0.018020526,290.65314,-95.64049,5.606681,STD
27941233762000,0.87991,0.816140561979348,9.83432497916238,0.207521751441632,-0.025350908,0.0018325958,0.009162978,290.61584,-95.68725,5.653077,STD
27941238757000,0.884905,0.815660758009418,9.8345648856564,0.208241456394516,-0.016187929,0.0027488936,0.0143553335,290.58084,-95.73771,5.7029037,STD
27941243774000,0.889922,0.81517884078877,9.83480584879563,0.208964331219063,-0.022602014,0.005192355,0.01038471,290.54526,-95.781494,5.7465587,STD
27941248764000,0.894912,0.814699517103095,9.835045515143,0.209683315746568,-0.023823744,-0.0015271631,0.014660766,290.51224,-95.82849,5.7930098,STD
27941253792000,0.89994,0.814216543257088,9.83528700660485,0.210407775506948,-0.026267206,0.004581489,0.013744468,290.47498,-95.87161,5.835902,STD
27941258788000,0.904936,0.819701563379952,9.835381,0.216362750418108,-0.02076942,0.0070249503,0.014049901,290.4408,-95.91548,5.8793397,STD
27941263827000,0.909975,0.829108033939866,9.835381,0.225769216066956,-0.016493361,0.0125227375,0.014966198,290.40414,-95.958145,5.921746,STD
27941268786000,0.914934,0.838365165812582,9.835381,0.235026343106574,-0.01863139,0.013133603,0.0106901415,290.3653,-96.024445,5.986976,STD
27941273809000,0.919957,0.847741768635057,9.835381,0.244402941033575,-0.030848695,0.008857546,0.015577064,290.3262,-96.092476,6.0541677,STD
27941278789000,0.924937,0.849983734558573,9.83420494271925,0.247820938507288,-0.022907447,0.003970624,0.01282817,290.2869,-96.1693,6.1290936,STD
27941283788000,0.929936,0.845316019139083,9.83187103626968,0.245487083234534,-0.013744468,0.0027488936,0.019547688,290.2476,-96.2491,6.2073746,STD
27941288758000,0.934906,0.840675381884659,9.82955066918539,0.243166767030176,-0.026572637,0.01038471,0.015271631,290.20514,-96.33577,6.2931213,STD
27941293799000,0.939947,0.835968449812314,9.8271971539999,0.24081330345147,-0.025961773,0.012217305,0.017104227,290.16452,-96.42615,6.381813,STD
27941298721000,0.944869,0.831361979614574,9.82398374540283,0.242150506776835,-0.03176499,0.008857546,0.0125227375,290.1205,-96.52247,6.4765406,STD
27941303791000,0.949939,0.826600102754867,9.81922177904183,0.249293312121807,-0.02687807,0.004581489,0.016798794,290.07593,-96.62157,6.5736594,STD
27941308757000,0.954905,0.821935905420487,9.81455749404207,0.256289598382778,-0.025961773,0.005192355,0.009468411,290.02985,-96.72866,6.678275,STD
27941313797000,0.959945,0.817202205346933,9.80982370499681,0.263390138607365,-0.016493361,0.01160644,0.014049901,289.98303,-96.84011,6.786785,STD
27941318723000,0.964871,0.810351934984118,9.80738533943816,0.266679949532956,-0.018020526,0.007330383,0.014660766,289.93475,-96.97027,6.9131036,STD
27941323792000,0.96994,0.798304868270796,9.80979480007941,0.261861121338098,-0.021685716,0.016798794,0.022296581,289.88025,-97.10312,7.041917,STD
27941328739000,0.974887,0.786547748714513,9.81214627015088,0.257158272042386,-0.027794369,0.00580322,0.013439035,289.8235,-97.26457,7.1976337,STD
27941333812000,0.97996,0.774491175537026,9.81455763212229,0.252335641260671,-0.019547688,0.009468411,0.013744468,289.75928,-97.429985,7.3569674,STD
27941338761000,0.984909,0.764870843211476,9.81750068338732,0.247723314541416,-0.02107485,0.0061086523,0.014966198,289.6858,-97.651764,7.569529,STD
27941343794000,0.989942,0.760409942295234,9.82196167746414,0.243262418283202,-0.030848695,0.0009162979,0.014966198,289.61108,-97.87146,7.779834,STD
27941348764000,0.994912,0.757926644272626,9.82661935418994,0.239148390918436,-0.025961773,0.003970624,0.01863139,289.53564,-98.08779,7.9857087,STD
27941353776000,0.999924,0.768652673712626,9.83305487418994,0.237003183238436,-0.024740042,0.008857546,0.013744468,289.46036,-98.299164,8.187037,STD
27941358849000,1.004997,0.779509247405586,9.83956871955307,0.234831866686034,-0.025350908,0.0012217305,0.006414085,289.324,-98.777885,8.637298,STD
27941363804000,1.009952,0.790113292871508,9.84593105027933,0.232711055821229,-0.013439035,0.00061086525,0.01160644,289.18433,-99.25346,9.082812,STD
27941368759000,1.014907,0.80071733833743,9.85229338100559,0.230590244956425,-0.023823744,0.0027488936,0.01282817,288.9659,-100.03864,9.814982,STD
27941373857000,1.020005,0.798454189279977,9.85153515044826,0.22384578301737,-0.029626964,0.004886922,0.014049901,288.75122,-100.81146,10.532507,STD
27941378757000,1.024905,0.789689472152596,9.8471526980762,0.215081056737953,-0.020158553,0.010079277,0.014966198,288.5381,-101.569695,11.234619,STD
27941383796000,1.029944,0.782706773420074,9.84236569406775,0.204211278167967,-0.025961773,0.00061086525,0.015882496,288.19403,-102.924225,12.488965,STD
27941388772000,1.03492,0.777716529851301,9.8373756250589,0.191735707023928,-0.018325957,0.0021380284,0.010079277,287.86185,-104.23433,13.698596,STD
27941393792000,1.03994,0.772682160334572,9.83234143164564,0.179149821344049,-0.0106901415,0.006414085,0.0143553335,287.54742,-105.50358,14.869425,STD
27941398793000,1.044941,0.767666845204461,9.82732629195246,0.166611571486465,-0.019547688,0.003970624,0.019242255,287.2474,-106.72866,15.999554,STD
27941403791000,1.049939,0.775314639924791,9.82274723030359,0.178089258879208,-0.016493361,0.002443461,0.014049901,286.9531,-107.887665,17.065767,STD
27941408924000,1.055072,0.788840596313859,9.81823849500138,0.200632478726039,-0.021380283,0.004581489,0.015882496,286.66812,-109.01123,18.101536,STD
27941413855000,1.060003,0.789906930482223,9.82119515105087,0.223109873435474,-0.015271631,0.008246681,0.0106901415,286.3991,-110.0778,19.083046,STD
27941418789000,1.064937,0.780625481417207,9.83047680848556,0.246313542133176,-0.021380283,0.0106901415,0.015271631,286.13693,-111.11315,20.03839,STD
27941423769000,1.069917,0.778115088140931,9.83298725437118,0.260967473137771,-0.025961773,0.005497787,0.0125227375,285.87808,-112.11862,20.967478,STD
27941428803000,1.074951,0.783192975246471,9.82790924531283,0.266045392057089,-0.026267206,0.005497787,0.01740966,285.62204,-113.09653,21.872982,STD
27941433784000,1.079932,0.7839236140123,9.82717858899965,0.2681506,-0.029932396,-0.0018325958,0.009773844,285.3676,-114.05559,22.762869,STD
27941438775000,1.084923,0.781553051146159,9.82954920879829,0.2681506,-0.019547688,0.002443461,0.010995574,285.11346,-114.99014,23.631023,STD
27941443792000,1.08994,0.779170139124634,9.8319321780489,0.2681506,-0.028710667,0.008246681,0.015577064,284.86304,-115.893196,24.473186,STD
27941449412000,1.09556,0.776500821691713,9.83460155958935,0.2681506,-0.02565634,0.005192355,0.01740966,284.61572,-116.77063,25.29076,STD
27941453798000,1.099946,0.781003882633377,9.84066332542952,0.257585607153622,-0.016187929,0.0067195175,0.013744468,284.3603,-117.62848,26.091064,STD
27941458809000,1.104957,0.790647059491611,9.85030621531197,0.238299203090525,-0.02443461,0.005497787,0.012217305,284.1076,-118.460175,26.869623,STD
27941463792000,1.10994,0.797456331345782,9.85711541660217,0.231134044042183,-0.03023783,0.0012217305,0.01160644,283.85837,-119.24725,27.607079,STD
27941468789000,1.114937,0.80208628922262,9.86174547358746,0.2334490290238,-0.012217305,0.006414085,0.013133603,283.60587,-120.013,28.325285,STD
27941473767000,1.119915,0.806698642696885,9.86635792579334,0.235755211781153,-0.01863139,-0.00030543262,0.016187929,283.35248,-120.77674,29.04304,STD
27941478804000,1.124952,0.811365662473878,9.87102504547214,0.238088727761223,-0.02443461,-0.0033597588,0.008552114,283.09442,-121.51703,29.739202,STD
27941483779000,1.129927,0.819958093834971,9.86775835058939,0.241396686462672,-0.01985312,-0.003970624,0.008246681,282.83414,-122.23327,30.413578,STD
27941488779000,1.134927,0.834069311909627,9.85364685746562,0.246100414360511,-0.015577064,-0.0027488936,0.017104227,282.5723,-122.92853,31.070528,STD
27941493759000,1.139907,0.837190426749592,9.84866945452692,0.245284591063418,-0.023823744,0.0027488936,0.014660766,282.3054,-123.5975,31.705605,STD
27941498795000,1.144943,0.822438540958401,9.85850423674551,0.235450009093597,-0.02565634,0.0036651916,0.013439035,282.0373,-124.25061,32.326702,STD
27941503794000,1.149942,0.812255047651205,9.85524343825603,0.226296333450526,-0.025045475,-0.00061086525,0.016798794,281.76904,-124.86275,32.91229,STD
27941508810000,1.154958,0.808074625686189,9.83434132843094,0.217935485155339,-0.02565634,0.005192355,0.018325957,281.49307,-125.45671,33.483284,STD
27941513752000,1.1599,0.804632202572596,9.816227,0.211411520667216,-0.028405234,0.0036651916,0.017104227,281.21478,-126.055435,34.058975,STD
27941519267000,1.165415,0.80630470809842,9.816227,0.21810154626334,-0.016798794,0.004581489,0.018325957,280.9298,-126.63916,34.62172,STD
27941523761000,1.169909,0.807667580234966,9.816227,0.223553037655721,-0.020463986,-0.007330383,0.017715093,280.6523,-127.20605,35.171375,STD
27941528798000,1.174946,0.809195125173058,9.816227,0.229663220598182,-0.026267206,0.0070249503,0.01740966,280.36084,-127.75795,35.70956,STD
27941533987000,1.180135,0.810768766364989,9.816227,0.235957788652269,-0.024740042,0.013133603,0.017104227,280.07126,-128.29419,36.233,STD
27941538774000,1.184922,0.812220495096108,9.816227,0.241764706608506,-0.024740042,0.0061086523,0.018325957,279.7761,-128.81474,36.74393,STD
27941543748000,1.189896,0.813728934350043,9.816227,0.247798466774439,-0.03023783,0.008857546,0.021685716,279.46283,-129.31868,37.24053,STD
27941548791000,1.194939,0.812219975611028,9.81984424431818,0.243571213056073,-0.029321533,0.013439035,0.015271631,279.1449,-129.80618,37.72228,STD
27941553752000,1.1999,0.810007303070045,9.82426968181818,0.236933190812221,-0.027794369,0.009468411,0.013439035,278.82376,-130.28116,38.194,STD
27941558770000,1.204918,0.807769207764531,9.82874596590909,0.230218900221684,-0.021380283,0.006414085,0.016798794,278.48795,-130.76257,38.674347,STD
27941563807000,1.209955,0.805522638204173,9.83323919886364,0.22347918684892,-0.02687807,0.00580322,0.02443461,278.14645,-131.22914,39.143093,STD
27941568829000,1.214977,0.799331241906365,9.83794104651163,0.215146026559568,-0.03848451,0.011911872,0.017715093,277.7959,-131.67847,39.5972,STD
27941573895000,1.220043,0.789434048216034,9.84288923255814,0.20524882253468,-0.023518313,0.01160644,0.02443461,277.443,-132.12132,40.045074,STD
27941578835000,1.224983,0.793786489306123,9.84778649984301,0.212430714832025,-0.026572637,0.028405234,0.022907447,277.07602,-132.53442,40.468994,STD
27941583828000,1.229976,0.808799659088435,9.85279099602302,0.232448302411303,-0.025045475,0.010079277,0.015577064,276.71487,-132.93643,40.879955,STD
27941589245000,1.235393,0.812303948249119,9.85625864776733,0.241144789950059,-0.019547688,0.008552114,0.016187929,276.3361,-133.3273,41.28372,STD
27941593835000,1.239983,0.810151700305523,9.85841094065805,0.243297035646298,-0.01863139,0.0125227375,0.014660766,275.9536,-133.70305,41.673813,STD
27941598822000,1.24497,0.807813299326283,9.86074939047199,0.245635434183803,-0.03359759,0.0015271631,0.017104227,275.5733,-134.04544,42.035095,STD
27941603815000,1.249963,0.805472084951038,9.8630906537407,0.247976646114375,-0.02321288,0.00030543262,0.017104227,275.1797,-134.37814,42.38749,STD
27941608837000,1.254985,0.803557754543904,9.86321697494014,0.24720895628727,-0.03359759,0.002443461,0.016798794,274.78128,-134.6983,42.731266,STD
27941613834000,1.259982,0.801988061900154,9.86164724787614,0.244069566082593,-0.027488936,0.002443461,0.016493361,274.576377838872,-134.855305438066,42.9001620838872,STD
27941618767000,1.264915,0.800438473384721,9.86009762538131,0.240970384197527,-0.029932396,0.007941248,0.017104227,274.3741,-135.0103,43.066895,STD
27941623833000,1.269981,0.79884710597763,9.85850622307869,0.237787644398268,-0.022296581,-0.002443461,0.019547688,273.96722,-135.30885,43.39137,STD
27941628790000,1.274938,0.797289978414078,9.85694906137042,0.234673384393348,-0.019547688,0.002443461,0.018020526,273.54385,-135.59659,43.70813,STD
27941633784000,1.279932,0.795721228151343,9.8553802767081,0.231535878953652,-0.021685716,0.006414085,0.014660766,273.11658,-135.87517,44.01619,STD
27941638765000,1.284913,0.799277850724696,9.85233251251382,0.234246245322143,-0.024740042,0.0015271631,0.015577064,272.6828,-136.1453,44.316803,STD
27941643801000,1.289949,0.808973044135089,9.84748481204141,0.243941448856166,-0.020158553,0.011301007,0.013744468,272.2327,-136.40494,44.609245,STD
27941648782000,1.29493,0.815047414535598,9.84291935476147,0.25103468226283,-0.013439035,0.016493361,0.01863139,271.79062,-136.65887,44.898308,STD
27941653808000,1.299956,0.817221836147452,9.83857064776834,0.255383532298067,-0.01985312,0.027488936,0.02565634,271.33386,-136.9036,45.180897,STD
27941659150000,1.305298,0.819532970299964,9.83394852425913,0.26000580784288,-0.032375857,0.014049901,0.016493361,270.87326,-137.1369,45.452213,STD
27941663897000,1.310045,0.821586686852187,9.82984121982291,0.264113247380737,-0.020158553,0.011301007,0.021380283,270.39746,-137.36877,45.72328,STD
27941668934000,1.315082,0.823060506210193,9.82525913464193,0.268513835986301,-0.029626964,0.011911872,0.01863139,269.91846,-137.57782,45.97431,STD
27941673866000,1.320014,0.815817328605531,9.81801580325103,0.273342622736799,-0.02076942,0.009468411,0.022602014,269.43433,-137.78421,46.221043,STD
27941678784000,1.324932,0.808594711521239,9.81079303281705,0.278157702468947,-0.018325957,0.016798794,0.025045475,268.93518,-137.98254,46.46252,STD
27941683833000,1.329981,0.801179706710627,9.803377870572,0.283101040729949,-0.028710667,0.0033597588,0.015577064,268.43604,-138.17076,46.69317,STD
27941688792000,1.33494,0.794248001672073,9.79832696284282,0.289812075930404,-0.014966198,-0.0036651916,0.016493361,267.92584,-138.33707,46.901115,STD
27941693839000,1.339987,0.789496786730561,9.80782959117271,0.308816955541138,-0.023518313,0.0018325958,0.016187929,267.40665,-138.49174,47.099827,STD
27941698770000,1.344918,0.785743580333268,9.8171178164807,0.324943323686185,-0.026267206,0.0018325958,0.0070249503,267.145365837762,-138.568476308032,47.1976390932518,STD
27941703812000,1.34996,0.790511645939074,9.82665390288338,0.317791216564629,-0.016798794,0.0076358155,0.010995574,266.8782,-138.64694,47.297653,STD
27941708955000,1.355103,0.795375224164116,9.83638101362694,0.310495840339686,-0.03145956,-0.0033597588,0.01038471,266.3465,-138.79483,47.48958,STD
27941713838000,1.359986,0.799992928319838,9.84561637854251,0.303569275668016,-0.021991149,0.0027488936,0.015882496,265.80145,-138.91852,47.65907,STD
27941718929000,1.365077,0.804797234124532,9.85384307339537,0.298608391344143,-0.020463986,0.004581489,0.0143553335,265.2589,-139.01634,47.80292,STD
27941723889000,1.370037,0.809354552363043,9.84472872244076,0.321394992054111,-0.020463986,0.005192355,0.014049901,264.70728,-139.11153,47.943954,STD
27941729182000,1.37533,0.814401071869335,9.83547412009063,0.344206272390483,-0.022907447,-0.0021380284,0.008246681,264.15424,-139.19351,48.07088,STD
27941733787000,1.379935,0.822728339628021,9.83755576095166,0.331715375100076,-0.010995574,-0.008552114,0.007330383,263.59348,-139.27284,48.194386,STD
27941738784000,1.384932,0.831764464924471,9.83981460120846,0.318161191873112,-0.013133603,0.0027488936,0.017715093,263.01465,-139.35294,48.32094,STD
27941743818000,1.389966,0.840867497692598,9.84209016691843,0.304506647473565,-0.026267206,-0.004276057,0.012217305,262.43732,-139.42363,48.436386,STD
27941748729000,1.394877,0.849748108325151,9.84431013179758,0.291185736161254,-0.025045475,-0.0009162979,0.013744468,261.84497,-139.49506,48.552853,STD
27941753784000,1.399932,0.848512254423268,9.84113377382395,0.291127753561749,-0.026572637,-0.003970624,0.0125227375,261.2526,-139.55676,48.659477,STD
27941758795000,1.404943,0.843225337512394,9.83584729855679,0.296414681513716,-0.029626964,0.0012217305,0.021685716,260.6492,-139.61725,48.76501,STD
27941763802000,1.40995,0.835096536885461,9.84687451064762,0.273893662660591,-0.03145956,-0.0027488936,0.011911872,260.05475,-139.65852,48.848915,STD
27941768722000,1.41487,0.826838197668916,9.8592618211375,0.249118679503987,-0.016187929,0.006414085,0.0067195175,259.4469,-139.70015,48.932896,STD
27941774564000,1.420712,0.81974923447432,9.86603910302812,0.22977985611948,-0.026267206,-0.0012217305,0.01740966,258.8345,-139.74904,49.023758,STD
27941778775000,1.424923,0.815602619410827,9.86811245385841,0.219413307636111,-0.020463986,-0.00061086525,0.014966198,258.20654,-139.78952,49.10513,STD
27941783789000,1.429937,0.810665281978304,9.87058117412986,0.207069951166007,-0.014660766,0.01282817,0.007941248,257.57858,-139.82181,49.177254,STD
27941788791000,1.434939,0.805739761069354,9.87304398601614,0.194756136035679,-0.018020526,0.006414085,0.017715093,256.9536,-139.85374,49.247555,STD
27941793798000,1.439946,0.818285449423021,9.86331252709167,0.201911393456019,-0.015577064,0.01740966,0.0106901415,256.30652,-139.87576,49.30807,STD
27941798798000,1.444946,0.8369846781646,9.84928782729669,0.215935810130821,-0.026267206,0.020158553,0.015882496,255.66109,-139.89902,49.36897,STD
27941803765000,1.449913,0.844320464532724,9.83402684609888,0.231196809881395,-0.02687807,0.016493361,0.018325957,255.01445,-139.91252,49.41821,STD
27941808930000,1.455078,0.846676574468896,9.81753422415929,0.247689591735734,-0.013133603,-0.00030543262,0.018325957,254.3668,-139.92271,49.462738,STD
27941813885000,1.460033,0.848936889034962,9.80171216380871,0.26351180549919,-0.014660766,0.005497787,0.008552114,253.70691,-139.9156,49.489788,STD
27941818814000,1.464962,0.851185343221873,9.78597312536915,0.279250996546632,-0.016187929,0.018020526,0.015577064,253.047,-139.91005,49.516605,STD
27941823884000,1.470032,0.849832292623371,9.78793397722376,0.291059463679081,-0.017715093,0.0125227375,0.017104227,252.3864,-139.89645,49.53407,STD
27941828835000,1.474983,0.844967745911563,9.80739206248076,0.298356288826305,-0.011301007,0.019242255,0.016798794,251.71017,-139.88086,49.549164,STD
27941833785000,1.479933,0.840104181737971,9.82684621760542,0.305651640165179,-0.018020526,0.013744468,0.008246681,251.0261,-139.87085,49.5698,STD
27941838814000,1.484962,0.835162997045245,9.8466108531856,0.313063422363804,-0.010995574,0.008857546,0.008246681,250.33434,-139.85979,49.587826,STD
27941844548000,1.490696,0.831423758046323,9.85805094266384,0.309000877891254,-0.01282817,0.005497787,0.016798794,249.64658,-139.83185,49.587406,STD
27941848793000,1.494941,0.829416069478987,9.8620663868833,0.300970152971505,-0.017104227,0.013439035,0.01160644,248.95102,-139.79672,49.578598,STD
27941853831000,1.499979,0.827033328606845,9.86683194824436,0.291439224315275,-0.008857546,0.006414085,0.010995574,248.24417,-139.77203,49.579163,STD
27941858848000,1.504996,0.824660519762951,9.87157764521705,0.281948023626846,-0.02687807,0.00580322,0.010995574,247.52682,-139.74155,49.573475,STD
27941863821000,1.509969,0.821001017482892,9.86327068432014,0.282936090473074,-0.015882496,0.0067195175,0.0143553335,246.79572,-139.72247,49.576916,STD
27941868829000,1.514977,0.816244435671923,9.84424445641178,0.292449264028563,-0.032375857,0.0067195175,0.01863139,246.06158,-139.69849,49.574684,STD
27941873898000,1.520046,0.82171172722119,9.82257573912618,0.299442072174763,-0.025045475,0.0067195175,0.016493361,245.31293,-139.68535,49.581047,STD
27941878833000,1.524981,0.835570071605904,9.79947853064217,0.304061513871567,-0.014966198,0.004276057,0.0143553335,244.56213,-139.66821,49.58198,STD
27941883818000,1.529966,0.833628367308826,9.78977946510714,0.304175164210733,-0.0125227375,0.006414085,0.014966198,243.80203,-139.65048,49.580887,STD
27941888795000,1.534943,0.814888920338117,9.79446393060743,0.299490307359937,-0.025350908,-0.00030543262,0.0143553335,243.0438,-139.62679,49.572014,STD
27941893813000,1.539961,0.80445176,9.80137649462312,0.288274202632922,-0.022602014,0.011301007,0.013744468,242.2669,-139.60718,49.565483,STD
27941898822000,1.54497,0.80445176,9.81097409238233,0.269079390437153,-0.017715093,0.01038471,0.010079277,241.49596,-139.5811,49.55063,STD
27941903830000,1.549978,0.80445176,9.82056977407092,0.249888410306107,-0.02687807,-0.00061086525,0.010995574,240.72049,-139.55324,49.532494,STD
27941908856000,1.555004,0.80445176,9.83019994503076,0.230628453010054,-0.022907447,0.008246681,0.010995574,239.93454,-139.51901,49.506172,STD
27941913732000,1.55988,0.811948230427966,9.83912911388413,0.222140667606992,-0.025350908,0.0125227375,0.015271631,239.15373,-139.48111,49.474293,STD
27941918830000,1.564978,0.829543537169114,9.8479264824759,0.226539494292279,-0.029932396,0.013744468,0.014660766,238.3688,-139.43683,49.434166,STD
27941923795000,1.569943,0.843319554657873,9.8528523594394,0.232646135630668,-0.013744468,0.020158553,0.0143553335,237.5876,-139.38689,49.386414,STD
27941928835000,1.574983,0.845806522506183,9.84539155976917,0.245080985259687,-0.01282817,0.009773844,0.015577064,236.81209,-40.66761,49.332325,STD
27941933729000,1.579877,0.848221447238252,9.83814688643858,0.257155619006595,-0.010079277,0.016493361,0.009773844,236.00914,-40.713814,49.284657,STD
27941938808000,1.584956,0.850727659480627,9.83062835438994,0.269686690686315,-0.012217305,0.02687807,0.01038471,235.20847,-40.763157,49.23195,STD
27941943720000,1.589868,0.8523358,9.8289558900448,0.275363467656048,-0.023518313,0.020158553,0.009162978,234.41197,-40.81985,49.17001,STD
27941948790000,1.594938,0.8523358,9.83862321159781,0.268112931065704,-0.013744468,0.028405234,0.009468411,233.60425,-40.88116,49.10149,STD
27941953768000,1.599916,0.8523358,9.84811511035341,0.26099396239771,-0.020158553,0.022296581,0.019547688,232.80147,-40.943928,49.029415,STD
27941958850000,1.604998,0.8523358,9.85780531314087,0.253726264774017,-0.016493361,0.020463986,0.015882496,231.9938,-41.015575,48.946537,STD
27941963723000,1.609871,0.849583755078448,9.85998299009083,0.255877089488026,-0.014966198,0.022602014,0.01160644,231.18768,-41.08929,48.859573,STD
27941968815000,1.614963,0.840635215652812,9.84656036783191,0.278248461412056,-0.019242255,0.024129177,0.015271631,230.38342,-41.166447,48.76722,STD
27941973779000,1.619927,0.830954866939738,9.83686584012438,0.295396131809994,-0.005192355,0.01740966,0.005192355,229.58875,-41.2577,48.65944,STD
27941978807000,1.624955,0.815465198022732,9.84719194820931,0.285069689459575,-0.008246681,0.016187929,0.0125227375,228.79178,-41.347008,48.551342,STD
27941983900000,1.630048,0.800395143268533,9.855886235699,0.283136232663008,-0.0076358155,0.009468411,0.003970624,227.98874,-41.44205,48.435642,STD
27941988775000,1.634923,0.787367470958981,9.86022888987071,0.300506495661799,-0.007941248,0.0018325958,0.0033597588,227.18805,-41.537186,48.31798,STD
27941993758000,1.639906,0.777816010808379,9.86321332215168,0.316932310971354,-0.006414085,0.004276057,0.004276057,226.39677,-41.64849,48.18298,STD
27941998789000,1.644937,0.794676789971504,9.85598737454382,0.324158364214368,-0.007941248,0.0070249503,0.007941248,225.61064,-41.763073,48.0431,STD
27942004193000,1.650341,0.81278763286507,9.84822569279608,0.331920159429086,-0.02107485,0.008857546,0.009773844,224.81201,-41.87759,47.9006,STD
27942008813000,1.654961,0.828270995960606,9.84159005814128,0.338555891089337,-0.026572637,0.005497787,0.0015271631,224.01744,-41.998173,47.750504,STD
27942013751000,1.659899,0.841885712766273,9.83567207102259,0.342436276069787,-0.010079277,0.00030543262,0.0070249503,223.22527,-42.118626,47.599094,STD
27942018782000,1.66493,0.834741797200613,9.83805317397321,0.32338585113824,-0.014049901,0.004886922,0.012217305,222.43396,-42.244717,47.439487,STD
27942023799000,1.669947,0.827617761344339,9.84042765091682,0.304388438718925,-0.024740042,0.003970624,0.0033597588,221.65628,-42.376755,47.272984,STD
27942028791000,1.674939,0.82052922496911,9.84279029570504,0.285485691500025,-0.008552114,0.0106901415,0.006414085,220.87602,-42.50831,47.105698,STD
27942033760000,1.679908,0.814355478875502,9.84528392570281,0.2674967612249,-0.008246681,0.013744468,0.0012217305,220.10214,-42.64745,46.928627,STD
27942038775000,1.684923,0.818548568800419,9.84947710319539,0.259110568239916,-0.010079277,0.01038471,0.004886922,219.33119,-42.787163,46.749943,STD
27942043747000,1.689895,0.822705706010127,9.85363432722193,0.250796280797975,-0.014966198,0.0018325958,0.0030543262,218.59698,-42.94837,46.549442,STD
27942048787000,1.694935,0.822663457578404,9.8535920779079,0.251822680215363,-0.013439035,0.007330383,0.0021380284,217.86119,-43.11088,46.34606,STD
27942053781000,1.699929,0.821476812600238,9.85240540814807,0.25538261886711,-0.019547688,-0.0018325958,0.0021380284,217.13817,-43.27551,46.139736,STD
27942058796000,1.704944,0.820285177725288,9.85121374838726,0.258957527224841,-0.010079277,0.004581489,0.00061086525,216.41524,-43.445827,45.926815,STD
27942063727000,1.709875,0.819113502437475,9.85004204863041,0.262472556758634,-0.01282817,-0.0030543262,0.002443461,215.70482,-43.616623,45.712505,STD
27942068782000,1.71493,0.817912362997221,9.8488408841058,0.26607597884205,-0.014966198,-0.003970624,-0.006414085,214.99646,-43.795353,45.48908,STD
27942073820000,1.719968,0.816715262997221,9.8476437591058,0.26966728259205,-0.011301007,-0.00030543262,-0.004886922,214.29181,-43.972733,45.2662,STD
27942078794000,1.724942,0.815533370301707,9.84646184172787,0.273212964380955,-0.004276057,-0.003970624,-0.0106901415,213.59819,-44.15967,45.033955,STD
27942083834000,1.729982,0.814335795073442,9.84526424148968,0.276805693817239,-0.0009162979,0.003970624,-0.004581489,212.90091,-44.3446,44.802036,STD
27942088775000,1.734923,0.817491879886989,9.84322548832714,0.270800771075093,-0.004581489,0.006414085,-0.006414085,212.21918,-44.539303,44.560028,STD
27942093781000,1.739929,0.822244450981908,9.84084940624535,0.261295643772986,-0.01282817,0.007941248,-0.011301007,211.53778,-44.734604,44.316124,STD
27942098849000,1.744997,0.827055883324907,9.83844389605948,0.251672794159108,-0.013439035,0.007941248,-0.005192355,211.201241680672,-44.8387403473389,44.1872961092437,STD
27942103777000,1.749925,0.831734403172243,9.83610483643123,0.242315769120198,-0.0067195175,0.01160644,-0.00061086525,210.874,-44.94,44.062027,STD
27942108792000,1.75494,0.843206102429271,9.82869825882235,0.246102778130561,-0.009162978,0.0143553335,-0.00061086525,210.542975836506,-45.0455229953917,43.9314104156482,STD
27942113759000,1.759907,0.857472212276317,9.81918732030391,0.255613513063081,-0.0027488936,0.012217305,-0.00030543262,210.21512,-45.150036,43.802044,STD
27942118741000,1.764889,0.865158396488459,9.81947286427303,0.255327973511541,-0.0027488936,0.007941248,-0.007330383,209.55971,-45.36018,43.541397,STD
27942123769000,1.769917,0.869908066087986,9.82422263306372,0.250578303912014,-0.0009162979,0.0125227375,-0.0030543262,208.9134,-45.57023,43.281372,STD
27942128744000,1.774892,0.877672289855271,9.82889549980442,0.261362720658126,-0.00030543262,0.0030543262,0.00030543262,208.27896,-45.781513,43.020332,STD
27942134360000,1.780508,0.888191256661451,9.83415507656953,0.282400604843536,0.0070249503,0.0015271631,0.0012217305,207.64258,-45.993595,42.75773,STD
27942138749000,1.784897,0.89064306,9.8338919212984,0.285815152395376,-0.0009162979,-0.0015271631,-0.00061086525,207.00412,-46.199593,42.500153,STD
27942143768000,1.789916,0.89064306,9.83146539986875,0.283388681639659,0.0067195175,0.0012217305,-0.00061086525,206.36705,-46.40727,42.24157,STD
27942148758000,1.794906,0.89064306,9.82905289898531,0.280976231137362,0.009162978,0.0070249503,0.0018325958,205.72871,-46.61341,41.98233,STD
27942153701000,1.799849,0.89064306,9.82666312105609,0.278586503114746,0.008552114,0.0106901415,0.008552114,205.0933,-46.819668,41.72281,STD
27942158682000,1.80483,0.898103322774617,9.81983581969365,0.288171776297593,0.010995574,0.0015271631,-0.00030543262,204.46513,-47.030987,41.45863,STD
27942163707000,1.809855,0.90980364126477,9.81047561181619,0.304552235378556,0.002443461,0.0027488936,-0.003970624,203.83434,-47.239243,41.195515,STD
27942168738000,1.814886,0.921517930284464,9.80110422757112,0.32095225321663,0.004276057,-0.0015271631,-0.002443461,203.21092,-47.44707,40.933254,STD
27942173744000,1.819892,0.933174008764406,9.79177941152443,0.337270776233406,0.01160644,-0.00030543262,-0.011911872,202.58994,-47.659786,40.665188,STD
27942178706000,1.824854,0.935966763040859,9.7926174135127,0.339644466081719,-0.00061086525,0.0036651916,-0.011911872,201.96124,-47.861855,40.404366,STD
27942183703000,1.829851,0.931162499452866,9.80222563969481,0.330035938905732,0.0009162979,0.0027488936,-0.004581489,201.33797,-48.067207,40.141834,STD
27942188691000,1.834839,0.926399158337464,9.80409885506097,0.335815811977793,0.007941248,0.0015271631,-0.008246681,200.71486,-48.270763,39.878796,STD
27942193709000,1.839857,0.921634968548627,9.79933456577773,0.354872581082582,0.012217305,0.0070249503,0.0012217305,200.09215,-48.469856,39.619713,STD
27942198701000,1.844849,0.916929149012322,9.79951735458635,0.361474356460004,0.0070249503,0.011911872,0.0012217305,199.800847824561,-48.5742340491228,39.4880998444444,STD
27942203969000,1.850117,0.911995594375122,9.80445101740661,0.35654079667123,0.009468411,0.004581489,0.003970624,199.49344,-48.684383,39.34921,STD
27942208778000,1.854926,0.912059162879428,9.80438756681386,0.35434186,0.011301007,0.004581489,0.0027488936,199.200160738358,-48.7900793391544,39.2162071648284,STD
27942213761000,1.859909,0.916640248555246,9.79980662225209,0.35434186,0.012217305,0.0021380284,0.00061086525,198.89627,-48.8996,39.078392,STD
27942218752000,1.8649,0.921228688974273,9.79521832317366,0.35434186,0.009773844,0.009773844,0.013439035,198.29251,-49.10779,38.811634,STD
27942223922000,1.87007,0.925981691772583,9.79046546678506,0.35434186,0.0070249503,-0.002443461,0.002443461,197.70323,-49.325554,38.53714,STD
27942228748000,1.874896,0.928441969853772,9.78800523768694,0.351800457145896,-0.0033597588,0.004886922,0.009773844,197.10208,-49.532063,38.269997,STD
27942233780000,1.879928,0.92684042589897,9.78960664785643,0.343792730682619,-0.0015271631,0.003970624,0.011301007,196.51393,-49.74487,37.998844,STD
27942238716000,1.884864,0.925269436041875,9.79117750648056,0.335937774835494,0.00030543262,0.0061086523,0.013133603,195.92911,-49.954674,37.72972,STD
27942243790000,1.889938,0.923654524669325,9.79279228295115,0.32786321122765,-0.01038471,0.01740966,0.01863139,195.34515,-50.163,37.460735,STD
27942248697000,1.894845,0.922092764695912,9.79435391246261,0.320054404837488,-0.0070249503,0.005497787,0.016187929,194.77338,-50.375267,37.19095,STD
27942253844000,1.899992,0.920454619478232,9.79599192083749,0.311863671906946,-0.008552114,0.0009162979,0.009162978,194.19936,-50.58678,36.919437,STD
27942258794000,1.904942,0.916493916638432,9.79851279486931,0.308617468705712,-0.01038471,-0.006414085,0.01740966,193.61734,-50.788685,36.659073,STD
27942263838000,1.909986,0.90714145928122,9.80318911510165,0.315631807451113,-0.009162978,0.00030543262,0.016187929,193.03836,-50.996376,36.392647,STD
27942268757000,1.914905,0.898020773765731,9.80774954714424,0.322472317421104,-0.004276057,0.010995574,0.021380283,192.46994,-51.204784,36.128204,STD
27942274176000,1.920324,0.88797300088335,9.81277353194579,0.33000814249274,-0.016798794,0.006414085,0.01863139,191.90977,-51.415066,35.861305,STD
27942278774000,1.924922,0.874926560163517,9.81581768241457,0.332732384065407,-0.01282817,0.009468411,0.027488936,191.35188,-51.627213,35.595013,STD
27942283826000,1.929974,0.839396823102908,9.81344898545971,0.318520489241163,-0.018936822,0.014660766,0.027794369,190.8002,-51.840897,35.325493,STD
27942288799000,1.934947,0.80442267773426,9.81111732869872,0.304530831093704,-0.024740042,0.0143553335,0.03023783,190.2422,-52.052406,35.05709,STD
27942293829000,1.939977,0.769047662410653,9.80875894673455,0.290380824964261,-0.022602014,0.0143553335,0.024740042,189.6878,-52.266983,34.785866,STD
27942298788000,1.944936,0.737833608247815,9.80748903401748,0.276468873942417,-0.022907447,0.009773844,0.017104227,189.1456,-52.48512,34.51292,STD
27942303814000,1.949962,0.742407249144812,9.8166365068415,0.262747936924173,-0.019242255,0.010079277,0.018020526,188.60591,-52.703594,34.2405,STD
27942309133000,1.955281,0.746862486819457,9.82618923417812,0.248354903695022,-0.01863139,0.008246681,0.010079277,188.06421,-52.93398,33.958073,STD
27942313831000,1.959979,0.744723177875517,9.83260707165613,0.237658352273786,-0.01282817,0.009468411,0.009468411,187.52519,-53.163567,33.67781,STD
27942318723000,1.964871,0.742495527949218,9.83928992839142,0.22652009566402,-0.020158553,0.004886922,0.005192355,187.00734,-53.400593,33.39079,STD
27942323790000,1.969938,0.74018818899244,9.84621184888973,0.214983393652228,-0.022602014,0.01160644,0.01282817,186.48817,-53.635693,33.10656,STD
27942328731000,1.974879,0.737938226137606,9.85296164347867,0.203733572329894,-0.02076942,-0.0018325958,0.0036651916,185.98297,-53.875877,32.81922,STD
27942333789000,1.979937,0.739256463365995,9.85637640184155,0.193743482688463,-0.0070249503,0.00580322,0.0030543262,185.47104,-54.112755,32.53489,STD
27942338750000,1.984898,0.741595845157319,9.85871583248806,0.184385950637648,-0.01160644,0.005497787,0.007941248,184.97023,-54.348488,32.25212,STD
27942343800000,1.989948,0.743977195297651,9.86109723236004,0.174860545103156,-0.006414085,0.0018325958,0.00061086525,184.48108,-54.597855,31.963726,STD
27942348726000,1.994874,0.746300072682062,9.86342015825496,0.165569030714462,-0.0036651916,0.00030543262,0.006414085,183.99315,-54.841213,31.681177,STD
27942353768000,1.999916,0.740464663840732,9.86737418622595,0.169331959566584,-0.004276057,0.004581489,0.008246681,183.50052,-55.08211,31.399057,STD
27942358847000,2.004995,0.731198028824538,9.87200760049533,0.178598599420842,-0.002443461,-0.0012217305,0.0070249503,183.01508,-55.322567,31.119577,STD
27942363787000,2.009935,0.721917426422906,9.873688,0.187879206667831,-0.002443461,-0.014660766,0.0070249503,182.780037226248,-55.4430789363929,30.9817303172303,STD
27942368783000,2.014931,0.71237072261685,9.873688,0.197425915458173,0.005192355,-0.021991149,0.0067195175,182.54233,-55.564957,30.842321,STD
27942373803000,2.019951,0.702778157943832,9.873688,0.207018485139422,0.016187929,-0.014660766,0.013744468,182.06525,-55.80589,30.56609,STD
27942378799000,2.024947,0.693231454137776,9.873688,0.216565193929765,0.0106901415,-0.01282817,-0.00030543262,181.58156,-56.041866,30.290777,STD
27942383787000,2.029935,0.68660821832,9.86930508595,0.2217274923655,0.012217305,-0.024740042,0.0033597588,181.10147,-56.27343,30.023687,STD
27942388780000,2.034928,0.68182652208,9.8621323918,0.224118342982,0.009162978,-0.01740966,0.00030543262,180.6204,-56.50879,29.750265,STD
27942393796000,2.039944,0.6770227992,9.854926657,0.22652020693,0.004581489,-0.01740966,-0.0036651916,180.1331,-56.739708,29.481665,STD
27942398791000,2.044939,0.6722391876,9.84775108975,0.2289120152275,0.008552114,-0.01863139,0.0018325958,179.64767,-56.96956,29.215302,STD
27942403774000,2.049922,0.67325684040194,9.8535982016632,0.232723706417186,0.013133603,-0.02076942,-0.0015271631,179.17897,-57.206696,28.942205,STD
27942408805000,2.054953,0.678026752371052,9.86790823641224,0.237493628347688,0.018020526,-0.02107485,-0.0018325958,178.7132,-57.441685,28.672712,STD
27942413775000,2.059923,0.678566780589366,9.87091490326713,0.242193217373479,0.01985312,-0.022602014,0.00580322,178.24875,-57.67379,28.406384,STD
27942418786000,2.064934,0.676201958000296,9.86618515931602,0.246922860082294,0.009773844,-0.016187929,-0.0021380284,177.78728,-57.90847,28.136423,STD
27942423939000,2.070087,0.673770121879466,9.86132138550239,0.251786529784655,0.018325957,-0.01863139,-0.004276057,177.33139,-58.142292,27.871805,STD
27942428791000,2.074939,0.671480335568915,9.8567417172424,0.256366100014783,0.013744468,-0.018325957,-0.0125227375,176.87784,-58.375988,27.60405,STD
27942433787000,2.079935,0.671220017788238,9.8511599464629,0.256043215754492,0.011911872,-0.021380283,-0.004886922,176.4212,-58.602264,27.34349,STD
27942438801000,2.084949,0.672811812364914,9.84479280139893,0.251267830362328,0.0143553335,-0.014049901,-0.0036651916,175.96663,-58.831654,27.079542,STD
27942443833000,2.089981,0.674409321401578,9.83840279861433,0.246475301584234,0.019547688,-0.018020526,-0.010079277,175.51976,-59.060085,26.817999,STD
27942448790000,2.094938,0.675983020188291,9.83210803633229,0.241754203580853,0.01985312,-0.012217305,-0.008857546,175.071,-59.285473,26.55898,STD
27942453817000,2.099965,0.677578941874959,9.82572438291454,0.236966436854406,0.009162978,-0.013744468,-0.0036651916,174.63005,-59.51006,26.301706,STD
27942459558000,2.105706,0.679401537141152,9.81843403991248,0.231498649152688,0.011301007,-0.018325957,-0.0061086523,174.19287,-59.737473,26.04399,STD
27942463828000,2.109976,0.678743900618454,9.81501757536159,0.232262160025935,0.01160644,-0.01740966,-0.0027488936,173.75156,-59.956608,25.792145,STD
27942468829000,2.114977,0.676355193546135,9.81262881840399,0.237039576664838,0.016798794,-0.01282817,-0.009773844,173.31595,-60.1795,25.53828,STD
27942473835000,2.119983,0.673964098244389,9.81023767316708,0.241821769765087,0.018936822,-0.013439035,-0.014966198,172.89032,-60.400223,25.289265,STD
27942478831000,2.124979,0.671577779401496,9.80785130448878,0.246594409942643,0.02443461,-0.01282817,-0.010079277,172.46663,-60.620846,25.042137,STD
27942483824000,2.129972,0.677241874271938,9.81580378457088,0.239843132858245,0.0070249503,-0.017715093,-0.010079277,172.03833,-60.835354,24.798368,STD
27942488818000,2.134966,0.691077902970106,9.8342517265188,0.221395084962392,0.009773844,-0.0125227375,-0.008552114,171.61064,-61.05168,24.55683,STD
27942493927000,2.140075,0.696973683719525,9.84069070108805,0.208556531492041,0.01038471,0.0027488936,-0.004886922,171.18271,-61.26297,24.316893,STD
27942498825000,2.144973,0.692247996997784,9.83123962371549,0.203830839835785,0.01160644,-0.007330383,-0.008857546,170.7659,-61.47594,24.078207,STD
27942503753000,2.149901,0.69147456713475,9.82774850774262,0.203057409165144,0.01740966,-0.011911872,-0.004276057,170.3482,-61.68729,23.843931,STD
27942508863000,2.155011,0.696181448735212,9.83245548764067,0.207764295680485,0.014660766,-0.0076358155,-0.011301007,169.93643,-61.900894,23.606892,STD
27942513719000,2.159867,0.703130564282499,9.83779516495773,0.206666083196619,0.0143553335,-0.009773844,-0.013439035,169.53131,-62.113087,23.37469,STD
27942518813000,2.164961,0.715330889196219,9.8451152579903,0.194465750639224,0.012217305,-0.01863139,-0.01160644,169.13126,-62.324768,23.143332,STD
27942523753000,2.169901,0.727162378217376,9.8522140525684,0.182634254205472,0.0067195175,-0.01740966,-0.014660766,168.73361,-62.536385,22.911396,STD
27942529405000,2.175553,0.740699134482069,9.86033599324764,0.169097489459811,0.00030543262,-0.0125227375,-0.019242255,168.34142,-62.746758,22.681526,STD
27942533722000,2.17987,0.750054901434048,9.86181303511761,0.159741721765346,0.0036651916,-0.010995574,-0.008552114,167.9572,-62.956524,22.455881,STD
27942538813000,2.184961,0.759284979126793,9.85489058587723,0.15051165371054,0.005497787,-0.0030543262,-0.009468411,167.57465,-63.168053,22.226686,STD
27942543740000,2.189888,0.768217721769133,9.84819113441242,0.141578920395665,0.018020526,-0.002443461,-0.002443461,167.20473,-63.37875,22.006292,STD
27942548793000,2.194941,0.777378904755076,9.84132035538833,0.132417746975721,0.02076942,-0.0027488936,-0.00061086525,166.83649,-63.58864,21.78544,STD
27942553775000,2.199923,0.784526460451026,9.83383757929043,0.124241253841813,0.008552114,-0.0030543262,-0.003970624,166.46597,-63.794575,21.568933,STD
27942558877000,2.205025,0.778113981430071,9.82101260785686,0.122103763810753,0.010995574,-0.00061086525,0.0015271631,166.09737,-63.999817,21.356773,STD
27942563766000,2.209914,0.771969212724966,9.80872305761407,0.120055510427403,0.021991149,-0.004276057,-0.003970624,165.74298,-64.20688,21.145683,STD
27942568831000,2.214979,0.765603237373901,9.79599109361739,0.117933521598058,0.026267206,-0.0036651916,-0.0012217305,165.38863,-64.40902,20.939447,STD
27942573903000,2.220051,0.759228464031235,9.78324153361914,0.115808600108929,0.020463986,-0.011911872,0.0009162979,165.04153,-64.61169,20.73407,STD
27942578823000,2.224971,0.757879840502493,9.77792,0.121482387992961,0.0143553335,-0.004276057,-0.0018325958,164.69275,-64.81439,20.528479,STD
27942583807000,2.229955,0.760212950835859,9.77792,0.133147949404634,0.020463986,-0.004276057,-0.009468411,164.35185,-65.01769,20.324913,STD
27942588799000,2.234947,0.762549806129631,9.77792,0.144832235633982,0.02107485,-0.0027488936,-0.006414085,164.00165,-65.21097,20.123913,STD
27942593761000,2.239909,0.764872617821879,9.77792,0.156446303797048,0.020158553,-0.0061086523,-0.0021380284,163.6566,-65.40565,19.923073,STD
27942599209000,2.245357,0.763595353723197,9.78684193211501,0.164080293138402,0.018325957,0.0036651916,-0.0009162979,163.31046,-65.59941,19.722736,STD
27942603780000,2.249928,0.759328730643275,9.80177497923976,0.166213604678363,0.00580322,0.00580322,-0.005497787,162.97086,-65.79071,19.524326,STD
27942608765000,2.254913,0.754675675282651,9.81806052724172,0.168540132358674,0.0036651916,0.005192355,-0.004886922,162.63,-65.9776,19.330112,STD
27942613795000,2.259943,0.749980616413255,9.83449308620858,0.170887661793372,0.0061086523,0.0021380284,0.0036651916,162.2924,-66.161606,19.138437,STD
27942618745000,2.264893,0.74862188748294,9.84821904308832,0.169120543331059,0.016798794,0.010995574,0.0030543262,161.95175,-66.34707,18.948168,STD
27942623809000,2.269957,0.753349603918893,9.85767467342562,0.159665105522519,0.017104227,0.018325957,-0.0030543262,161.61566,-66.52975,18.760534,STD
27942628721000,2.274869,0.759232736613164,9.86011352160699,0.147898860427391,0.006414085,0.01985312,-0.0009162979,161.2776,-66.71219,18.573154,STD
27942633788000,2.279936,0.768450306933232,9.84628743081014,0.129463801598442,0.0030543262,0.01282817,0.005192355,160.94359,-66.89551,18.386883,STD
27942638741000,2.284889,0.774784059984643,9.83584962841054,0.11492168,0.005497787,0.009468411,0.005497787,160.6136,-67.07947,18.200666,STD
27942643804000,2.289952,0.769819883731763,9.83833149623752,0.11492168,0.0143553335,0.015271631,-0.0027488936,160.28651,-67.26359,18.01522,STD
27942648717000,2.294865,0.765002779657026,9.84073983450218,0.11492168,0.028405234,0.008857546,0.004581489,159.978,-67.449005,17.837255,STD
27942653775000,2.299923,0.760043505810085,9.84321925134374,0.11492168,0.017715093,0.021685716,0.004886922,159.66602,-67.63387,17.655046,STD
27942658784000,2.304932,0.755167197033263,9.84075554959545,0.119123191824993,0.009162978,0.0067195175,0.004581489,159.36978,-67.82189,17.481133,STD
27942663795000,2.309943,0.750373535580861,9.826374765458,0.133504186193187,0.013133603,0.0061086523,0.010995574,159.06781,-68.007256,17.308926,STD
27942668833000,2.314981,0.742744387423736,9.82330452096044,0.146483111340287,0.016493361,0.0009162979,0.00030543262,158.77338,-68.19482,17.13322,STD
27942673812000,2.31996,0.728667565774454,9.84676589037591,0.155867668905727,0.015271631,-0.0015271631,-0.002443461,158.47997,-68.3776,16.962986,STD
27942678777000,2.324925,0.714851718480872,9.86070226593975,0.159396936107928,0.02443461,-0.018020526,-0.0015271631,158.20067,-68.563515,16.791197,STD
27942683786000,2.329934,0.7015537538163,9.84740448641656,0.146098962186287,0.027794369,-0.010995574,-0.0033597588,157.91812,-68.74791,16.618256,STD
27942688810000,2.334958,0.688559677072672,9.83586617093142,0.133590088029683,0.02107485,-0.015882496,-0.004581489,157.64171,-68.93178,16.446365,STD
27942693802000,2.33995,0.67877310888434,9.84075904626407,0.128696798825998,0.00580322,-0.01985312,-0.0033597588,157.36545,-69.11293,16.275976,STD
27942698786000,2.344934,0.672266338641269,9.84747683747771,0.121348756563198,0.0070249503,-0.016493361,0.0015271631,157.0858,-69.29457,16.108252,STD
27942703778000,2.349926,0.685724362175096,9.86542124359576,0.0989187004768697,0.0015271631,-0.019242255,-0.0106901415,156.81267,-69.47433,15.93858,STD
27942709060000,2.355208,0.699833349692286,9.88282912108201,0.0755974237177616,-0.002443461,-0.014049901,-0.014660766,156.53296,-69.65125,15.774982,STD
27942713848000,2.359996,0.710771214870474,9.87626626492057,0.0602844017323601,0.008246681,-0.0067195175,-0.0061086523,156.25604,-69.82824,15.613303,STD
27942719069000,2.365217,0.722698239535327,9.86910990067268,0.0435865554947283,0.01160644,0.0012217305,-0.009468411,155.98508,-70.00811,15.44893,STD
27942723848000,2.369996,0.733615544816564,9.86255938070703,0.0283023173852393,-0.0009162979,0.0033597588,-0.0061086523,155.71509,-70.182014,15.290454,STD
27942728735000,2.374883,0.744779568861218,9.85586082639187,0.0126726727648013,-0.0030543262,0.0009162979,-0.004886922,155.45668,-70.362495,15.1291485,STD
27942733785000,2.379933,0.74333363574703,9.85087678666542,0.0193295184212742,0.0106901415,0.0106901415,0.00061086525,155.19579,-70.54013,14.9709425,STD
27942738755000,2.384903,0.738880768687436,9.84642398160102,0.0312038387945552,0.004276057,0.018020526,-0.0015271631,154.93887,-70.713425,14.813097,STD
27942743797000,2.389945,0.73436339329217,9.84190666909907,0.0432501815152961,-0.0015271631,0.018936822,-0.0021380284,154.68938,-70.887054,14.661911,STD
27942748723000,2.394871,0.729949947993264,9.83749328524651,0.0550193771206848,0.002443461,0.013133603,-0.0015271631,154.4417,-71.059784,14.512115,STD
27942753777000,2.399925,0.725421821208719,9.83296522150497,0.0670943902326691,0.005192355,0.009773844,0.0033597588,154.19475,-71.22875,14.364821,STD
27942758853000,2.405001,0.72087398354383,9.82841744715751,0.0792219657285995,0.013133603,0.013439035,0.003970624,153.94957,-71.39853,14.218093,STD
27942763848000,2.409996,0.716171637776845,9.82789290584654,0.0924578510318044,0.0106901415,0.014660766,-0.002443461,153.71503,-71.57024,14.074878,STD
27942768786000,2.414934,0.711207825621917,9.83285682166474,0.107349297862916,0.0033597588,0.019242255,-0.0009162979,153.4797,-71.73874,13.935215,STD
27942773833000,2.419981,0.706272624372084,9.83055874803931,0.102866294307555,-0.009773844,0.01038471,-0.0061086523,153.24655,-71.90259,13.794006,STD
27942778799000,2.424947,0.701551251513948,9.82111580512261,0.079259415226844,-0.0070249503,0.0030543262,-0.004276057,153.01314,-72.06445,13.656412,STD
27942784467000,2.430615,0.707825964066634,9.82785235805977,0.0554122221401274,-0.008246681,-0.005497787,-0.004276057,152.7834,-72.221985,13.518631,STD
27942788778000,2.434926,0.719962833679569,9.84403476638902,0.0392297166496815,0.007941248,0.0012217305,0.0030543262,152.5529,-72.379616,13.384565,STD
27942793798000,2.439946,0.721365099027159,9.86100633613701,0.0352026254783137,0.009162978,-0.0067195175,0.008857546,152.33289,-72.53702,13.252904,STD
27942798793000,2.444941,0.706822299270369,9.87554943960276,0.0497454353587353,0.009773844,-0.003970624,0.01038471,152.1096,-72.69495,13.122564,STD
27942803771000,2.449919,0.694679816918189,9.88105141223193,0.0707420984908658,0.005497787,-0.0061086523,0.0027488936,151.8908,-72.85085,12.993446,STD
27942808806000,2.454954,0.68510491858618,9.87626386308578,0.099466813482923,0.011911872,-0.0125227375,-0.004581489,151.67415,-73.00683,12.86631,STD
27942813771000,2.459919,0.682051611154276,9.86949139960181,0.113872524422862,-0.004276057,-0.021380283,-0.0067195175,151.4504,-73.15345,12.738457,STD
27942818803000,2.464951,0.686731886743068,9.8601308972952,0.111532386628466,-0.0027488936,-0.026267206,-0.0015271631,151.22939,-73.30302,12.612233,STD
27942823783000,2.469931,0.691363797003836,9.85086712513961,0.109216431498082,0.004276057,-0.025961773,0.005192355,151.00873,-73.446144,12.487344,STD
27942828807000,2.474955,0.696036631772933,9.8415215043947,0.106880014113534,0.0033597588,-0.011301007,0.0009162979,150.78784,-73.58796,12.361783,STD
27942833761000,2.479909,0.694300569547617,9.83377885639105,0.119763879721688,-0.0021380284,-0.014966198,-0.005497787,150.55872,-73.721634,12.247498,STD
27942838816000,2.484964,0.679602444661471,9.82887937911143,0.163858279959518,-0.006414085,-0.022602014,-0.00030543262,150.32893,-73.85281,12.13576,STD
27942843755000,2.489903,0.668651953370042,9.82752858264505,0.188087034939329,0.0012217305,-0.033292156,-0.009468411,150.10738,-73.98749,12.021613,STD
27942848792000,2.49494,0.663733187019476,9.83244745171816,0.17824949710207,-0.0061086523,-0.022907447,0.002443461,149.88313,-74.111916,11.915199,STD
27942854448000,2.500596,0.658316548494329,9.82793138991005,0.167416214395776,-0.0027488936,-0.02565634,-0.004886922,149.67567,-74.244545,11.798805,STD
27942858878000,2.505026,0.654168599335158,9.81548728255768,0.159120311746187,-0.0067195175,-0.03176499,0.0009162979,149.46736,-74.36799,11.690302,STD
27942863806000,2.509954,0.65947524893617,9.81160151276596,0.14167561287234,-0.009773844,-0.031154128,-0.0036651916,149.26526,-74.499176,11.575535,STD
27942868827000,2.514975,0.682727237717602,9.82555299738878,0.109122804298839,-0.015577064,-0.032375857,0.004276057,149.06674,-74.62396,11.467614,STD
27942873759000,2.519907,0.701619999322799,9.8378940205982,0.0786519567832957,-0.021380283,-0.024740042,-0.00030543262,148.86856,-74.751816,11.355147,STD
27942878834000,2.524982,0.710762636644093,9.84703637151994,0.0512240257261099,-0.015882496,-0.01985312,-0.0027488936,148.67319,-74.87742,11.246951,STD
27942883748000,2.529896,0.7196969006183,9.85489310765395,0.02873042,-0.024740042,-0.017104227,-0.00061086525,148.48456,-75.00148,11.14074,STD
27942888853000,2.535001,0.729447997900773,9.85733093288457,0.02873042,-0.012217305,-0.016493361,0.00030543262,148.29724,-75.130196,11.0345745,STD
27942893761000,2.539909,0.738822804063825,9.85967468337073,0.02873042,-0.011301007,-0.0067195175,0.004581489,148.11009,-75.255905,10.93061,STD
27942898813000,2.544961,0.748472665664423,9.86208719915233,0.02873042,-0.014660766,-0.010995574,0.006414085,147.92865,-75.38219,10.828048,STD
27942903794000,2.549942,0.755655243692495,9.86319854845638,0.0266773918789472,-0.005497787,-0.00580322,0.007330383,147.74911,-75.51092,10.720928,STD
27942908924000,2.555072,0.74935524253839,9.85689858019427,0.0125023794146123,-0.013744468,-0.009773844,0.0067195175,147.57497,-75.634224,10.615881,STD
27942913842000,2.55999,0.743315592309172,9.85085896149777,-0.00108684306094316,-0.005192355,-0.010079277,0.009162978,147.40219,-75.7583,10.515608,STD
27942918824000,2.564972,0.737197345574328,9.84474074670599,-0.0148529077972622,-0.010995574,-0.0036651916,0.0106901415,147.23013,-75.87703,10.416015,STD
27942924404000,2.570552,0.730344712740038,9.83788814964896,-0.0302713424075914,-0.00030543262,-0.008246681,0.010079277,147.07062,-76.00289,10.3164,STD
27942928797000,2.574945,0.724949799471035,9.83249326454653,-0.0424099057128202,-0.005192355,0.0061086523,0.01038471,146.90503,-76.122696,10.217514,STD
27942933747000,2.579895,0.718870850989004,9.82641434780239,-0.0560875493187574,-0.005192355,-0.004581489,0.0076358155,146.827501248877,-76.1821750655885,10.1705119784367,STD
27942938814000,2.584962,0.713637984579637,9.83042661195606,-0.0389707657689058,-0.005192355,-0.0015271631,0.015882496,146.74814,-76.24306,10.122399,STD
27942944089000,2.590237,0.707962330649351,9.83574165454545,-0.018792929061039,-0.0009162979,0.01038471,0.017104227,146.58305,-76.36275,10.025782,STD
27942948794000,2.594942,0.698959564615385,9.84024266153846,-0.0142915427538462,0.0033597588,0.00061086525,0.008246681,146.42612,-76.489235,9.926597,STD
27942954092000,2.60024,0.68988472530024,9.8442477716173,-0.00780367923979183,-0.010995574,-0.0018325958,0.017104227,146.26318,-76.605705,9.832757,STD
27942958850000,2.604998,0.694445014971978,9.83512747798239,0.0149977853090472,0.00030543262,-0.006414085,0.018325957,146.10571,-76.729965,9.736029,STD
27942964137000,2.610285,0.698912393522831,9.82619300076823,0.0388907468986412,0.0076358155,-0.0012217305,0.019547688,145.94563,-76.84814,9.641149,STD
27942968803000,2.614951,0.696766844533538,9.83048396432516,0.0453273990193499,0.01282817,0.00061086525,0.013439035,145.78944,-76.96797,9.546063,STD
27942974196000,2.620344,0.69428700190618,9.83544349421424,0.0527669328571086,0.004886922,0.0027488936,0.009468411,145.64151,-77.08442,9.454569,STD
27942978828000,2.624976,0.69215708700725,9.83970319056993,0.0591566826691794,-0.009773844,-0.0033597588,0.016493361,145.4964,-77.19804,9.365901,STD
27942983724000,2.629872,0.68990577799491,9.84420566754694,0.0659106151130264,0.0030543262,-0.01740966,0.006414085,145.3617,-77.32074,9.266248,STD
27942988814000,2.634962,0.681258083343441,9.84082133717405,0.087717704597736,-0.0061086523,-0.024740042,0.0018325958,145.22726,-77.432205,9.171453,STD
27942994068000,2.640216,0.671086968081666,9.83573620436628,0.11314550868304,-0.006414085,-0.027794369,0.0027488936,145.09676,-77.54725,9.077195,STD
27942998791000,2.644939,0.680525522187622,9.83741063487738,0.104772651453873,-0.01985312,-0.025350908,-0.004581489,144.96748,-77.65808,8.980192,STD
27943003751000,2.649899,0.69208180089529,9.83972169754768,0.0932163655060335,-0.013744468,-0.020463986,0.002443461,144.83864,-77.76795,8.88898,STD
27943008860000,2.655008,0.703985233943169,9.8421021852861,0.0813129250004866,-0.0067195175,-0.02107485,-0.00061086525,144.7176,-77.87783,8.790009,STD
27943013737000,2.659885,0.715348131374075,9.84437457493188,0.0699500204505644,-0.0076358155,-0.017104227,-0.007330383,144.59462,-77.98513,8.693151,STD
27943018826000,2.664974,0.72980861073186,9.84880645063344,0.0785857663591247,-0.0070249503,-0.01985312,0.0070249503,144.47386,-78.088844,8.603257,STD
27943023752000,2.6699,0.744626530363313,9.85374586032876,0.0934036932111821,-0.013744468,-0.022296581,0.008857546,144.35358,-78.193405,8.509292,STD
27943028827000,2.674975,0.730623139410241,9.84225835046822,0.0834922375758119,-0.015577064,-0.016493361,0.004581489,144.2323,-78.29573,8.425659,STD
27943033722000,2.67987,0.711942750488145,9.82824825383542,0.0694819390571827,-0.016187929,-0.010079277,0.010079277,144.11198,-78.39323,8.346556,STD
27943038790000,2.684938,0.692760782185835,9.82182318741369,0.0550954520791083,-0.01740966,-0.005192355,0.011301007,143.99356,-78.48721,8.268633,STD
27943043747000,2.689895,0.674030382659302,9.81714048974157,0.0410476411883014,-0.016798794,-0.017715093,0.00580322,143.87935,-78.58053,8.191866,STD
27943048787000,2.694935,0.662617510954796,9.816227,0.0286085015297131,-0.008246681,-0.011301007,0.003970624,143.75461,-78.67536,8.112035,STD
27943053777000,2.699925,0.653111654010145,9.816227,0.0167261936247949,-0.007941248,-0.014049901,0.0009162979,143.63728,-78.768845,8.032331,STD
27943058865000,2.705013,0.643419108893033,9.816227,0.00461052576503058,-0.0018325958,-0.016798794,0.0061086523,143.51645,-78.86674,7.9519753,STD
27943063789000,2.709937,0.634038980717589,9.816227,-0.00711462135397086,-0.0143553335,-0.003970624,0.006414085,143.39316,-78.9613,7.8700924,STD
27943068819000,2.714967,0.642643694227687,9.81270211356728,0.00452245422243714,-0.013133603,-0.013744468,0.009773844,143.27318,-79.055016,7.795657,STD
27943073829000,2.719977,0.655901468447085,9.80828277397071,0.0221994559052224,-0.009162978,-0.012217305,0.01038471,143.14755,-79.14622,7.7206182,STD
27943078795000,2.724943,0.673688761136314,9.81953899384316,0.0416194912302873,-0.01740966,-0.013439035,0.0143553335,143.02371,-79.23834,7.645144,STD
27943083795000,2.729943,0.694377462799741,9.8402275874919,0.062308209095917,-0.01740966,-0.005497787,0.014660766,142.89806,-79.33239,7.569421,STD
27943088778000,2.734926,0.700279943444976,9.84378405454545,0.0635185168478469,-0.004276057,-0.014660766,0.0018325958,142.78123,-79.42373,7.4957805,STD
27943093800000,2.739948,0.701814064325359,9.84225006181818,0.0589161505222966,-0.0125227375,-0.0061086523,0.01038471,142.65741,-79.505394,7.4282475,STD
27943098792000,2.74494,0.703339020803828,9.84072523272727,0.0543412774244976,-0.01038471,-0.0027488936,0.01740966,142.53316,-79.58568,7.3654647,STD
27943103773000,2.749921,0.704860617001595,9.83920376363636,0.049776485176874,-0.0018325958,-0.01038471,0.01282817,142.41109,-79.6655,7.3026023,STD
27943108820000,2.754968,0.706402374883573,9.83766213454545,0.0451512078281978,-0.02076942,-0.013133603,0.013439035,142.2841,-79.735344,7.2442126,STD
27943113784000,2.759932,0.707918777920255,9.83614585818182,0.0406019950762998,-0.008552114,-0.01863139,0.01740966,142.1616,-79.812805,7.1864557,STD
27943118744000,2.764892,0.704017373087987,9.82838136345601,0.0429735570791588,-0.015577064,-0.011911872,0.004886922,142.03845,-79.885185,7.124465,STD
27943123765000,2.769913,0.694477622507688,9.81407143874616,0.0525133141343121,-0.006414085,-0.009162978,0.0061086523,141.91876,-79.9591,7.068427,STD
27943128770000,2.774918,0.694089215058987,9.81120921027065,0.0597403999097849,-0.008552114,-0.008552114,0.005192355,141.8064,-80.03591,7.007933,STD
27943133754000,2.779902,0.70355303407356,9.82067322692575,0.0644723143580847,-0.0076358155,-0.013133603,0.014049901,141.69551,-80.11214,6.951325,STD
27943138774000,2.784922,0.717442438370487,9.82799373032156,0.0626582766991517,-0.018020526,-0.0076358155,0.01160644,141.57285,-80.181885,6.8914833,STD
27943143807000,2.789955,0.736460009646873,9.83274822243046,0.0531494821248767,-0.014660766,-0.003970624,0.013439035,141.45303,-80.25146,6.836153,STD
27943148739000,2.794887,0.738780573860911,9.83948603447242,0.051989198927458,-0.010995574,-0.004886922,0.014660766,141.33527,-80.31748,6.7824388,STD
27943153684000,2.799832,0.71985280567546,9.84894962210232,0.0614530919140688,-0.005497787,-0.007330383,0.0143553335,141.21844,-80.384094,6.7292433,STD
27943163712000,2.80986,0.69853045461007,9.8646874574283,0.0636532313360505,-0.017715093,-0.005497787,0.015271631,140.99118,-80.51094,6.630257,STD
27943168664000,2.814812,0.691458883418659,9.87175917630101,0.0612960384775585,-0.007941248,-0.0067195175,0.01985312,140.88397,-80.578,6.5804095,STD
27943173726000,2.819874,0.684230229668473,9.87898798101297,0.0588864847114668,-0.011301007,-0.0106901415,0.0076358155,140.77751,-80.644455,6.525148,STD
27943178823000,2.824971,0.676947411751531,9.87725320257827,0.0594647669637151,-0.0143553335,-0.004581489,0.02107485,140.66882,-80.706345,6.478699,STD
27943183703000,2.829851,0.669968946169927,9.86329622283609,0.0641170807519785,-0.020463986,-0.0125227375,0.019547688,140.56746,-80.77174,6.4257407,STD
27943188670000,2.834818,0.662866069419143,9.8490904198895,0.0688523353803195,-0.018020526,-0.011911872,0.014966198,140.45807,-80.83791,6.3802648,STD
27943193711000,2.839859,0.655657371673884,9.83467297421731,0.0736581373898761,-0.01985312,-0.008857546,0.012217305,140.35161,-80.90133,6.3353996,STD
27943198649000,2.844797,0.652938914592275,9.8292360112661,0.0706083987162017,-0.028099801,-0.009468411,0.01038471,140.24411,-80.96261,6.2918077,STD
27943203748000,2.849896,0.657702092820913,9.83876231798673,0.053937263227858,-0.021991149,-0.012217305,0.014049901,140.1377,-81.025406,6.249286,STD
27943208753000,2.854901,0.662377461919625,9.84811300736442,0.0375734599097249,-0.019547688,-0.008246681,0.0106901415,140.031,-81.08694,6.203151,STD
27943213858000,2.860006,0.667146244986344,9.85765052370269,0.0208827074743465,-0.020158553,-0.0021380284,0.008857546,139.92569,-81.147575,6.158879,STD
27943218726000,2.864874,0.674372343756165,9.85878323614125,0.0175685004927994,-0.021685716,-0.0021380284,0.007330383,139.83008,-81.2118,6.1081796,STD
27943223789000,2.869937,0.688720540165713,9.83965240747682,0.046264914786447,-0.018936822,-0.014660766,0.009468411,139.7374,-81.27576,6.058819,STD
27943228758000,2.874906,0.700257457140225,9.82465341883177,0.0716398821651004,-0.02321288,-0.004276057,0.006414085,139.6345,-81.34024,6.006149,STD
27943233758000,2.879906,0.704669102616547,9.82024168122351,0.0892864778901787,-0.01160644,-0.0018325958,0.005497787,139.5384,-81.40702,5.9559608,STD
27943238754000,2.884902,0.71146960246766,9.8171556535493,0.102558975205131,-0.014049901,-0.013133603,0.0018325958,139.44774,-81.464485,5.908456,STD
27943243771000,2.889919,0.742807882019785,9.82760196488749,0.0712206694745081,-0.008857546,-0.014049901,0.00030543262,139.35446,-81.5251,5.861453,STD
27943249185000,2.895333,0.772054722717911,9.83833601415962,0.0493615865994851,-0.013744468,-0.016798794,0.0030543262,139.27156,-81.58093,5.8140287,STD
27943253771000,2.899919,0.788207452982714,9.84641211364472,0.0533997662140493,-0.020158553,-0.01038471,0.0070249503,139.18723,-81.63692,5.7669663,STD
27943258797000,2.904945,0.805299391256013,9.85411017552111,0.0570370240179583,-0.016798794,-0.007941248,0.011301007,139.1067,-81.6931,5.7248244,STD
27943263787000,2.909935,0.815516009535008,9.84900175970069,0.0519287106112239,-0.019242255,-0.007330383,0.007330383,139.02585,-81.74704,5.6818314,STD
27943268783000,2.914931,0.821623626138614,9.84594788762376,0.0488748997584158,-0.007941248,-0.012217305,0.006414085,138.94862,-81.79984,5.644419,STD
27943273800000,2.919948,0.812109407207921,9.85070509643564,0.0536320131976238,-0.015577064,-0.008552114,0.013439035,138.8695,-81.84692,5.608289,STD
27943278789000,2.924937,0.807023061377753,9.85539111716544,0.0600321395878035,-0.01740966,-0.016493361,0.0015271631,138.79823,-81.900764,5.5694613,STD
27943283791000,2.929939,0.820547403640128,9.85989931912291,0.0735564724355355,-0.009162978,-0.016187929,0.009468411,138.72359,-81.949356,5.5382266,STD
27943288830000,2.934978,0.83281540181666,9.86301062536626,0.0854576663143575,-0.0076358155,-0.019547688,0.0125227375,138.66002,-82.00314,5.5005393,STD
27943293804000,2.939952,0.827830554374215,9.84805635370448,0.0754880078652156,-0.0125227375,-0.013744468,0.009773844,138.59425,-82.056145,5.463617,STD
27943298766000,2.944914,0.822265344469661,9.83404095648504,0.0697176831595236,-0.012217305,-0.0106901415,0.004581489,138.53279,-82.10611,5.43006,STD
27943303768000,2.949916,0.813280414600019,9.8250558389759,0.0876875569717716,-0.0030543262,-0.016187929,0.003970624,138.47264,-82.155914,5.397469,STD
27943308981000,2.955129,0.804997384013001,9.81731824232865,0.1056176920065,-0.015882496,-0.022296581,0.01160644,138.41171,-82.20176,5.367173,STD
27943313841000,2.959989,0.813895815902877,9.83511501319185,0.110066907951439,-0.014660766,-0.02076942,0.01985312,138.35071,-82.2517,5.3371735,STD
27943319348000,2.965496,0.823230771331608,9.85415942306586,0.114734385665804,-0.023518313,-0.029626964,0.01740966,138.29507,-82.29519,5.3064165,STD
27943323800000,2.969948,0.815055924509635,9.84598483232672,0.110646962254817,-0.017715093,-0.030543262,0.025350908,138.23679,-82.33775,5.280969,STD
27943328730000,2.974878,0.806003365023488,9.83693255641837,0.106120682511744,-0.027183503,-0.028710667,0.019547688,138.17947,-82.37509,5.249925,STD
27943333787000,2.979935,0.777696824965731,9.83092175569312,0.0830491054609772,-0.021380283,-0.028405234,0.028099801,138.12285,-82.41199,5.22559,STD
27943338986000,2.985134,0.745650203097133,9.825804,0.0569580783114393,-0.027794369,-0.026572637,0.029321533,138.0662,-82.446594,5.197759,STD
27943343803000,2.989951,0.727956677121488,9.825804,0.0503230014517212,-0.034513887,-0.033292156,0.038789943,138.01968,-82.48441,5.1719337,STD
27943348790000,2.994938,0.709638716971905,9.825804,0.0434537616137693,-0.036651913,-0.01985312,0.040011674,137.9644,-82.52948,5.1340103,STD
27943353770000,2.999918,0.69134646881772,9.825804,0.0365941637808035,-0.040927973,-0.01740966,0.03359759,137.91455,-82.57175,5.09764,STD
27943358781000,3.004929,0.672940353255346,9.825804,0.0296918656400422,-0.042760566,-0.009468411,0.038789943,137.85942,-82.61102,5.0649376,STD
27943363789000,3.009937,0.648978849227579,9.83436277967859,0.00733278531467081,-0.03940081,-0.016187929,0.037873644,137.80858,-82.652565,5.0316067,STD
27943368721000,3.014869,0.624493184817004,9.84415672431312,-0.0171528606871954,-0.039095376,-0.006414085,0.03848451,137.75107,-82.69131,4.999976,STD
27943373789000,3.019937,0.618247705501188,9.85344663515439,-0.0488667369064133,-0.0421497,-0.00580322,0.03634648,137.6934,-82.73682,4.9654894,STD
27943378734000,3.024882,0.613748206541568,9.8624458304038,-0.0803632841244656,-0.035124753,-0.0027488936,0.044898596,137.63257,-82.78171,4.934339,STD
27943383785000,3.029933,0.585430739222839,9.85233192783505,-0.0704856003045202,-0.032070424,-0.00030543262,0.041233405,137.569,-82.83384,4.8948784,STD
27943388783000,3.034931,0.552217602355274,9.83809793298969,-0.0515066624036479,-0.04153884,0.0018325958,0.040011674,137.50499,-82.88201,4.8589363,STD
27943393802000,3.03995,0.538234235617514,9.84302452493619,-0.0249527232885333,-0.03940081,0.00061086525,0.034208454,137.43971,-82.939575,4.819184,STD
27943398769000,3.044917,0.528894364107599,9.85236410386805,0.00306691025878657,-0.038179077,0.0106901415,0.032986723,137.37108,-82.993576,4.7805505,STD
27943403791000,3.049939,0.504613508253084,9.86558966136092,-0.00147863156227616,-0.037873644,0.0012217305,0.03390302,137.30705,-83.04897,4.7375135,STD
27943408865000,3.055013,0.475608682833267,9.88009235674492,-0.0159810346814564,-0.040011674,0.011301007,0.033292156,137.23526,-83.103905,4.693609,STD
27943413804000,3.059952,0.49189708641566,9.88649809267261,-0.0288537083939688,-0.040927973,0.009468411,0.03268129,137.16582,-83.153435,4.652865,STD
27943418787000,3.064935,0.521352051536901,9.89070558830791,-0.041477257718896,-0.03848451,0.020463986,0.037873644,137.09048,-83.20162,4.6136317,STD
27943423767000,3.069915,0.533802505428997,9.88534502065148,-0.0428866397270598,-0.041233405,0.029932396,0.027488936,137.01353,-83.25689,4.565294,STD
27943428798000,3.074946,0.528673606046413,9.86995853672557,-0.0326288345352353,-0.039095376,0.024740042,0.02443461,136.93819,-83.310616,4.5212827,STD
27943433785000,3.079933,0.538334358604376,9.86120844973389,-0.0316329117726198,-0.03940081,0.023518313,0.033292156,136.86227,-83.360344,4.4827766,STD
27943438780000,3.084928,0.557193462093436,9.85649357539917,-0.0363476910910704,-0.03940081,0.032070424,0.027488936,136.78625,-83.413376,4.439712,STD
27943443761000,3.089909,0.559409004203719,9.85734535660873,-0.0270620274815077,-0.03726278,0.032375857,0.02565634,136.71141,-83.46187,4.40543,STD
27943448787000,3.094935,0.549681236054972,9.8622093422595,-0.00760647747120048,-0.029321533,0.03176499,0.024129177,136.63538,-83.51214,4.369807,STD
27943453769000,3.099917,0.551399088381025,9.86549129947929,0.00828162968900779,-0.041233405,0.034513887,0.022602014,136.56087,-83.55673,4.3368306,STD
27943458863000,3.105011,0.560721071878852,9.86782184158983,0.0222646000687909,-0.030543262,0.03481932,0.023823744,136.48799,-83.607,4.3046346,STD
27943463788000,3.109936,0.569733786587685,9.87007506496919,0.0357836674265514,-0.02687807,0.036651913,0.022296581,136.40936,-83.64921,4.2659135,STD
27943468819000,3.114967,0.578940480536951,9.87237678412077,0.049593703543687,-0.025045475,0.04153884,0.020463986,136.33063,-83.69271,4.2278934,STD
27943473770000,3.119918,0.588450915710318,9.88221930687887,0.053195161394467,-0.030543262,0.035124753,0.019547688,136.25551,-83.735146,4.190433,STD
27943478803000,3.124951,0.598747868156377,9.90281310425123,0.042898201959624,-0.034208454,0.038789943,0.017104227,136.17708,-83.77859,4.1521854,STD
27943483796000,3.129944,0.610989701388162,9.90689431744648,0.0332066475040201,-0.036957346,0.03573562,0.018020526,136.10124,-83.81138,4.120253,STD
27943488777000,3.134925,0.624852538992541,9.89765222948755,0.0239647462783106,-0.039095376,0.04520403,0.018325957,136.02187,-83.843956,4.0874987,STD
27943493806000,3.139954,0.63915584653706,9.8952032490887,0.0167914125164034,-0.039095376,0.05375614,0.01740966,135.9423,-83.875984,4.060991,STD
27943498790000,3.144938,0.653654901061158,9.90003635641961,0.0119584025844471,-0.039095376,0.048258353,0.015271631,135.8652,-83.90766,4.0345273,STD
27943504358000,3.150506,0.663710575772818,9.90096253171851,0.0212203181459686,-0.028710667,0.053145275,0.01985312,135.77594,-83.935616,4.012337,STD
27943508818000,3.154966,0.667882332182449,9.89887660995263,0.0379073553281731,-0.028710667,0.03604105,0.018325957,135.69598,-83.963036,3.9885142,STD
27943513788000,3.159936,0.672531128002149,9.89655216350051,0.0565025514706744,-0.022296581,0.04184427,0.0106901415,135.60951,-83.99302,3.965025,STD
27943518789000,3.164937,0.67720892033501,9.89421321848904,0.0752137337460566,-0.017715093,0.036957346,0.014049901,135.53181,-84.02085,3.9449363,STD
27943523769000,3.169917,0.686026489213762,9.89081677270379,0.0922644534414712,-0.024740042,0.038179077,0.01863139,135.45099,-84.04841,3.9246953,STD
27943528801000,3.174949,0.700963091424734,9.88583832121087,0.107201066050212,-0.014966198,0.03940081,0.011301007,135.37285,-84.08217,3.902133,STD
27943533784000,3.179932,0.715238854482759,9.86796954827586,0.108366520954023,-0.01740966,0.048258353,0.008246681,135.29596,-84.10341,3.8847198,STD
27943538928000,3.185076,0.729394905977012,9.83493856436782,0.094210459605364,-0.01863139,0.05467244,0.0106901415,135.22054,-84.12746,3.8668172,STD
27943543730000,3.189878,0.739189880632489,9.8233300854449,0.0968459512119426,-0.0290161,0.04428773,0.011911872,135.15082,-84.14609,3.8506298,STD
27943548788000,3.194936,0.743947242093891,9.84235943193871,0.125390139850717,-0.015882496,0.042455133,0.018325957,135.07776,-84.168274,3.8362443,STD
27943553772000,3.19992,0.754029950909091,9.8503106344294,0.147875527311412,-0.019242255,0.029626964,0.010079277,135.00342,-84.18235,3.8208473,STD
27943558800000,3.204948,0.774277289565217,9.83816241813136,0.16002392120259,-0.014660766,0.027183503,0.0076358155,134.92757,-84.19903,3.8085594,STD
27943564116000,3.210264,0.794920686401225,9.8254839829478,0.17224537055764,-0.0076358155,0.025350908,0.009162978,134.85802,-84.21219,3.7966676,STD
27943568787000,3.214935,0.795983080978958,9.81804716876455,0.169058181277728,-0.024740042,0.02321288,0.014660766,134.7903,-84.22116,3.7851956,STD
27943574479000,3.220627,0.797277696679333,9.80898479532608,0.16517432741747,-0.017715093,0.016798794,0.015882496,134.73444,-84.2356,3.7810814,STD
27943578789000,3.224937,0.798257983690685,9.80212273813708,0.162233461265378,-0.023823744,0.017715093,0.01160644,134.67807,-84.24385,3.7765124,STD
27943583803000,3.229951,0.799398391828718,9.79413982520306,0.158812230897259,-0.02443461,0.021685716,0.014660766,134.62338,-84.25348,3.7741287,STD
27943588779000,3.234927,0.800530157065026,9.78621741300527,0.155416929279438,-0.025045475,0.017715093,0.025961773,134.57104,-84.26079,3.7668538,STD
27943593801000,3.239949,0.801672384761317,9.77822176307415,0.151990240227046,-0.02565634,0.014966198,0.013439035,134.51852,-84.272156,3.753472,STD
27943598791000,3.244939,0.802807334224576,9.77027706113143,0.148585385911747,-0.019547688,0.031154128,0.02076942,134.46104,-84.27917,3.7537818,STD
27943603772000,3.24992,0.803940236684795,9.76234668831045,0.145186672616254,-0.03848451,0.027794369,0.018325957,134.41127,-84.28508,3.7479792,STD
27943608828000,3.254976,0.815752697748818,9.76724187146611,0.146477334437204,-0.04153884,0.040927973,0.022602014,134.35272,-84.29339,3.7451935,STD
27943613829000,3.259977,0.835886644910142,9.78234263142407,0.151510821227535,-0.045814894,0.03940081,0.021685716,134.3004,-84.29913,3.7403743,STD
27943618785000,3.264933,0.841993412105703,9.79438727506028,0.150932144718272,-0.04520403,0.042455133,0.02076942,134.23732,-84.302376,3.732821,STD
27943623782000,3.26993,0.840815928970031,9.80498459869101,0.147399692852222,-0.040011674,0.0421497,0.02321288,134.17668,-84.30578,3.7259,STD
27943628791000,3.274939,0.839635618178239,9.81560737116776,0.143858758011909,-0.03573562,0.032375857,0.016187929,134.12111,-84.308945,3.7188854,STD
27943633787000,3.279935,0.838458370680577,9.82620257406132,0.140327013060381,-0.04642576,0.035124753,0.022907447,134.0627,-84.30749,3.7159853,STD
27943638775000,3.284923,0.837283008286994,9.83678081105753,0.136800923425028,-0.0421497,0.035430185,0.024129177,134.00749,-84.3123,3.7114913,STD
27943644100000,3.290248,0.836028235884061,9.8480737364795,0.133036603595788,-0.04795292,0.040011674,0.027794369,133.951,-84.31141,3.7092004,STD
27943648780000,3.294928,0.834925449997539,9.85799878642783,0.129728243633187,-0.052534413,0.037873644,0.023518313,133.89317,-84.31122,3.7016916,STD
27943653769000,3.299917,0.833749851965947,9.86857914416121,0.126201447083313,-0.038179077,0.026267206,0.022907447,133.83755,-84.31309,3.696198,STD
27943658792000,3.30494,0.823824654049154,9.86900913297823,0.126837877098402,-0.044898596,0.021991149,0.028099801,133.78629,-84.31199,3.6889958,STD
27943663796000,3.309944,0.805911432955798,9.86005234239791,0.131316183540791,-0.05467244,0.008552114,0.022602014,133.74194,-84.31577,3.6789691,STD
27943668790000,3.314938,0.804473877094304,9.8583736406168,0.132155517779293,-0.048258353,0.01740966,0.028099801,133.69307,-84.32321,3.667833,STD
27943673798000,3.319946,0.829628940793035,9.86843586992552,0.127124502938215,-0.04428773,0.019547688,0.019242255,133.65099,-84.33186,3.6516073,STD
27943678779000,3.324927,0.844849206141079,9.86741725062241,0.126588698323651,-0.041233405,0.014660766,0.022602014,133.60733,-84.34004,3.637721,STD
27943683785000,3.329933,0.84926981110189,9.85415515878285,0.131009307900415,-0.03940081,0.015271631,0.022602014,133.56238,-84.351204,3.6204073,STD
27943688771000,3.334919,0.847844772349388,9.8427115186103,0.133326795000774,-0.03573562,0.00061086525,0.01985312,133.52867,-84.36307,3.6076624,STD
27943693799000,3.339947,0.832930051723711,9.83525426601621,0.130841006932012,-0.027488936,0.004581489,0.013439035,133.49002,-84.37708,3.5935614,STD
27943698773000,3.344921,0.818175513061793,9.82787710324712,0.128381915871148,-0.032375857,0.003970624,0.020463986,133.45793,-84.38554,3.584139,STD
27943703766000,3.349914,0.803364614079294,9.82047176072479,0.125913431418615,-0.026267206,-0.0015271631,0.024740042,133.4267,-84.39986,3.5722673,STD
27943708749000,3.354897,0.804630231514744,9.81817809182595,0.120596385801556,-0.028710667,-0.005497787,0.0143553335,133.3988,-84.41426,3.5609639,STD
27943713808000,3.359956,0.827898438965517,9.82283182758621,0.111289103793103,-0.021991149,-0.008246681,0.013133603,133.37215,-84.42948,3.5535746,STD
27943718717000,3.364865,0.839585638238547,9.8289772557267,0.110104916015008,-0.018936822,-0.0018325958,0.0061086523,133.34206,-84.45002,3.5370736,STD
27943723796000,3.369944,0.829980450880727,9.83858212213665,0.124512676992496,-0.035430185,-0.010079277,0.015577064,133.31688,-84.464676,3.5255003,STD
27943728723000,3.374871,0.820946514286734,9.84628645062004,0.132745875755197,-0.025350908,-0.01038471,0.01863139,133.28618,-84.48503,3.5129688,STD
27943733784000,3.379932,0.812298430639665,9.85061058274601,0.12842182941654,-0.03359759,-0.0018325958,0.015271631,133.25554,-84.49706,3.5013938,STD
27943738811000,3.384959,0.804028352778738,9.85326379469458,0.124075081894501,-0.025961773,-0.0061086523,0.016493361,133.22879,-84.51254,3.4911125,STD
27943743842000,3.38999,0.799131429261104,9.83857321333469,0.119178148150219,-0.016187929,-0.008552114,0.013744468,133.1996,-84.527954,3.4786477,STD
27943748755000,3.394903,0.792891849896462,9.82729131665229,0.112938562174288,-0.017715093,-0.019242255,0.01985312,133.17291,-84.54252,3.467736,STD
27943753766000,3.399914,0.774489229824561,9.84109306432748,0.0945359632397661,-0.023518313,-0.017104227,0.016187929,133.1438,-84.56038,3.4531949,STD
27943759726000,3.405874,0.759122991740097,9.85623755925224,0.0749109290786461,-0.030848695,-0.014966198,0.02321288,133.12433,-84.57828,3.4330196,STD
27943763801000,3.409949,0.768764486037223,9.86266534069011,0.0684832771763156,-0.028405234,-0.01863139,0.020463986,133.10631,-84.59914,3.4095933,STD
27943768755000,3.414903,0.780485703889484,9.87047963007494,0.0606691452685498,-0.027183503,-0.01985312,0.019242255,133.08392,-84.62155,3.3852246,STD
27943773794000,3.419942,0.775790950271996,9.87051886829644,0.0606299088305253,-0.02565634,-0.014966198,0.024129177,133.06091,-84.64357,3.3623023,STD
27943778786000,3.424934,0.759997259462614,9.86525420757626,0.0658944651040634,-0.032070424,-0.005497787,0.024740042,133.03716,-84.66467,3.3382769,STD
27943783794000,3.429942,0.752842914272971,9.85293679839429,0.0893863799197145,-0.029626964,0.0076358155,0.021991149,133.02237,-84.692795,3.3190513,STD
27943788783000,3.434931,0.748107196639905,9.83872984329468,0.117800705498067,-0.015577064,-0.01282817,0.0143553335,133.01456,-84.72235,3.2994587,STD
27943793886000,3.440034,0.743294772864865,9.83168479567567,0.135586879124324,-0.020158553,0.013439035,0.027488936,132.98862,-84.74554,3.2819963,STD
27943798809000,3.444957,0.738661201719902,9.82705112776413,0.149487602235872,-0.029321533,0.0076358155,0.029626964,132.978,-84.77352,3.2607658,STD
27943803771000,3.449919,0.735752878957409,9.8241427442648,0.159873797639624,-0.03848451,0.01160644,0.032986723,132.95872,-84.79365,3.243324,STD
27943808907000,3.455055,0.733406980889016,9.82179679720513,0.169257394812324,-0.03023783,0.019547688,0.025961773,132.94022,-84.81674,3.223924,STD
27943813787000,3.459935,0.731178012319359,9.81956778208614,0.178173273745886,-0.041233405,0.016493361,0.032070424,132.93541,-84.8345,3.2139468,STD
27943818789000,3.464937,0.728893319535461,9.81728304158916,0.187312049652788,-0.037873644,0.011911872,0.023823744,132.92905,-84.86059,3.198001,STD
27943823791000,3.469939,0.725199414274012,9.82677848781487,0.178346693106697,-0.036957346,0.018936822,0.027488936,132.91975,-84.8797,3.1834571,STD
27943829396000,3.475544,0.71970300182265,9.84876402283432,0.150864613631989,-0.042760566,0.018936822,0.024740042,132.91394,-84.90018,3.1653912,STD
27943833785000,3.479933,0.715432620785266,9.85736193827161,0.136582396648047,-0.04795292,0.028099801,0.027183503,132.90442,-84.91677,3.1496458,STD
27943838774000,3.484922,0.710597703238211,9.86219695679012,0.124495093692977,-0.050701816,0.023518313,0.028710667,132.89882,-84.93288,3.1335585,STD
27943843802000,3.48995,0.705724990184173,9.86706977160494,0.112313301899413,-0.0571159,0.008246681,0.03573562,132.8928,-84.950195,3.1162093,STD
27943848787000,3.494935,0.700893949099373,9.87190091358025,0.100235690107266,-0.044898596,0.018936822,0.028405234,132.88086,-84.97294,3.0952446,STD
27943853771000,3.499919,0.690647273593398,9.87086806564141,0.101407819648912,-0.035430185,0.0125227375,0.03604105,132.87766,-84.989365,3.0816243,STD
27943858866000,3.505014,0.676920586796699,9.8662924078207,0.110558951824456,-0.044593163,0.014049901,0.0290161,132.86946,-85.00778,3.0617917,STD
27943863914000,3.510062,0.672946866796475,9.86282578976225,0.116206864740213,-0.03970624,0.017104227,0.028405234,132.86578,-85.035835,3.0386622,STD
27943868781000,3.514929,0.677723489629022,9.86043742846895,0.118595178650338,-0.047036625,0.0076358155,0.028710667,132.86516,-85.05948,3.0146444,STD
27943873778000,3.519926,0.682627698442304,9.85798527285304,0.121047285617442,-0.028710667,0.0143553335,0.030543262,132.85867,-85.089584,2.989037,STD
27943878804000,3.524952,0.687560368743595,9.85551888619594,0.123513623343411,-0.042760566,0.014049901,0.02687807,132.85677,-85.11095,2.96296,STD
27943883787000,3.529935,0.703143281505541,9.85181130683989,0.121775850855942,-0.0421497,0.009773844,0.029932396,132.85197,-85.13665,2.9385667,STD
27943888778000,3.534926,0.725973721322125,9.8472451235193,0.117209758124761,-0.032986723,0.015882496,0.029932396,132.84428,-85.161705,2.9127538,STD
27943893793000,3.539941,0.734974534167596,9.84251763795724,0.129559085183909,-0.038789943,0.014660766,0.03359759,132.84286,-85.18118,2.8939896,STD
27943899372000,3.54552,0.729560716435303,9.83710427246935,0.162042014189888,-0.032986723,0.01282817,0.030848695,132.8398,-85.20594,2.8737874,STD
27943903775000,3.549923,0.731378554670858,9.83420055712476,0.17002168232018,-0.037873644,0.013439035,0.031154128,132.83815,-85.22323,2.8585098,STD
27943908800000,3.554948,0.738152366898137,9.83194257256135,0.165505805144278,-0.040011674,0.016187929,0.023823744,132.8364,-85.24373,2.8406744,STD
27943913784000,3.559932,0.744870910209731,9.82970301135457,0.161026773931403,-0.04062254,0.017715093,0.027183503,132.83646,-85.257545,2.8263087,STD
27943918787000,3.564935,0.751615065945667,9.82745491249472,0.156530667760053,-0.047647487,0.025350908,0.026572637,132.83403,-85.27093,2.8090446,STD
27943923800000,3.569948,0.757889836524384,9.82712608820497,0.147940387648005,-0.042760566,0.030543262,0.0290161,132.83157,-85.28544,2.794084,STD
27943928800000,3.574948,0.762826866115063,9.83206293736468,0.128192357954222,-0.04917465,0.032070424,0.026572637,132.82797,-85.29636,2.7779133,STD
27943933735000,3.579883,0.767699714321064,9.83693560748531,0.108701052646458,-0.050396383,0.03726278,0.03145956,132.81111,-85.30216,2.7698832,STD
27943938773000,3.584921,0.772674265336633,9.84190997669863,0.0888029379270028,-0.04428773,0.027183503,0.03756821,132.7984,-85.308395,2.7619545,STD
27943943728000,3.589876,0.772166458063555,9.84140218798411,0.0872792326667329,-0.034208454,0.0290161,0.036651913,132.78108,-85.31567,2.7532322,STD
27943948790000,3.594938,0.762538252562066,9.83177433435948,0.116163721490169,-0.0290161,0.028405234,0.029321533,132.76753,-85.32327,2.7447433,STD
27943953760000,3.599908,0.759973918405206,9.83091322979798,0.137481502399961,-0.035124753,0.02443461,0.030848695,132.75215,-85.33378,2.7391036,STD
27943958808000,3.604956,0.769364737907925,9.84499918939394,0.146872277776807,-0.047647487,0.028099801,0.038789943,132.73491,-85.34393,2.7331495,STD
27943963755000,3.609903,0.775028209679251,9.8538408024411,0.153922093806415,-0.043066,0.02321288,0.038179077,132.7231,-85.354454,2.7247899,STD
27943969178000,3.615326,0.772571235097928,9.85138380220456,0.156379045298041,-0.03970624,0.03176499,0.033292156,132.70651,-85.361176,2.7172356,STD
27943973793000,3.619941,0.770480337496452,9.84929288277037,0.158469923250071,-0.043066,0.026267206,0.038179077,132.69469,-85.36313,2.7191381,STD
27943978800000,3.624948,0.768211838191882,9.8470243597786,0.160738401236162,-0.044593163,0.023823744,0.03268129,132.68005,-85.36886,2.7163606,STD
27943983758000,3.629906,0.766836409447163,9.84478403735882,0.16228678836618,-0.04917465,0.022296581,0.034208454,132.66672,-85.37114,2.7169468,STD
27943988776000,3.634924,0.775626286930358,9.84258675499566,0.155694385990214,-0.043676864,0.021991149,0.03390302,132.65405,-85.37664,2.7153964,STD
27943994175000,3.640323,0.785083550487905,9.84022264031277,0.148601444494033,-0.043676864,0.026572637,0.034513887,132.63818,-85.37827,2.7159488,STD
27943998791000,3.644939,0.793169256837533,9.83820138575152,0.142537170008688,-0.060170226,0.01863139,0.03390302,132.62625,-85.377655,2.716178,STD
27944003775000,3.649923,0.801899577558187,9.8360189913119,0.13598943516576,-0.046731193,0.021991149,0.029626964,132.61198,-85.38583,2.7178226,STD
27944008789000,3.654937,0.800792043408896,9.83172120315857,0.156033633939622,-0.043982297,0.01740966,0.032375857,132.60236,-85.38671,2.7214224,STD
27944013757000,3.659905,0.795680580933606,9.82660962859905,0.18670245682746,-0.02687807,0.018020526,0.025350908,132.5907,-85.39637,2.7206924,STD
27944018792000,3.66494,0.796844142159195,9.82383478466077,0.201382011357899,-0.036957346,0.014049901,0.03145956,132.58188,-85.39742,2.7271323,STD
27944023770000,3.669918,0.799149537034189,9.82152933923304,0.2129090098056,-0.042760566,0.01160644,0.0290161,132.57285,-85.40589,2.7288723,STD
27944028800000,3.674948,0.801479013976981,9.81919981120944,0.224556418843755,-0.04153884,0.005497787,0.019242255,132.55774,-85.40532,2.7332864,STD
27944033784000,3.679932,0.803787187552106,9.81689158702065,0.236097310821123,-0.038789943,0.010079277,0.022602014,132.5404,-85.40217,2.7403035,STD
27944038878000,3.685026,0.800783263914364,9.82356415305695,0.228414668759422,-0.049480084,0.015577064,0.02443461,132.52501,-85.398285,2.7439842,STD
27944043772000,3.68992,0.795876562672739,9.83337777072864,0.213694534293342,-0.054367006,0.013744468,0.02443461,132.51067,-85.39628,2.7479162,STD
27944048786000,3.694934,0.81285106915381,9.8461665025713,0.214284967578308,-0.043066,0.0033597588,0.02443461,132.49284,-85.387764,2.751886,STD
27944053786000,3.699934,0.835237244936886,9.85959801262272,0.218762199929874,-0.03756821,0.004886922,0.02687807,132.47258,-85.37688,2.7561748,STD
27944058860000,3.705008,0.846233097819581,9.85716265925609,0.23068885071398,-0.03390302,-0.0036651916,0.01985312,132.45549,-85.37248,2.7605236,STD
27944063879000,3.710027,0.851370545361266,9.84688754959384,0.246101204067978,-0.039095376,-0.013133603,0.015882496,132.43855,-85.3667,2.7661006,STD
27944068785000,3.714933,0.857669753677504,9.83962312058465,0.240107041634498,-0.034513887,-0.007330383,0.019547688,132.42223,-85.36093,2.7751591,STD
27944073810000,3.719958,0.864433093881758,9.83285987454324,0.228834800898529,-0.047647487,-0.007330383,0.019242255,132.41069,-85.35153,2.781948,STD
27944078792000,3.72494,0.871138558737,9.82615450304507,0.217659019138012,-0.050396383,-0.017104227,0.015882496,132.40208,-85.34294,2.7899299,STD
27944083781000,3.729929,0.877853445160686,9.81943971010962,0.206467534753584,-0.04734206,-0.014660766,0.015577064,132.39023,-85.33258,2.798172,STD
27944088779000,3.734927,0.879802937152673,9.81875357845812,0.209955787845812,-0.041233405,-0.011911872,0.016798794,132.37454,-85.31949,2.8051963,STD
27944093800000,3.739948,0.877373659957563,9.82361223431343,0.226960743431343,-0.03970624,-0.010079277,0.021685716,132.35875,-85.305954,2.8129048,STD
27944098794000,3.744942,0.874957445993735,9.82844476316055,0.243874256316055,-0.035430185,0.0036651916,0.025961773,132.33888,-85.296524,2.8219044,STD
27944103775000,3.749923,0.872547521733859,9.83326471233707,0.260743741233707,-0.03848451,0.013439035,0.02565634,132.32,-85.2861,2.8306696,STD
27944108877000,3.755025,0.865621534104046,9.82657901734104,0.265216657861272,-0.056199603,-0.00030543262,0.03023783,132.30418,-85.272156,2.8418288,STD
27944113769000,3.759917,0.855773986946926,9.81180738812401,0.260292868858644,-0.05100725,0.003970624,0.026267206,132.28105,-85.26472,2.849534,STD
27944118786000,3.764934,0.84607859174647,9.80352133053608,0.271088202841347,-0.05100725,0.009468411,0.028405234,132.26175,-85.24602,2.8656578,STD
27944123767000,3.769915,0.836659687451871,9.79881178003751,0.289926036018363,-0.039095376,0.015271631,0.02687807,132.24182,-85.23315,2.878976,STD
27944128757000,3.774905,0.836160094784625,9.79409519850002,0.302836812678739,-0.04337143,0.007330383,0.025350908,132.22028,-85.21664,2.8908625,STD
27944133807000,3.779955,0.840932664972616,9.78932277781615,0.31238195803819,-0.050701816,0.0012217305,0.034513887,132.197,-85.20113,2.9047096,STD
27944138783000,3.784931,0.845635300468742,9.78462028963339,0.321787233940889,-0.04886922,-0.0015271631,0.036957346,132.17645,-85.186966,2.915127,STD
27944143838000,3.789986,0.850412595973751,9.77984314378053,0.33134182993931,-0.04428773,-0.004581489,0.034513887,132.15823,-85.17166,2.9264233,STD
27944148782000,3.79493,0.858001635102705,9.78358565761643,0.329522398981086,-0.036957346,0.0018325958,0.03604105,132.13109,-85.15336,2.9406898,STD
27944154118000,3.800266,0.868394517917429,9.79397821486679,0.319129505314216,-0.059253927,-0.0015271631,0.029932396,132.10846,-85.1318,2.9518106,STD
27944168756000,3.814904,0.834211558637765,9.80949919797156,0.291182730083524,-0.05375614,-0.0021380284,0.031154128,132.06604,-85.090935,2.978012,STD
27944173747000,3.819895,0.81995347708064,9.81425198776971,0.281677344033012,-0.050701816,0.009468411,0.029321533,132.04285,-85.07092,2.9914978,STD
27944178729000,3.824877,0.818164605520792,9.816227,0.272212677437624,-0.053145275,-0.00061086525,0.034513887,132.02486,-85.05285,3.0039165,STD
27944183705000,3.829853,0.825241965394059,9.816227,0.262776205817822,-0.04795292,0.0061086523,0.033292156,131.99951,-85.039276,3.0130098,STD
27944188700000,3.834848,0.832346348948515,9.816227,0.253303702654455,-0.052839845,0.00061086525,0.027794369,131.97853,-85.02628,3.0182014,STD
27944193711000,3.839859,0.839473489287129,9.816227,0.243800857138614,-0.04337143,0.00061086525,0.029932396,131.9545,-85.01714,3.02468,STD
27944198703000,3.844851,0.835141108449827,9.82257523964409,0.235611232236283,-0.038179077,0.0009162979,0.02443461,131.93271,-85.0087,3.0272775,STD
27944203717000,3.849865,0.820899457356401,9.83444327602571,0.228490402971824,-0.043066,0.0009162979,0.028099801,131.91127,-84.99857,3.0328503,STD
27944208752000,3.8549,0.806598158342561,9.84636101898171,0.221339749731587,-0.05009095,0.00030543262,0.025045475,131.8924,-84.99369,3.035326,STD
27944213734000,3.859882,0.792447399318339,9.85815331201186,0.214264366525457,-0.04428773,-0.0033597588,0.02321288,131.87468,-84.990074,3.0390165,STD
27944218729000,3.864877,0.787650676573043,9.86489518550705,0.21068975,-0.04428773,0.003970624,0.02321288,131.85622,-84.98462,3.0369184,STD
27944224199000,3.870347,0.792843659201996,9.86662621646895,0.21068975,-0.040011674,0.0030543262,0.019242255,131.84158,-84.9827,3.0333958,STD
27944228716000,3.874864,0.797131904638007,9.86805566196345,0.21068975,-0.049785517,0.00061086525,0.022907447,131.82188,-84.98226,3.026773,STD
27944233730000,3.879878,0.801891980488385,9.86964238760202,0.21068975,-0.05222898,-0.005192355,0.028405234,131.80374,-84.98492,3.0197675,STD
27944238702000,3.88485,0.806612183346,9.87121582196081,0.21068975,-0.047036625,-0.0009162979,0.023823744,131.78049,-84.98706,3.0159717,STD
27944243740000,3.889888,0.811395043763672,9.8728101426164,0.21068975,-0.038179077,0.009162978,0.026572637,131.75735,-84.987495,3.0157406,STD
27944248695000,3.894843,0.81402856,9.87469447795499,0.214715579847251,-0.03940081,-0.00061086525,0.021991149,131.73932,-84.98906,3.01235,STD
27944253796000,3.899944,0.81402856,9.87704846422204,0.224131333194719,-0.046120327,-0.0070249503,0.021685716,131.71771,-84.99034,3.010594,STD
27944258782000,3.90493,0.81402856,9.87934938081241,0.23333481215776,-0.025350908,-0.0070249503,0.024129177,131.705928713158,-84.9925298747128,3.01067220981117,STD
27944263805000,3.909953,0.81402856,9.88166737199441,0.242606588096661,-0.03145956,0.008552114,0.026267206,131.69406,-84.994736,3.010751,STD
27944268722000,3.91487,0.814708445045133,9.88054540302513,0.252396398775311,-0.032070424,0.008246681,0.020463986,131.67732,-84.99609,3.008207,STD
27944273782000,3.91993,0.817072856267382,9.87108756062454,0.264218467231032,-0.034513887,0.005497787,0.017715093,131.65335,-84.99723,3.0056365,STD
27944278729000,3.924877,0.819384465420834,9.86184093090998,0.27577652506709,-0.02565634,0.018020526,0.026572637,131.6264,-84.99699,3.0034258,STD
27944283792000,3.92994,0.821750278467919,9.85237748109295,0.287605602654306,-0.03756821,0.008857546,0.02687807,131.60704,-84.993576,2.998503,STD
27944288748000,3.934896,0.824540842884882,9.84308610065385,0.294074581113533,-0.029932396,0.014966198,0.026572637,131.58,-84.99549,2.995318,STD
27944293780000,3.939928,0.829315031400832,9.83353806261145,0.279752065417079,-0.03145956,0.014660766,0.02076942,131.55792,-84.99373,2.9909184,STD
27944298754000,3.944902,0.833617839856137,9.82711090137278,0.26771495877919,-0.0290161,0.018020526,0.023518313,131.53558,-84.98905,2.9902463,STD
27944303775000,3.949923,0.836053639096297,9.83441819735576,0.265279151908718,-0.035430185,0.021685716,0.026267206,131.51373,-84.98328,2.9878953,STD
27944308941000,3.955089,0.83855978107492,9.84193651861608,0.262773002079429,-0.03145956,0.028710667,0.030543262,131.49838,-84.98582,2.987813,STD
27944313837000,3.959985,0.840934940023302,9.84906189625652,0.260397835690695,-0.037873644,0.02076942,0.028710667,131.48657,-84.98518,2.98691,STD
27944318827000,3.964975,0.839352556853673,9.85226311220358,0.264251173267785,-0.036957346,0.026572637,0.032986723,131.4689,-84.98551,2.9884248,STD
27944323821000,3.969969,0.825521843786389,9.8430429385001,0.287302353689994,-0.028405234,0.021380283,0.026267206,131.45714,-84.98845,2.9865665,STD
27944328802000,3.97495,0.811617435571602,9.83457727479297,0.310476365469602,-0.02687807,0.029321533,0.032375857,131.43797,-84.9864,2.9855955,STD
27944333784000,3.979932,0.797162294894971,9.82975879226419,0.334568295108059,-0.028405234,0.025350908,0.026572637,131.42433,-84.98888,2.9796708,STD
27944338787000,3.984935,0.781896552902944,9.82325273856019,0.35179065006315,-0.03390302,0.016187929,0.024129177,131.41173,-84.988,2.9777625,STD
27944343839000,3.989987,0.763094616825998,9.80915101777907,0.337689213957058,-0.03390302,0.006414085,0.013439035,131.40097,-84.99055,2.9719439,STD
27944348748000,3.994896,0.748284188190135,9.7968882601432,0.325241929033413,-0.03604105,0.0033597588,0.021380283,131.39177,-84.98642,2.9643314,STD
27944353802000,3.99995,0.75951490728454,9.79528400715991,0.322033151670644,-0.03940081,0.02076942,0.019242255,131.38007,-84.98558,2.9509761,STD
27944358889000,4.005037,0.770818957152612,9.79366927923628,0.318803422655131,-0.042760566,0.01038471,0.01863139,131.38147,-84.9906,2.9426513,STD
27944363994000,4.010142,0.782163005624503,9.79204883770883,0.315562265465394,-0.040927973,0.01038471,0.022602014,131.37494,-84.995544,2.9347076,STD
27944369065000,4.015213,0.793431501178069,9.79043918854415,0.312342694826969,-0.03604105,0.014660766,0.020463986,131.37013,-85.001114,2.9223013,STD
27944373828000,4.019976,0.804015576177407,9.78892730548926,0.309318672947494,-0.03176499,0.013744468,0.026267206,131.36661,-85.0049,2.9137216,STD
27944378781000,4.024929,0.814644655307268,9.78790771676661,0.305225630028784,-0.03268129,0.015882496,0.02076942,131.35889,-85.009476,2.900806,STD
27944383827000,4.029975,0.821599503004078,9.79254413019909,0.291315941897337,-0.038789943,0.019242255,0.018936822,131.35097,-85.01221,2.8908486,STD
27944388867000,4.035015,0.82854608096522,9.79717503065483,0.277422793228592,-0.037873644,0.020158553,0.021380283,131.34497,-85.01403,2.8859248,STD
