timestamp,rel_time,acc_x,acc_y,acc_z,gyro_x,gyro_y,gyro_z,azimuth,pitch,roll,label
5963268149000,0,1.44819209939227,-9.5907731471845,0.752046192811699,-0.034513887,-0.018936822,0.015271631,328.42368,10.086625,-12.768984,STD
5963273865000,0.005716,1.44080535014968,-9.59405615700513,0.762989529360934,-0.040317107,-0.013133603,0.015271631,328.37418,10.632578,-12.4483,STD
5963278152000,0.010003,1.43526528821774,-9.59651841437061,0.771197031772861,-0.042760566,-0.0067195175,0.016798794,328.31747,11.174701,-12.129874,STD
5963283113000,0.014964,1.42885422051437,-9.59936778660996,0.780694913616941,-0.038179077,-0.0027488936,0.0143553335,328.25403,11.712568,-11.81199,STD
5963288139000,0.01999,1.42235915373809,-9.60225449188611,0.790317238581331,-0.038789943,-0.0009162979,0.019242255,328.1803,12.247853,-11.495745,STD
5963293117000,0.024968,1.41592611704641,-9.60511362815047,0.799847667087646,-0.044898596,-0.004886922,0.028405234,328.098,12.77911,-11.179148,STD
5963298120000,0.029971,1.40946077301901,-9.60798712327514,0.809425958332542,-0.04337143,-0.0143553335,0.021380283,328.01068,13.304819,-10.860892,STD
5963303178000,0.035029,1.40292435285298,-9.61089220789249,0.819109547602317,-0.045814894,-0.020158553,0.021685716,327.91077,13.828202,-10.543823,STD
5963308133000,0.039984,1.39652103891019,-9.61373813400537,0.828595942389137,-0.04642576,-0.017104227,0.02076942,327.80527,14.346871,-10.226351,STD
5963313112000,0.044963,1.39008670992508,-9.61659784462414,0.838128285404995,-0.056505036,-0.009468411,0.027488936,327.6895,14.864262,-9.909559,STD
5963318098000,0.049949,1.38364333488598,-9.6194615757238,0.847674029987656,-0.05100725,-0.022602014,0.028099801,327.5666,15.373566,-9.587887,STD
5963323097000,0.054948,1.37718316003229,-9.62233277343082,0.857244663194379,-0.052534413,-0.01038471,0.029932396,327.4362,15.883025,-9.276487,STD
5963328113000,0.059964,1.3707010161903,-9.62521373516285,0.866847843063337,-0.05681047,-0.012217305,0.029321533,327.2964,16.387577,-8.958149,STD
5963333108000,0.064959,1.36424601051032,-9.62808263545222,0.876410818231887,-0.047647487,-0.01740966,0.03145956,327.14835,16.884312,-8.643368,STD
5963338213000,0.070064,1.35764885255311,-9.63101471472695,0.886184389450195,-0.052534413,-0.015882496,0.03268129,326.9935,17.382063,-8.3306265,STD
5963343161000,0.075012,1.35125458466432,-9.63385662035894,0.895657382670212,-0.049480084,-0.024129177,0.027183503,326.83102,17.87097,-8.014309,STD
5963348118000,0.079969,1.34484868613467,-9.63670369518064,0.905147606476118,-0.05467244,-0.025045475,0.03848451,326.65683,18.358662,-7.7030125,STD
5963353150000,0.085001,1.33834586559781,-9.63959384658327,0.914781418497769,-0.048258353,-0.01985312,0.029321533,326.48206,18.839087,-7.389874,STD
5963358131000,0.089982,1.33190895202585,-9.64245470591087,0.924317590532713,-0.04428773,-0.013133603,0.028099801,326.29462,19.316753,-7.0797973,STD
5963363114000,0.094965,1.32546945386703,-9.64531671394729,0.933857591586744,-0.04734206,-0.009773844,0.021991149,326.1038,19.790995,-6.770093,STD
5963368103000,0.099954,1.31902220194763,-9.64818216811019,0.943409079698034,-0.039095376,-0.009468411,0.014966198,325.90662,20.256847,-6.4624,STD
5963373112000,0.104963,1.31254910415965,-9.65105910936133,0.95299885800019,-0.03176499,0.0106901415,0.013133603,325.7048,20.719734,-6.1621413,STD
5963378117000,0.109968,1.30608117554538,-9.65393375319483,0.962580978264172,-0.022296581,0.019547688,0.0076358155,325.4976,21.175938,-5.859209,STD
5963383114000,0.114965,1.29962358527855,-9.65680380219302,0.972147782451809,-0.032375857,0.015271631,-0.0012217305,325.28546,21.631697,-5.5589576,STD
5963388127000,0.119978,1.29314531831685,-9.65968304086182,0.981745218792138,-0.033292156,0.023823744,0.0018325958,325.06702,22.077925,-5.2665477,STD
5963393168000,0.125019,1.28663086713912,-9.66257836145415,0.991396261399677,-0.032986723,0.02321288,0.005497787,324.84244,22.522882,-4.9711733,STD
5963398147000,0.129998,1.28019653815402,-9.66543807207293,1.00092860441554,-0.016187929,0.022296581,0.0061086523,324.61194,22.959372,-4.6794734,STD
5963403091000,0.134942,1.27380743943895,-9.66827768028727,1.01039393959738,-0.018325957,0.027183503,0.007941248,324.37405,23.397072,-4.3912144,STD
5963408099000,0.13995,1.26733563394439,-9.671154047184,1.01998180338999,-0.02443461,0.019242255,0.010079277,324.12766,23.827202,-4.101043,STD
5963413278000,0.145129,1.26310282361334,-9.67309283548972,1.02743695321859,-0.03268129,0.026572637,0.014660766,323.87592,24.254602,-3.8182716,STD
5963418096000,0.149947,1.26125813273314,-9.6740151761143,1.03227927159463,-0.025350908,0.03848451,0.014966198,323.61786,24.675518,-3.536039,STD
5963423079000,0.15493,1.25935026750773,-9.67496910374657,1.03728742279176,-0.02321288,0.04153884,0.016798794,323.31424,24.991632,-3.2094283,STD
5963428117000,0.159968,1.25742134416725,-9.6759335603814,1.04235085159593,-0.03481932,0.046120327,0.015882496,323.00595,25.307156,-2.8898163,STD
5963433108000,0.164959,1.25551041594329,-9.67688901950496,1.04736704317227,-0.036651913,0.05009095,0.01985312,322.68948,25.61684,-2.575407,STD
5963438125000,0.169976,1.25358953297402,-9.67784945597517,1.05240936598102,-0.03726278,0.043982297,0.01740966,322.36758,25.927328,-2.262344,STD
5963443115000,0.174966,1.25167898762487,-9.67880472366231,1.05742455250996,-0.031154128,0.03940081,0.019547688,322.03763,26.234076,-1.9553282,STD
5963448113000,0.179964,1.24976537927717,-9.67976152284074,1.0624477794181,-0.036957346,0.03940081,0.01740966,321.7025,26.542046,-1.650333,STD
5963453141000,0.184992,1.24784028468489,-9.68072406511147,1.06750115774826,-0.032070424,0.030848695,0.013133603,321.35916,26.842861,-1.3451734,STD
5963458120000,0.189971,1.24593395095876,-9.6816772269981,1.07250528875579,-0.028710667,0.020158553,0.019547688,321.0068,27.14342,-1.0437498,STD
5963463124000,0.194975,1.24401804536214,-9.68263517479498,1.07753454594834,-0.029932396,0.022296581,0.013744468,320.6527,27.441786,-0.7444166,STD
5963468093000,0.199944,1.2421155403842,-9.68358642231751,1.08252862648186,-0.025350908,0.009773844,0.018325957,320.2846,27.735334,-0.4439591,STD
5963473093000,0.204944,1.24020116628686,-9.68454360436875,1.08755386348481,-0.011911872,-0.00030543262,0.019242255,319.91312,28.024662,-0.14650087,STD
5963478115000,0.209966,1.23827836894349,-9.68550499802102,1.09260121153056,-0.011911872,-0.009162978,0.018020526,319.53317,28.31458,0.15039924,STD
5963483090000,0.214941,1.23637356671664,-9.68645739416201,1.09760132234849,-0.020463986,-0.009162978,0.02107485,319.14557,28.601337,0.44378737,STD
5963488139000,0.21999,1.23444043175315,-9.68742395659735,1.10267580667406,-0.0067195175,-0.011911872,0.01985312,318.75162,28.880022,0.7377098,STD
5963493123000,0.224974,1.23253218365292,-9.68837807566603,1.1076849629186,-0.013439035,-0.005497787,0.02076942,318.3516,29.165398,1.0255136,STD
5963498109000,0.22996,1.23062316980305,-9.68933257760753,1.11269612925793,-0.017104227,0.0033597588,0.015577064,317.94745,29.444424,1.3113203,STD
5963503178000,0.235029,1.22868237734317,-9.69030296877108,1.11779071453152,-0.025045475,-0.0015271631,0.015882496,317.5348,29.725172,1.5949965,STD
5963508125000,0.239976,1.22678829561126,-9.69125000469258,1.12276268402223,-0.028405234,0.0036651916,0.018325957,317.11984,30.004196,1.8713561,STD
5963513112000,0.244963,1.22487889888657,-9.69220469807049,1.12777485540896,-0.026267206,0.0012217305,0.014966198,316.69882,30.28246,2.1485758,STD
5963518109000,0.24996,1.22296567341369,-9.69316130581251,1.13279707726971,-0.032375857,-0.002443461,0.011301007,316.27225,30.562689,2.4215062,STD
5963523127000,0.254978,1.2210444075696,-9.69412193371913,1.13784040512586,-0.039095376,0.0061086523,0.01038471,315.84177,30.841185,2.6891046,STD
5963528871000,0.260722,1.21884517460658,-9.6952215444596,1.14361339739484,-0.036957346,0.005192355,0.009773844,315.40475,31.117586,2.957388,STD
5963533118000,0.264969,1.2172191052483,-9.69603457489393,1.14788183370514,-0.03390302,-0.00061086525,0.0106901415,314.96283,31.394413,3.221663,STD
5963538159000,0.27001,1.21528903328336,-9.69699960583799,1.15294827765151,-0.03970624,-0.0012217305,0.013439035,314.51593,31.671997,3.481687,STD
5963543127000,0.274978,1.21338691118024,-9.69795066192411,1.15794135313763,-0.03145956,0.004886922,0.010995574,314.06512,31.943502,3.739114,STD
5963548110000,0.279961,1.21147904595483,-9.69890458955638,1.16294950433477,-0.0290161,-0.007330383,0.010079277,313.6053,32.217335,3.9974618,STD
5963553118000,0.284969,1.20956160885894,-9.6998633030989,1.16798278171692,-0.020158553,-0.0018325958,0.0067195175,313.1453,32.485847,4.2477818,STD
5963558133000,0.289984,1.20764149163931,-9.7008233566963,1.17302309443087,-0.024129177,0.0067195175,0.017104227,312.6759,32.756737,4.495276,STD
5963563115000,0.294966,1.20573400928872,-9.70177709289216,1.1780302405806,-0.021685716,0.009773844,0.015577064,312.2054,33.022015,4.7420917,STD
5963568098000,0.299949,1.20382614406331,-9.70273102052443,1.18303839177773,-0.030543262,0.013744468,0.015577064,311.7289,33.291115,4.981821,STD
5963573120000,0.304971,1.20190334671994,-9.7036924141767,1.18808573982349,-0.03573562,0.01740966,0.014049901,311.249,33.557583,5.21841,STD
5963578116000,0.309967,1.19999050412188,-9.7046488304823,1.19310695663683,-0.04886922,0.019547688,0.009162978,310.76578,33.8279,5.4520044,STD
5963583097000,0.314948,1.19808340464611,-9.70560237524175,1.19811309773916,-0.044593163,0.02565634,0.010079277,310.2784,34.094063,5.6801534,STD
5963588186000,0.320037,1.19613495468984,-9.70657659513351,1.20322778396076,-0.044898596,0.032375857,0.013744468,309.78766,34.36436,5.905016,STD
5963593165000,0.325016,1.1942286209637,-9.70752975702013,1.20823191496829,-0.063224554,0.028405234,0.0106901415,309.29337,34.637543,6.128948,STD
5963598936000,0.330787,1.19201905038055,-9.70863453654368,1.21403204351709,-0.061391957,0.04184427,0.015271631,308.79623,34.90472,6.3424506,STD
5963603096000,0.334947,1.19042629113157,-9.70943091201032,1.21821304070354,-0.058643065,0.05131268,0.008246681,308.29727,35.175434,6.5572824,STD
5963608106000,0.339957,1.18850808828603,-9.71039000842566,1.22324832818049,-0.05467244,0.045814894,0.0076358155,307.7915,35.444885,6.7677574,STD
5963613113000,0.344964,1.18822369317753,-9.70971601137079,1.22314952371779,-0.0580322,0.052534413,0.009773844,307.28662,35.71466,6.9710126,STD
5963618105000,0.349956,1.18965675396629,-9.70732757672285,1.21765611903958,-0.04886922,0.060170226,0.011911872,306.7774,35.978985,7.172526,STD
5963623116000,0.354967,1.19109526911302,-9.7049300514783,1.21214180597016,-0.04886922,0.070249505,0.009162978,306.23047,36.151627,7.4425836,STD
5963628115000,0.359966,1.19253033940208,-9.70253826766319,1.20664069820046,-0.050701816,0.06963864,0.0076358155,305.67886,36.32486,7.7073383,STD
5963633102000,0.364953,1.19396196483348,-9.70015222527753,1.20115279573046,-0.044593163,0.08032878,0.01282817,305.1268,36.498547,7.9611335,STD
5963638135000,0.369986,1.1954067955526,-9.697744174079,1.19561427294491,-0.04550946,0.08827003,0.013744468,304.5724,36.676895,8.211424,STD
5963643115000,0.374966,1.1968364114837,-9.6953614808605,1.19013407356641,-0.05497787,0.086132,0.016493361,304.01343,36.858624,8.45534,STD
5963648120000,0.379971,1.1982732042016,-9.69296682633067,1.18462636314685,-0.05375614,0.09896017,0.0125227375,303.45654,37.039265,8.690479,STD
5963653138000,0.384989,1.19971372884863,-9.69056595191894,1.17910434698594,-0.05009095,0.10140363,0.0125227375,302.89276,37.22416,8.922783,STD
5963658124000,0.389975,1.20114506720856,-9.68818038798573,1.17361754495758,-0.04886922,0.105374254,0.013439035,302.3292,37.411087,9.147943,STD
5963663108000,0.394959,1.20257583142555,-9.68579578095742,1.16813294381251,-0.05131268,0.10720685,0.015577064,301.76245,37.599926,9.368469,STD
5963668792000,0.400643,1.20420754567301,-9.68307625721166,1.16187803351785,-0.05222898,0.116675265,0.01863139,301.19458,37.78991,9.581776,STD
5963673100000,0.404951,1.20544424957484,-9.68101508404193,1.15713733092295,-0.058948494,0.122783914,0.018936822,300.6239,37.983925,9.791323,STD
5963678115000,0.409966,1.20688391300746,-9.67861564498756,1.15161861608697,-0.06078109,0.10445796,0.015271631,300.04807,38.17846,10.000249,STD
5963683108000,0.414959,1.2083172608677,-9.67622673188717,1.14612411096712,-0.053145275,0.101098195,0.013744468,299.47305,38.373985,10.19996,STD
5963688141000,0.419992,1.20976209158681,-9.67381868068864,1.14058558818157,-0.058643065,0.094989546,0.01282817,298.89246,38.575127,10.40075,STD
5963693122000,0.424973,1.21119199458938,-9.67143550901769,1.13510428836143,-0.037873644,0.07696902,0.015882496,298.30612,38.76862,10.600311,STD
5963698111000,0.429962,1.21262419416373,-9.66904850972712,1.12961418500814,-0.03573562,0.09285152,0.018936822,297.72296,38.970383,10.789725,STD
5963703135000,0.434986,1.2140664412396,-9.66664476460067,1.12408556619738,-0.042760566,0.087964594,0.011911872,297.13202,39.17012,10.984785,STD
5963708124000,0.439975,1.21549864081394,-9.6642577653101,1.1185954628441,-0.03726278,0.08368854,0.01282817,296.53973,39.36819,11.170116,STD
5963713108000,0.444959,1.21692940503092,-9.66187315828179,1.11311086169902,-0.032070424,0.09040806,0.015882496,295.9478,39.56955,11.350897,STD
5963718103000,0.449954,1.2183633270341,-9.6594832882765,1.10761415569589,-0.0290161,0.087964594,0.012217305,295.35287,39.771126,11.531572,STD
5963723124000,0.454975,1.21980471289555,-9.65708097850741,1.10208883821005,-0.024129177,0.07269296,0.019547688,294.75195,39.973362,11.706903,STD
5963728113000,0.459964,1.2212369124699,-9.65469397921683,1.09659873485677,-0.040011674,0.073303826,0.012217305,294.15613,40.18062,11.878712,STD
5963733103000,0.464954,1.22266939911572,-9.65230650147381,1.09110753106184,-0.04062254,0.0720821,0.004276057,293.55408,40.384357,12.0489,STD
5963738655000,0.470506,1.22426321992886,-9.6496501334519,1.08499787906396,-0.05131268,0.086437434,0.008246681,292.95282,40.59704,12.210637,STD
5963743167000,0.475018,1.22555848641101,-9.64749135598166,1.08003268637404,-0.06261369,0.096516706,0.0061086523,292.3523,40.810333,12.372101,STD
5963748109000,0.47996,1.22697719362616,-9.6451268439564,1.07459430377794,-0.067500606,0.099265605,0.004581489,291.75098,41.026394,12.527164,STD
5963753147000,0.484998,1.22842345970264,-9.6427164004956,1.06905027878418,-0.05131268,0.10170906,0.00030543262,291.1516,41.24049,12.67711,STD
5963758123000,0.489974,1.22985192734785,-9.64033562108692,1.06357448117225,-0.05100725,0.121256754,-0.0018325958,290.55515,41.461376,12.818807,STD
5963763115000,0.494966,1.23128498813661,-9.63794718643899,1.05808107649404,-0.04337143,0.12339478,-0.00030543262,289.95505,41.676857,12.959863,STD
5963768108000,0.499959,1.23271833599684,-9.6355582733386,1.05258657137419,-0.046731193,0.11789699,-0.0061086523,289.35867,41.895424,13.096467,STD
5963773126000,0.504977,1.23415886064388,-9.63315739892687,1.04706455521328,-0.0421497,0.12217305,-0.0015271631,288.7616,42.11175,13.224511,STD
5963778122000,0.509973,1.23559306971853,-9.63076705046912,1.0415667487685,-0.043676864,0.113926366,0.0021380284,288.1619,42.33102,13.353826,STD
5963783098000,0.514949,1.23702153736374,-9.62838627106044,1.03609095115656,-0.046120327,0.112704635,0.0021380284,287.865430673039,42.4403552640382,13.414772091597,STD
5963788166000,0.520017,1.23847641558438,-9.62596147402604,1.03051391291354,-0.05100725,0.11178834,0.0033597588,287.56348,42.551712,13.476845,STD
5963793118000,0.524969,1.23989799351425,-9.62359217747624,1.02506452590102,-0.06169739,0.10293079,0.0033597588,286.96127,42.774822,13.598721,STD
5963798111000,0.529962,1.24133134137449,-9.62120326437586,1.01957002078117,-0.056199603,0.105374254,0.014049901,286.35834,42.997437,13.712585,STD
5963803129000,0.53498,1.24277186602152,-9.61880238996413,1.01404800462026,-0.074830994,0.10842858,0.014660766,285.75577,43.22928,13.826364,STD
5963808101000,0.539952,1.24419918538084,-9.61642352436527,1.00857660877489,-0.07666359,0.11209377,0.0143553335,285.15192,43.45669,13.93386,STD
5963813115000,0.544966,1.24716492809063,-9.61456899326189,1.00207665459971,-0.07086037,0.103847094,0.025045475,284.54398,43.688747,14.0370865,STD
5963818109000,0.54996,1.25194624573869,-9.61337366447395,0.994426545364298,-0.07360926,0.11881329,0.027794369,283.94373,43.92332,14.132922,STD
5963823127000,0.554978,1.25675054128494,-9.61217259121446,0.986739671486984,-0.08307768,0.11911872,0.032986723,283.31107,44.109306,14.324477,STD
5963828110000,0.559961,1.26152132739633,-9.61097989530931,0.979106412712441,-0.08093964,0.12644911,0.0290161,282.68478,44.295376,14.505848,STD
5963833107000,0.564958,1.26630551728166,-9.60978384846243,0.971451707896789,-0.07849618,0.119729586,0.034513887,282.0531,44.48833,14.67986,STD
5963838247000,0.570098,1.2712266171437,-9.60855357413924,0.963577947089815,-0.07819075,0.13500121,0.033292156,281.4306,44.683037,14.843412,STD
5963843153000,0.575004,1.2759236824984,-9.60737930841364,0.956062641541369,-0.07880162,0.12064589,0.038179077,280.7986,44.881187,15.005053,STD
5963848110000,0.579961,1.28066957588675,-9.60619283568601,0.948469211128884,-0.070554934,0.124005646,0.03970624,280.1753,45.078766,15.155006,STD
5963853144000,0.584995,1.28548919003179,-9.60498793277882,0.940757827490303,-0.067500606,0.13164146,0.04062254,279.54962,45.280598,15.299921,STD
5963858130000,0.589981,1.29026284838045,-9.60379451881473,0.933119973135522,-0.06780604,0.118202426,0.038789943,278.92114,45.483208,15.442539,STD
5963863114000,0.594965,1.29503459190427,-9.60260158355661,0.9254851825009,-0.062002823,0.10751228,0.03604105,278.2959,45.68545,15.5773325,STD
5963868102000,0.599953,1.29981016507778,-9.60140769088655,0.917844264425961,-0.059864793,0.10140363,0.036957346,277.66943,45.89097,15.707613,STD
5963873125000,0.604976,1.30461924768615,-9.60020542086216,0.91014973124825,-0.055283304,0.10048734,0.036651913,277.0437,46.095856,15.834025,STD
5963878099000,0.60995,1.30938141708572,-9.59901487913384,0.90253025921442,-0.05955936,0.0888809,0.0290161,276.4168,46.303677,15.959286,STD
5963883114000,0.614965,1.31418284039469,-9.5978145239333,0.894847980917343,-0.04062254,0.08552113,0.027488936,275.79184,46.50668,16.0763,STD
5963888134000,0.619985,1.31898905076579,-9.59661297196785,0.88715804331987,-0.046120327,0.065973446,0.023823744,275.16403,46.717846,16.194998,STD
5963893118000,0.624969,1.3237607942896,-9.59542003670972,0.879523252685248,-0.03634648,0.051618114,0.018936822,274.5388,46.921482,16.308392,STD
5963898112000,0.629963,1.32854211193766,-9.59422470792178,0.871873143449834,-0.03634648,0.054061573,0.015271631,273.91513,47.130516,16.41725,STD
5963903137000,0.634988,1.33335310937088,-9.59302195919143,0.864175546551965,-0.027183503,0.04520403,0.0143553335,273.28787,47.336056,16.52572,STD
5963908120000,0.639971,1.33812389548226,-9.59182926328628,0.856542287777422,-0.03756821,0.032375857,0.014660766,272.6627,47.54797,16.629486,STD
5963913114000,0.644965,1.34290521313032,-9.59063393449834,0.848892178542008,-0.032070424,0.029321533,0.007941248,272.04126,47.753963,16.729395,STD
5963918105000,0.649956,1.34768365854111,-9.58943932376934,0.841246664886832,-0.020158553,0.035430185,0.012217305,271.41904,47.963833,16.822023,STD
5963923690000,0.655541,1.35303080693206,-9.58810253736954,0.832691226344624,-0.026572637,0.02076942,0.012217305,270.79565,48.17707,16.915995,STD
5963928119000,0.65997,1.35727118656026,-9.58704244301595,0.825906618053945,-0.017715093,0.010079277,0.008246681,270.17688,48.384663,17.00285,STD
5963933088000,0.664939,1.36202856889771,-9.58585309805255,0.81829480532051,-0.011301007,0.0030543262,0.0076358155,269.55737,48.59622,17.085686,STD
5963938126000,0.669977,1.36685201269245,-9.58464723773344,0.810577294241612,-0.016798794,-0.0106901415,0.0076358155,269.246446544784,48.7018066820763,17.1283561584139,STD
5963943125000,0.674976,1.37163811740263,-9.58345071218059,0.802919525705802,-0.01160644,-0.015882496,-0.003970624,268.93793,48.806576,17.170696,STD
5963948119000,0.67997,1.37641943505069,-9.58225538339265,0.795269416470388,-0.0070249503,-0.032070424,-0.005497787,268.31842,49.01644,17.249166,STD
5963953129000,0.68498,1.38121607129754,-9.58105622495701,0.787594797473707,-0.01038471,-0.03756821,0.00061086525,267.70044,49.229103,17.324747,STD
5963958129000,0.68998,1.38600313342014,-9.57985946005119,0.779935497077818,-0.012217305,-0.05100725,0.0021380284,267.0807,49.44058,17.400673,STD
5963963112000,0.694963,1.39077391953153,-9.57866676414604,0.772302238303275,-0.01985312,-0.067500606,0.0015271631,266.46115,49.65596,17.472013,STD
5963968097000,0.699948,1.39554662046777,-9.57747358953493,0.764665915808574,-0.002443461,-0.080634214,0.0012217305,265.84192,49.866703,17.539528,STD
5963973137000,0.704988,1.40037197908736,-9.57626725050986,0.756945341009517,0.004581489,-0.09254608,0.0030543262,265.22192,50.083138,17.60413,STD
5963978159000,0.71001,1.4051801042833,-9.57506521983844,0.749252339691886,0.0027488936,-0.09712757,0.005497787,264.60376,50.298405,17.664545,STD
5963983099000,0.71495,1.40990972166044,-9.57388281611149,0.741684950900748,0.00061086525,-0.110872045,-0.0018325958,263.9853,50.511814,17.725302,STD
5963988175000,0.720026,1.4147695471273,-9.5726678603791,0.733909229138841,0.0027488936,-0.10842858,0.003970624,263.37036,50.72759,17.775528,STD
5963993089000,0.72494,1.4194742717814,-9.57149167982965,0.726381668709761,-0.0036651916,-0.10751228,0.005192355,262.75745,50.945198,17.826084,STD
5963998117000,0.729968,1.42428814145189,-9.57028821304035,0.718679476231655,-0.004886922,-0.11362094,0.009773844,262.14545,51.16294,17.87041,STD
5964003155000,0.735006,1.42911158524663,-9.56908235272124,0.710961965152757,-0.009162978,-0.12034045,0.005192355,261.53867,51.382515,17.911806,STD
5964008091000,0.739942,1.43383737297407,-9.56790090640621,0.703400703801935,-0.013133603,-0.11178834,0.004276057,260.93658,51.603966,17.945127,STD
5964013081000,0.744932,1.43526628338833,-9.56796192239068,0.698270421494626,-0.008857546,-0.106901415,0.008857546,260.3357,51.824986,17.975319,STD
5964018096000,0.749947,1.43238909829116,-9.56964029037846,0.696352296343985,-0.02076942,-0.10720685,0.01282817,259.7399,52.05109,18.00085,STD
5964023134000,0.754985,1.42949871772893,-9.57132635576678,0.694425374208606,-0.025045475,-0.113926366,0.008246681,259.11942,52.250927,18.12568,STD
5964028129000,0.75998,1.42663300694919,-9.57299803036279,0.692514898609912,-0.019547688,-0.105068825,0.004581489,258.50592,52.453533,18.238443,STD
5964033137000,0.764988,1.42375983786312,-9.57467405566345,0.690599450802452,-0.021685716,-0.09315695,0.01038471,257.8948,52.66123,18.342302,STD
5964038139000,0.76999,1.42089011107228,-9.57634807294657,0.688686297860577,-0.03145956,-0.09132435,0.010079277,257.28918,52.869297,18.440683,STD
5964043105000,0.774956,1.41804103805283,-9.5780100421245,0.686786914112205,-0.023518313,-0.09254608,0.003970624,256.69,53.07468,18.530056,STD
5964048160000,0.780011,1.41514090432078,-9.57970179689583,0.684853489857671,-0.02687807,-0.084910266,0.0070249503,256.09616,53.28739,18.608519,STD
5964053159000,0.78501,1.41227289867756,-9.58137481017019,0.682941484348588,-0.024129177,-0.07788532,0.010079277,255.50699,53.49658,18.681828,STD
5964058156000,0.790007,1.40940604046608,-9.58304715410537,0.681030243794699,-0.028710667,-0.077579886,0.00580322,254.92293,53.708347,18.749378,STD
5964063170000,0.795021,1.40652942908477,-9.58472518742356,0.679112501121656,-0.018325957,-0.07880162,0.006414085,254.34329,53.91767,18.807775,STD
5964068111000,0.799962,1.40369469896211,-9.58637878986177,0.677222679313218,-0.020158553,-0.07269296,0.004886922,253.771,54.130486,18.860407,STD
5964073040000,0.804891,1.40086685342992,-9.58802837626491,0.675337447235948,-0.02107485,-0.07391469,0.018020526,253.19855,54.34346,18.904566,STD
5964078033000,0.809884,1.39800229008192,-9.58969938152173,0.673427736592449,-0.021380283,-0.070554934,0.014049901,252.63626,54.554115,18.945948,STD
5964083015000,0.814866,1.39514403760852,-9.59136670541308,0.67152223320252,-0.021685716,-0.067500606,0.015577064,252.07529,54.768192,18.977446,STD
5964088064000,0.819915,1.3922473461717,-9.59305645216688,0.66959110381357,-0.023823744,-0.05375614,0.019242255,251.5229,54.98263,19.00203,STD
5964093035000,0.824886,1.38939540457289,-9.59472009469275,0.667689807677212,-0.03481932,-0.049785517,0.01160644,250.97488,55.197697,19.024872,STD
5964098028000,0.829879,1.3865308412249,-9.59639109994958,0.665780097033713,-0.032375857,-0.0571159,0.014049901,250.43015,55.41228,19.039072,STD
5964103178000,0.835029,1.38357620448503,-9.59811464833184,0.663810337407431,-0.030543262,-0.0421497,0.017104227,249.8981,55.62826,19.04657,STD
5964108153000,0.840004,1.38072196802272,-9.59977962953607,0.661907511360684,-0.03023783,-0.052534413,0.01038471,249.36328,55.842587,19.05588,STD
5964113147000,0.844998,1.37785683095886,-9.60145096946249,0.659997418239587,-0.030848695,-0.05009095,0.007330383,248.83958,56.057484,19.055302,STD
5964118135000,0.849986,1.37499513619022,-9.60312030137137,0.658089619984075,-0.019242255,-0.053450707,0.0027488936,248.31763,56.26775,19.05474,STD
5964123165000,0.855016,1.37210934535497,-9.60480368940298,0.656165757669474,-0.019242255,-0.051618114,0.004276057,247.80206,56.480972,19.048225,STD
5964128164000,0.860015,1.36924133971175,-9.60647670267734,0.654253752160391,-0.015577064,-0.04917465,0.0036651916,247.29163,56.689163,19.039772,STD
5964133152000,0.865003,1.36637964494311,-9.60814603458622,0.652345953904878,-0.008246681,-0.04153884,0.0076358155,246.78708,56.897125,19.024998,STD
5964138124000,0.869975,1.36352712962843,-9.60981001178168,0.650444275290923,-0.018325957,-0.036957346,0.0061086523,246.28816,57.106728,19.008163,STD
5964143118000,0.874969,1.36066199256456,-9.61148135170809,0.648534182169826,-0.018020526,-0.044593163,0.00061086525,245.79286,57.311737,18.988462,STD
5964148111000,0.879962,1.35779742921657,-9.61315235696492,0.646624471526327,-0.015882496,-0.044593163,0.008552114,245.30414,57.520077,18.960783,STD
5964153129000,0.88498,1.35491852297178,-9.61483172896147,0.644705198942894,-0.010995574,-0.03390302,0.00030543262,244.82411,57.72333,18.934978,STD
5964158131000,0.889982,1.35204879618094,-9.61650574624459,0.642792046001018,-0.020463986,-0.026572637,0.00061086525,244.34587,57.93154,18.902288,STD
5964163114000,0.894965,1.34918996999166,-9.61817340480553,0.640886160133492,-0.030848695,-0.015577064,0.0021380284,243.87738,58.1369,18.866604,STD
5964168105000,0.899956,1.34632655407541,-9.61984374072318,0.638977214445188,-0.026267206,-0.016798794,0.0036651916,243.41235,58.340244,18.828642,STD
5964173123000,0.904974,1.34344764783062,-9.62152311271972,0.637057941861755,-0.028710667,-0.0070249503,0.0021380284,242.95837,58.546314,18.78567,STD
5964178114000,0.909965,1.34058423191437,-9.62319344863737,0.63514899617345,-0.02687807,0.004276057,0.0033597588,242.50874,58.750183,18.739044,STD
5964183106000,0.914957,1.33772024228225,-9.62486411922461,0.633239668007548,-0.03023783,-0.0030543262,-0.0021380284,242.06253,58.95328,18.693262,STD
5964188179000,0.92003,1.33480978166451,-9.62656189804854,0.631299359156262,-0.02321288,-0.006414085,-0.0067195175,241.62495,59.152946,18.642843,STD
5964193117000,0.924968,1.33197677268947,-9.62821449647798,0.629410684780616,-0.032070424,0.002443461,0.0012217305,241.19257,59.357082,18.58784,STD
5964198104000,0.929955,1.3291156516367,-9.62988349371727,0.627503269002701,-0.028710667,0.0061086523,0.005497787,240.76364,59.554398,18.533892,STD
5964203144000,0.934995,1.32622412364274,-9.63157022844477,0.625575581912127,-0.035430185,0.013744468,0.004276057,240.34262,59.755207,18.475843,STD
5964208121000,0.939972,1.32336873974869,-9.63323587898817,0.623671990910185,-0.03634648,0.005497787,0.004276057,239.92221,59.95376,18.415998,STD
5964213115000,0.944966,1.32341877148456,-9.63290347138658,0.620582088706366,-0.035430185,0.0061086523,0.0018325958,239.51144,60.15146,18.35348,STD
5964218103000,0.949954,1.32817009345574,-9.6293399799082,0.615593197411788,-0.030848695,0.0033597588,0.013133603,239.1004,60.349777,18.287052,STD
5964223125000,0.954976,1.33295380214445,-9.62575219839166,0.610570300041825,-0.028405234,0.0021380284,0.011301007,238.61348,60.51229,18.308537,STD
5964228122000,0.959973,1.33771369707028,-9.62218227719729,0.605572407139056,-0.040927973,-0.0015271631,0.016187929,238.13,60.6818,18.319149,STD
5964233110000,0.964961,1.34246501904146,-9.6186187857189,0.600583515844478,-0.0421497,-0.00580322,0.013744468,237.65408,60.847885,18.325996,STD
5964238188000,0.970039,1.34730207055904,-9.61499099708072,0.595504608468,-0.03848451,0.004581489,0.016798794,237.18686,61.0186,18.322872,STD
5964243194000,0.975045,1.3520705384395,-9.61141464617037,0.590497713957041,-0.043982297,0.012217305,0.015882496,236.72522,61.19128,18.316492,STD
5964248791000,0.980642,1.35740196367461,-9.60741607724404,0.584899713841613,-0.043066,0.016798794,0.017104227,236.27164,61.36346,18.302624,STD
5964253102000,0.984953,1.36150840894682,-9.60433624328988,0.580587943518652,-0.04917465,0.025045475,0.022602014,235.82733,61.539536,18.281668,STD
5964258125000,0.989976,1.36629307018605,-9.60074774736047,0.575564045970002,-0.05375614,0.040011674,0.015882496,235.3938,61.7134,18.257774,STD
5964263113000,0.994964,1.37104439215723,-9.59718425588208,0.570575154675423,-0.04917465,0.042760566,0.013439035,234.96428,61.888668,18.227417,STD
5964268103000,0.999954,1.37579761922945,-9.59361933557791,0.565584263023469,-0.052534413,0.048563786,0.016187929,234.54605,62.06639,18.19153,STD
5964273101000,1.004952,1.38055846670579,-9.59004869997066,0.560585369942012,-0.060170226,0.04550946,0.013439035,234.13298,62.242504,18.154642,STD
5964278113000,1.009964,1.38533264988935,-9.58646806258299,0.555572474358927,-0.06505715,0.03970624,0.009162978,233.72647,62.418827,18.11359,STD
5964283101000,1.014952,1.39008397186053,-9.5829045711046,0.550583583064349,-0.056505036,0.023823744,0.009773844,233.3218,62.594074,18.06996,STD
5964288118000,1.019969,1.39486291779666,-9.5793203616525,0.545565686587825,-0.06383542,0.01160644,0.006414085,232.92313,62.77178,18.025503,STD
5964293115000,1.024966,1.39962281272249,-9.57575044045813,0.540567793685056,-0.05955936,0.004581489,0.0036651916,232.52701,62.94515,17.978699,STD
5964298118000,1.029969,1.40438842295141,-9.57217623278645,0.535563899710161,-0.06261369,0.0076358155,0.008552114,232.1355,63.122044,17.92791,STD
5964303148000,1.034999,1.40917975204424,-9.56858273596682,0.530533000910696,-0.060170226,-0.004886922,0.0036651916,231.74455,63.29404,17.879803,STD
5964308121000,1.039972,1.41391678575769,-9.56502996068173,0.525559112296434,-0.04520403,0.005497787,0.007330383,231.36507,63.466187,17.82282,STD
5964313108000,1.044959,1.41866715517836,-9.56146718361623,0.520571221180543,-0.0580322,-0.0009162979,0.004276057,230.98401,63.640827,17.769192,STD
5964318895000,1.050746,1.42417956501141,-9.55733287624144,0.514783187114439,-0.03634648,0.01038471,0.006414085,230.61539,63.806396,17.708073,STD
5964323106000,1.054957,1.42819075523208,-9.55432448357594,0.510571434660255,-0.05100725,0.005497787,0.0125227375,230.24562,63.981735,17.646566,STD
5964328133000,1.059984,1.43297922667336,-9.55073312999498,0.505543536396853,-0.05009095,0.0061086523,0.011301007,229.88635,64.14773,17.582808,STD
5964333106000,1.064957,1.43771626038682,-9.54718035470989,0.500569647782591,-0.049480084,0.010079277,0.013439035,229.53088,64.317955,17.514696,STD
5964338236000,1.070087,1.4426028445312,-9.5435154166016,0.495438731114349,-0.053145275,0.02443461,0.013439035,229.18398,64.487434,17.444666,STD
5964343189000,1.07504,1.44732082723434,-9.53997692957424,0.490484846073842,-0.051923547,0.028710667,0.011911872,228.84027,64.655075,17.373396,STD
5964348111000,1.079962,1.45200928087151,-9.53646058934637,0.485561966572656,-0.056505036,0.03756821,0.0143553335,228.50642,64.82453,17.297836,STD
5964353125000,1.084976,1.45678536915609,-9.53287852313293,0.480547070632196,-0.05681047,0.04184427,0.023823744,228.17674,64.993004,17.219463,STD
5964358120000,1.089971,1.46154335898089,-9.52931003076433,0.475551178086803,-0.058643065,0.040011674,0.015271631,227.85397,65.15855,17.14388,STD
5964363110000,1.094961,1.4662965860531,-9.52574511046017,0.470560286434848,-0.063224554,0.04184427,0.016493361,227.53622,65.32746,17.061335,STD
5964368107000,1.099958,1.47105648097893,-9.5221751892658,0.46556239353208,-0.052839845,0.04734206,0.020463986,227.22404,65.49141,16.97921,STD
5964373125000,1.104976,1.47583637946558,-9.51859026540082,0.460543496876868,-0.043676864,0.03390302,0.019242255,226.9118,65.65458,16.898766,STD
5964378113000,1.109964,1.48058770143676,-9.51502677392243,0.455554605582289,-0.035430185,0.034208454,0.013744468,226.6094,65.81459,16.815956,STD
5964383106000,1.114957,1.48534378616053,-9.5114597103796,0.450560713394272,-0.032986723,0.030848695,0.007330383,226.3067,65.972374,16.734474,STD
5964388748000,1.120599,1.49071807616883,-9.50742899287338,0.444917705237894,-0.034513887,0.021380283,0.0076358155,226.00653,66.12848,16.652462,STD
5964393207000,1.125058,1.49496549891733,-9.504243425812,0.440457908469144,-0.019242255,0.026267206,0.0143553335,225.71375,66.27966,16.568825,STD
5964398109000,1.12996,1.49963490154418,-9.50074137384186,0.435555032541713,-0.03023783,0.022907447,0.017104227,225.42046,66.434685,16.487032,STD
5964403093000,1.134944,1.50438241331331,-9.49718074001502,0.430570141961885,-0.021380283,0.032070424,0.014049901,225.13625,66.58178,16.403019,STD
5964408121000,1.139972,1.50917183730511,-9.49358867202116,0.425541243519796,-0.015882496,0.040011674,0.01985312,224.85382,66.73304,16.31575,STD
5964413110000,1.144961,1.51254028199093,-9.49097306997689,0.422411038710936,-0.019242255,0.041233405,0.022602014,224.57664,66.88197,16.229593,STD
5964418106000,1.149957,1.50894944917295,-9.49312756466833,0.428635153928132,-0.016187929,0.033292156,0.0143553335,224.30345,67.02634,16.144735,STD
5964423116000,1.154967,1.50534855397316,-9.49528809677484,0.434876710621116,-0.025045475,0.042760566,0.015271631,224.05489,67.17827,16.06533,STD
5964428112000,1.159963,1.50175772115517,-9.49744259146628,0.441100825838312,-0.022602014,0.04550946,0.016187929,223.80617,67.32408,15.989192,STD
5964433100000,1.164951,1.49817263826964,-9.49959363620626,0.447314974497914,-0.027183503,0.052839845,0.0143553335,223.5649,67.47109,15.912294,STD
5964438135000,1.169986,1.49455377453094,-9.5017649494111,0.453587676683378,-0.026572637,0.03848451,0.01160644,223.32141,67.61498,15.836813,STD
5964443118000,1.174969,1.49097228535319,-9.50391383793141,0.459795596244484,-0.025045475,0.038179077,0.0076358155,223.08745,67.75737,15.760432,STD
5964448113000,1.179964,1.48738217127676,-9.50606790137892,0.46601846564198,-0.028405234,0.038789943,0.007330383,222.85266,67.89925,15.684839,STD
5964453164000,1.185015,1.48375180767314,-9.50824611448671,0.472311100942632,-0.027183503,0.022296581,0.0027488936,222.6166,68.0367,15.612833,STD
5964458274000,1.190125,1.48007903831767,-9.51044977098656,0.478677239605536,-0.023518313,0.012217305,0.0036651916,222.38515,68.17388,15.538836,STD
5964463111000,1.194962,1.47660248540722,-9.51253569789259,0.484703269490559,-0.026572637,0.0021380284,0.0018325958,222.15262,68.30921,15.468049,STD
5964468104000,1.199955,1.47301380881391,-9.51468889885223,0.490923647248657,-0.018020526,-0.00030543262,0.0018325958,222.03744334532,68.3735140145839,15.4334336596744,STD
5964473122000,1.204973,1.46940716368167,-9.51685288091021,0.497175170499235,-0.011911872,-0.003970624,-0.004581489,221.92169,68.43814,15.398645,STD
5964478114000,1.209965,1.46581920582991,-9.51900565062592,0.503394302437633,-0.017715093,-0.014660766,0.008246681,221.68826,68.57397,15.325418,STD
5964483089000,1.21494,1.46224346658461,-9.52115108919476,0.509592255441146,-0.018936822,-0.010995574,0.01160644,221.46149,68.70145,15.255842,STD
5964488126000,1.219977,1.45862316536279,-9.52332326488747,0.515867449266008,-0.013744468,-0.019242255,0.009468411,221.23071,68.82903,15.185852,STD
5964493098000,1.224949,1.45504958234217,-9.52546740972451,0.522061664810423,-0.014966198,-0.021991149,0.010079277,221.00513,68.958084,15.113481,STD
5964498115000,1.229966,1.45144365595149,-9.52763096053856,0.528311942241302,-0.02076942,-0.025045475,0.011911872,220.7802,69.08556,15.041964,STD
5964503176000,1.235027,1.4478061049323,-9.52981348608568,0.534617035738945,-0.020463986,-0.025961773,0.013133603,220.55807,69.21085,14.970468,STD
5964508130000,1.239981,1.4442454592597,-9.53194986853192,0.540788826528774,-0.02107485,-0.0143553335,0.016798794,220.34134,69.33708,14.89711,STD
5964513114000,1.244965,1.4406632513404,-9.53409918829616,0.546997991909579,-0.0290161,-0.004581489,0.02076942,220.12665,69.463745,14.823562,STD
5964518087000,1.249938,1.43708894957822,-9.53624376437713,0.553193453273693,-0.025045475,-0.014049901,0.01160644,219.91333,69.58492,14.753295,STD
5964523086000,1.254937,1.43349596053556,-9.53839955280038,0.559421305949987,-0.020463986,-0.013439035,0.018936822,219.70699,69.71045,14.676134,STD
5964528092000,1.259943,1.429897940302,-9.54055835993115,0.565657879364174,-0.036651913,-0.015271631,0.018325957,219.50124,69.83442,14.604678,STD
5964533108000,1.264959,1.42629273265288,-9.54272147950127,0.571906910975354,-0.036957346,-0.013744468,0.0125227375,219.29924,69.95355,14.532554,STD
5964538135000,1.269986,1.42267961884663,-9.54488934275465,0.578169646603224,-0.035430185,-0.013133603,0.014966198,219.09863,70.07576,14.458675,STD
5964543127000,1.274978,1.41909166099487,-9.54704211247035,0.584388778541623,-0.046731193,-0.022296581,0.012217305,218.89912,70.19692,14.388577,STD
5964548111000,1.279962,1.41550945307556,-9.5491914322346,0.590597943922428,-0.055283304,-0.027183503,0.003970624,218.70386,70.3153,14.319196,STD
5964553122000,1.284973,1.41190783913422,-9.55135239558504,0.596840746435112,-0.046731193,-0.021380283,0.008246681,218.51102,70.4333,14.24714,STD
5964558125000,1.289976,1.40831197512533,-9.55350990898402,0.603073582390201,-0.05009095,-0.016187929,0.004581489,218.32037,70.55057,14.180048,STD
5964563112000,1.294963,1.40472761098136,-9.55566052248006,0.609286485230104,-0.06078109,-0.009773844,0.004276057,218.13379,70.66793,14.110526,STD
5964568100000,1.299951,1.40114252809582,-9.55781156722004,0.615500633889706,-0.05955936,-0.009773844,0.009773844,217.94926,70.782814,14.040669,STD
5964573868000,1.305719,1.39699682679595,-9.56029898222809,0.622686521914683,-0.05681047,0.00061086525,0.0076358155,217.77254,70.89647,13.972128,STD
5964578113000,1.309964,1.39394576888715,-9.56212961272553,0.62797502653778,-0.05009095,0.009162978,0.008552114,217.59714,71.00959,13.901593,STD
5964583110000,1.314961,1.39035421732761,-9.5642845386609,0.634200387574675,-0.055283304,0.004276057,0.012217305,217.42317,71.12331,13.831394,STD
5964588129000,1.31998,1.38674685345381,-9.56644895196282,0.640453156644952,-0.057421334,-0.00030543262,0.013133603,217.25414,71.233444,13.761508,STD
5964593122000,1.324973,1.3831581768605,-9.56860215292246,0.64667353440305,-0.06536258,0.013744468,0.015271631,217.09099,71.34543,13.689768,STD
5964598120000,1.329971,1.37956590655939,-9.57075751010177,0.652900141259644,-0.063224554,0.017104227,0.015882496,216.92574,71.45445,13.619551,STD
5964603122000,1.334973,1.37597076129207,-9.57291459225681,0.659131731395035,-0.05589417,0.008857546,0.02321288,216.76277,71.56452,13.547145,STD
5964608131000,1.339982,1.37237058483384,-9.57507469311939,0.66537204226832,-0.0693332,0.014660766,0.02107485,216.60748,71.67496,13.476595,STD
5964613066000,1.344917,1.36607584093023,-9.57851081511628,0.669524610232558,-0.07696902,0.008857546,0.01985312,216.44807,71.7833,13.405497,STD
5964618093000,1.349944,1.34741592868217,-9.58784096608527,0.664859632170543,-0.07422013,0.0030543262,0.021991149,216.29231,71.89113,13.334192,STD
5964623111000,1.354962,1.33241148232698,-9.59843155175527,0.667593752798395,-0.07452556,-0.004276057,0.014966198,216.02075,71.96932,13.401044,STD
5964628116000,1.359967,1.34202670479438,-9.61766189628887,0.720477476369107,-0.071776666,0.004886922,0.015577064,215.75789,72.048485,13.456877,STD
5964633083000,1.364934,1.35184913862161,-9.63335637588548,0.765232894923259,-0.07422013,0.0070249503,0.007330383,215.44656,72.12004,13.5745945,STD
5964638121000,1.369972,1.36371646881641,-9.62623581419717,0.758112481936246,-0.08460484,0.008552114,0.0076358155,215.14421,72.193726,13.678653,STD
5964643835000,1.375686,1.37717616010921,-9.61815981390201,0.750036650295159,-0.07727446,0.008857546,0.01160644,214.85274,72.25733,13.775871,STD
5964648115000,1.379966,1.38725797297816,-9.6121105872196,0.743987549940968,-0.073303826,0.01160644,0.012217305,214.56909,72.32244,13.864486,STD
5964653199000,1.38505,1.39656177546061,-9.60347208893536,0.735349188935365,-0.063224554,0.009468411,0.008857546,214.28851,72.39458,13.9801445,STD
5964658092000,1.389943,1.3778946466587,-9.58013811702022,0.712015217020217,-0.05222898,0.0009162979,0.011301007,214.00917,72.464355,14.0877285,STD
5964663168000,1.395019,1.36006195296127,-9.55687623519367,0.688753333571493,-0.0571159,0.011301007,0.0067195175,213.75197,72.53321,14.188786,STD
5964668111000,1.399962,1.36218912661095,-9.54624036694527,0.678117443111351,-0.051618114,0.009468411,0.008552114,213.48955,72.597496,14.284077,STD
5964673185000,1.405036,1.36437267488092,-9.5353226255954,0.667199678961086,-0.050396383,0.020158553,0.0076358155,213.24985,72.66986,14.365374,STD
5964678113000,1.409964,1.36649339342141,-9.52471903289296,0.656596064114317,-0.050701816,0.02443461,0.015271631,213.00769,72.74076,14.4413395,STD
5964683091000,1.414942,1.36863562899254,-9.5140078550373,0.645884863889638,-0.049785517,0.031154128,0.018325957,212.782,72.81177,14.507638,STD
5964688155000,1.420006,1.38473493442454,-9.52197045686638,0.63859570904056,-0.04795292,0.029626964,0.019242255,212.5549,72.88075,14.570776,STD
5964693119000,1.42497,1.40920442921557,-9.54154642063002,0.633701835633107,-0.051618114,0.020463986,0.018020526,212.32751,72.947495,14.631861,STD
5964698109000,1.42996,1.43352100493777,-9.55615376090256,0.623992470784175,-0.04153884,0.01038471,0.01740966,212.09692,73.00872,14.693944,STD
5964703108000,1.434959,1.4577415721795,-9.56826405716888,0.611882177046949,-0.047036625,0.0076358155,0.01863139,211.86597,73.06993,14.753851,STD
5964708114000,1.439965,1.48199605499848,-9.58039131124153,0.599754925506931,-0.042760566,0.008246681,0.024129177,211.6331,73.124054,14.814434,STD
5964713124000,1.444975,1.50626991814732,-9.59252825548922,0.587617983793889,-0.040317107,0.009468411,0.023823744,211.40018,73.17546,14.874117,STD
5964718103000,1.449954,1.51750293737277,-9.595961,0.580909590960886,-0.031154128,0.008552114,0.022907447,211.17787,73.228806,14.922389,STD
5964723124000,1.454975,1.52365942393893,-9.595961,0.576292231661225,-0.03268129,-0.0027488936,0.020463986,210.95297,73.28026,14.969984,STD
5964728110000,1.459961,1.52977299534281,-9.595961,0.571707058694066,-0.014966198,-0.0070249503,0.020463986,210.72353,73.31886,15.025353,STD
5964733094000,1.464945,1.5358841144517,-9.595961,0.567123724945906,-0.022907447,-0.004581489,0.025045475,210.49287,73.35925,15.078331,STD
5964738132000,1.469983,1.54206144552525,-9.595961,0.562490732284745,-0.02443461,0.0009162979,0.025350908,210.26384,73.39439,15.12913,STD
5964743114000,1.474965,1.54817011233916,-9.595961,0.557909237755585,-0.022602014,-0.00030543262,0.02443461,210.03374,73.42916,15.177165,STD
5964748111000,1.479962,1.55251394689602,-9.59917469594465,0.554383553103978,-0.0106901415,-0.006414085,0.022907447,209.80357,73.46105,15.223008,STD
5964753103000,1.484954,1.55481105364213,-9.60606592023833,0.55208644635787,-0.022296581,-0.0067195175,0.017104227,209.57536,73.49244,15.268181,STD
5964758105000,1.489956,1.55711276196425,-9.61297094906785,0.549784738035749,-0.028405234,0.00061086525,0.024740042,209.35066,73.522804,15.309249,STD
5964763114000,1.494965,1.55941769138958,-9.61988564107246,0.547479808610417,-0.027488936,0.0012217305,0.01985312,209.12503,73.547516,15.353663,STD
5964768089000,1.49994,1.55341949517688,-9.63077095941783,0.551957997509827,-0.028099801,0.00030543262,0.019242255,208.90132,73.57496,15.392486,STD
5964773125000,1.504976,1.52780127276108,-9.65126538754913,0.572452554042282,-0.029626964,0.0018325958,0.016493361,208.67935,73.59939,15.43118,STD
5964778053000,1.509904,1.49800196543997,-9.65543132222544,0.591751955304743,-0.040927973,-0.007330383,0.014660766,208.45392,73.624,15.468107,STD
5964783361000,1.515212,1.45872163749638,-9.63579126079397,0.611392114149522,-0.0421497,-0.017104227,0.011301007,208.22957,73.64569,15.504176,STD
5964788104000,1.519955,1.42752402293388,-9.61869305704276,0.620992937997664,-0.052839845,-0.01160644,0.008857546,208.00682,73.67183,15.533594,STD
5964793111000,1.524962,1.40167900619835,-9.60146316582824,0.616685447202659,-0.050701816,-0.014049901,0.011301007,207.77959,73.6966,15.561,STD
5964798095000,1.529946,1.37451518389831,-9.58752019491526,0.613483754661017,-0.03573562,-0.0070249503,0.008246681,207.55879,73.723495,15.581773,STD
5964803128000,1.534979,1.33651757137367,-9.59701931286953,0.618233457466496,-0.030848695,-0.010995574,0.010079277,207.33458,73.752426,15.598955,STD
5964808107000,1.539958,1.30200818587958,-9.60728749303785,0.618116287424985,-0.025045475,-0.016493361,0.005497787,207.11406,73.78209,15.611958,STD
5964813110000,1.544961,1.29730993814473,-9.62608087644636,0.571133795358894,-0.027183503,-0.019547688,0.004276057,206.89372,73.81292,15.621843,STD
5964818203000,1.550054,1.29239446047736,-9.643845,0.526249861303204,-0.04153884,-0.018325957,0.0076358155,206.67186,73.850655,15.623068,STD
5964823124000,1.554975,1.28597905116163,-9.643845,0.519834463152282,-0.04428773,-0.015271631,0.01038471,206.45047,73.88678,15.623261,STD
5964828181000,1.560032,1.27938634136492,-9.643845,0.513241764828932,-0.033292156,-0.005192355,0.0067195175,206.226,73.92425,15.622755,STD
5964833101000,1.564952,1.2729722357292,-9.643845,0.506827670355749,-0.047036625,0.01160644,0.00580322,206.00533,73.9645,15.618897,STD
5964838099000,1.56995,1.26645644305291,-9.643845,0.500311889018967,-0.050701816,0.011911872,0.008552114,205.78377,74.00289,15.613602,STD
5964843114000,1.574965,1.24980650665742,-9.63524562441054,0.506593160970874,-0.062002823,0.016187929,0.0070249503,205.56947,74.04066,15.607927,STD
5964848113000,1.579964,1.22767316259824,-9.621965340638,0.519873190517799,-0.06505715,0.01863139,0.0067195175,205.35568,74.078766,15.599695,STD
5964853123000,1.584974,1.21868849903816,-9.61267995013069,0.524290385712493,-0.064751714,0.036957346,0.01160644,205.14502,74.119865,15.58754,STD
5964858116000,1.589967,1.22368765872452,-9.60768068604287,0.519291194705698,-0.0852157,0.046731193,0.013744468,204.93373,74.160866,15.574938,STD
5964863110000,1.594961,1.22446243174349,-9.60143045240481,0.529467368602204,-0.09193522,0.047647487,0.018936822,204.72708,74.20631,15.5545635,STD
5964868100000,1.599951,1.22206823174349,-9.59424795240481,0.551015193602204,-0.093767814,0.048258353,0.022907447,204.52429,74.25222,15.532626,STD
5964873117000,1.604968,1.21966107715431,-9.58702658917836,0.57267961004008,-0.08674286,0.05375614,0.015577064,204.32433,74.294525,15.512752,STD
5964878117000,1.609968,1.21726207915832,-9.57982969539078,0.594270617054108,-0.08582657,0.06414085,0.01985312,204.12688,74.34101,15.487284,STD
5964883102000,1.614953,1.23209534166269,-9.58736750597229,0.619179698203536,-0.07422013,0.05955936,0.027183503,203.92793,74.38494,15.462351,STD
5964888155000,1.620006,1.259840150301,-9.60586394849498,0.646924535812709,-0.06719518,0.067500606,0.03023783,203.73683,74.428566,15.436178,STD
5964893107000,1.624958,1.29110183348972,-9.61743224965063,0.6607997,-0.07086037,0.06719518,0.032375857,203.55176,74.47527,15.4043455,STD
5964898957000,1.630808,1.333044605001,-9.62302472818926,0.6607997,-0.073303826,0.064751714,0.023823744,203.36935,74.51913,15.373949,STD
5964903081000,1.634932,1.36261246649032,-9.62696718656419,0.6607997,-0.06994407,0.046120327,0.02443461,203.1843,74.55995,15.345235,STD
5964908118000,1.639969,1.39872626821721,-9.63178245398283,0.6607997,-0.065973446,0.05497787,0.030543262,203.00757,74.599815,15.316405,STD
5964913111000,1.644962,1.42501358310118,-9.63235643431479,0.658888174234715,-0.06658431,0.040011674,0.025045475,202.81927,74.636475,15.2902775,STD
5964918097000,1.649948,1.44094478675453,-9.62837353982818,0.654905362924347,-0.055588737,0.041233405,0.0290161,202.63922,74.67705,15.258774,STD
5964923106000,1.654957,1.45783272859698,-9.62451115235092,0.649244615296277,-0.06047566,0.03145956,0.027488936,202.454,74.70005,15.245046,STD
5964928114000,1.659965,1.48492021735304,-9.62225381644468,0.62441441530569,-0.059864793,0.03359759,0.02565634,202.27371,74.72388,15.229167,STD
5964933815000,1.665666,1.5157560347249,-9.61968411356898,0.596148247145479,-0.06291912,0.019242255,0.03145956,202.0876,74.74614,15.214474,STD
5964938225000,1.670076,1.5396090350073,-9.61769632376335,0.574282995156963,-0.047647487,0.018020526,0.023518313,201.90724,74.76388,15.203089,STD
5964943069000,1.67492,1.56580947341272,-9.61551291019909,0.550265924718784,-0.04795292,0.029321533,0.021685716,201.72748,74.78569,15.187274,STD
5964948115000,1.679966,1.57717205326733,-9.62168989059406,0.542590123366337,-0.037873644,0.027183503,0.013133603,201.54465,74.80325,15.174686,STD
5964953139000,1.68499,1.58511163135314,-9.62962963448845,0.538620334323432,-0.044898596,0.028710667,0.013439035,201.36739,74.82349,15.159018,STD
5964958088000,1.689939,1.58115850792873,-9.61923297416481,0.547040449060134,-0.05009095,0.015577064,0.01160644,201.18556,74.830635,15.1560755,STD
5964963114000,1.694965,1.55971842026726,-9.58171259688196,0.573840581024499,-0.04153884,0.029321533,0.007330383,201.01357,74.837685,15.152436,STD
5964968890000,1.700741,1.53362492838297,-9.57435724260355,0.602002970685809,-0.047036625,0.02107485,0.0070249503,200.82938,74.84336,15.149925,STD
5964973102000,1.704953,1.51406068071588,-9.5821830887574,0.621567173409642,-0.051923547,0.005497787,-0.007330383,200.64862,74.844376,15.151353,STD
5964978170000,1.710021,1.4825138461004,-9.59164503053136,0.611024440391428,-0.04550946,0.008552114,-0.0015271631,200.47502,74.85411,15.143336,STD
5964983102000,1.714953,1.44553745627752,-9.60088885047461,0.574047987826597,-0.044593163,0.004276057,0.004886922,200.2961,74.860725,15.138043,STD
5964988199000,1.72005,1.41465389676344,-9.6079951217144,0.557912870380541,-0.03756821,0.00030543262,-0.0012217305,200.12447,74.873184,15.126339,STD
5964993161000,1.725012,1.39135050323656,-9.6126558782856,0.562573529619459,-0.044593163,0.0021380284,-0.0033597588,199.95454,74.88916,15.110772,STD
5964998106000,1.729957,1.37261405736315,-9.60651929144179,0.549990770277564,-0.048258353,-0.0012217305,-0.0033597588,199.866633298555,89.8692159791332,15.0982507520064,STD
5965003129000,1.73498,1.35870577894179,-9.58797495248651,0.517537983466654,-0.045814894,0.0067195175,0.0076358155,199.77734,105.08556,15.085532,STD
5965008083000,1.739934,1.3467658669046,-9.58215282521462,0.496211983452301,-0.038789943,0.006414085,0.0009162979,199.60063,105.065544,15.065154,STD
5965013069000,1.74492,1.33755395896595,-9.59597049474293,0.491606029482975,-0.043066,0.0106901415,0.003970624,199.42946,105.03321,15.032096,STD
5965018084000,1.749935,1.33269592571197,-9.60629687872481,0.484617831752881,-0.040317107,0.023518313,0.01038471,199.25775,105.00021,14.997993,STD
5965023121000,1.754972,1.33759346788162,-9.60874570094929,0.472373963543835,-0.054061573,0.020463986,0.010995574,199.08392,104.96793,14.964116,STD
5965028055000,1.759906,1.34239086177979,-9.61114444799228,0.460380466274938,-0.05100725,0.020158553,0.017715093,198.9143,104.92952,14.923856,STD
5965033140000,1.764991,1.34733507498858,-9.61361660622367,0.44801992034621,-0.040317107,0.026267206,0.016493361,198.747,104.893166,14.8853,STD
5965038728000,1.770579,1.3590329848537,-9.61946568330465,0.444884699242685,-0.05589417,0.03023783,0.018325957,198.5771,104.85487,14.8442745,STD
5965043117000,1.774968,1.37426355834768,-9.62708112908778,0.452499997917384,-0.059864793,0.026267206,0.02076942,198.40804,104.81648,14.803061,STD
5965048158000,1.780009,1.39358265333652,-9.63509229133557,0.458038179174725,-0.06169739,0.028710667,0.021380283,198.2411,104.780396,14.763521,STD
5965053011000,1.784862,1.4202803793011,-9.63954199751077,0.44913893873528,-0.06811147,0.019242255,0.017715093,198.07095,104.74491,14.724087,STD
5965058059000,1.78991,1.44749467696179,-9.64419416598192,0.441580686185292,-0.058948494,0.034513887,0.0143553335,197.91362,104.712524,14.687726,STD
5965063034000,1.794885,1.46706922734182,-9.64908740755957,0.45626164751438,-0.064751714,0.028099801,0.013133603,197.74852,104.680824,14.651269,STD
5965068030000,1.799881,1.48220515680358,-9.65397097372007,0.468713558339498,-0.06841691,0.027794369,0.017104227,197.59595,104.65291,14.618482,STD
5965073138000,1.804989,1.46315973468951,-9.65873244111349,0.463952195353319,-0.058643065,0.02107485,0.015577064,197.44098,104.6266,14.587128,STD
5965078091000,1.809942,1.44591733029257,-9.66227573248312,0.459506162178045,-0.058643065,0.023823744,0.01282817,197.29341,104.60257,14.557825,STD
5965083022000,1.814873,1.44355555515379,-9.65282877989497,0.457144411700425,-0.057726767,0.02687807,0.01985312,197.1454,104.575745,14.525715,STD
5965088068000,1.819919,1.44113869906977,-9.64316150697674,0.454727580852713,-0.05955936,0.029932396,0.013439035,196.99759,104.54977,14.494083,STD
5965093031000,1.824882,1.43876159705926,-9.63365324786197,0.452350503663416,-0.06872234,0.036651913,0.0143553335,196.85326,104.51976,14.45811,STD
5965098089000,1.82994,1.43620684720304,-9.62500516263812,0.45136655496547,-0.063224554,0.040317107,0.0106901415,196.71019,104.49244,14.424997,STD
5965103101000,1.834952,1.4320633371547,-9.62914880248619,0.467940776878453,-0.058337633,0.04062254,0.009468411,196.56949,104.464294,14.390691,STD
5965108052000,1.839903,1.42797025689744,-9.6332420109634,0.484313277415401,-0.06536258,0.046120327,0.010995574,196.43219,104.43664,14.356503,STD
5965113112000,1.844963,1.4269443,-9.63072578380036,0.482513573458484,-0.06841691,0.03023783,0.010995574,196.28996,104.409386,14.322694,STD
5965118083000,1.849934,1.4269443,-9.62611505933626,0.474829185140109,-0.065973446,0.03268129,0.013439035,196.1561,104.38095,14.287723,STD
5965123124000,1.854975,1.4269443,-9.6214394081547,0.467036587772792,-0.07147124,0.024129177,0.007941248,196.01208,104.35643,14.255821,STD
5965128103000,1.859954,1.4269443,-9.61682126349432,0.459339832705966,-0.07238753,0.015882496,0.0021380284,195.87024,104.33092,14.223067,STD
5965133095000,1.864946,1.4269443,-9.61219106101498,0.451622981672908,-0.06811147,0.015882496,0.004886922,195.72968,104.30437,14.189155,STD
5965138227000,1.870078,1.4269443,-9.60743100510072,0.443689712541968,-0.07086037,0.010995574,0.0067195175,195.58656,104.279785,14.156728,STD
5965143302000,1.875153,1.42987739445623,-9.60993673356559,0.447865843797334,-0.07147124,0.0106901415,0.0067195175,195.44199,104.25487,14.124419,STD
5965148102000,1.879953,1.43451928479249,-9.61689971448046,0.459470581755529,-0.06841691,0.015882496,0.00580322,195.29907,104.22941,14.091555,STD
5965153107000,1.884958,1.43935942252853,-9.62416007270524,0.471570938730688,-0.06688975,0.009773844,0.008552114,195.15186,104.204315,14.058159,STD
5965158120000,1.889971,1.44420729674846,-9.63143203589821,0.483690636935777,-0.07696902,0.013744468,0.007330383,195.0106,104.18072,14.026011,STD
5965163111000,1.894962,1.45183714457165,-9.64000709474931,0.494156421539676,-0.077579886,0.008857546,0.0070249503,194.86652,104.1554,13.992381,STD
5965168108000,1.899959,1.46128345719503,-9.64945316077773,0.503602778550138,-0.07666359,0.004886922,0.01160644,194.7254,104.129196,13.957491,STD
5965173155000,1.905006,1.4681228815297,-9.64767821684296,0.498956298409276,-0.06505715,-0.0015271631,0.01282817,194.5819,104.10563,13.926005,STD
5965178153000,1.910004,1.47299115313263,-9.63794197864117,0.484351488683889,-0.064446285,0.011301007,0.011301007,194.44435,104.08176,13.893917,STD
5965183104000,1.914955,1.47008468157725,-9.63663980874273,0.474096826624111,-0.07269296,0.00061086525,0.007941248,194.30118,104.0587,13.8627405,STD
5965188160000,1.920011,1.46225981073045,-9.64055232587266,0.466271947606658,-0.06872234,-0.002443461,0.014660766,194.16551,104.0324,13.829135,STD
5965193114000,1.924965,1.45500984197617,-9.64318022115194,0.459021965034757,-0.064446285,-0.008857546,0.015882496,194.02954,104.009094,13.797887,STD
5965198150000,1.930001,1.45022054096326,-9.63839077010924,0.454232614011917,-0.0580322,-0.013744468,0.009773844,193.8945,103.985466,13.766616,STD
5965203141000,1.934992,1.44552955854894,-9.63199466980279,0.449541592703094,-0.05467244,-0.01985312,0.014049901,193.7567,103.95668,13.7297735,STD
5965208122000,1.939973,1.44121414884205,-9.61473330133888,0.445226214538629,-0.069027774,-0.02107485,0.016493361,193.62022,103.93055,13.69504,STD
5965213114000,1.944965,1.43688920901936,-9.59743381300887,0.440901306328026,-0.056199603,-0.01740966,0.016798794,193.48314,103.90336,13.659912,STD
5965218121000,1.949972,1.4406558313404,-9.5876911646172,0.432263433001649,-0.0421497,-0.01985312,0.02107485,193.34541,103.87486,13.622719,STD
5965223057000,1.954908,1.44511011494935,-9.57878241135453,0.423354861132627,-0.040011674,-0.01863139,0.021685716,193.2112,103.84714,13.586475,STD
5965228114000,1.959965,1.44967358987044,-9.56965527090695,0.414227906525324,-0.043676864,-0.023518313,0.0143553335,193.07861,103.81822,13.549723,STD
5965233093000,1.964944,1.45416667700353,-9.56066890897526,0.405241727567491,-0.046731193,-0.025961773,0.01863139,192.94861,103.78569,13.509522,STD
5965238180000,1.970031,1.44283288718351,-9.54481132070658,0.405436316584887,-0.046120327,-0.027488936,0.023518313,192.81511,103.75557,13.471906,STD
5965243117000,1.974968,1.42427330399411,-9.52625178596663,0.410076224494603,-0.05131268,-0.034513887,0.018325957,192.68059,103.7275,13.435795,STD
5965248111000,1.979962,1.4233761209917,-9.52835898638645,0.410300520830725,-0.050701816,-0.03359759,0.01740966,192.54892,103.699936,13.399987,STD
5965253120000,1.984971,1.43290959661649,-9.54265928692801,0.407917145702787,-0.054061573,-0.044898596,0.018020526,192.41301,103.673775,13.364845,STD
5965258784000,1.990635,1.44368971359368,-9.55882956088836,0.405222109423163,-0.04795292,-0.03970624,0.0143553335,192.28624,103.644646,13.32762,STD
5965263110000,1.994961,1.45192325632732,-9.57117995021613,0.403163718366373,-0.054367006,-0.05222898,0.014049901,192.15237,103.61532,13.288823,STD
5965268104000,1.999955,1.46398659150158,-9.58234844339171,0.391143218878362,-0.050396383,-0.044898596,0.014966198,192.02774,103.58467,13.250581,STD
5965273129000,2.00498,1.47780324955498,-9.59155974112355,0.372720998522347,-0.051618114,-0.04795292,0.017104227,191.8978,103.554436,13.21173,STD
5965278112000,2.009963,1.48685470255597,-9.61555851812958,0.354119844660194,-0.037873644,-0.048563786,0.011301007,191.7728,103.52749,13.177556,STD
5965283100000,2.014951,1.49158712561918,-9.65341770497325,0.335190142524272,-0.036957346,-0.04917465,0.015577064,191.64847,103.497955,13.139846,STD
5965288185000,2.020036,1.49561578966023,-9.66767309926716,0.330513412393071,-0.03848451,-0.045814894,0.02107485,191.52788,103.47154,13.105437,STD
5965293299000,2.02515,1.49887866475683,-9.65788461025983,0.340302044497002,-0.04062254,-0.059864793,0.025350908,191.40338,103.44418,13.069868,STD
5965298084000,2.029935,1.50193162864757,-9.6487258461026,0.34946094254497,-0.043676864,-0.063224554,0.016187929,191.28204,103.419266,13.036136,STD
5965303121000,2.034972,1.50232504387819,-9.64014425435053,0.350641189058421,-0.03145956,-0.06505715,0.012217305,191.1586,103.3908,12.999564,STD
5965308119000,2.03997,1.49984602759478,-9.63270705018645,0.343204135031075,-0.0290161,-0.058337633,0.026267206,191.03824,103.36067,12.960557,STD
5965313118000,2.044969,1.49736651530972,-9.62526835798633,0.335765592997721,-0.03970624,-0.064751714,0.0290161,190.91678,103.335655,12.927215,STD
5965318118000,2.049969,1.494886507023,-9.61782817775016,0.328325562958359,-0.038179077,-0.0693332,0.025961773,190.79927,103.30733,12.891734,STD
5965323106000,2.054957,1.49956106628614,-9.61232430859878,0.331190706286135,-0.03756821,-0.064751714,0.02565634,190.68994,103.27789,12.853753,STD
5965328861000,2.060712,1.50970919443933,-9.60725013855643,0.34133883443933,-0.043982297,-0.053145275,0.028405234,190.58253,103.24891,12.815951,STD
5965333097000,2.064948,1.50395400462005,-9.59635565255566,0.363127845140587,-0.04520403,-0.0571159,0.02443461,190.47154,103.22191,12.779819,STD
5965338156000,2.070007,1.48369727578133,-9.57609902947632,0.403641334545835,-0.050701816,-0.06047566,0.021380283,190.36537,103.194756,12.743024,STD
5965343122000,2.074973,1.4683667976897,-9.56981462029725,0.429133205711973,-0.032375857,-0.060170226,0.025350908,190.2621,103.16577,12.707281,STD
5965348126000,2.079977,1.4566136689508,-9.57451597979104,0.443237001925247,-0.048258353,-0.06994407,0.021380283,190.1559,103.14277,12.67454,STD
5965353010000,2.084861,1.44514238982195,-9.57910459685094,0.457002577605827,-0.04184427,-0.06627888,0.018020526,190.05653,103.1109,12.6378765,STD
5965358042000,2.089893,1.43332349617403,-9.58383226291264,0.471185291943395,-0.041233405,-0.064446285,0.012217305,189.95479,103.08251,12.603004,STD
5965363014000,2.094865,1.42126224891351,-9.5892250070022,0.480260860917519,-0.048563786,-0.06780604,0.010079277,189.85147,103.05598,12.569118,STD
5965368050000,2.099901,1.40857837955554,-9.59556690029258,0.48343182411815,-0.038789943,-0.05955936,0.010995574,189.75316,103.02884,12.536346,STD
5965373101000,2.104952,1.39585673060258,-9.60192768325718,0.486612232205201,-0.053450707,-0.058948494,0.016187929,189.6523,102.997246,12.497672,STD
5965378065000,2.109916,1.38335420330057,-9.60817890611131,0.489737859951017,-0.0571159,-0.05589417,0.017715093,189.55551,102.96494,12.46018,STD
5965383002000,2.114853,1.37091967926954,-9.61439612755186,0.492846486901279,-0.06505715,-0.06719518,0.02321288,189.45529,102.93145,12.420052,STD
5965388054000,2.119905,1.35819551167691,-9.62075816982807,0.496027524647424,-0.071776666,-0.054061573,0.022296581,189.36401,102.89968,12.382066,STD
5965393011000,2.124862,1.34524300619781,-9.62723436149056,0.498841748081769,-0.06811147,-0.06169739,0.019547688,189.26443,102.866875,12.342715,STD
5965398206000,2.130057,1.33083412189989,-9.63443870333543,0.501243226290486,-0.070554934,-0.056505036,0.020463986,189.17345,102.83453,12.303327,STD
5965403041000,2.134892,1.31742373584013,-9.64114380301202,0.503478288299947,-0.083383106,-0.047647487,0.016187929,189.08179,102.79647,12.257314,STD
5965408119000,2.13997,1.30333936346961,-9.64818589115219,0.505825681243906,-0.08277224,-0.05131268,0.022296581,188.98907,102.75479,12.208386,STD
5965413006000,2.144857,1.28643787270897,-9.65878026807911,0.508106666807911,-0.08582657,-0.034208454,0.01985312,188.90564,102.71832,12.164106,STD
5965418044000,2.149895,1.2573011647124,-9.68306083694832,0.510534723694832,-0.09040806,-0.027488936,0.021991149,188.81915,102.67937,12.116975,STD
5965423034000,2.154885,1.2284420593327,-9.70711007050475,0.512939647050476,-0.089186326,-0.027183503,0.026267206,188.73349,102.63438,12.064249,STD
5965428025000,2.159876,1.19957717056515,-9.73116412354688,0.515345052354688,-0.084910266,-0.007941248,0.026572637,188.65605,102.590515,12.013124,STD
5965433030000,2.164881,1.17917223953488,-9.73693960465116,0.508572961976744,-0.09040806,-0.004276057,0.01985312,188.57588,102.55062,11.963466,STD
5965438064000,2.169915,1.18404682105157,-9.68819378948433,0.47445088626997,-0.09040806,0.009162978,0.021991149,188.505,102.50793,11.912372,STD
5965443009000,2.17486,1.18880466361841,-9.63613343126605,0.4469085176111,-0.098043874,0.023823744,0.034208454,188.42834,102.452965,11.847696,STD
5965448021000,2.179872,1.19354482968596,-9.57214133784318,0.435058090068141,-0.11148291,0.028710667,0.036651913,188.3532,102.401405,11.786128,STD
5965453035000,2.184886,1.19828688728027,-9.50812370886826,0.423202933703338,-0.11056661,0.040927973,0.03848451,188.28444,102.35156,11.7254505,STD
5965457991000,2.189842,1.20297409059846,-9.44484661090263,0.411484913172032,-0.116980694,0.04886922,0.041233405,188.2165,102.3034,11.6646805,STD
5965462988000,2.194839,1.21179106599822,-9.39791597688432,0.404271228535019,-0.12003502,0.05955936,0.048258353,188.15361,102.25396,11.603327,STD
5965468014000,2.199865,1.23556514324805,-9.41218022463696,0.413780869364813,-0.118202426,0.07391469,0.046120327,188.09447,102.20715,11.544918,STD
5965472990000,2.204841,1.26275414039604,-9.43814234059406,0.428661665544554,-0.12217305,0.079107046,0.04642576,188.03848,102.16766,11.491819,STD
5965478011000,2.209862,1.30560231042574,-9.51431687613862,0.466748908460396,-0.1282817,0.076358154,0.04886922,187.98477,102.12886,11.439585,STD
5965483004000,2.214855,1.35496515485418,-9.58851111006792,0.499665967345186,-0.116675265,0.0711658,0.06352998,187.92592,102.0928,11.391449,STD
5965488052000,2.219903,1.43705091881742,-9.65611105013983,0.509323111004794,-0.112399206,0.055283304,0.04795292,187.86307,102.06595,11.3515415,STD
5965492989000,2.22484,1.50831379123596,-9.70137168373229,0.510014762249145,-0.11881329,0.04153884,0.049480084,187.80647,102.03376,11.308843,STD
5965498010000,2.229861,1.53650247505618,-9.6449947085491,0.467731790481681,-0.09865474,0.036957346,0.038179077,187.74783,102.00654,11.274579,STD
5965503008000,2.234859,1.56041944222494,-9.59196062875679,0.429756187791606,-0.080634214,0.038789943,0.040317107,187.69548,101.99069,11.250871,STD
5965507998000,2.239849,1.55567413588971,-9.56032536329935,0.420265601547729,-0.07574729,0.062002823,0.03176499,187.64806,101.98008,11.233917,STD
5965512995000,2.244846,1.55092217281213,-9.52864571971402,0.410761701856216,-0.07819075,0.05100725,0.03268129,187.59328,101.975655,11.221205,STD
5965518042000,2.249893,1.54612266157487,-9.49664908950086,0.401162706110155,-0.07971791,0.052534413,0.032070424,187.54916,101.97317,11.21207,STD
5965523023000,2.254874,1.54138591390838,-9.46507088163644,0.391689237156097,-0.095294975,0.05681047,0.03634648,187.5033,101.97058,11.201052,STD
5965528034000,2.259885,1.53662063734609,-9.43330248179531,0.38215871056931,-0.09437868,0.06963864,0.021685716,187.46045,101.971535,11.195781,STD
5965533006000,2.264857,1.52713605960298,-9.40719965384615,0.374684599964268,-0.09101892,0.059253927,0.019242255,187.41823,101.969154,11.184371,STD
5965538071000,2.269922,1.46454698739454,-9.44090138461538,0.389128230465509,-0.08246681,0.07452556,0.014966198,187.38722,101.97035,11.178464,STD
5965543006000,2.274857,1.40356434744417,-9.47373811538462,0.403201145869975,-0.089186326,0.07238753,0.003970624,187.34676,101.977875,11.175354,STD
5965548032000,2.279883,1.34145720491315,-9.50718034615385,0.417533561842184,-0.09254608,0.081855945,-0.005497787,187.31442,101.98467,11.173521,STD
5965553049000,2.2849,1.27795721473495,-9.54176015274034,0.432734563302386,-0.093462385,0.10995574,-0.018020526,187.28366,101.99687,11.176866,STD
5965558020000,2.289871,1.19241135166217,-9.59403827942498,0.46124987580613,-0.08857546,0.13744467,-0.013439035,187.25607,102.00636,11.177996,STD
5965563113000,2.294964,1.100411726458,-9.64892461212361,0.496544534701862,-0.09590584,0.15424347,-0.019547688,187.21985,101.99514,11.15781,STD
5965568007000,2.299858,0.9564997009271,-9.71855940689382,0.607960279046157,-0.09193522,0.1695151,-0.016493361,187.19171,101.97874,11.134564,STD
5965573228000,2.305079,0.813700820234823,-9.79437950769091,0.723832079430236,-0.09285152,0.16523905,-0.008246681,187.1539,101.94402,11.092161,STD
5965578013000,2.309864,0.809529983063621,-9.8819667398744,0.794736354892145,-0.094989546,0.1695151,-0.01160644,187.12294,101.91187,11.053389,STD
5965582982000,2.314833,0.805198762603076,-9.97292200773641,0.868367147947574,-0.10995574,0.15271631,-0.008552114,187.07478,101.839516,10.977327,STD
5965588062000,2.319913,0.942768091715204,-9.98441773049021,0.935554454275054,-0.116675265,0.13805555,-0.018020526,187.02815,101.77207,10.907227,STD
5965593013000,2.324864,1.10492867857809,-9.9795039309773,0.99943590038346,-0.12675454,0.076358154,-0.009468411,186.96349,101.70228,10.830937,STD
5965598031000,2.329882,1.23151833669022,-9.9918439116117,0.945778275981547,-0.112399206,0.018325957,0.01740966,186.8984,101.619675,10.748439,STD
5965602991000,2.334842,1.352741846702,-10.0058312771398,0.880504082027876,-0.11728613,-0.050701816,0.03604105,186.81244,101.541504,10.665507,STD
5965608071000,2.339922,1.45422279596336,-9.97810404992953,0.774039101278438,-0.12308934,-0.111177474,0.04520403,186.73566,101.48172,10.609824,STD
5965612990000,2.344841,1.54906536450574,-9.94490897020334,0.664970154882223,-0.11148291,-0.13622294,0.05009095,186.64989,101.41773,10.550104,STD
5965618042000,2.349893,1.54243160444261,-9.88289614495645,0.550022172919079,-0.11148291,-0.15515977,0.052839845,186.55923,101.38146,10.51272,STD
5965622996000,2.354847,1.52165443057272,-9.81825621989198,0.436902046123303,-0.116675265,-0.14569137,0.053450707,186.47038,101.34417,10.474949,STD
5965628044000,2.359895,1.5004830188458,-9.75238978030266,0.32163551401489,-0.11056661,-0.12186762,0.04337143,186.38596,101.33418,10.460264,STD
5965633028000,2.364879,1.47958002438324,-9.68735841443239,0.207830364246995,-0.101098195,-0.08735373,0.047036625,186.30867,101.320435,10.441826,STD
5965638093000,2.369944,1.45605843678596,-9.63503539517496,0.174451405115143,-0.110872045,-0.055588737,0.0421497,186.24124,101.31301,10.428465,STD
5965642995000,2.374846,1.43265828946267,-9.58823500279135,0.16509132175157,-0.10567969,-0.02443461,0.043676864,186.18456,101.30018,10.412949,STD
5965648044000,2.379895,1.43900935863664,-9.55440050109798,0.167976468928655,-0.10567969,-0.003970624,0.037873644,186.11792,101.30361,10.396992,STD
5965653472000,2.385323,1.45601069256179,-9.52282664958183,0.17526276830164,-0.095294975,0.0009162979,0.03604105,186.05688,101.30359,10.37983,STD
5965658094000,2.389945,1.47048751006401,-9.49594117763865,0.181467130074289,-0.09101892,0.005497787,0.028099801,185.99982,101.305145,10.363411,STD
5965663090000,2.394941,1.48613575330094,-9.46688020450404,0.188173532371163,-0.08155051,-0.004581489,0.030848695,185.94095,101.30241,10.344307,STD
5965668076000,2.399927,1.49699512159797,-9.44527787431833,0.194549453695625,-0.06627888,-0.004886922,0.0290161,185.89131,101.30133,10.32823,STD
5965673097000,2.404948,1.50309342379201,-9.43104841762841,0.200647760134855,-0.056505036,-0.0067195175,0.026267206,185.8391,101.29909,10.311449,STD
5965678071000,2.409922,1.50913464169943,-9.41695215840203,0.206688982247728,-0.052534413,-0.010079277,0.022907447,185.79294,101.30369,10.30458,STD
5965683070000,2.414921,1.51520622358909,-9.402785049461,0.212760568363982,-0.050396383,-0.021380283,0.02687807,185.74469,101.30587,10.296071,STD
5965688176000,2.420027,1.52140776332276,-9.38831470374128,0.218962112414711,-0.036957346,-0.014660766,0.028405234,185.70125,101.307465,10.289446,STD
5965693092000,2.424943,1.54949939120125,-9.37379095215809,0.204959598440978,-0.03970624,-0.017715093,0.028710667,185.65356,101.30823,10.281001,STD
5965698025000,2.429876,1.58389325226209,-9.35905095319813,0.185305982605304,-0.026267206,-0.038789943,0.02107485,185.60312,101.306946,10.274052,STD
5965703086000,2.434937,1.62208600143987,-9.36013378344147,0.163994838787663,-0.01985312,-0.037873644,0.02321288,185.56218,101.30686,10.268822,STD
5965708122000,2.439973,1.66066562874411,-9.36442026944272,0.142561723946316,-0.032070424,-0.038179077,0.018020526,185.5151,101.31103,10.267138,STD
5965713113000,2.444964,1.68728461254817,-9.39164026706847,0.122731876791621,-0.021380283,-0.036957346,0.01985312,185.47563,101.31589,10.269362,STD
5965718110000,2.449961,1.70619786997332,-9.43419524439285,0.103818601592333,-0.027488936,-0.039095376,0.008552114,185.43532,101.328575,10.276427,STD
5965723681000,2.455532,1.72417391886849,-9.47215976136022,0.109002101594944,-0.035430185,-0.04184427,0.008857546,185.39978,101.34588,10.288035,STD
5965728112000,2.459963,1.7369439461932,-9.49769946042733,0.126028820695757,-0.035430185,-0.035430185,0.013133603,185.36676,101.36424,10.301395,STD
5965733089000,2.46494,1.70858213727839,-9.53093632582654,0.12878350445999,-0.031154128,-0.035124753,0.00580322,185.3333,101.38676,10.31906,STD
5965738196000,2.470047,1.64765124705319,-9.56843252180163,0.119409519089602,-0.033292156,-0.028710667,0.00030543262,185.30424,101.40782,10.3348,STD
5965743140000,2.474991,1.59162511687862,-9.58414602328409,0.112683750020572,-0.030543262,-0.02321288,-0.004276057,185.2776,101.42904,10.353786,STD
5965748117000,2.479968,1.53814042444361,-9.57968887637928,0.108226696195998,-0.033292156,-0.02107485,-0.008246681,185.25229,101.45176,10.373679,STD
5965753089000,2.48494,1.47503351878582,-9.58215537826364,0.09999642243218,-0.039095376,-0.014660766,-0.005192355,185.2219,101.46092,10.378262,STD
5965758123000,2.489974,1.39316621044364,-9.59750528486521,0.0846462882267035,-0.040927973,-0.0018325958,-0.005192355,185.208962173002,101.4648450434,10.3804874468722,STD
5965763112000,2.494963,1.33356841323287,-9.61205535218827,0.0691649478410405,-0.03604105,0.0036651916,0.002443461,185.19614,101.468735,10.382693,STD
5965768105000,2.499956,1.29803142634187,-9.62587536597853,0.0533707294751445,-0.05375614,0.007941248,0.004886922,185.16277,101.46964,10.375387,STD
5965773048000,2.504899,1.2628503075351,-9.63955698587944,0.0377346747219653,-0.057726767,0.007330383,0.005497787,185.12186,101.45542,10.35111,STD
5965778116000,2.509967,1.22677951851775,-9.65358459050372,0.0217032109369942,-0.067500606,0.021685716,0.008857546,185.08717,101.44281,10.326141,STD
5965783098000,2.514949,1.19132082260528,-9.66737415763832,0.00594378856589595,-0.05955936,0.032986723,0.014966198,185.05403,101.426476,10.299874,STD
5965788281000,2.520132,1.1715530568152,-9.67577217166818,-0.0223797509952511,-0.06780604,0.049480084,0.027488936,185.0272,101.41094,10.271678,STD
5965793414000,2.525265,1.16161914329595,-9.68073920622411,-0.0571482927200162,-0.06047566,0.061086524,0.03176499,185.00253,101.39324,10.24467,STD
5965798111000,2.529962,1.16714569955097,-9.69607211746744,-0.0642536235994612,-0.058643065,0.07513642,0.032986723,184.96985,101.36189,10.197281,STD
5965803112000,2.534963,1.18004926762461,-9.71757798940278,-0.0599524447211495,-0.059864793,0.08827003,0.039095376,184.94084,101.328285,10.148428,STD
5965808112000,2.539963,1.20273722968598,-9.73655582194885,-0.053114228568145,-0.06872234,0.10720685,0.035124753,184.9127,101.29876,10.101679,STD
5965813108000,2.544959,1.23887835945829,-9.75204466191864,-0.0427881844818172,-0.06994407,0.12034045,0.03756821,184.8873,101.2659,10.052498,STD
5965818083000,2.549934,1.28152469209447,-9.75631477003738,-0.0236001438699736,-0.07574729,0.12614368,0.032986723,184.86668,101.23958,10.009779,STD
5965823221000,2.555072,1.33087839832224,-9.751827980031,0.00332005318099754,-0.08277224,0.13500121,0.029626964,184.851,101.213295,9.967342,STD
5965828045000,2.559896,1.37271832501856,-9.74064789458055,0.031253585138827,-0.0888809,0.13652839,0.026267206,184.84044,101.19214,9.932911,STD
5965833086000,2.564937,1.40855845033408,-9.71675460244989,0.0651026164988864,-0.084910266,0.13561209,0.025961773,184.83174,101.17116,9.899474,STD
5965838170000,2.570021,1.44470429383816,-9.69265749925761,0.0992403819094284,-0.09285152,0.11575896,0.025350908,184.82564,101.16138,9.878361,STD
5965843198000,2.575049,1.48045199272457,-9.66882582442465,0.133002121579807,-0.09101892,0.11056661,0.023518313,184.82343,101.150444,9.858517,STD
5965848067000,2.579918,1.51506924528582,-9.64574777654046,0.165696216737936,-0.095294975,0.106901415,0.015271631,184.81578,101.14339,9.840641,STD
5965853117000,2.584968,1.54358010944818,-9.63200973566622,0.186475766705249,-0.101098195,0.09712757,0.015271631,184.8051,101.13487,9.821053,STD
5965858105000,2.589956,1.56501087578286,-9.62772350183939,0.195048059812472,-0.090713486,0.089186326,0.013133603,184.79373,101.1275,9.804724,STD
5965863086000,2.594937,1.58527229823982,-9.6170421760176,0.210036544906491,-0.10415252,0.06841691,0.014966198,184.78978,101.13649,9.80734,STD
5965868138000,2.599989,1.60301413674367,-9.59042932563256,0.241084790077008,-0.09987647,0.054367006,0.0143553335,184.78542,101.14263,9.811152,STD
5965873107000,2.604958,1.61903858435823,-9.5655551702435,0.266475745759389,-0.09773844,0.05131268,0.011301007,184.78163,101.15452,9.81989,STD
5965878103000,2.609954,1.62397520144449,-9.5507455251754,0.251665884191085,-0.09682214,0.03359759,0.007941248,184.76968,101.165924,9.827941,STD
5965883107000,2.614958,1.6269872011304,-9.5385,0.23977681258414,-0.10842858,0.03756821,0.0125227375,184.76616,101.180954,9.84046,STD
5965888189000,2.62004,1.62075899259054,-9.5385,0.241852879929617,-0.09040806,0.038179077,0.021685716,184.75677,101.1911,9.8517275,STD
5965893103000,2.624954,1.61473667524208,-9.5385,0.243860316949622,-0.100792766,0.024740042,0.014660766,184.74448,101.21162,9.86718,STD
5965898083000,2.629934,1.60863347206842,-9.5385,0.245894715883206,-0.09560041,0.019242255,0.009162978,184.7351,101.22452,9.879541,STD
5965903028000,2.634879,1.60257316289297,-9.5385,0.247914816832317,-0.086437434,0.028710667,0.012217305,184.72647,101.23745,9.89119,STD
5965908020000,2.639871,1.58560010741232,-9.53163654842985,0.246709202976142,-0.081855945,0.02076942,0.019242255,184.71141,101.25024,9.90231,STD
5965913028000,2.644879,1.55626046777121,-9.51696639671697,0.241819259631933,-0.06963864,0.03176499,0.017715093,184.70465,101.26175,9.91544,STD
5965918024000,2.649875,1.539453937407,-9.50735718926694,0.229772121041563,-0.070249505,0.027183503,0.02076942,184.68896,101.269196,9.921806,STD
5965923012000,2.654863,1.53471531266739,-9.50261905931951,0.210817998125186,-0.064751714,0.032070424,0.025045475,184.67937,101.27399,9.928575,STD
5965928029000,2.65988,1.52060962863933,-9.49318523083779,0.20344881671123,-0.057421334,0.029626964,0.019242255,184.66023,101.27778,9.932249,STD
5965933012000,2.664863,1.4969805959596,-9.47900751515152,0.208174628181818,-0.05467244,0.02107485,0.025045475,184.6414,101.27727,9.93125,STD
5965938034000,2.669885,1.47998085756055,-9.47699219248575,0.216219944795575,-0.042760566,0.02443461,0.026267206,184.6221,101.28039,9.933104,STD
5965943081000,2.674932,1.47055948756396,-9.48876893572438,0.227996692953072,-0.040317107,0.01740966,0.03359759,184.59793,101.28119,9.930925,STD
5965948000000,2.679851,1.46137705859364,-9.50024700190049,0.239474763923298,-0.033292156,0.015271631,0.028710667,184.57495,101.278725,9.9273815,STD
5965953060000,2.684911,1.45193142114907,-9.51205407952829,0.251281846482628,-0.020158553,0.006414085,0.022907447,184.54842,101.27346,9.921656,STD
5965958000000,2.689851,1.45215279238617,-9.52713085518786,0.25684379906942,-0.019547688,0.0076358155,0.02443461,184.52454,101.26829,9.915432,STD
5965963054000,2.694905,1.46901308225927,-9.54880835277432,0.252026568720577,-0.02565634,0.005497787,0.025350908,184.49725,101.26383,9.91065,STD
5965968017000,2.699868,1.48556979350585,-9.57009553530729,0.24729607520627,-0.016187929,0.0036651916,0.019547688,184.46907,101.252335,9.902624,STD
5965973063000,2.704914,1.50240339514805,-9.59173871948246,0.24248647007365,-0.010995574,0.0036651916,0.023518313,184.44138,101.2396,9.891587,STD
5965978343000,2.710194,1.50959916617147,-9.60907330767854,0.218202760412565,-0.014966198,0.006414085,0.025961773,184.41406,101.228745,9.882677,STD
5965983037000,2.714888,1.50155307717917,-9.61711956470378,0.169926188651333,-0.009773844,0.0067195175,0.014049901,184.38606,101.21865,9.8766985,STD
5965988097000,2.719948,1.49078523150955,-9.62724824678156,0.125137805700789,-0.006414085,0.0021380284,0.01038471,184.37358,101.20938,9.869703,STD
5965993070000,2.724921,1.46606278189369,-9.64702614451827,0.130082311112957,-0.011911872,0.011301007,0.007941248,184.365,101.20338,9.8661585,STD
5965998059000,2.72991,1.44336848394845,-9.66390782435071,0.134985105350518,-0.013744468,0.01863139,0.008246681,184.3481,101.20043,9.860955,STD
5966003103000,2.734954,1.42921928090217,-9.66862432386253,0.139701506365944,-0.0106901415,0.021991149,0.004581489,184.33273,101.19908,9.857716,STD
5966008103000,2.739954,1.41224482030172,-9.67842945178466,0.140724857296391,-0.019547688,0.02443461,0.004581489,184.31952,101.19175,9.847145,STD
5966013131000,2.744982,1.3790101964011,-9.71641162413725,0.12173366205285,-0.009162978,0.029932396,0.010995574,184.30838,101.18078,9.836093,STD
5966018114000,2.749965,1.34669225402536,-9.75040154064681,0.103526105366755,-0.030848695,0.023823744,0.008857546,184.29292,101.17448,9.824283,STD
5966023075000,2.754926,1.31867072362135,-9.75974224584685,0.0895153274855008,-0.029321533,0.014660766,0.014049901,184.27866,101.160324,9.808848,STD
5966028103000,2.759954,1.29026126381215,-9.76790836898185,0.0770490762138911,-0.022296581,0.0106901415,0.008246681,184.2572,101.14594,9.789391,STD
5966033082000,2.764933,1.26203535407459,-9.76320396063536,0.0817533892638121,-0.016798794,0.005192355,0.014660766,184.23332,101.12743,9.76506,STD
5966038164000,2.770015,1.23498253813481,-9.75748930996076,0.085765697912627,-0.018936822,0.0033597588,0.016798794,184.20522,101.107475,9.737667,STD
5966043132000,2.774983,1.22949113204063,-9.74101503433749,0.0802742889514081,-0.02687807,-0.0070249503,0.01985312,184.17351,101.0861,9.708279,STD
5966048811000,2.780662,1.22321381819021,-9.72218302723915,0.073996971823638,-0.03268129,0.017715093,0.02321288,184.15013,101.057175,9.673413,STD
5966053036000,2.784887,1.21854369122807,-9.70817259758772,0.0693268424232456,-0.037873644,0.015271631,0.025350908,184.11624,101.02932,9.637612,STD
5966058019000,2.78987,1.22272570120664,-9.6786559984917,0.0767444565399698,-0.043066,0.013439035,0.02443461,184.0899,101.00271,9.603039,STD
5966063025000,2.794876,1.2338503005337,-9.63972024933287,0.0934313636619097,-0.04795292,0.021685716,0.03145956,184.06627,100.97476,9.566426,STD
5966068029000,2.79988,1.25542121904716,-9.62826394517022,0.11177855422233,-0.05222898,0.027488936,0.029626964,184.04033,100.95044,9.532077,STD
5966073015000,2.804866,1.27861094983245,-9.6213068879122,0.130330333039095,-0.05497787,0.02565634,0.030543262,184.01505,100.9246,9.495611,STD
5966078027000,2.809878,1.30192160580836,-9.61431355237725,0.148978851978049,-0.056505036,0.02107485,0.028710667,183.98676,100.90525,9.465993,STD
5966083015000,2.814866,1.3251206385314,-9.60735370448254,0.167538072342674,-0.046120327,0.018020526,0.026572637,183.95866,100.88473,9.436686,STD
5966088066000,2.819917,1.34489288508118,-9.60896624288443,0.189528387093601,-0.048258353,0.020158553,0.023518313,183.93094,100.86713,9.408647,STD
5966093039000,2.82489,1.3630878903916,-9.61351508920726,0.212272157980898,-0.042455133,0.017104227,0.026572637,183.90123,100.846176,9.379693,STD
5966098027000,2.829878,1.37264734738452,-9.62144186173142,0.237668275481799,-0.03573562,0.016493361,0.025045475,183.88272,100.83256,9.3632145,STD
5966103099000,2.83495,1.37760029217906,-9.63134769960232,0.264909495124911,-0.023823744,0.02107485,0.018936822,183.86496,100.81791,9.347494,STD
5966108107000,2.839958,1.38249073924748,-9.6411285426736,0.291806976980728,-0.03756821,0.008552114,0.020463986,183.84814,100.80258,9.332818,STD
5966113057000,2.844908,1.38732454775161,-9.65079610920771,0.318392946466809,-0.033292156,0.004276057,0.014660766,183.83476,100.78656,9.322501,STD
5966118112000,2.849963,1.39564258234772,-9.66743253045535,0.332617058923714,-0.018020526,0.002443461,0.013744468,183.81879,100.76957,9.310251,STD
5966123064000,2.854915,1.40499090996452,-9.68612967376306,0.34196543534792,-0.015577064,0.002443461,0.016798794,183.80225,100.75443,9.298584,STD
5966128056000,2.859907,1.40439605644444,-9.68154545666667,0.337976152888889,-0.016493361,-0.008246681,0.009162978,183.7814,100.73835,9.292454,STD
5966133051000,2.864902,1.39956412553535,-9.66704936121212,0.328312291070707,-0.016187929,-0.016493361,0.013133603,183.76183,100.718445,9.282283,STD
5966138094000,2.869945,1.40168656363727,-9.65952506383613,0.304774243671075,-0.015577064,-0.026267206,0.016187929,183.73863,100.70137,9.275924,STD
5966143062000,2.874913,1.40641735238143,-9.65479417629512,0.276389491446754,-0.015577064,-0.02565634,0.01282817,183.7162,100.685265,9.270318,STD
5966148055000,2.879906,1.40142988291406,-9.64706054895726,0.252248957659216,-0.010995574,-0.029932396,0.007941248,183.68913,100.66869,9.263355,STD
5966153177000,2.885028,1.39225526147947,-9.63788616702516,0.229312260371271,-0.0125227375,-0.028405234,0.009468411,183.66429,100.652466,9.255691,STD
5966158116000,2.889967,1.38322938239675,-9.62886041062966,0.232433699488829,-0.0015271631,-0.03390302,0.005497787,183.6319,100.640366,9.252653,STD
5966163108000,2.894959,1.37398141149047,-9.61961248800658,0.253241650927072,-0.0021380284,-0.024740042,0.014049901,183.60495,100.62671,9.245944,STD
5966168096000,2.899947,1.36474085081729,-9.61037197557791,0.274032929327304,0.0018325958,-0.021685716,0.0125227375,183.5727,100.61496,9.241104,STD
5966173210000,2.905061,1.35526686780153,-9.60089804202534,0.295349408424896,-0.0012217305,-0.024740042,0.009468411,183.5419,100.60266,9.234317,STD
5966178115000,2.909966,1.34589343726605,-9.60039722376176,0.310894187366353,-0.003970624,-0.03145956,0.01282817,183.5117,100.58881,9.2260275,STD
5966183118000,2.914969,1.33598490032055,-9.61030545031538,0.320802734658257,0.01160644,-0.02687807,0.009468411,183.48401,100.575386,9.2207,STD
5966188130000,2.919981,1.33942707978661,-9.61305123697591,0.333862324094357,0.004886922,-0.025961773,0.011301007,183.45378,100.55739,9.209522,STD
5966193113000,2.924964,1.35533812234725,-9.60907339326498,0.349773374962074,0.0012217305,-0.025350908,0.0021380284,183.42474,100.54068,9.202573,STD
5966198092000,2.929943,1.3684447466614,-9.60501771671276,0.362360678907546,-0.003970624,-0.035430185,0.0009162979,183.39151,100.5209,9.19069,STD
5966203116000,2.934967,1.35893983887791,-9.60026565981825,0.348103307307388,-0.002443461,-0.023823744,0.004886922,183.36493,100.50192,9.180525,STD
5966208110000,2.939961,1.3492031675135,-9.59746316880588,0.333310517620607,-0.009468411,-0.021685716,-0.0009162979,183.3359,100.48988,9.1771145,STD
5966213112000,2.944963,1.33648213885102,-9.61442445180136,0.312108785472249,-0.0012217305,-0.021380283,-0.0015271631,183.31023,100.47344,9.171306,STD
5966218114000,2.949965,1.32376111018855,-9.63138573479685,0.290907053323891,-0.0012217305,-0.007941248,0.014966198,183.28366,100.45841,9.161922,STD
5966223126000,2.954977,1.30548504798868,-9.64635353264605,0.295361342352941,0.011301007,-0.010079277,0.00580322,183.25235,100.4472,9.159561,STD
5966228046000,2.959897,1.28643588607237,-9.66064013058419,0.304885883529412,0.014049901,-0.007330383,0.011911872,183.22743,100.42954,9.148633,STD
5966233135000,2.964986,1.27568855471505,-9.65159293131613,0.310259562491182,0.01863139,-0.013133603,0.01038471,183.19626,100.41298,9.138584,STD
5966238117000,2.969968,1.26683179427325,-9.6383079062558,0.31468796583256,0.017104227,-0.0012217305,0.020463986,183.17177,100.39265,9.124075,STD
5966243224000,2.975075,1.26756307596814,-9.6205697676456,0.28863799795122,0.0106901415,-0.0030543262,0.01985312,183.14757,100.37005,9.10618,STD
5966248114000,2.979965,1.27222515182678,-9.60192156157292,0.251341371609756,0.01038471,-0.007330383,0.01985312,183.12654,100.344574,9.085784,STD
5966253105000,2.984956,1.27583798471486,-9.60020632510022,0.237297503042804,0.0027488936,-0.009468411,0.018936822,183.10304,100.31939,9.06516,STD
5966258131000,2.989982,1.27895018231605,-9.60643065530842,0.234185316815596,0.0021380284,-0.009773844,0.017715093,183.07904,100.29379,9.044857,STD
5966263114000,2.994965,1.28203575347537,-9.61260173318893,0.23109975693295,0.004581489,0.0067195175,0.022602014,183.06033,100.27055,9.02478,STD
5966268218000,3.000069,1.28519625020367,-9.6189226606427,0.22793927175514,-0.003970624,-0.0012217305,0.019242255,183.03445,100.25159,9.007049,STD
5966273092000,3.004943,1.28821432642894,-9.62495875006466,0.224921206559873,-0.0015271631,0.0076358155,0.021685716,183.01741,100.229645,8.987729,STD
5966278113000,3.009964,1.29132342793224,-9.63117688814173,0.221812116419242,-0.002443461,0.0061086523,0.01740966,182.99501,100.21212,8.971084,STD
5966283128000,3.014979,1.28788828664189,-9.63675839568494,0.230227929909157,-0.007941248,0.008552114,0.012217305,182.97253,100.194786,8.955643,STD
5966288143000,3.019994,1.27797233686384,-9.64171644822959,0.250059736278518,-0.009773844,0.008857546,0.020158553,182.94946,100.17508,8.937774,STD
5966293115000,3.024966,1.24699281361469,-9.64141563232251,0.268291050459822,-0.014049901,0.01038471,0.011911872,182.92761,100.163826,8.927565,STD
5966298110000,3.029961,1.1996431082246,-9.63711102375596,0.285509147620804,-0.014660766,0.017715093,0.010079277,182.90811,100.148895,8.913593,STD
5966303716000,3.035567,1.18686785111376,-9.63707062806982,0.297441545613964,-0.012217305,0.019242255,0.011911872,182.88705,100.1321,8.898921,STD
5966308117000,3.039968,1.22215473548813,-9.64241712401055,0.298510844802111,-0.007330383,0.0290161,0.023823744,182.8709,100.11318,8.882443,STD
5966313107000,3.044958,1.2621641772123,-9.64847915871727,0.299723251743454,-0.019242255,0.027183503,0.027183503,182.85378,100.08523,8.855344,STD
5966318097000,3.049948,1.30217361893647,-9.65454119342399,0.300935658684798,-0.02443461,0.025961773,0.020158553,182.83972,100.05589,8.828594,STD
5966323182000,3.055033,1.342944763459,-9.66071863760909,0.302171147521819,-0.021380283,0.027183503,0.027183503,182.82271,100.02495,8.798413,STD
5966328116000,3.059967,1.38250520142835,-9.6667126414654,0.303369948293079,-0.022907447,0.026267206,0.023518313,182.8044,100.00023,8.773655,STD
5966333195000,3.065046,1.42322823840572,-9.67288279663081,0.304603979326162,-0.005192355,0.02687807,0.020463986,182.78717,99.971016,8.747266,STD
5966338370000,3.070221,1.46472099610564,-9.67916957611122,0.305861335222245,-0.015271631,0.018020526,0.01740966,182.76694,99.947174,8.722125,STD
5966343127000,3.074978,1.48842502071481,-9.67009189587892,0.296407757718818,-0.00580322,-0.00061086525,0.01282817,182.74405,99.91985,8.698493,STD
5966348112000,3.079963,1.49713040875274,-9.64397564086433,0.274644264898797,-0.002443461,-0.0061086523,0.026267206,182.72292,99.89138,8.671077,STD
5966353091000,3.084942,1.50485860903577,-9.6220909276302,0.26247380117967,0.01160644,-0.0015271631,0.014966198,182.71729,99.89473,8.6835375,STD
5966358127000,3.089978,1.50990240372307,-9.61200312758837,0.277605201041623,0.0030543262,-0.00061086525,0.016798794,182.70976,99.89405,8.688023,STD
5966363090000,3.094941,1.51650710211039,-9.61396625527597,0.294047611262175,0.0067195175,-0.010995574,0.016493361,182.70534,99.89648,8.697479,STD
5966368088000,3.099939,1.5262199362013,-9.63824834050325,0.313473299728084,0.007330383,-0.015882496,0.0143553335,182.70284,99.900406,8.706871,STD
5966373682000,3.105533,1.52872483510807,-9.64629270743279,0.332739773505535,0.0106901415,-0.023518313,0.0125227375,182.6994,99.90235,8.71663,STD
5966378109000,3.10996,1.52233934017622,-9.6335217842458,0.3455107700369,0.0106901415,-0.035430185,0.01038471,182.695587340042,99.9037850233051,8.72094984221398,STD
5966383122000,3.114973,1.51510860015061,-9.61906037969727,0.359972257638376,0.005192355,-0.042760566,0.0125227375,182.69127,99.90541,8.7258415,STD
5966388137000,3.119988,1.49526282319108,-9.62226318002252,0.367493175361785,0.014966198,-0.041233405,0.0070249503,182.69328,99.904305,8.737088,STD
5966393055000,3.124906,1.47116155290144,-9.63190388946884,0.372313429419711,0.007941248,-0.040011674,-0.0030543262,182.68964,99.907364,8.748945,STD
5966398115000,3.129966,1.44752377746398,-9.64490444764649,0.391223134366955,0.004886922,-0.039095376,-0.012217305,182.68607,99.90732,8.760632,STD
5966403129000,3.13498,1.42446038893372,-9.65874231700288,0.41428659032853,-0.007941248,-0.035124753,-0.0036651916,182.68402,99.90758,8.769939,STD
5966408102000,3.139953,1.38416750494089,-9.68291804556937,0.428019492078408,-0.0125227375,-0.039095376,-0.005192355,182.67677,99.90705,8.779114,STD
5966413090000,3.144941,1.33590123407093,-9.7118778786501,0.437672736172578,-0.009468411,-0.035430185,-0.008857546,182.67311,99.905624,8.786542,STD
5966418134000,3.149985,1.29476965365806,-9.69698286251596,0.430471951250123,-0.01282817,-0.021991149,-0.004276057,182.66902,99.89755,8.786828,STD
5966423114000,3.154965,1.25730130346656,-9.66419790327016,0.416421328486694,-0.015577064,-0.009468411,-0.014660766,182.6654,99.89386,8.792386,STD
5966428112000,3.159963,1.21653101931048,-9.65658260465573,0.402318057505157,-0.008246681,-0.00030543262,0.00030543262,182.66336,99.86949,8.777974,STD
5966433209000,3.16506,1.17338034097829,-9.66137721903546,0.387934504736273,-0.027488936,0.019242255,-0.0076358155,182.66714,99.857834,8.773717,STD
5966438115000,3.169966,1.13983316985961,-9.65758090394526,0.374946361368402,-0.029932396,0.029321533,-0.0027488936,182.66342,99.832596,8.75592,STD
5966443512000,3.175363,1.10768442921628,-9.64839583721344,0.361168329664119,-0.025045475,0.039095376,0.00061086525,182.665,99.81173,8.74153,STD
5966448090000,3.179941,1.08454023933518,-9.64745276731302,0.363361564598338,-0.03268129,0.04153884,0.0015271631,182.66168,99.78569,8.717856,STD
5966453113000,3.184964,1.0655041228334,-9.65697052740404,0.387156720164226,-0.029321533,0.04153884,-0.0009162979,182.66035,99.75818,8.694841,STD
5966458075000,3.189926,1.05504627876744,-9.67098539383722,0.395835961594081,-0.02565634,0.052534413,0.004581489,182.65872,99.72516,8.663513,STD
5966463114000,3.194965,1.05956604042334,-9.6935842021167,0.377756905531516,-0.04795292,0.05131268,0.0033597588,182.65327,99.69803,8.635116,STD
5966468051000,3.199902,1.06634881216665,-9.71752844746707,0.365026397388883,-0.04062254,0.04795292,0.002443461,182.64862,99.66041,8.601831,STD
5966473095000,3.204946,1.08186944380422,-9.74856981878548,0.370199941268073,-0.041233405,0.05009095,0.016493361,182.64539,99.62388,8.565385,STD
5966478052000,3.209903,1.11472077344333,-9.77654469868395,0.368574437363976,-0.043066,0.052839845,0.014966198,182.63855,99.59251,8.534918,STD
5966483178000,3.215029,1.18221929905716,-9.8006512969947,0.35411046830878,-0.052534413,0.043676864,0.01985312,182.62924,99.55771,8.4991,STD
5966488083000,3.219934,1.24254089132729,-9.81318883192273,0.343245987684955,-0.045814894,0.040317107,0.024129177,182.62366,99.523636,8.466838,STD
5966493092000,3.224943,1.29508222400677,-9.80363567191078,0.338469507430051,-0.052534413,0.0290161,0.01985312,182.61295,99.49416,8.435912,STD
5966498071000,3.229922,1.35037974419817,-9.79158630173217,0.328329825628609,-0.05681047,0.022602014,0.022602014,182.61006,99.47142,8.415237,STD
5966503099000,3.23495,1.41315960130378,-9.77364929335072,0.305908429361147,-0.058337633,0.034513887,0.019242255,182.60892,99.45231,8.3980665,STD
5966508089000,3.23994,1.47306257816333,-9.75173596330641,0.284179729550304,-0.040317107,0.029626964,0.01740966,182.6074,99.44054,8.390474,STD
5966513167000,3.245018,1.52155299712833,-9.70809473307408,0.26478356702762,-0.04428773,0.019547688,0.016798794,182.6077,99.43262,8.383804,STD
5966518132000,3.249983,1.56724806955247,-9.66478928805941,0.247439826798906,-0.03756821,0.0067195175,0.018020526,182.6132,99.43536,8.391129,STD
5966523101000,3.254952,1.60444730285323,-9.61829024643346,0.238140013618331,-0.032986723,0.013439035,0.022296581,182.62146,99.43824,8.397816,STD
5966528091000,3.259942,1.64212613861701,-9.57331301983719,0.223853711290353,-0.030848695,-0.0067195175,0.007941248,182.62364,99.45611,8.419348,STD
5966533189000,3.26504,1.68324181630018,-9.54133400570787,0.1690328331543,-0.00580322,-0.0018325958,0.009468411,182.63538,99.46505,8.435492,STD
5966538478000,3.270329,1.72253483741218,-9.5105432337213,0.113373243816714,-0.011911872,-0.004276057,0.0027488936,182.64096,99.493164,8.466999,STD
5966543132000,3.274983,1.69916772658069,-9.52456379301667,0.0853326912991507,-0.004886922,-0.005497787,0.003970624,182.64856,99.51348,8.49533,STD
5966548142000,3.279993,1.67624883687469,-9.53726945892588,0.0605372109954827,-0.008246681,0.00061086525,0.010079277,182.6614,99.548584,8.533141,STD
5966553108000,3.284959,1.68022728666555,-9.52135574284758,0.100321737983938,-0.013133603,-0.0018325958,0.005192355,182.6713,99.58477,8.572737,STD
5966558126000,3.289977,1.68424739561653,-9.50527539099883,0.140522856878032,-0.008552114,0.0012217305,-0.003970624,182.68016,99.61808,8.606078,STD
5966563112000,3.294963,1.67572420012031,-9.48060533206337,0.169551920026068,-0.01038471,0.0009162979,0.0009162979,182.68767,99.649704,8.636011,STD
5966568093000,3.299944,1.66137628329657,-9.45190939853619,0.193465129714257,-0.022602014,-0.003970624,0.0012217305,182.69456,99.68479,8.669132,STD
5966573148000,3.304999,1.64806891795411,-9.4361928689764,0.216370607406482,-0.019547688,-0.004886922,0.0036651916,182.7052,99.71383,8.701442,STD
5966578158000,3.310009,1.63545176109395,-9.42672982841365,0.23845059403458,-0.0125227375,-0.0143553335,0.008246681,182.7121,99.7426,8.732103,STD
5966583627000,3.315478,1.62167866112024,-9.41639981467359,0.262553477641181,-0.020158553,-0.016798794,0.013133603,182.72043,99.76823,8.759597,STD
5966588165000,3.320016,1.6139939206422,-9.41549649101682,0.283105207228593,-0.022907447,-0.022296581,0.01160644,182.72516,99.79236,8.786791,STD
5966593104000,3.324955,1.60721355722477,-9.41775665935589,0.305706432780008,-0.024129177,-0.026572637,0.01282817,182.7298,99.814835,8.811267,STD
5966598112000,3.329963,1.60033846915138,-9.42004840323968,0.328623407382454,-0.018325957,-0.02443461,0.0106901415,182.73041,99.83286,8.834361,STD
5966603124000,3.334975,1.59345788979358,-9.42234197758983,0.351558686277714,-0.019242255,-0.036957346,0.016798794,182.7259,99.849075,8.8538685,STD
5966608116000,3.339967,1.58295228083239,-9.44397081018279,0.361652786944129,-0.024129177,-0.043676864,0.01282817,182.72356,99.86787,8.876562,STD
5966613109000,3.34496,1.56813756564081,-9.48841485262832,0.356714548546938,-0.016187929,-0.05009095,0.0106901415,182.71802,99.88279,8.896279,STD
5966618099000,3.34995,1.55625640195796,-9.52644002965736,0.337670914893944,-0.01038471,-0.05222898,0.02107485,182.71468,99.88874,8.909394,STD
5966623120000,3.354971,1.54702617607256,-9.5587461816873,0.305364926712736,-0.016187929,-0.05222898,0.011911872,182.70978,99.90059,8.928225,STD
5966628753000,3.360604,1.52845994202497,-9.58216951277987,0.284622999603725,-0.0030543262,-0.056505036,0.010995574,182.70099,99.900795,8.936975,STD
5966633148000,3.364999,1.50761081789182,-9.59050930176342,0.280453192193382,-0.0061086523,-0.063224554,0.008552114,182.69142,99.90635,8.948424,STD
5966638133000,3.369984,1.47807133769912,-9.61386025191741,0.275738589616519,-0.014049901,-0.06566802,0.015271631,182.68459,99.90687,8.95251,STD
5966643138000,3.374989,1.44036685672566,-9.65627774995084,0.271025523343166,-0.008246681,-0.065973446,0.015577064,182.6764,99.90824,8.958817,STD
5966648045000,3.379896,1.41046211160914,-9.67869925172581,0.266424256507535,0.0021380284,-0.065973446,0.01740966,182.66481,99.9034,8.957384,STD
5966653107000,3.384958,1.39160824104035,-9.6692721687895,0.261710798708799,-0.00580322,-0.064446285,0.015271631,182.65366,99.90102,8.956957,STD
5966658049000,3.3899,1.36909594588418,-9.66399443622052,0.262061227582101,-0.005192355,-0.060170226,0.02076942,182.63658,99.8848,8.945223,STD
5966663101000,3.394952,1.33709409808182,-9.66719468783279,0.273261886008533,-0.0076358155,-0.051923547,0.02076942,182.62112,99.872086,8.935874,STD
5966668058000,3.399909,1.30569402691074,-9.67033476052518,0.284251922394087,-0.0027488936,-0.042760566,0.016493361,182.60515,99.85544,8.922829,STD
5966673115000,3.404966,1.2736605066541,-9.67353817944902,0.29546366619109,-0.0061086523,-0.049480084,0.022296581,182.58733,99.837715,8.906945,STD
5966678058000,3.409909,1.242349118355,-9.67666938366902,0.306422663539042,-0.019242255,-0.047036625,0.0067195175,182.57306,99.82746,8.899365,STD
5966683144000,3.414995,1.21013189786354,-9.67989117299997,0.317698702485366,-0.009468411,-0.037873644,0.00580322,182.5594,99.809784,8.886127,STD
5966688179000,3.42003,1.18622594107258,-9.68474823652335,0.326909598927416,-0.0076358155,-0.018936822,0.008246681,182.54922,99.79794,8.876727,STD
5966693199000,3.42505,1.18178067653259,-9.69363848710125,0.331354863467406,-0.0076358155,0.0021380284,0.016798794,182.54256,99.78396,8.866173,STD
5966698732000,3.430583,1.17902508163577,-9.70022723336968,0.334828979454744,-0.0076358155,0.0030543262,0.003970624,182.52463,99.75525,8.841778,STD
5966703107000,3.434958,1.18294143932388,-9.6963109302072,0.333523526892039,-0.0106901415,0.0106901415,0.009468411,182.51532,99.7206,8.810853,STD
5966708114000,3.439965,1.18742354285403,-9.69182888907929,0.332029492381991,-0.01740966,0.018936822,0.013744468,182.50719,99.68804,8.782748,STD
5966713110000,3.444961,1.19189579954198,-9.68735669465649,0.330538740152672,-0.016798794,0.032986723,0.011911872,182.50287,99.655815,8.755654,STD
5966718115000,3.449966,1.19637611273719,-9.6828764438386,0.329045302420938,-0.018020526,0.023518313,0.009773844,182.49414,99.62426,8.727699,STD
5966723129000,3.45498,1.20086448243963,-9.67838813662564,0.327549179186789,-0.021685716,0.025045475,0.0076358155,182.49248,99.59406,8.701357,STD
5966728109000,3.45996,1.20532241644804,-9.67393026468297,0.326063201183985,-0.021380283,0.032986723,0.007941248,182.48985,99.56409,8.675405,STD
5966733126000,3.464977,1.209822093139,-9.64741998622176,0.31932264715531,-0.024740042,0.029321533,0.0021380284,182.48232,99.537605,8.65267,STD
5966738244000,3.470095,1.21441615653763,-9.61066767091574,0.310134510763895,-0.033292156,0.03634648,0.01160644,182.4804,99.50824,8.626353,STD
5966743144000,3.474995,1.22038636933589,-9.58769723256518,0.318853436636579,-0.040011674,0.036651913,0.0061086523,182.47813,99.48785,8.609088,STD
5966748111000,3.479962,1.22758237038475,-9.57330518037416,0.340441454811154,-0.042760566,0.040011674,0.005497787,182.47894,99.46477,8.588381,STD
5966753095000,3.484946,1.23480300038828,-9.55886387010237,0.362103359901165,-0.062308256,0.05131268,0.0018325958,182.48277,99.44976,8.572762,STD
5966758126000,3.489977,1.24209172220765,-9.54428637572488,0.383969540580909,-0.06505715,0.06780604,0.0033597588,182.48904,99.432236,8.556365,STD
5966763110000,3.494961,1.24767090015023,-9.55461605699531,0.403393086210329,-0.061086524,0.0693332,0.003970624,182.494,99.417725,8.541555,STD
5966768629000,3.50048,1.25263375077934,-9.58439326441315,0.42324449909108,-0.06719518,0.08093964,0.0018325958,182.50641,99.40538,8.527998,STD
5966773211000,3.505062,1.26172297915346,-9.6126705599632,0.442891819261834,-0.06841691,0.080634214,0.004276057,182.5123,99.39438,8.519189,STD
5966778116000,3.509967,1.27613072084654,-9.64628844003681,0.466904830738166,-0.06688975,0.086437434,0.010995574,182.52316,99.38347,8.510325,STD
5966783157000,3.515008,1.28545431283756,-9.6586733893772,0.47884035,-0.056199603,0.089186326,0.007941248,182.53342,99.372604,8.503878,STD
5966788240000,3.520091,1.28967676237784,-9.65022851969005,0.47884035,-0.058337633,0.08460484,0.017104227,182.5434,99.35845,8.492244,STD
5966793101000,3.524952,1.29371479645521,-9.64215247964494,0.47884035,-0.060170226,0.07513642,0.014966198,182.55609,99.34746,8.48626,STD
5966798109000,3.52996,1.29787494347424,-9.63383221456659,0.47884035,-0.06078109,0.07391469,0.015577064,182.56982,99.333824,8.477217,STD
5966803078000,3.534929,1.30200269318221,-9.62557674388481,0.47884035,-0.05681047,0.06505715,0.020158553,182.57841,99.31969,8.46755,STD
5966808118000,3.539969,1.3061894226103,-9.61720331417336,0.47884035,-0.061391957,0.06078109,0.028099801,182.59102,99.304276,8.456063,STD
5966813069000,3.54492,1.31030221971318,-9.6089777485977,0.47884035,-0.06505715,0.05497787,0.021380283,182.60019,99.291275,8.447539,STD
5966818096000,3.549947,1.33538951770532,-9.60261637928188,0.464236011184482,-0.06536258,0.044898596,0.025350908,182.60703,99.27395,8.433848,STD
5966823140000,3.554991,1.37526189013619,-9.5976327490714,0.439315752393727,-0.069027774,0.050701816,0.023823744,182.61635,99.260956,8.42411,STD
5966828113000,3.559964,1.388637,-9.595961,0.434106012311047,-0.07360926,0.062308256,0.025350908,182.62358,99.2523,8.417251,STD
5966833092000,3.564943,1.388637,-9.595961,0.43888577994186,-0.07727446,0.055588737,0.025045475,182.62701,99.244995,8.411268,STD
5966838318000,3.570169,1.388637,-9.595961,0.443902663982558,-0.07849618,0.0580322,0.015882496,182.64,99.24859,8.415746,STD
5966843132000,3.574983,1.388637,-9.595961,0.448524034011628,-0.08032878,0.055588737,0.02076942,182.64975,99.249084,8.416097,STD
5966848110000,3.579961,1.38704308639912,-9.59117920926741,0.446922131091874,-0.07269296,0.051923547,0.01985312,182.66118,99.25296,8.42018,STD
5966853113000,3.584964,1.38464550680044,-9.58398639536629,0.442127014454063,-0.073303826,0.05467244,0.018020526,182.67368,99.25692,8.423226,STD
5966858115000,3.589966,1.38224840643014,-9.57679501916533,0.437332856264512,-0.076358154,0.05100725,0.0125227375,182.68335,99.260826,8.427431,STD
5966863115000,3.594966,1.37985226451661,-9.56960651836469,0.432540614971477,-0.0729984,0.050396383,0.013744468,182.69467,99.26272,8.430347,STD
5966868093000,3.599944,1.3716233225933,-9.56871738964921,0.43244365858751,-0.073303826,0.05497787,0.009162978,182.70378,99.26878,8.437227,STD
5966873165000,3.605016,1.36027916168901,-9.57098627395021,0.434712495506563,-0.07147124,0.047036625,0.013439035,182.70921,99.27147,8.440906,STD
5966878111000,3.609962,1.3492168155075,-9.57319879401186,0.436924969363352,-0.067500606,0.044898596,0.0070249503,182.71661,99.27794,8.448494,STD
5966883106000,3.614957,1.33804487471157,-9.57543323349993,0.439159362188799,-0.06261369,0.03940081,0.01160644,182.72102,99.28,8.45144,STD
5966888178000,3.620029,1.32713972252765,-9.57882528088468,0.430441902104265,-0.057421334,0.037873644,0.009162978,182.72763,99.28408,8.457527,STD
5966893155000,3.625006,1.31709996821485,-9.5838452628752,0.405342505838863,-0.047036625,0.03634648,0.011301007,182.73277,99.284515,8.460832,STD
5966898111000,3.629962,1.30974022603088,-9.60236047478992,0.378954826652335,-0.043676864,0.03726278,0.01038471,182.73526,99.28173,8.460687,STD
5966903118000,3.634969,1.30505476212625,-9.63515842857143,0.350842023654485,-0.03359759,0.03359759,0.0070249503,182.73596,99.277084,8.460536,STD
5966908053000,3.639904,1.30063709225897,-9.64980369783603,0.324335985999296,-0.029626964,0.018020526,0.01160644,182.7316,99.27055,8.456035,STD
5966913109000,3.64496,1.29637774137931,-9.64128526293104,0.298779862931034,-0.0027488936,0.02565634,0.01160644,182.73273,99.262314,8.454203,STD
5966918109000,3.64996,1.29672837644788,-9.63503989140927,0.273868020328185,-0.007941248,0.023518313,0.019242255,182.7254,99.25148,8.446157,STD
5966923167000,3.655018,1.32010649150579,-9.63971561206564,0.250489885741313,0.004581489,0.024740042,0.023823744,182.72122,99.2365,8.439277,STD
5966928091000,3.659942,1.34450068262662,-9.64398379141163,0.230120966158067,-0.0009162979,0.01160644,0.032986723,182.71121,99.222404,8.427953,STD
5966933116000,3.664967,1.38570879028258,-9.64550988953728,0.2331734189902,-0.0033597588,-0.006414085,0.03268129,182.70006,99.20807,8.418125,STD
5966938360000,3.670211,1.42871283337668,-9.64710249820811,0.236358904095018,0.00580322,-0.0061086523,0.031154128,182.69127,99.19825,8.411386,STD
5966943138000,3.674989,1.4678953882782,-9.64855358215724,0.239261315962069,0.007941248,0.00061086525,0.031154128,182.67932,99.18928,8.404145,STD
5966948063000,3.679914,1.50828343409026,-9.65004931017094,0.24225302346421,-0.0018325958,-0.0036651916,0.03023783,182.66867,99.17892,8.396075,STD
5966953840000,3.685691,1.55565840681234,-9.65180379153849,0.245762281177888,-0.0018325958,0.0027488936,0.027794369,182.667164854813,99.1737324194511,8.39251033363166,STD
5966958119000,3.68997,1.59074885311281,-9.65310332862897,0.248361573848276,-0.013744468,0.013133603,0.025045475,182.66605,99.16989,8.38987,STD
5966963112000,3.694963,1.60719506586178,-9.66128953018318,0.280470462203372,-0.004886922,0.012217305,0.02321288,182.6572,99.159096,8.382667,STD
5966968076000,3.699927,1.61709082672773,-9.67118549771024,0.320053541832848,-0.0106901415,0.01038471,0.022296581,182.6529,99.1526,8.377083,STD
5966973153000,3.705004,1.59960506812312,-9.66691251518697,0.336936571242407,-0.015271631,0.004276057,0.015577064,182.6557,99.17262,8.401692,STD
5966978091000,3.709942,1.57832518341808,-9.66052864532241,0.349704493177339,-0.0125227375,-0.0033597588,0.018936822,182.65778,99.18966,8.423113,STD
5966983090000,3.714941,1.55678242447914,-9.654065914368,0.362630139542816,-0.015271631,-0.01038471,0.008552114,182.65887,99.21227,8.451906,STD
5966988171000,3.720022,1.53488629361922,-9.64749717342393,0.375767808913288,-0.012217305,-0.0067195175,0.0027488936,182.66109,99.23146,8.47792,STD
5966993126000,3.724977,1.50049150092593,-9.63088285947713,0.379368813376906,-0.014660766,-0.008552114,0.007941248,182.65982,99.250984,8.502898,STD
5966998115000,3.729966,1.44844499027778,-9.60052224019608,0.37069440248366,-0.022296581,-0.01282817,0.0012217305,182.65872,99.27494,8.532319,STD
5967003098000,3.734949,1.38931115776791,-9.57565201699056,0.360453780919489,-0.02321288,-0.0125227375,0.00580322,182.6508,99.28541,8.548583,STD
5967008087000,3.739938,1.30441848889506,-9.5703461143809,0.344536394425319,-0.016493361,-0.014660766,0.0021380284,182.6409,99.29945,8.568505,STD
5967013059000,3.74491,1.24106561608006,-9.56337409681554,0.329404200007887,-0.016187929,-0.008246681,0.008552114,182.62752,99.30111,8.573442,STD
5967018101000,3.749952,1.20774178888889,-9.5538533015873,0.31512254984127,-0.02687807,-0.0067195175,0.0015271631,182.61206,99.30758,8.582866,STD
5967023765000,3.755616,1.17763307844187,-9.56538608762018,0.289148567130538,-0.022296581,-0.0076358155,0.014660766,182.59189,99.28928,8.568414,STD
5967028078000,3.759929,1.16125688804639,-9.59404408950342,0.260490291650312,-0.023823744,0.005497787,0.018020526,182.57614,99.27743,8.5591,STD
5967033059000,3.76491,1.15263137667684,-9.623650397124,0.237712897009751,-0.01863139,0.0036651916,0.015882496,182.5519,99.25748,8.541004,STD
5967038088000,3.769939,1.16211861762041,-9.64736837565252,0.232969291397616,-0.01740966,-0.007330383,0.017104227,182.52908,99.236694,8.521349,STD
5967043062000,3.774913,1.17579576296123,-9.66448308360579,0.22687325326483,-0.019547688,0.0012217305,0.022296581,182.5077,99.21294,8.496842,STD
5967048100000,3.779951,1.19833098874358,-9.6689902228865,0.21785915824568,-0.028099801,0.002443461,0.026267206,182.48131,99.19006,8.472358,STD
5967053016000,3.784867,1.22007303764667,-9.67448430869613,0.213553656225463,-0.021685716,0.0018325958,0.025961773,182.45193,99.16907,8.451208,STD
5967058120000,3.789971,1.24151397950433,-9.68520500350916,0.229634379410023,-0.019547688,0.00580322,0.024740042,182.42462,99.14893,8.429605,STD
5967063000000,3.794851,1.26632130444972,-9.6900490239296,0.256219600393553,-0.028099801,0.004581489,0.02565634,182.3984,99.13383,8.4123,STD
5967068026000,3.799877,1.29963797410264,-9.68528940739642,0.303814801576189,-0.022602014,0.016187929,0.024740042,182.37729,99.117905,8.39638,STD
5967073010000,3.804861,1.33399387142027,-9.67905331338949,0.346033423119373,-0.025350908,0.027183503,0.02321288,182.35382,99.11041,8.385644,STD
5967078030000,3.809881,1.37122920746442,-9.66974427282409,0.37861440412431,-0.03970624,0.03359759,0.02076942,182.33269,99.104095,8.375647,STD
5967083021000,3.814872,1.40195431795612,-9.66175110998845,0.409707070343533,-0.04550946,0.030848695,0.018936822,182.32162,99.10067,8.371706,STD
5967088064000,3.819915,1.41589662124711,-9.6571036108545,0.437591507078522,-0.046731193,0.031154128,0.009162978,182.31323,99.10103,8.370929,STD
5967093201000,3.825052,1.42483885820809,-9.65236837803468,0.463897571813102,-0.06047566,0.0290161,0.008857546,182.30943,99.106636,8.375848,STD
5967098029000,3.82988,1.41592994236994,-9.64791433872832,0.481715226741811,-0.053450707,0.03268129,0.016493361,182.30745,99.11031,8.381203,STD
5967103131000,3.834982,1.41093454343406,-9.64195853848347,0.496736335252756,-0.04184427,0.032986723,0.013133603,182.31113,99.11689,8.391024,STD
5967108124000,3.839975,1.43365264599012,-9.62832742075257,0.487649113207906,-0.050396383,0.030543262,0.017104227,182.3153,99.12088,8.396458,STD
5967113338000,3.845189,1.45502708608876,-9.61446650637259,0.478516592030191,-0.050396383,0.026572637,0.011911872,182.31345,99.12583,8.405228,STD
5967118093000,3.849944,1.44679465654886,-9.60623433471934,0.474400364365904,-0.03756821,0.033292156,0.014966198,182.31425,99.12697,8.410499,STD
5967123137000,3.854988,1.43806187535027,-9.59750182708126,0.470033960088584,-0.038789943,0.023823744,0.009773844,182.3169,99.13775,8.422527,STD
5967128115000,3.859966,1.44020955918598,-9.59227240229885,0.450820908942906,-0.032375857,0.013439035,0.0033597588,182.32123,99.14563,8.433957,STD
5967133107000,3.864958,1.44471378801583,-9.58776812643678,0.428299990548332,-0.02565634,0.0061086523,0.0033597588,182.32372,99.15309,8.444701,STD
5967138133000,3.869984,1.45310366327642,-9.58288102691945,0.396859185882476,-0.021685716,-0.002443461,0.01160644,182.32184,99.15823,8.452798,STD
5967143057000,3.874908,1.46298235124123,-9.57794155399602,0.362283576857652,-0.01740966,-0.009468411,0.01160644,182.31824,99.16458,8.462899,STD
5967148113000,3.879964,1.46712410526106,-9.57867974437027,0.343105620611798,-0.009162978,-0.011301007,0.016493361,182.32207,99.16592,8.467287,STD
5967153114000,3.884965,1.46951019418095,-9.58106588312076,0.328789077126345,-0.020463986,-0.016187929,0.008246681,182.32278,99.172295,8.475127,STD
5967158122000,3.889973,1.47189962295735,-9.58345536179753,0.314452494487844,-0.012217305,-0.021380283,0.009468411,182.32349,99.17555,8.480636,STD
5967163313000,3.895164,1.47437636512555,-9.58593215568952,0.299592031133918,-0.010079277,-0.015271631,0.008246681,182.32593,99.1833,8.489125,STD
5967168092000,3.899943,1.48577311428571,-9.59732876190476,0.30417762952381,-0.01038471,-0.010079277,0.005192355,182.32486,99.189896,8.498127,STD
5967173132000,3.904983,1.50016830426484,-9.61172375146635,0.313774422843225,-0.027488936,-0.018020526,0.0061086523,182.32188,99.19717,8.50601,STD
5967178114000,3.909965,1.50704851319378,-9.63605355204532,0.33348420054542,-0.0106901415,-0.013439035,0.0125227375,182.32227,99.20366,8.514486,STD
5967183101000,3.914952,1.51163459938544,-9.66357016497023,0.356414650658729,-0.028099801,-0.011911872,0.013744468,182.31956,99.2165,8.523739,STD
5967188150000,3.920001,1.50365844500434,-9.67573405097017,0.37655460659137,-0.016798794,-0.0033597588,0.008857546,182.31613,99.22881,8.537334,STD
5967193121000,3.924972,1.48987151398784,-9.68032979061686,0.394937190877498,-0.021380283,-0.0030543262,0.0015271631,182.31096,99.24464,8.550851,STD
5967198111000,3.929962,1.47022671479011,-9.66230228226756,0.405061537041977,-0.02443461,-0.009468411,0.0033597588,182.30734,99.25622,8.563019,STD
5967203118000,3.934969,1.44671208277756,-9.62938160102001,0.409764463444488,-0.020463986,-0.009468411,0.0018325958,182.308255640052,99.2639303897272,8.57132480593584,STD
5967208118000,3.939969,1.41942172933754,-9.59669942829411,0.409172022975006,-0.023823744,0.0030543262,-0.0030543262,182.30917,99.27163,8.579619,STD
5967213108000,3.944959,1.38927142523659,-9.56422991846639,0.404533514651784,-0.014966198,0.004886922,-0.0015271631,182.30911,99.27875,8.588509,STD
5967218111000,3.949962,1.35904257324921,-9.53167581873332,0.39988292203834,-0.010079277,0.010995574,0.006414085,182.3156,99.2804,8.592457,STD
5967223173000,3.955024,1.32845723470032,-9.49873781096821,0.39517748533851,-0.027488936,0.016493361,0.003970624,182.32227,99.28579,8.598854,STD
5967228090000,3.959941,1.29744457100861,-9.47895638404434,0.396814224927249,-0.019547688,0.015271631,0.0070249503,182.32893,99.28435,8.6013565,STD
5967233102000,3.964953,1.2641878203009,-9.47420532752648,0.406316139526873,-0.018936822,0.016187929,0.0076358155,182.33763,99.286804,8.605345,STD
5967238119000,3.96997,1.2389779432145,-9.48347595538704,0.401791081175891,-0.023518313,0.003970624,0.008552114,182.34113,99.27668,8.595858,STD
5967243112000,3.974963,1.22485041837699,-9.51173110340752,0.378245196612173,-0.016493361,0.0061086523,0.01160644,182.34892,99.264786,8.586096,STD
5967248045000,3.979896,1.21797951649161,-9.5444481123996,0.358743606922675,-0.025961773,0.0076358155,0.011911872,182.34549,99.24979,8.571653,STD
5967253117000,3.984968,1.22259655271613,-9.58600134199895,0.344892488607005,-0.016493361,0.005192355,0.014660766,182.34157,99.23093,8.555908,STD
5967258043000,3.989894,1.22708068529538,-9.62635844156647,0.331440081504681,-0.011301007,-0.005192355,0.011301007,182.32918,99.21587,8.539356,STD
5967263109000,3.99496,1.23169225972625,-9.66786251513711,0.317605348581341,-0.0012217305,0.0033597588,0.011911872,182.3217,99.1978,8.521501,STD
5967268105000,3.999956,1.23995331597258,-9.70312312815453,0.302821637729775,-0.012217305,-0.006414085,0.017715093,182.30249,99.18137,8.50414,STD
5967273149000,4.005,1.26503654284972,-9.71315664939246,0.282755003844636,-0.016187929,0.008552114,0.015882496,182.2929,99.165276,8.489608,STD
5967278078000,4.009929,1.28646535870758,-9.71411228258484,0.272910624807059,-0.008246681,0.01985312,0.023823744,182.27866,99.145996,8.469895,STD
5967283114000,4.014965,1.29916888370868,-9.68870523258264,0.291965859249309,-0.013439035,0.019547688,0.02107485,182.26529,99.1321,8.454115,STD
5967288179000,4.02003,1.31194556244787,-9.66315187510426,0.311130823993152,-0.030848695,0.021991149,0.021685716,182.2547,99.12132,8.4414015,STD
5967293126000,4.024977,1.3244245811493,-9.63819383770139,0.329849299923614,-0.03390302,0.020463986,0.01985312,182.24287,99.111115,8.430293,STD
5967298068000,4.029919,1.33689098713728,-9.61326102572545,0.34854885683656,-0.05131268,0.029932396,0.016493361,182.23505,99.10471,8.41988,STD
5967303110000,4.034961,1.34403789105119,-9.59896742370066,0.367481431064869,-0.05222898,0.04062254,0.011911872,182.22719,99.09773,8.410516,STD
5967308118000,4.039969,1.34872337506839,-9.58959674921845,0.386223376918718,-0.05955936,0.043982297,0.02321288,182.22028,99.090065,8.397784,STD
5967313131000,4.044982,1.33766321380417,-9.59588380738363,0.402149026260032,-0.061391957,0.042455133,0.019242255,182.2205,99.09169,8.398489,STD
5967318090000,4.049941,1.31860568924559,-9.61017675180578,0.416442179628812,-0.06169739,0.041233405,0.011911872,182.22191,99.09184,8.397083,STD
5967323212000,4.055063,1.31830515772154,-9.63396173876648,0.424520778860772,-0.057726767,0.03481932,0.015882496,182.21634,99.09251,8.397014,STD
5967328116000,4.059967,1.32734289989416,-9.66107505965554,0.42903964994708,-0.059253927,0.035430185,0.025350908,182.21252,99.09412,8.397473,STD
5967333125000,4.064976,1.33383551429655,-9.67523436983314,0.413670745965112,-0.04337143,0.03726278,0.024740042,182.20517,99.09013,8.395299,STD
5967338206000,4.070057,1.33844868464164,-9.67984763651877,0.383685119453925,-0.036651913,0.030543262,0.018020526,182.19566,99.08645,8.392089,STD
5967343111000,4.074962,1.34290206006826,-9.6843011049488,0.354738160580205,-0.043676864,0.028710667,0.01985312,182.19443,99.078476,8.386045,STD
5967348608000,4.080459,1.34789292749336,-9.6892920766022,0.322297501471369,-0.028710667,0.028099801,0.016187929,182.19142,99.07071,8.383451,STD
5967353095000,4.084946,1.35738330098039,-9.68291212377451,0.294114185919118,-0.02321288,0.030543262,0.022602014,182.18898,99.06169,8.377536,STD
5967358122000,4.089973,1.37704938496732,-9.65832951879085,0.259698518406863,-0.020158553,0.03848451,0.023518313,182.18782,99.053856,8.374356,STD
5967363110000,4.094961,1.39914763410979,-9.64910023474179,0.248179030173348,-0.007941248,0.04062254,0.019242255,182.18678,99.049736,8.371595,STD
