timestamp,rel_time,acc_x,acc_y,acc_z,gyro_x,gyro_y,gyro_z,azimuth,pitch,roll,label
307745484000,0,-0.12449849,9.931149,-0.82581671402148,-0.010079277,-0.020158553,-0.0021380284,0,0,0,STD
307750505000,0.005021,-0.12449849,9.931149,-0.835380201137629,-0.015271631,-0.01863139,0.00061086525,0.0031247186,0.0059226104,0.0049413084,STD
307755470000,0.009986,-0.126551603431912,9.931149,-0.843785556179996,-0.015577064,-0.013439035,0.003970624,334.38086,-3.3313804,-41.977707,STD
307760460000,0.014976,-0.135942103913343,9.931149,-0.848480803969346,-0.015577064,-0.016798794,0.004276057,316.83856,-40.570576,-23.351318,STD
307765451000,0.019967,-0.141228301238086,9.93034105076909,-0.848296134834387,-0.020463986,-0.019547688,-0.004276057,317.72864,-59.439873,-8.73249,STD
307770488000,0.025004,-0.127572065931868,9.92578888043786,-0.825535739488535,-0.021685716,-0.015882496,-0.0018325958,324.04678,-68.0407,-1.5411005,STD
307775673000,0.030189,-0.11345275201458,9.91961344094178,-0.805431044641907,-0.019547688,-0.016187929,-0.004581489,329.8493,-73.039825,1.6455498,STD
307780446000,0.034962,-0.0999437090966407,9.90160149029652,-0.814437066984534,-0.022602014,-0.010079277,-0.0061086523,334.40714,-76.45518,3.0784652,STD
307785613000,0.040129,-0.0856542754851629,9.88299650227562,-0.82360536,-0.0143553335,-0.018020526,-0.00580322,338.3836,-79.012825,3.7408278,STD
307790457000,0.044973,-0.0772089735699982,9.8787737653377,-0.82360536,-0.01740966,-0.014660766,-0.002443461,341.39438,-80.92405,3.9489763,STD
307795468000,0.049984,-0.0684725144665939,9.87440544684143,-0.82360536,-0.017715093,-0.004581489,-0.0067195175,343.53394,-82.44409,3.9746435,STD
307800693000,0.055209,-0.0715469120823617,9.87819735436945,-0.832623899232003,-0.014049901,-0.0015271631,0.0015271631,345.26904,-83.628784,3.8995256,STD
307805317000,0.059833,-0.076283583565515,9.88293412279388,-0.842097258025457,-0.02107485,-0.013133603,-0.0036651916,346.7014,-84.56276,3.7606804,STD
307810353000,0.064869,-0.076614454,9.86973219938037,-0.82922646315011,-0.018020526,0.003970624,0.005192355,347.96783,-85.31963,3.6181755,STD
307815323000,0.069839,-0.076614454,9.8554614548271,-0.81495599674995,-0.028099801,0.0018325958,-0.004581489,349.04382,-85.91386,3.4580686,STD
307820336000,0.074852,-0.0945071828058958,9.84558792192013,-0.809555380834578,-0.024740042,0.01740966,-0.0015271631,349.78925,-86.38087,3.3115032,STD
307825258000,0.079774,-0.113285010350164,9.8361993086346,-0.804860927134748,-0.021380283,0.012217305,-0.002443461,350.44907,-86.72457,3.1627164,STD
307830383000,0.084899,-0.127040430769784,9.835381,-0.792333034538759,-0.022907447,0.015577064,-0.00061086525,351.0665,-86.962585,3.011967,STD
307835350000,0.089866,-0.139858538749663,9.835381,-0.779514953327944,-0.03176499,0.01863139,0.003970624,351.61215,-92.87031,2.8702981,STD
307840339000,0.094855,-0.126185123459728,9.82140713745206,-0.76524118547735,-0.022296581,0.02107485,-0.013744468,352.0563,-92.75101,2.7249928,STD
307845368000,0.099884,-0.101223081680522,9.80143710200062,-0.750263919539753,-0.0143553335,0.018936822,0.003970624,352.45663,-92.69254,2.5993695,STD
307850668000,0.105184,-0.13943395685407,9.80898211998026,-0.504843693174149,-0.02107485,0.021380283,0.00030543262,352.83658,-92.66447,2.4665232,STD
307855384000,0.1099,-0.188452845380562,9.82235117730636,-0.233011694271337,-0.03023783,0.01282817,-0.004886922,353.18588,-92.672806,2.3455083,STD
307860406000,0.114922,-0.156535357098645,9.84980708245482,-0.533142586031626,-0.022907447,0.017104227,0.0033597588,353.4861,-92.73439,2.248483,STD
307865437000,0.119953,-0.0975790428040286,9.88155248409262,-1.02293353582267,-0.016493361,0.011301007,-0.0033597588,353.7666,-92.8052,2.1509297,STD
307870384000,0.1249,-0.0792022484167023,9.87731445939933,-1.09876469270985,-0.0143553335,0.0125227375,0.004581489,354.0122,-92.83192,2.0497494,STD
307875403000,0.129919,-0.0833150223804227,9.85263817463849,-0.942479251167964,-0.02321288,0.013133603,0.0067195175,354.2443,-92.85919,1.9498776,STD
307880376000,0.134892,-0.101134592594923,9.84434686817406,-0.771914534332338,-0.028099801,0.014049901,-0.0012217305,354.45627,-92.949295,1.8637215,STD
307885405000,0.139921,-0.152501660004266,9.87516665699659,-0.561309550981229,-0.021685716,0.015882496,-0.0015271631,354.65106,-93.046906,1.7859955,STD
307890392000,0.144908,-0.179955944798568,9.89484442494778,-0.590786937809609,-0.035124753,0.013133603,0.004581489,354.80426,-93.1104,1.714735,STD
307895386000,0.149902,-0.175198500340197,9.8996019637919,-0.947595147995623,-0.027794369,0.002443461,0.008552114,354.94904,-93.179565,1.6467537,STD
307900462000,0.154978,-0.193091243949408,9.88378020726234,-1.05939174320685,-0.02443461,0.013744468,0.011911872,355.1309,-93.21089,1.5716991,STD
307905411000,0.159927,-0.24143439245206,9.84027151091391,-0.827344672796818,-0.03023783,0.018325957,0.009773844,355.3066,-93.24083,1.4996281,STD
307910421000,0.164937,-0.2681506,9.82269259996043,-0.587034859343159,-0.026572637,0.013439035,0.0027488936,355.48923,-93.31861,1.4252476,STD
307915417000,0.169933,-0.2681506,9.83689134167573,-0.340919731817193,-0.021380283,0.0106901415,0.0021380284,355.65805,-93.39635,1.356446,STD
307920346000,0.174862,-0.264236003154139,9.85474347678624,-0.224600500637279,-0.021991149,0.018020526,0.0015271631,355.8044,-93.44384,1.2763821,STD
307925399000,0.179915,-0.254776195472583,9.87839295894829,-0.281359297337504,-0.03268129,0.01282817,-0.00030543262,355.94745,-93.48912,1.1992317,STD
307930365000,0.184881,-0.244773164415147,9.89424896361787,-0.338561582139113,-0.01985312,0.024129177,-0.00030543262,356.014185879307,-93.4983477992432,1.16669554803824,STD
307935441000,0.189957,-0.233362820003912,9.89805248853767,-0.399416749684688,-0.022907447,0.014966198,0.008552114,356.0824,-93.50778,1.1334387,STD
307940369000,0.194885,-0.222285164909631,9.90174511477975,-0.458497574283702,-0.024129177,0.010995574,0.0067195175,356.21442,-93.519,1.0666044,STD
307945381000,0.199897,-0.213029412643277,9.91327392707568,-0.581439158475386,-0.028099801,0.008552114,0.010079277,356.3372,-93.549194,1.0088642,STD
307951117000,0.205633,-0.202938936250918,9.92840994985305,-0.737841555727406,-0.027183503,0.01160644,0.012217305,356.454,-93.57795,0.9525821,STD
307955450000,0.209966,-0.20111294,9.92798515249649,-0.756653155704833,-0.022602014,0.013744468,0.0106901415,356.54874,-93.61617,0.9006348,STD
307960402000,0.214918,-0.20111294,9.92323025937437,-0.742388774233006,-0.027488936,0.008552114,0.009162978,356.64056,-93.648636,0.851197,STD
307965434000,0.21995,-0.188481456202734,9.93420341125412,-0.775308564581463,-0.023823744,0.008857546,0.0033597588,356.7208,-93.6998,0.802581,STD
307970442000,0.224958,-0.169341222963185,9.95334353457049,-0.832729284286142,-0.037873644,-0.00030543262,0.004886922,356.8016,-93.74312,0.7573685,STD
307975464000,0.22998,-0.156674784517251,9.95068273441577,-0.932037942070165,-0.023518313,0.0070249503,0.009162978,356.87433,-93.788124,0.7136596,STD
307980417000,0.234933,-0.147506148211076,9.93692998579298,-1.05123018532908,-0.018020526,0.007941248,0.008857546,356.94812,-93.82487,0.6705913,STD
307985409000,0.239925,-0.149112767600666,9.92568822406192,-1.11498445474674,-0.027488936,0.0033597588,0.009773844,357.01773,-93.86748,0.63649374,STD
307990418000,0.244934,-0.1585122466425,9.91628855853826,-1.13848312781425,-0.03176499,0.0018325958,0.01160644,357.0832,-93.9111,0.60404634,STD
307995377000,0.249893,-0.16280572,9.90513973557263,-1.1720680234322,-0.024129177,0.004886922,0.006414085,357.14502,-93.96902,0.5727397,STD
308000491000,0.255007,-0.16280572,9.89201438091835,-1.21581986043416,-0.038789943,0.011911872,0.004581489,357.2034,-94.017815,0.5442108,STD
308005372000,0.259888,-0.16280572,9.87806014712941,-1.23327421201772,-0.042760566,0.007941248,0.0061086523,357.26556,-94.07491,0.5134521,STD
308010422000,0.264938,-0.16280572,9.86020382444157,-1.19309827838287,-0.04153884,0.01160644,0.008857546,357.32095,-94.12764,0.48410705,STD
308015514000,0.27003,-0.16280572,9.84692695253165,-1.14828739905063,-0.043066,0.013133603,0.002443461,357.37195,-94.17462,0.45226142,STD
308021295000,0.275811,-0.16280572,9.86152733148734,-1.07042028662975,-0.043982297,0.025045475,-0.00061086525,357.41693,-94.22201,0.4236775,STD
308025372000,0.279888,-0.16280572,9.87182412183544,-1.01550518243671,-0.049480084,0.015577064,0.0009162979,357.45996,-94.259834,0.39474595,STD
308030410000,0.284926,-0.16280572,9.89220596024822,-0.942603596483497,-0.04184427,0.014049901,0.0027488936,357.49576,-94.30073,0.36662358,STD
308035426000,0.289942,-0.16280572,9.91380737620289,-0.869158737125641,-0.046120327,0.020463986,0.00061086525,357.53043,-94.33624,0.33886382,STD
308040420000,0.294936,-0.171868465977659,9.92459297736259,-0.773277918063464,-0.047036625,0.019547688,0.005192355,357.56006,-94.37191,0.314018,STD
308045484000,0.3,-0.186250711552985,9.92938715767102,-0.663013988597272,-0.044593163,0.016493361,0.007330383,357.5874,-94.40617,0.28890967,STD
308050398000,0.304914,-0.19153613,9.91308408052724,-0.565287009910411,-0.041233405,0.021380283,0.0076358155,357.61484,-94.43415,0.26718867,STD
308055441000,0.309957,-0.19153613,9.88324412346823,-0.470794073941922,-0.05375614,0.0143553335,0.008552114,357.64563,-94.45701,0.24663112,STD
308060411000,0.314927,-0.19153613,9.86815201878015,-0.41285375460889,-0.044593163,0.008857546,0.004581489,357.66754,-94.47349,0.22072846,STD
308065692000,0.320208,-0.19153613,9.85943800482426,-0.369284567422467,-0.05131268,0.007941248,0.0030543262,357.68967,-94.480896,0.19650342,STD
308070398000,0.324914,-0.194722580837571,9.85294074297227,-0.314493768688477,-0.045814894,0.010079277,0.00030543262,357.7021,-94.482765,0.17001112,STD
308075419000,0.329935,-0.203949322276696,9.84832728072532,-0.226839758737408,-0.044898596,0.004886922,-0.0018325958,357.71667,-94.480965,0.14388277,STD
308080382000,0.334898,-0.206698557777301,9.844957,-0.16280572,-0.03726278,-0.0027488936,0.002443461,357.72647,-94.47126,0.11866597,STD
308085422000,0.339938,-0.191165269126797,9.844957,-0.16280572,-0.03604105,-0.0027488936,0.0030543262,357.73544,-94.45978,0.092663184,STD
308091085000,0.345601,-0.186256007035795,9.85999545150474,-0.156360703324671,-0.03604105,-0.012217305,0.0030543262,357.76328,-94.43411,0.069433264,STD
308095415000,0.349931,-0.193208402986839,9.88432896982144,-0.145932107583201,-0.028710667,-0.011301007,0.004581489,357.7877,-94.411095,0.047649004,STD
308100583000,0.355099,-0.200766313138573,9.91164836608066,-0.13546180762668,-0.026267206,-0.01282817,0.003970624,357.80295,-94.38567,0.026714042,STD
308105426000,0.359942,-0.193914419710445,9.90479633313636,-0.162869384916531,-0.028710667,-0.016798794,0.0067195175,357.8186,-94.36093,0.0076849223,STD
308110429000,0.364945,-0.186836157719752,9.89771792702024,-0.191182436574826,-0.032986723,-0.020463986,-0.0036651916,357.82883,-94.334,-0.01918995,STD
308115423000,0.369939,-0.176611321263424,9.898189116235,-0.218711763802906,-0.03390302,-0.0143553335,0.006414085,357.83792,-94.30653,-0.03871148,STD
308120428000,0.374944,-0.159308940056854,9.91549184523057,-0.244665337871131,-0.028710667,-0.014966198,0.016798794,357.8498,-94.27895,-0.06066788,STD
308125391000,0.379907,-0.144280704891107,9.92863456336963,-0.280408389140956,-0.039095376,-0.01282817,0.016798794,357.86102,-94.24613,-0.07880183,STD
308130427000,0.384943,-0.151574839065336,9.89945782864489,-0.422643933182093,-0.03970624,-0.013744468,0.015271631,357.87335,-94.21725,-0.094100304,STD
308135428000,0.389944,-0.158818279296733,9.87048387106775,-0.563890945840895,-0.04062254,-0.011301007,0.01740966,357.87546,-94.184845,-0.10494451,STD
308140437000,0.394953,-0.169240327858632,9.85667891333267,-0.686688284125881,-0.03726278,-0.0076358155,0.014660766,357.8774,-94.153595,-0.117285624,STD
308145404000,0.39992,-0.183407303582845,9.86140133555048,-0.785857178298422,-0.034208454,-0.0036651916,0.013133603,357.8787,-94.12206,-0.12830529,STD
308150429000,0.404945,-0.189412183839095,9.86623499051698,-0.876742160752524,-0.043066,0.0018325958,0.015271631,357.88663,-94.11121,-0.14047247,STD
308155419000,0.409935,-0.184539314256144,9.87110796186397,-0.954708124961762,-0.035430185,-0.008246681,0.0106901415,357.89758,-94.10625,-0.15483342,STD
308160443000,0.414959,-0.185284202396152,9.87867523655444,-1.02591177066025,-0.042760566,-0.004581489,0.008246681,357.91446,-94.110725,-0.16827847,STD
308165388000,0.419904,-0.192186592823932,9.88902867264247,-1.088033324151,-0.03940081,0.01160644,0.0125227375,357.93018,-94.12025,-0.18066071,STD
308170424000,0.42494,-0.199216003985571,9.89957263707914,-1.15129806497595,-0.05100725,0.0143553335,0.0067195175,357.94794,-94.12876,-0.19563353,STD
308175416000,0.429932,-0.187815583774126,9.89576953363272,-1.17834351196255,-0.046731193,0.009773844,0.0027488936,357.9629,-94.14291,-0.2082925,STD
308180436000,0.434952,-0.169441587557806,9.88658282811007,-1.19212400193006,-0.042455133,0.013744468,0.005497787,357.97427,-94.15401,-0.22002837,STD
308185435000,0.439951,-0.165301767513089,9.883265,-1.18212458885798,-0.042760566,0.010995574,0.0021380284,357.9914,-94.17222,-0.23689051,STD
308190424000,0.44494,-0.169210361688482,9.883265,-1.15867298299247,-0.046120327,0.01160644,0.0009162979,358.0061,-94.19068,-0.25171807,STD
308195394000,0.44991,-0.168674200721043,9.88790039667858,-1.12944211762666,-0.04520403,0.007330383,0.005497787,358.018,-94.21607,-0.2615496,STD
308200437000,0.454953,-0.14836903880597,9.91328183582089,-1.07360289850746,-0.03573562,0.006414085,0.003970624,358.02832,-94.2432,-0.27300686,STD
308205380000,0.459896,-0.1413255665,9.92907745326087,-1.00218677445652,-0.03756821,0.01282817,0.0030543262,358.0417,-94.2641,-0.2821616,STD
308210420000,0.464936,-0.1675576865,9.92158240978261,-0.886015948369565,-0.03573562,0.007330383,0.007330383,358.05844,-94.288635,-0.2902577,STD
308215396000,0.469912,-0.193456700214286,9.91418254145963,-0.771320307375776,-0.04153884,0.016187929,0.007941248,358.06384,-94.3019,-0.29489025,STD
308220402000,0.474918,-0.190995185763598,9.90693601987448,-0.694413640533473,-0.042455133,0.0143553335,0.0033597588,358.07358,-94.31708,-0.30001378,STD
308225387000,0.479903,-0.176727291882845,9.89980192767483,-0.633775085953377,-0.050701816,0.022602014,0.005192355,358.07788,-94.32831,-0.30260506,STD
308230545000,0.485061,-0.163058737541337,9.89182893511862,-0.570813134237958,-0.0421497,0.026572637,0.0061086523,358.0834,-94.328156,-0.31570634,STD
308235442000,0.489958,-0.167273114751977,9.87497151428828,-0.50759743207225,-0.04886922,0.029626964,0.01038471,358.08688,-94.32127,-0.3267749,STD
308240354000,0.49487,-0.171500401020848,9.85806245749461,-0.444188093898275,-0.049785517,0.029321533,0.005497787,358.08835,-94.3091,-0.3343851,STD
308245411000,0.499927,-0.17855083913099,9.84836587731629,-0.378525582555911,-0.053450707,0.025045475,-0.00030543262,358.0901,-94.294464,-0.34088957,STD
308250433000,0.504949,-0.186233700905751,9.84068326022364,-0.313221251453674,-0.054061573,0.029932396,0.0030543262,358.08936,-94.28064,-0.3457823,STD
308255396000,0.509912,-0.195517748102203,9.83405376717275,-0.253551332701352,-0.04734206,0.031154128,0.0033597588,358.0878,-94.26674,-0.3552192,STD
308260415000,0.514931,-0.208866940657286,9.82960394649139,-0.204604290235142,-0.055283304,0.03848451,0.0012217305,358.0832,-94.24864,-0.36388528,STD
308265406000,0.519922,-0.223123584998942,9.82532781797024,-0.157567823082023,-0.06261369,0.029626964,0.0015271631,358.09097,-94.21903,-0.37067598,STD
308270421000,0.524937,-0.243447032544608,9.82194050892165,-0.120308173374709,-0.044898596,0.03940081,0.0027488936,358.09125,-94.19504,-0.37706527,STD
308275356000,0.529872,-0.263446277537203,9.81860723471331,-0.083642894948868,-0.052839845,0.042760566,-0.0033597588,358.09802,-94.15911,-0.3883208,STD
308280413000,0.534929,-0.282386140624074,9.82243861741062,-0.0652254087878147,-0.054061573,0.031154128,0.0015271631,358.10648,-94.130486,-0.39594853,STD
308285416000,0.539932,-0.297590106274593,9.84271045166067,-0.0905653550666385,-0.043982297,0.030543262,-0.0009162979,358.1105,-94.10384,-0.40682885,STD
308290404000,0.54492,-0.308796658685701,9.85570344254365,-0.112361393614913,-0.04550946,0.026267206,0.004886922,358.11856,-94.06862,-0.4223233,STD
308295458000,0.549974,-0.314507040674847,9.85855869018405,-0.129492533619632,-0.037873644,0.025045475,0.0018325958,358.12573,-94.03994,-0.44051674,STD
308300505000,0.555021,-0.320209513547664,9.86140998318782,-0.146599946283624,-0.0421497,0.015577064,-0.0036651916,358.1456,-94.01266,-0.45748094,STD
308305537000,0.560053,-0.325799632030063,9.86486376419009,-0.170897982794958,-0.03023783,0.006414085,-0.0030543262,358.16562,-93.99185,-0.47323698,STD
308310464000,0.56498,-0.329493744110233,9.87964013536366,-0.32974491024818,-0.028405234,-0.002443461,0.0012217305,358.18796,-93.96692,-0.4893202,STD
308315503000,0.570019,-0.333271830323338,9.89475240131527,-0.492202727872857,-0.02687807,-0.004886922,0.009773844,358.21594,-93.94618,-0.5042794,STD
308320486000,0.575002,-0.333027718192973,9.89809709174568,-0.596213640630229,-0.02565634,-0.013439035,0.0030543262,358.24756,-93.92617,-0.52238894,STD
308325435000,0.579951,-0.328622105328128,9.88928614203384,-0.640269815281651,-0.021685716,-0.010079277,0.0070249503,358.2764,-93.906555,-0.5346113,STD
308330503000,0.585019,-0.324349303009458,9.88578918963496,-0.691832797209411,-0.028710667,-0.021685716,0.007330383,358.31885,-93.911705,-0.54850453,STD
308335430000,0.589946,-0.320660958435082,9.89316563229891,-0.754534562542015,-0.03023783,-0.022296581,0.0033597588,358.35657,-93.91912,-0.56205237,STD
308340469000,0.594985,-0.31688877083405,9.90070975541312,-0.818661657226608,-0.032375857,-0.021991149,0.004886922,358.39603,-93.93447,-0.5731557,STD
308346230000,0.600746,-0.311993997534247,9.91049941369863,-0.889750956712329,-0.03634648,-0.015271631,-0.0076358155,358.4328,-93.94908,-0.58915037,STD
308350868000,0.605384,-0.307937632383562,9.91861231342466,-0.946540111178082,-0.03145956,-0.025045475,0.005497787,358.47415,-93.963844,-0.59756213,STD
308355329000,0.609845,-0.294773231744878,9.90988747884997,-0.993547840350298,-0.03756821,-0.027183503,-0.0027488936,358.5011,-93.9818,-0.61887074,STD
308360365000,0.614881,-0.273522387955497,9.88863675710509,-1.04136226938753,-0.049785517,-0.02443461,-0.003970624,358.5294,-93.998,-0.63422126,STD
308365327000,0.619843,-0.2681506,9.883265,-1.01109651870629,-0.031154128,-0.03268129,0.0030543262,358.5544,-94.028755,-0.6518133,STD
308370333000,0.624849,-0.2681506,9.883265,-0.953624163011988,-0.032986723,-0.03023783,0.005192355,358.57516,-94.049995,-0.6704084,STD
308375322000,0.629838,-0.247154959731477,9.89026332143212,-0.914032139398309,-0.038179077,-0.034513887,0.0033597588,358.5966,-94.07812,-0.6846413,STD
308380367000,0.634883,-0.218324528279463,9.89987315584287,-0.880396640218797,-0.03940081,-0.032070424,0.005497787,358.61523,-94.10603,-0.69666815,STD
308385348000,0.639864,-0.200623194112275,9.90577358636932,-0.807734555387869,-0.036651913,-0.033292156,0.005497787,358.624798304152,-94.1170465068534,-0.7031838412006,STD
308390362000,0.644878,-0.186775811061232,9.91038947390176,-0.720034475583966,-0.032070424,-0.038789943,0.0106901415,358.63443,-94.128136,-0.7097427,STD
308395341000,0.649857,-0.18195933,9.90250826426457,-0.654744898193325,-0.03390302,-0.02443461,0.005192355,358.6465,-94.147354,-0.7244733,STD
308400404000,0.65492,-0.18195933,9.88766086301929,-0.600303637993263,-0.04153884,-0.022907447,0.0015271631,358.6588,-94.16135,-0.7319486,STD
308405335000,0.659851,-0.188562563502762,9.88986802320442,-0.541264206718232,-0.034513887,-0.018936822,0.00030543262,358.66888,-94.16937,-0.73382556,STD
308410360000,0.664876,-0.198230759409342,9.8995359112004,-0.478420910610748,-0.04062254,-0.020158553,0.0009162979,358.6798,-94.17137,-0.7362989,STD
308415513000,0.670029,-0.194346417232747,9.88550170191378,-0.402171277646433,-0.03573562,-0.0070249503,-0.00061086525,358.6879,-94.16708,-0.73789424,STD
308420351000,0.674867,-0.185389799682003,9.86311016972743,-0.326040016774599,-0.04153884,-0.018020526,0.0009162979,358.70313,-94.15794,-0.7390094,STD
308425333000,0.679849,-0.188029586830751,9.86363957064722,-0.284740496830751,-0.04550946,-0.0143553335,-0.004886922,358.7143,-94.14718,-0.7421394,STD
308430396000,0.684912,-0.197851801702623,9.87837319295047,-0.265096051702623,-0.03573562,-0.022602014,-0.004276057,358.73193,-94.13825,-0.74353987,STD
308435344000,0.68986,-0.20111294,9.87766384371643,-0.230568558815789,-0.03481932,-0.013133603,-0.0070249503,358.7412,-94.10964,-0.7454582,STD
308440336000,0.694852,-0.20111294,9.86910523576799,-0.187776390394737,-0.03481932,-0.020463986,-0.0036651916,358.7576,-94.083786,-0.74602956,STD
308445321000,0.699837,-0.207617466905594,9.85760656818182,-0.143292137924825,-0.03481932,-0.018325957,-0.0070249503,358.76685,-94.06397,-0.75215155,STD
308450399000,0.704915,-0.223558580625,9.8416656875,-0.0954687934375,-0.03176499,-0.02076942,-0.0036651916,358.77957,-94.04456,-0.75559825,STD
308455331000,0.709847,-0.239866597470977,9.84540417467405,-0.0891434971755671,-0.025961773,-0.020463986,0.0012217305,358.7853,-94.02125,-0.76239043,STD
308460472000,0.714988,-0.257453445197357,9.86299091221647,-0.111127050406144,-0.02443461,-0.014049901,0.00580322,358.79004,-93.99757,-0.76808405,STD
308465409000,0.719925,-0.262664571916869,9.8755167129444,-0.15192863232514,-0.025961773,-0.015577064,-0.0027488936,358.80457,-93.97038,-0.7756358,STD
308470406000,0.724922,-0.247518891070788,9.88056537514506,-0.227657041827197,-0.032986723,-0.019547688,0.005497787,358.81824,-93.94135,-0.776988,STD
308475403000,0.729919,-0.235051709355503,9.883265,-0.29436139649794,-0.03268129,-0.021685716,0.0061086523,358.8346,-93.916595,-0.7864248,STD
308480406000,0.734922,-0.225651512093388,9.883265,-0.350762521177163,-0.032070424,-0.022296581,0.0061086523,358.85162,-93.88981,-0.793641,STD
308485867000,0.740383,-0.209565632169308,9.883265,-0.413034829032036,-0.03359759,-0.021685716,0.005497787,358.85843,-93.872314,-0.80297154,STD
308490423000,0.744939,-0.190778201866173,9.883265,-0.465639632311402,-0.021685716,-0.021685716,0.004581489,358.86557,-93.858864,-0.81220007,STD
308495406000,0.749922,-0.173842819828627,9.88180467069133,-0.521528441518987,-0.01985312,-0.020463986,0.0009162979,358.8654,-93.8482,-0.82362115,STD
308500397000,0.754913,-0.187805188496592,9.86784202015579,-0.563415566962025,-0.01985312,-0.014660766,0.00580322,358.86414,-93.83982,-0.8324666,STD
308505461000,0.759977,-0.20164677189015,9.854534,-0.605207252312302,-0.01863139,-0.016187929,0.0030543262,358.85828,-93.83454,-0.841675,STD
308510423000,0.764939,-0.210275025437131,9.854534,-0.635406150988652,-0.017104227,-0.0125227375,0.0027488936,358.84958,-93.82896,-0.84832495,STD
308515417000,0.769933,-0.218958922699047,9.854534,-0.6657998027399,-0.018020526,-0.0106901415,0.0027488936,358.84732,-93.82832,-0.85647535,STD
308520425000,0.774941,-0.232462505140634,9.86368115260323,-0.691719410353082,-0.013439035,-0.005497787,0.002443461,358.84314,-93.82964,-0.8644049,STD
308525418000,0.779934,-0.246770400821364,9.87441229286355,-0.716758214721724,-0.01038471,0.0018325958,-0.00030543262,358.8379,-93.83042,-0.8726998,STD
308530418000,0.784934,-0.257011044236896,9.88404629801815,-0.738195463289498,-0.0125227375,-0.0012217305,0.009468411,358.83102,-93.83396,-0.8822553,STD
308535421000,0.789937,-0.248136677616225,9.88848311298389,-0.742632648916466,-0.02107485,-0.0036651916,0.007941248,358.82187,-93.83735,-0.8952151,STD
308540719000,0.795235,-0.239816460965517,9.89204846206897,-0.745405774482759,-0.018020526,0.002443461,0.015577064,358.81747,-93.85017,-0.9040153,STD
308545397000,0.799913,-0.244644071269397,9.88239353383621,-0.726095313103448,-0.006414085,0.0067195175,0.0125227375,358.8142,-93.863556,-0.9160154,STD
308550425000,0.804941,-0.247095847526346,9.87178683914713,-0.701079211428805,-0.018325957,-0.0061086523,0.007941248,358.8155,-93.86914,-0.9228191,STD
308555411000,0.809927,-0.235393382521853,9.86008413789723,-0.654269359557226,-0.012217305,-0.009773844,0.007941248,358.81308,-93.88253,-0.92871803,STD
308560435000,0.814951,-0.223601729055633,9.8482922463851,-0.607102753900825,-0.008246681,-0.01863139,0.009162978,358.8165,-93.889206,-0.93658596,STD
308565419000,0.819935,-0.213502990789891,9.84833884846383,-0.580234914517344,-0.008552114,-0.013133603,0.0076358155,358.81683,-93.89639,-0.944805,STD
308570416000,0.824932,-0.204017303062438,9.8530817888999,-0.561263529157582,-0.0106901415,-0.0061086523,0.007330383,358.81934,-93.9038,-0.95226467,STD
308575422000,0.829938,-0.207512204548251,9.84813493925413,-0.533057369069589,-0.013439035,-0.014049901,0.01282817,358.81702,-93.90442,-0.95920974,STD
308580452000,0.834968,-0.216772360094195,9.83887507862361,-0.500646817406767,-0.0027488936,-0.0143553335,0.017104227,358.8106,-93.908195,-0.9660181,STD
308585390000,0.839906,-0.223067810694698,9.84098334003656,-0.460404551828154,0.00061086525,-0.005192355,0.017104227,358.8,-93.90767,-0.97196895,STD
308590440000,0.844956,-0.227721220730299,9.8502898588473,-0.413870466049264,0.01038471,-0.0021380284,0.019547688,358.79153,-93.91126,-0.9759177,STD
308595417000,0.849933,-0.232161073519776,9.854534,-0.385695949121187,0.00580322,-0.004581489,0.016187929,358.78357,-93.90575,-0.98296374,STD
308600555000,0.855071,-0.236614481172957,9.854534,-0.372335744762422,-0.0009162979,-0.004276057,0.012217305,358.77417,-93.90213,-0.98915,STD
308605372000,0.859888,-0.236424462775688,9.854534,-0.34894008795486,0.0030543262,0.0033597588,0.0125227375,358.76398,-93.90114,-0.9954599,STD
308611376000,0.865892,-0.225040737323302,9.854534,-0.29202151418333,0.0027488936,0.0012217305,0.010079277,358.75656,-93.89743,-1.003583,STD
308615412000,0.869928,-0.221611378638298,9.85587885531915,-0.25873680093617,-0.0012217305,-0.009162978,0.013439035,358.74554,-93.89048,-1.0136607,STD
308620407000,0.874923,-0.226036555876966,9.86030412035153,-0.227760564886216,0.004276057,-0.0061086523,0.016187929,358.7315,-93.8862,-1.0239514,STD
308625421000,0.879937,-0.229192685047854,9.86671368350232,-0.201763614952146,0.003970624,-0.0076358155,0.012217305,358.72778,-93.87248,-1.0285627,STD
308630434000,0.88495,-0.224643405361509,9.88491068824031,-0.206312894638491,-0.0036651916,-0.007941248,0.0076358155,358.72296,-93.85818,-1.0323726,STD
308635631000,0.890147,-0.22026655,9.90208397053063,-0.211357795336193,-0.0033597588,-0.004581489,0.0125227375,358.71838,-93.84209,-1.0352035,STD
308640435000,0.894951,-0.22026655,9.89779338879045,-0.219938784093071,0.00580322,0.0012217305,0.017104227,358.71323,-93.82692,-1.0392027,STD
308645482000,0.899998,-0.22026655,9.89328577720787,-0.228953823696727,0.004276057,0.0015271631,0.0076358155,358.71042,-93.808395,-1.0431408,STD
308650411000,0.904927,-0.231427736307207,9.88912091793793,-0.270767712382956,-0.0009162979,-0.0021380284,0.011911872,358.7075,-93.790146,-1.041782,STD
308655533000,0.910049,-0.244329473221112,9.88482070120989,-0.318074084061021,-0.009162978,-0.0070249503,0.0143553335,358.7047,-93.77169,-1.0435668,STD
308661373000,0.915889,-0.256880269557138,9.89508976618148,-0.350954822650976,-0.002443461,-0.01038471,0.009773844,358.70764,-93.755455,-1.0428289,STD
308665396000,0.919912,-0.264834750148653,9.90702130226076,-0.36686376722205,-0.0036651916,-0.015271631,0.013439035,358.71252,-93.73429,-1.0392618,STD
308671151000,0.925667,-0.2681506,9.90058914524922,-0.37349546,-0.004276057,-0.014660766,0.0027488936,358.7238,-93.7215,-1.0404196,STD
308675432000,0.929948,-0.2681506,9.88861551499221,-0.37349546,-0.004581489,-0.016798794,0.0125227375,358.73746,-93.706795,-1.035005,STD
308680404000,0.93492,-0.27109338565545,9.87443645866399,-0.37643824565545,-0.0027488936,-0.014966198,0.008552114,358.7481,-93.702736,-1.0398085,STD
308685450000,0.939966,-0.275947683274736,9.85987326167755,-0.381292543274736,-0.009773844,-0.019547688,0.0033597588,358.7612,-93.69546,-1.0423874,STD
308690453000,0.944969,-0.286675149334255,9.86348192996839,-0.397985177633347,-0.006414085,-0.0290161,0.007330383,358.77045,-93.688995,-1.0468551,STD
308695428000,0.949944,-0.30079346615567,9.87760053180561,-0.421515708945081,-0.0143553335,-0.022907447,0.004581489,358.7763,-93.6786,-1.0543857,STD
308700585000,0.955101,-0.29456768621956,9.87731981205813,-0.427983768106834,-0.009468411,-0.03023783,-0.00030543262,358.79425,-93.674576,-1.0592963,STD
308705416000,0.959932,-0.276395830384918,9.8682336991359,-0.423440806520031,-0.0070249503,-0.033292156,0.011301007,358.80936,-93.66667,-1.0600858,STD
308710459000,0.964975,-0.263335167977954,9.86651876252204,-0.409340928744268,0.0036651916,-0.0290161,0.006414085,358.8214,-93.66625,-1.0726181,STD
308715460000,0.969976,-0.254888315805996,9.870742270194,-0.388223813749559,-0.013133603,-0.038789943,-0.003970624,358.83838,-93.65855,-1.083577,STD
308720387000,0.974903,-0.240533699911975,9.86945627952917,-0.380548186055271,-0.004581489,-0.035124753,-0.003970624,358.842641563315,-93.6574203396548,-1.08496912716235,STD
308725426000,0.979942,-0.210897551215967,9.8546379060389,-0.405244980073695,-0.0033597588,-0.033292156,0.0061086523,358.847,-93.656265,-1.0863929,STD
308730384000,0.9849,-0.194935624298295,9.84722337528409,-0.432711144505682,0.00030543262,-0.025961773,0.0067195175,358.85745,-93.6496,-1.0948579,STD
308735429000,0.989945,-0.205230011294034,9.85408643849432,-0.467025758269886,-0.008552114,-0.026267206,0.004581489,358.85977,-93.64206,-1.1044213,STD
308741206000,0.995722,-0.217018053647727,9.86194529204545,-0.506319221840909,-0.012217305,-0.029321533,0.00061086525,358.864,-93.63262,-1.1041934,STD
308745416000,0.999932,-0.215003177376929,9.864111,-0.503989109816312,-0.014966198,-0.018020526,0.0009162979,358.86423,-93.62109,-1.103165,STD
308750435000,1.004951,-0.20491270098457,9.864111,-0.478762921469508,-0.0106901415,-0.0125227375,0.006414085,358.86694,-93.61066,-1.1019639,STD
308755404000,1.00992,-0.198215524456127,9.86121352697258,-0.46926352,-0.0030543262,-0.012217305,0.006414085,358.86737,-93.60971,-1.106393,STD
308760837000,1.015353,-0.193102936391864,9.85610083747666,-0.46926352,-0.0018325958,-0.005497787,-0.00030543262,358.86444,-93.608315,-1.1108779,STD
308765566000,1.020082,-0.193621211065871,9.85870424486606,-0.465093364399915,-0.0061086523,-0.00580322,0.0070249503,358.8623,-93.60107,-1.1097031,STD
308770486000,1.025002,-0.196969317738222,9.8654005910609,-0.458397161543381,-0.014049901,-0.00580322,-0.004276057,358.86019500263,-93.5994308627038,-1.11172117995792,STD
308776972000,1.031488,-0.201435607705168,9.87401067410676,-0.45010993,-0.0061086523,-0.004276057,-0.00030543262,358.85742,-93.59727,-1.1143816,STD
308780449000,1.034965,-0.204261591611644,9.87683671407961,-0.45010993,-0.008246681,-0.004886922,-0.0012217305,358.85544,-93.58678,-1.1126204,STD
308785429000,1.039945,-0.208309161313757,9.88088436408385,-0.45010993,-0.014049901,-0.01282817,-0.0027488936,358.8653,-93.57033,-1.1074055,STD
308790465000,1.044981,-0.21068975,9.883265,-0.445869890242698,-0.007941248,-0.0012217305,-0.004581489,358.86957,-93.55711,-1.1024463,STD
308795406000,1.049922,-0.21068975,9.883265,-0.435926825961336,-0.0106901415,0.0012217305,0.0012217305,358.87863,-93.5399,-1.09625,STD
308800575000,1.055091,-0.21068975,9.87797038242524,-0.4309563,-0.005497787,-0.0009162979,-0.00030543262,358.88147,-93.52498,-1.0968637,STD
308805379000,1.059895,-0.21068975,9.86854639471528,-0.4309563,-0.0076358155,-0.005192355,0.003970624,358.88437,-93.50687,-1.0942106,STD
308810531000,1.065047,-0.213303165971305,9.86672447054937,-0.428342884028696,-0.017104227,-0.008246681,0.004276057,358.88486,-93.49176,-1.0948826,STD
308815335000,1.069851,-0.217645902161601,9.87106729743251,-0.424000147838399,-0.012217305,-0.002443461,0.00061086525,358.884,-93.48035,-1.0954113,STD
308820361000,1.074877,-0.222324528871489,9.87780382451,-0.42343747672257,-0.008552114,-0.0018325958,0.007330383,358.88562,-93.46466,-1.0931293,STD
308825354000,1.07987,-0.227155506071934,9.88746546615478,-0.428268448878561,-0.00030543262,-0.00030543262,0.0033597588,358.8851,-93.45328,-1.0948235,STD
308830319000,1.084835,-0.22984336,9.88860479338592,-0.4309563,-0.009468411,-0.0076358155,0.004276057,358.88998,-93.435844,-1.0926459,STD
308835342000,1.089858,-0.22984336,9.87887527083333,-0.4309563,-0.0143553335,-0.011911872,0.006414085,358.89346,-93.422424,-1.0912241,STD
308840270000,1.094786,-0.231922264486252,9.873688,-0.433035200144718,-0.016187929,-0.010995574,0.00030543262,358.89102,-93.40976,-1.0977463,STD
308845333000,1.099849,-0.236600261559093,9.873688,-0.437713187448143,-0.013439035,-0.009162978,0.004276057,358.88977,-93.39633,-1.1006935,STD
308850274000,1.10479,-0.23574061048205,9.87552782029899,-0.44605244947422,-0.013439035,-0.007941248,0.0018325958,358.89087,-93.37974,-1.1053524,STD
308855346000,1.109862,-0.225860898150107,9.88046777189057,-0.460872005076782,-0.011301007,-0.013133603,-0.0009162979,358.89334,-93.36468,-1.1089566,STD
308860771000,1.115287,-0.22026655,9.88090015997679,-0.464533941194506,-0.015577064,-0.008552114,0.004276057,358.89334,-93.3488,-1.1116308,STD
308865365000,1.119881,-0.22026655,9.87664474475288,-0.456023292924848,-0.007330383,-0.003970624,0.0027488936,358.89465,-93.338264,-1.1169639,STD
308870299000,1.124815,-0.21642524278993,9.87624878946964,-0.45395123721007,-0.008552114,-0.010079277,0.008857546,358.8991,-93.320595,-1.1152905,STD
308875373000,1.129889,-0.205236498367488,9.88370771356205,-0.465139981632512,-0.003970624,-0.0012217305,0.005192355,358.8978,-93.308334,-1.1165411,STD
308880357000,1.134873,-0.194246214133855,9.89103433509863,-0.476130265866145,-0.0143553335,-0.004886922,0.0067195175,358.89932,-93.29284,-1.1166861,STD
308885347000,1.139863,-0.180304961513356,9.892841,-0.486327793051658,-0.012217305,-0.0021380284,0.006414085,358.89645,-93.282845,-1.1181056,STD
308890291000,1.144807,-0.16554109631847,9.892841,-0.496170366422409,-0.010079277,0.0027488936,0.008246681,358.8941,-93.270164,-1.1184611,STD
308895373000,1.149889,-0.159298292267253,9.89634849731868,-0.483964246393846,-0.01282817,-0.0015271631,0.009468411,358.89633,-93.2547,-1.1133312,STD
308900631000,1.155147,-0.154871490774505,9.90077538663736,-0.466257049667692,-0.014660766,-0.004276057,0.0033597588,358.89658,-93.24109,-1.1098319,STD
308906278000,1.160794,-0.174281176518636,9.88136567486122,-0.449160593076923,-0.012217305,-0.01160644,0.0061086523,358.9003,-93.22083,-1.0994769,STD
308910414000,1.16493,-0.197839665241872,9.85780712053926,-0.437381344615385,-0.013133603,-0.008552114,0.0009162979,358.9015,-93.20132,-1.0932779,STD
308915406000,1.169922,-0.22546262028754,9.84249506277016,-0.435880593523774,-0.018325957,-0.0070249503,0.006414085,358.90198,-93.183044,-1.0845734,STD
308920560000,1.175076,-0.253291338658147,9.83785733452359,-0.445156839438076,-0.018325957,-0.0143553335,0.004581489,358.90387,-93.16769,-1.079705,STD
308925369000,1.179885,-0.270080975071044,9.8431024599706,-0.452040305071044,-0.018936822,-0.013133603,0.0012217305,358.9095,-93.15161,-1.0768387,STD
308930418000,1.184934,-0.274819168427242,9.8620551344439,-0.456778498427242,-0.008857546,-0.0125227375,0.002443461,358.91724,-93.13872,-1.0734619,STD
308935392000,1.189908,-0.274410103099021,9.87534668049141,-0.454710787246444,-0.014049901,-0.015882496,-0.0027488936,358.9342,-93.12366,-1.0745827,STD
308940400000,1.194916,-0.265549824229632,9.87977690550527,-0.441420375881212,-0.005192355,-0.018020526,0.0027488936,358.9506,-93.11439,-1.0724177,STD
308945381000,1.199897,-0.251343401097257,9.88223206920199,-0.431989209226933,-0.01160644,-0.01740966,-0.0033597588,358.96262,-93.10265,-1.0793381,STD
308950398000,1.204914,-0.216396618067332,9.87723957034497,-0.436981603823774,-0.004276057,-0.022296581,0.0036651916,358.97696,-93.09552,-1.0810318,STD
308955525000,1.210041,-0.190043318154077,9.87667353016508,-0.437547476308154,-0.010995574,-0.028710667,0.0030543262,358.98993,-93.079605,-1.0850252,STD
308960444000,1.21496,-0.185330133641821,9.88609960390195,-0.428121107283642,-0.0027488936,-0.023823744,0.0018325958,359.001,-93.06952,-1.0871369,STD
308965492000,1.220008,-0.18195933,9.89429191692247,-0.4213795,-0.008552114,-0.029321533,0.0009162979,359.01434,-93.05636,-1.0823283,STD
308970452000,1.224968,-0.18195933,9.89899554302406,-0.4213795,-0.016493361,-0.0290161,0.00030543262,359.0244,-93.04526,-1.0778571,STD
308975440000,1.229956,-0.187159729328608,9.90371812630439,-0.417479199824769,-0.01038471,-0.024740042,0.0009162979,359.0365,-93.03372,-1.0709674,STD
308980426000,1.234942,-0.205962623492814,9.90841894556015,-0.403377026747391,-0.01160644,-0.013744468,0.005497787,359.0464,-93.018295,-1.0633171,STD
308985443000,1.239959,-0.221325736359447,9.90987658525346,-0.396885823225806,-0.017104227,-0.01282817,-0.0015271631,359.0554,-93.005455,-1.0607641,STD
308990425000,1.244941,-0.225636901753863,9.9012540834011,-0.414130475800127,-0.022602014,-0.016187929,0.0012217305,359.0625,-92.99128,-1.0542387,STD
308996410000,1.250926,-0.228818575685453,9.88976669306931,-0.429931516755522,-0.016798794,-0.0067195175,0.0021380284,359.06567,-92.98609,-1.0549728,STD
309000428000,1.254944,-0.225155245279893,9.87877686633663,-0.426268190175171,-0.014966198,-0.0030543262,-0.004276057,359.07132,-92.979095,-1.0571901,STD
309005392000,1.259908,-0.220629418467251,9.86519958910891,-0.421742368088347,-0.02687807,-0.008552114,-0.0061086523,359.08,-92.97036,-1.0569775,STD
309010470000,1.264986,-0.207156334945398,9.86848115990639,-0.425749568642746,-0.02107485,0.0009162979,-0.004581489,359.08322,-92.96733,-1.0574002,STD
309015395000,1.269911,-0.193359794530031,9.87308009955148,-0.43034841224649,-0.015577064,-0.0027488936,0.0027488936,359.0918,-92.96089,-1.0569582,STD
309020438000,1.274954,-0.19153613,9.873688,-0.414783531544747,-0.025045475,-0.006414085,0.0027488936,359.09897,-92.95257,-1.0557406,STD
309025351000,1.279867,-0.19153613,9.873688,-0.396692272113813,-0.015882496,-0.007941248,0.0033597588,359.1066,-92.950035,-1.0524299,STD
309030405000,1.284921,-0.202125670810584,9.88074746780956,-0.39264908,-0.02076942,-0.0033597588,-0.0030543262,359.11365,-92.94117,-1.0471624,STD
309035428000,1.289944,-0.215571389590049,9.88971099329172,-0.39264908,-0.018325957,-0.008857546,0.0015271631,359.124,-92.93573,-1.0390202,STD
309040398000,1.294914,-0.214058950507911,9.89594486294467,-0.405064278984178,-0.025045475,-0.0033597588,0.007330383,359.13205,-92.926544,-1.0305665,STD
309045412000,1.299928,-0.204380808762471,9.90078403234909,-0.424420562475058,-0.015271631,-0.004886922,0.008552114,359.14346,-92.92264,-1.0226158,STD
309050451000,1.304967,-0.194671289677355,9.89919710925721,-0.4309563,-0.020463986,-0.0021380284,0.009773844,359.16074,-92.90871,-1.0106549,STD
309055423000,1.309939,-0.185099297625892,9.89441101578048,-0.4309563,-0.017715093,-0.008552114,0.0070249503,359.18066,-92.90016,-1.0001323,STD
309060444000,1.31496,-0.185079498380586,9.88036039163864,-0.424715956722729,-0.01740966,-0.003970624,0.007330383,359.18823,-92.893745,-0.99212945,STD
309066298000,1.320814,-0.190467541359923,9.85880833224411,-0.413939859511773,-0.013744468,-0.004886922,0.0036651916,359.1989,-92.88982,-0.9865073,STD
309070440000,1.324956,-0.197009379733512,9.854534,-0.41180268,-0.009468411,-0.002443461,-0.0012217305,359.20566,-92.89089,-0.9797724,STD
309075409000,1.329925,-0.206132686652607,9.854534,-0.41180268,-0.01038471,0.0067195175,0.002443461,359.21066,-92.891045,-0.97183394,STD
309080426000,1.334942,-0.215847430194391,9.854534,-0.419539201637986,-0.025045475,0.00061086525,0.004581489,359.21994,-92.8855,-0.96693337,STD
309085477000,1.339993,-0.226124133414064,9.854534,-0.434954259150202,-0.004886922,-0.004886922,0.0015271631,359.2263,-92.88928,-0.9625422,STD
309090449000,1.344965,-0.224291179487369,9.86841444403467,-0.437757011193067,-0.00580322,0.0018325958,-0.008246681,359.23215,-92.878586,-0.9612107,STD
309095398000,1.349914,-0.215551439869998,9.89026378167066,-0.433387143665868,-0.0106901415,0.0015271631,-0.0036651916,359.24158,-92.87138,-0.95698476,STD
309100496000,1.355012,-0.208265829929844,9.90726593631948,-0.426108459859687,-0.012217305,0.0030543262,-0.004276057,359.24945,-92.872505,-0.95858127,STD
309105419000,1.359935,-0.203177148264436,9.91744350156503,-0.415931096528872,-0.0061086523,0.006414085,0.00030543262,359.25693,-92.87346,-0.9574255,STD
309110507000,1.365023,-0.195254077208313,9.91864250895596,-0.408873250133597,-0.007330383,0.014660766,0.004276057,359.26575,-92.87176,-0.9514524,STD
309115417000,1.369933,-0.185947375070757,9.91398906313706,-0.40421990149431,-0.0030543262,0.012217305,-0.002443461,359.27643,-92.873764,-0.94759446,STD
309120428000,1.374944,-0.179265330902845,9.911995,-0.39683788180569,-0.009773844,0.016493361,-0.005192355,359.28436,-92.87277,-0.93897045,STD
309125420000,1.379936,-0.174639103351074,9.911995,-0.387585426702148,-0.014660766,0.008246681,0.0021380284,359.29645,-92.873024,-0.92989355,STD
309130433000,1.384949,-0.178798582262647,9.90985626940402,-0.376656202203742,-0.02321288,0.016493361,0.0070249503,359.29648,-92.87005,-0.9241381,STD
309135557000,1.390073,-0.191551065984061,9.90560535568261,-0.363903727359667,-0.014049901,0.0143553335,0.003970624,359.3017,-92.870636,-0.9190373,STD
309140388000,1.394904,-0.204139933222542,9.90140898188985,-0.35434186,-0.02565634,0.018325957,0.0021380284,359.3,-92.86204,-0.9130609,STD
309145396000,1.399912,-0.219467720945989,9.8962996161713,-0.35434186,-0.011911872,0.0070249503,0.007941248,359.30325,-92.86243,-0.9061759,STD
309150463000,1.404979,-0.228465856751866,9.89146361326014,-0.358474365429282,-0.014660766,0.0012217305,0.01282817,359.30777,-92.855354,-0.9008813,STD
309155458000,1.409974,-0.224362917739086,9.88736102127112,-0.37078316961489,-0.0106901415,0.008552114,0.008552114,359.3116,-92.85415,-0.896738,STD
309160812000,1.415328,-0.2220782455,9.88181561484536,-0.383434599478351,-0.013133603,0.005497787,0.00580322,359.3218,-92.85081,-0.89370096,STD
309165506000,1.420022,-0.2452501765,9.86327770226804,-0.388068990517526,-0.014660766,0.002443461,0.004276057,359.32977,-92.849045,-0.8915806,STD
309170578000,1.425094,-0.267343994107178,9.844957,-0.394262290101148,-0.0125227375,0.005192355,0.009468411,359.33633,-92.84755,-0.8876009,STD
309175461000,1.429977,-0.258247789546781,9.844957,-0.412454680225637,-0.006414085,0.009773844,0.004886922,359.34302,-92.84777,-0.8869982,STD
309180737000,1.435253,-0.248463634951046,9.84602369181712,-0.429889629902093,-0.015577064,0.0076358155,0.0027488936,359.34946,-92.84468,-0.8918368,STD
309185450000,1.439966,-0.240355221771311,9.8622408483787,-0.413672803542621,-0.00580322,0.01160644,0.0027488936,359.351635427641,-92.8460684347,-0.893434299694542,STD
309190438000,1.444954,-0.231773688790084,9.87940426381029,-0.396509737580167,-0.0070249503,0.004581489,0.0027488936,359.353937789845,-92.8475378835189,-0.895125012292968,STD
309195469000,1.449985,-0.22984336,9.883265,-0.385700448855684,-0.0036651916,-0.00030543262,0.004276057,359.35626,-92.84902,-0.8968303,STD
309200537000,1.455053,-0.22984336,9.883265,-0.376691581462645,-0.0027488936,0.0012217305,0.005497787,359.36206,-92.84908,-0.8989445,STD
309205586000,1.460102,-0.238594654191886,9.883265,-0.361827065713483,0.0033597588,-0.004886922,0.008552114,359.37314,-92.85415,-0.8969633,STD
309210452000,1.464968,-0.251693330764546,9.883265,-0.344362160577157,0.0061086523,-0.00030543262,0.00580322,359.38055,-92.85882,-0.89625025,STD
309215425000,1.469941,-0.263402130837505,9.883265,-0.325531528408427,-0.0061086523,-0.0070249503,0.009162978,359.38837,-92.8571,-0.8967441,STD
309220457000,1.474973,-0.273454390553817,9.883265,-0.305427029968711,0.0036651916,-0.00061086525,0.01160644,359.39105,-92.86231,-0.89802366,STD
309225459000,1.479975,-0.272278588126987,9.88054054143482,-0.305054230697536,-0.0036651916,-0.00580322,0.008857546,359.40527,-92.86526,-0.8989705,STD
309230444000,1.48496,-0.262791222710652,9.87579676709062,-0.319285266438792,0.0061086523,0.0070249503,0.016798794,359.41254,-92.87402,-0.8959437,STD
309235526000,1.490042,-0.253261257763476,9.87900034859189,-0.346861511135198,-0.0009162979,0.005497787,0.007941248,359.42847,-92.87566,-0.8988177,STD
309240459000,1.494975,-0.244117286073744,9.88814403861415,-0.383437436086325,-0.014049901,0.010079277,0.008857546,359.43906,-92.87646,-0.8965326,STD
309245450000,1.499966,-0.246364660269552,9.892841,-0.406855535124447,-0.012217305,0.00030543262,0.004276057,359.45035,-92.8831,-0.89876246,STD
309250554000,1.50507,-0.260790638004919,9.892841,-0.416472856962125,-0.013744468,-0.0021380284,0.00580322,359.45828,-92.88446,-0.8988683,STD
309255466000,1.509982,-0.259335733607178,9.89063746979063,-0.423583214297109,-0.0067195175,0.002443461,0.009162978,359.46548,-92.89335,-0.89826894,STD
309260455000,1.514971,-0.240281414528415,9.88587429292124,-0.428346789092722,-0.0027488936,0.003970624,0.01038471,359.47415,-92.90075,-0.89799744,STD
309265558000,1.520074,-0.232060736260258,9.883265,-0.424304180480656,-0.0067195175,0.0027488936,0.0067195175,359.48193,-92.906975,-0.90228075,STD
309270473000,1.524989,-0.23665921909535,9.883265,-0.410508751182102,-0.004276057,0.0067195175,0.00061086525,359.4877,-92.91583,-0.9067957,STD
309275612000,1.530128,-0.241459897367858,9.87714571371556,-0.396106717247153,-0.008857546,0.0012217305,0.0106901415,359.4896,-92.92094,-0.9080811,STD
309280798000,1.535314,-0.246294437710503,9.862641774652,-0.381603070978293,-0.008857546,-0.010995574,0.004886922,359.489160687895,-92.9264499265156,-0.91040248867524,STD
309285410000,1.539926,-0.242601730378138,9.8570921476688,-0.37349546,0.0009162979,0.0009162979,0.014966198,359.48877,-92.93135,-0.91246694,STD
309290462000,1.544978,-0.223740813524871,9.86463666723842,-0.37349546,0.0076358155,-0.0033597588,0.0030543262,359.48666,-92.938805,-0.9228832,STD
309295415000,1.549931,-0.205249498961484,9.87203334289724,-0.37349546,-0.0012217305,-0.007941248,0.0030543262,359.4834,-92.94131,-0.93104553,STD
309300557000,1.555073,-0.204535714124214,9.8873790107203,-0.380341008248427,-0.008857546,-0.0036651916,0.013439035,359.47897,-92.9458,-0.93921155,STD
309305463000,1.559979,-0.208698364063081,9.90402950615752,-0.388666308126163,-0.0030543262,-0.00580322,0.0018325958,359.4775,-92.95335,-0.95347387,STD
309310488000,1.565004,-0.21068975,9.89974262545385,-0.39509955490923,-0.005192355,-0.008552114,0.005192355,359.4769,-92.94773,-0.95278484,STD
309315474000,1.56999,-0.21068975,9.87693069883432,-0.399661940233136,0.007941248,-0.0015271631,0.005192355,359.47394,-92.94924,-0.9561574,STD
309321525000,1.576041,-0.225844160771479,9.864111,-0.38404058201052,-0.0033597588,0.0009162979,0.0018325958,359.47156,-92.946236,-0.9618901,STD
309325472000,1.579988,-0.244254274441847,9.864111,-0.36194843945451,-0.0027488936,0.004276057,0.008246681,359.4671,-92.94895,-0.9645428,STD
309330456000,1.584972,-0.256663002231836,9.86793261534452,-0.34476504,0.0009162979,-0.0009162979,0.009162978,359.45996,-92.95297,-0.9730578,STD
309335430000,1.589946,-0.251697401981653,9.87786402324612,-0.34476504,-0.00580322,-0.0027488936,-0.002443461,359.45096,-92.9548,-0.98294127,STD
309340391000,1.594907,-0.253209349535972,9.88537101052837,-0.355295981142523,-0.016187929,-0.0009162979,0.003970624,359.4482,-92.951385,-0.98943585,STD
309345481000,1.599997,-0.262713344145058,9.89012260343147,-0.379055950298304,-0.008552114,-0.004276057,-0.005192355,359.44724,-92.953636,-1.0034399,STD
309350609000,1.605125,-0.25962591192609,9.88431636533441,-0.394780249793131,-0.008552114,0.0015271631,-0.00580322,359.44952,-92.95643,-1.0066469,STD
309355467000,1.609983,-0.240937764514963,9.86562833500703,-0.399452281767423,-0.01038471,0.00030543262,-0.00061086525,359.45474,-92.96085,-1.0108278,STD
309360533000,1.615049,-0.239704896128362,9.85650634676734,-0.40222588,-0.005497787,0.007330383,-0.0012217305,359.45715,-92.971466,-1.0180398,STD
309365766000,1.620282,-0.263355408758849,9.86123654412459,-0.40222588,-0.01038471,0.005497787,0.0030543262,359.4626,-92.97764,-1.0223792,STD
309370396000,1.624912,-0.2777274,9.86675406242862,-0.398261366391321,-0.008857546,0.0015271631,-0.00061086525,359.4596,-92.98312,-1.0293111,STD
309375451000,1.629967,-0.2777274,9.87596832489532,-0.384440251707271,-0.0067195175,0.0027488936,-0.0027488936,359.4558,-92.986725,-1.0343665,STD
309380503000,1.635019,-0.274514457345487,9.88246174798113,-0.37349546,-0.012217305,0.007941248,-0.0033597588,359.45532,-92.987076,-1.0437391,STD
309385433000,1.639949,-0.259414545727992,9.8786866932118,-0.37349546,-0.006414085,-0.0012217305,0.005497787,359.4588,-92.99021,-1.0509061,STD
309390701000,1.645217,-0.243279386620293,9.87465282130007,-0.37349546,-0.0036651916,-0.0061086523,0.0030543262,359.46164,-92.98716,-1.0594342,STD
309395446000,1.649962,-0.242649508800194,9.87691739961297,-0.363807456739236,-0.0033597588,-0.011911872,0.003970624,359.46756,-92.983894,-1.0644817,STD
309400531000,1.655047,-0.247361456274794,9.88162945041122,-0.349671589714562,-0.0143553335,-0.009162978,0.0021380284,359.47232,-92.97893,-1.0708314,STD
309405459000,1.659975,-0.240235466099113,9.87742387948322,-0.356447043168145,-0.0036651916,-0.010079277,0.005497787,359.4729,-92.97747,-1.0757272,STD
309410456000,1.664972,-0.22639378573467,9.86819590628616,-0.37490261377555,0.0015271631,-0.008552114,0.0033597588,359.47195,-92.972595,-1.0824528,STD
309415429000,1.669945,-0.227611428668519,9.86166265768519,-0.387968847483333,-0.0012217305,-0.004276057,0.009773844,359.4691,-92.96765,-1.088013,STD
309420460000,1.674976,-0.240995015985185,9.85720137185185,-0.396891242133333,-0.016187929,-0.004886922,0.0067195175,359.46716,-92.96211,-1.0966803,STD
309425454000,1.67997,-0.24899697,9.85051775483053,-0.39419313383592,-0.004276057,-0.00030543262,0.0070249503,359.46545,-92.958954,-1.0964488,STD
309430459000,1.684975,-0.24899697,9.84039625076549,-0.373949480990392,0.0036651916,-0.0012217305,0.003970624,359.46545,-92.95178,-1.0981078,STD
309435413000,1.689929,-0.244537108245647,9.83984071971765,-0.372838383508706,-0.0030543262,-0.0036651916,0.00061086525,359.46417,-92.95149,-1.103732,STD
309440461000,1.694977,-0.235437115466353,9.84894042268235,-0.391038369067294,-0.005192355,-0.005192355,0.008246681,359.46307,-92.95355,-1.1069043,STD
309445436000,1.699952,-0.231706376423153,9.86198601122311,-0.40222588,-0.004276057,-0.004276057,0.005497787,359.4684,-92.95609,-1.1088047,STD
309450688000,1.705204,-0.236933172499221,9.88289304271017,-0.40222588,-0.0033597588,-0.010079277,0.01160644,359.47626,-92.95623,-1.1061825,STD
309455487000,1.710003,-0.248019302194027,9.89499082432169,-0.40222588,0.0012217305,-0.0030543262,0.009162978,359.48102,-92.95552,-1.1033651,STD
309461649000,1.716165,-0.271057472176459,9.90075048409135,-0.40222588,-0.008857546,-0.002443461,0.002443461,359.48914,-92.95102,-1.1004146,STD
309465498000,1.720014,-0.2717581538032,9.89843863135124,-0.406205377464534,-0.008552114,-0.004276057,0.0015271631,359.49866,-92.95166,-1.0956405,STD
309470450000,1.724966,-0.257443525635376,9.88889585481437,-0.415748462909749,-0.0021380284,-0.0018325958,0.004276057,359.5066,-92.95161,-1.0918417,STD
309475404000,1.72992,-0.24213335382506,9.87811718305264,-0.41108407394586,-0.0030543262,0.003970624,0.008552114,359.51648,-92.94791,-1.0911791,STD
309480485000,1.735001,-0.224970935623843,9.86524510730976,-0.38534044216383,-0.007330383,0.0018325958,0.004276057,359.52777,-92.94569,-1.0923488,STD
309485455000,1.739971,-0.209527975615957,9.854534,-0.36391866,-0.011301007,-0.0030543262,0.007330383,359.53625,-92.94336,-1.0879872,STD
309490479000,1.744995,-0.201661729651762,9.854534,-0.36391866,-0.009468411,-0.0030543262,0.014966198,359.540137528892,-92.9452785207517,-1.08769240414029,STD
309495406000,1.749922,-0.193947359853675,9.854534,-0.36391866,0.0067195175,-0.003970624,0.0018325958,359.54395,-92.94716,-1.0874033,STD
309500552000,1.755068,-0.205010171297308,9.86127115606711,-0.36391866,-0.0076358155,0.0012217305,-0.0036651916,359.54874,-92.93311,-1.0830601,STD
309505569000,1.760085,-0.223756501077838,9.87064450936403,-0.36391866,-0.01038471,0.008857546,0.007330383,359.55313,-92.92594,-1.0757309,STD
309510580000,1.765096,-0.223685802108365,9.87676684163498,-0.370076214676806,-0.014966198,0.0012217305,0.004886922,359.54977,-92.919754,-1.079369,STD
309515529000,1.770045,-0.214675230255703,9.88127221929658,-0.379086781825095,-0.0030543262,0.007330383,-0.00030543262,359.5405,-92.91652,-1.0803058,STD
309520574000,1.77509,-0.208098185724844,9.883265,-0.38307226,-0.009773844,0.01038471,0.008857546,359.53467,-92.90502,-1.0828723,STD
309525457000,1.779973,-0.203667300446276,9.883265,-0.38307226,-0.0033597588,0.009468411,0.008246681,359.52814,-92.90193,-1.0894396,STD
309530650000,1.785166,-0.213337118565754,9.87593034428341,-0.373292918168545,-0.004581489,0.010079277,0.004276057,359.52136,-92.894424,-1.0908961,STD
309535438000,1.789954,-0.237949972633387,9.86116233268921,-0.353602636970478,-0.01282817,0.0027488936,0.016187929,359.5174,-92.88528,-1.088034,STD
309540423000,1.794939,-0.259211270891313,9.854534,-0.334550741775103,0.00030543262,0.0027488936,0.01740966,359.5081,-92.88459,-1.0901287,STD
309545499000,1.800015,-0.277493284757428,9.854534,-0.316268732681459,-0.0036651916,0.004581489,0.009773844,359.50046,-92.87705,-1.0913907,STD
309550449000,1.804965,-0.283037622035425,9.85666733353347,-0.314990980384269,-0.0070249503,0.00061086525,0.0125227375,359.49564,-92.876076,-1.0949937,STD
309555461000,1.809977,-0.273431113159211,9.8614706882818,-0.334204008167717,-0.005497787,-0.004581489,0.010079277,359.4906,-92.87669,-1.102014,STD
309560495000,1.815011,-0.2681506,9.86571079352049,-0.349564323675145,-0.0018325958,-0.004581489,0.008857546,359.487827696005,-92.8747493872034,-1.1054582600781,STD
309565448000,1.819964,-0.2681506,9.86918765938577,-0.359994710705857,-0.0027488936,0.005497787,0.015271631,359.4851,-92.87284,-1.1088471,STD
309570428000,1.824944,-0.2681506,9.87268347848714,-0.370481956297002,0.0027488936,-0.005192355,0.015577064,359.48706,-92.87105,-1.1178397,STD
309575457000,1.829973,-0.254345566995192,9.87023667327724,-0.35278791770032,-0.007330383,-0.0070249503,0.015882496,359.48257,-92.86569,-1.1232237,STD
309580434000,1.83495,-0.235249499939904,9.86546256179888,-0.32414382708734,-0.00030543262,-0.0067195175,0.013133603,359.48056,-92.86663,-1.1293281,STD
309585439000,1.839955,-0.233433294819139,9.86052099770666,-0.348343988389451,0.0009162979,-0.004276057,0.007941248,359.4873,-92.86448,-1.129067,STD
309590398000,1.844914,-0.238383930739081,9.85557026873762,-0.392899649636193,-0.00061086525,-0.006414085,0.016493361,359.49533,-92.86222,-1.1258056,STD
309595441000,1.849957,-0.23942018,9.85102669522677,-0.388196946559985,0.0067195175,0.0030543262,0.018325957,359.49188,-92.86704,-1.126182,STD
309600801000,1.855317,-0.23942018,9.84633277423189,-0.369421644877469,-0.0009162979,0.0012217305,0.018325957,359.4924,-92.86662,-1.1248564,STD
309605460000,1.859976,-0.236644654879399,9.85050815457532,-0.366694179324261,0.0067195175,-0.0036651916,0.00580322,359.49155,-92.875145,-1.1274152,STD
309610472000,1.864988,-0.232139819418114,9.8595179948381,-0.371199005377757,-0.002443461,-0.0012217305,0.007941248,359.48932,-92.875435,-1.1257273,STD
309615518000,1.870034,-0.235053192115091,9.86671596909806,-0.365680710467351,-0.004276057,0.0030543262,0.011911872,359.48132,-92.87961,-1.13212,STD
309620455000,1.874971,-0.245378740550339,9.87187884843852,-0.350192385119022,-0.0027488936,0.003970624,0.004276057,359.4736,-92.8832,-1.1409667,STD
309625459000,1.879975,-0.246108227558504,9.87657680578588,-0.353431282406486,-0.009162978,0.0061086523,0.00030543262,359.46164,-92.886986,-1.148188,STD
309630466000,1.884982,-0.241690410391561,9.88099471982679,-0.366684756972545,-0.010995574,0.005497787,0.01282817,359.4505,-92.89109,-1.1525537,STD
309635528000,1.890044,-0.241846053225117,9.87356129432119,-0.375921335758193,-0.003970624,0.010079277,0.0018325958,359.43393,-92.901146,-1.1692331,STD
309640469000,1.894985,-0.246661738080602,9.8542981325056,-0.380737025642174,-0.015577064,0.014049901,0.003970624,359.41827,-92.90265,-1.1781592,STD
309645395000,1.899911,-0.24899697,9.84930120618557,-0.38741638,-0.013744468,0.011301007,0.010995574,359.40253,-92.922714,-1.1875471,STD
309650460000,1.904976,-0.24899697,9.85799820394442,-0.396113205217391,-0.005497787,0.007330383,0.0067195175,359.38614,-92.94177,-1.1990492,STD
309655412000,1.909928,-0.253174632024444,9.8668961632717,-0.398048219429646,-0.0106901415,0.011911872,0.0067195175,359.377239523762,-92.9477299641327,-1.20443487619807,STD
309660497000,1.915013,-0.268435703428392,9.87707041272328,-0.382787153337512,-0.014049901,0.008246681,0.004886922,359.3681,-92.95385,-1.2099652,STD
309665449000,1.919965,-0.274269649073047,9.88499372833382,-0.380410954632818,-0.014049901,0.008857546,0.0009162979,359.35147,-92.97039,-1.2222835,STD
309670460000,1.924976,-0.264934094172746,9.88966110854975,-0.399082044937263,-0.007941248,0.007941248,0.010079277,359.34,-92.98479,-1.2273538,STD
309675386000,1.929902,-0.257167523365058,9.892841,-0.406177690523453,-0.0061086523,-0.0018325958,0.0076358155,359.3395,-92.99368,-1.2338133,STD
309681415000,1.935931,-0.251560207913956,9.892841,-0.383748417008837,0.0018325958,0.011911872,0.017104227,359.33292,-93.002914,-1.2338192,STD
309685416000,1.939932,-0.24899697,9.88749718680531,-0.374564222638939,-0.006414085,0.00030543262,0.0076358155,359.3326,-93.01351,-1.2404112,STD
309690448000,1.944964,-0.24899697,9.86589873861599,-0.378883912276802,0.0036651916,-0.00061086525,0.011911872,359.32574,-93.02772,-1.2399408,STD
309695803000,1.950319,-0.250152791896552,9.84611284482759,-0.381916439310345,0.0015271631,0.005192355,0.013133603,359.31964,-93.033325,-1.2421795,STD
309700520000,1.955036,-0.261606598379817,9.8575668785497,-0.370462644787018,-0.0036651916,0.0061086523,0.004581489,359.31516,-93.04105,-1.2459933,STD
309705429000,1.959945,-0.273526618737323,9.86948713539554,-0.358542636876268,-0.003970624,0.009162978,0.009162978,359.3134,-93.04279,-1.2421561,STD
309710457000,1.964973,-0.274514676329977,9.87690079076391,-0.35434186,0.0036651916,0.014660766,0.010079277,359.31052,-93.04656,-1.2417588,STD
309715766000,1.970282,-0.269342951052792,9.88207262404638,-0.35434186,-0.013744468,0.00580322,0.009468411,359.3109,-93.043236,-1.2406697,STD
309720452000,1.974968,-0.2681506,9.88051987878788,-0.357086923884749,-0.0018325958,0.004886922,0.00580322,359.30927,-93.04813,-1.2423742,STD
309725477000,1.979993,-0.2681506,9.87653540909091,-0.361071310372578,-0.004581489,0.004886922,0.0036651916,359.3099,-93.04456,-1.2439041,STD
309730421000,1.984937,-0.27117097748718,9.87670833333333,-0.362911868205128,-0.00030543262,0.01038471,0.004581489,359.3085,-93.04663,-1.2447367,STD
309735455000,1.989971,-0.282408656918415,9.88794584848485,-0.359165977668998,-0.0033597588,0.007941248,0.0015271631,359.30933,-93.04671,-1.2473762,STD
309740456000,1.994972,-0.293572668606061,9.8991096969697,-0.355444643030303,-0.008246681,0.009773844,0.0067195175,359.30972,-93.04512,-1.245549,STD
309745464000,1.99998,-0.30283339031553,9.890513321523,-0.36029423031553,-0.005497787,0.004886922,0.010079277,359.31265,-93.045265,-1.2452438,STD
309751399000,2.005915,-0.312852482154063,9.87047524246431,-0.370313322154063,-0.005497787,0.0027488936,0.008552114,359.31427,-93.043396,-1.2448239,STD
309755501000,2.010017,-0.309428590012446,9.85970689110143,-0.366889430012446,-0.0009162979,0.008246681,0.012217305,359.31262,-93.044174,-1.2476544,STD
309761373000,2.015889,-0.291931698678697,9.84804206139805,-0.349392538678697,-0.009162978,0.0012217305,0.009468411,359.31506,-93.04249,-1.2528311,STD
309765612000,2.020128,-0.284714520668479,9.84754673341387,-0.339585681336958,-0.008246681,0.0021380284,0.010995574,359.31064,-93.046616,-1.2605485,STD
309770525000,2.025041,-0.279977702144367,9.85228365086077,-0.330112044288735,0.0015271631,-0.009162978,0.011911872,359.31232,-93.05109,-1.2709217,STD
309775427000,2.029943,-0.270637284274457,9.85926083759369,-0.327974809440707,0.0015271631,-0.002443461,0.016187929,359.311790882679,-93.0491218813679,-1.27155149796227,STD
309780438000,2.034954,-0.256802171384778,9.86848442917547,-0.332586508921776,-0.0018325958,-0.003970624,0.015271631,359.31125,-93.04711,-1.2721953,STD
309785549000,2.040065,-0.254797403317422,9.88335537876779,-0.340988671298506,-0.0076358155,-0.004581489,0.014660766,359.31558,-93.04528,-1.2762176,STD
309790456000,2.044972,-0.267259192410501,9.90412500556882,-0.353450456054097,-0.002443461,-0.0033597588,0.01038471,359.31955,-93.04339,-1.2776322,STD
309795510000,2.050026,-0.280111157806463,9.91918819407104,-0.363124074617644,-0.0061086523,-0.0030543262,0.011911872,359.3243,-93.02835,-1.273691,STD
309800508000,2.055024,-0.292894442695629,9.90640465111724,-0.358862982620849,0.0067195175,-0.0012217305,0.010995574,359.3281,-93.02015,-1.2717386,STD
309805872000,2.060388,-0.306090902454912,9.89273616976223,-0.354237026368775,0.00061086525,-0.00580322,0.009468411,359.3423,-93.00353,-1.2667694,STD
309810541000,2.065057,-0.278006672651413,9.88471236025123,-0.346212957119785,0.011911872,-0.00061086525,0.021685716,359.35312,-92.99365,-1.2582301,STD
309815504000,2.07002,-0.248154020581427,9.87618330336474,-0.337683624139973,0.01038471,-0.0012217305,0.021380283,359.36646,-92.97837,-1.2581457,STD
309820456000,2.074972,-0.242472890837887,9.873688,-0.322977377522769,0.0009162979,0.0027488936,0.01863139,359.37692,-92.96329,-1.2553414,STD
309825469000,2.079985,-0.246845244960838,9.873688,-0.305487933637523,0.00061086525,-0.0030543262,0.018936822,359.39023,-92.95035,-1.2520894,STD
309830439000,2.084955,-0.246446080847079,9.87113705491114,-0.304533700776844,0.006414085,-0.007941248,0.008552114,359.39728,-92.93652,-1.2474409,STD
309835462000,2.089978,-0.241326977285304,9.86601783909758,-0.319891038188784,0.006414085,-0.0067195175,0.0067195175,359.400313892,-92.92752883,-1.24421899711,STD
309840439000,2.094955,-0.23942018,9.87013675954624,-0.328624256854046,-0.0021380284,-0.0036651916,0.004886922,359.40332,-92.91862,-1.2410266,STD
309845469000,2.099985,-0.23942018,9.87989515314494,-0.333503351759344,-0.0021380284,-0.00061086525,0.01160644,359.4095,-92.90197,-1.2373071,STD
309850516000,2.105032,-0.223937498989938,9.88636127429911,-0.322802101658689,0.0012217305,-0.00061086525,0.009468411,359.41678,-92.88838,-1.2346406,STD
309855485000,2.110001,-0.200694767286314,9.89100942746899,-0.304207926003712,0.0030543262,0.00061086525,0.005192355,359.4228,-92.87437,-1.2308179,STD
309860500000,2.115016,-0.19153613,9.89822129752826,-0.315711679329229,-0.0009162979,-0.0036651916,0.006414085,359.4304,-92.85352,-1.2263085,STD
309865467000,2.119983,-0.19153613,9.90696318101626,-0.34630765083341,-0.0027488936,0.004581489,0.009162978,359.43393,-92.834724,-1.2225479,STD
309870443000,2.124959,-0.204199527697273,9.911995,-0.370250358848636,-0.00580322,0.008552114,0.0067195175,359.4345,-92.8099,-1.2179134,STD
309875448000,2.129964,-0.234138264341037,9.911995,-0.385219727170518,-0.0106901415,0.009468411,0.005497787,359.4336,-92.78451,-1.2122545,STD
309880443000,2.134959,-0.24899697,9.90952830115909,-0.39264908,-0.008552114,0.009162978,0.004886922,359.42715,-92.77188,-1.2106626,STD
309885478000,2.139994,-0.24899697,9.90458213283414,-0.39264908,-0.002443461,0.008552114,0.01863139,359.42075,-92.75786,-1.205288,STD
309890642000,2.145158,-0.24899697,9.88875860462428,-0.373525915063584,-0.0027488936,0.015882496,0.008552114,359.4179,-92.74994,-1.2097385,STD
309895494000,2.15001,-0.24899697,9.86637583314065,-0.342190016289017,-0.010079277,0.017104227,0.005192355,359.4172,-92.739555,-1.2084781,STD
309900515000,2.155031,-0.244305119437013,9.86391764723498,-0.32561144,-0.008857546,0.0021380284,0.013439035,359.42145,-92.72681,-1.2051432,STD
309905431000,2.159947,-0.234906122954682,9.88271553224197,-0.32561144,-0.00061086525,0.0061086523,0.005497787,359.41968,-92.716965,-1.2071568,STD
309910447000,2.164963,-0.233994915924943,9.89076539652174,-0.32561144,-0.0076358155,0.004581489,0.012217305,359.42194,-92.694824,-1.2047619,STD
309915728000,2.170244,-0.24325351678627,9.88613648521739,-0.32561144,-0.007330383,0.005497787,0.01160644,359.42218,-92.67923,-1.2066103,STD
309920617000,2.175133,-0.252186275790234,9.87688626520078,-0.336773999442552,0.0027488936,0.0027488936,0.0143553335,359.4205,-92.660904,-1.2057848,STD
309925507000,2.180023,-0.261855032959637,9.8575483773098,-0.370614616723444,-0.002443461,0.007941248,0.019547688,359.41632,-92.639244,-1.2042993,STD
309930483000,2.184999,-0.266845231523542,9.844957,-0.39264908,0.0027488936,0.007941248,0.02107485,359.4157,-92.62245,-1.2047567,STD
309935694000,2.19021,-0.263049319062143,9.844957,-0.39264908,0.00061086525,0.00030543262,0.01160644,359.41574,-92.60396,-1.2068998,STD
309940411000,2.194927,-0.259613257062448,9.844957,-0.39264908,0.0027488936,0.014966198,0.02107485,359.41312,-92.592926,-1.2027731,STD
309945492000,2.200008,-0.250474015494946,9.84765697361315,-0.389949157132937,0.0018325958,0.003970624,0.011301007,359.41968,-92.58479,-1.2072285,STD
309950524000,2.20504,-0.239319673768228,9.85137516387625,-0.386231036753337,-0.0027488936,0.0061086523,0.018936822,359.41858,-92.57307,-1.2037047,STD
309955497000,2.210013,-0.22984336,9.85556139506647,-0.381017511705218,0.005497787,0.0012217305,0.021685716,359.41962,-92.564354,-1.2055427,STD
309960574000,2.21509,-0.22984336,9.86303429585799,-0.36607201443787,0.0106901415,0.0067195175,0.015577064,359.41708,-92.55437,-1.2075666,STD
309965484000,2.22,-0.22984336,9.87026138722816,-0.351618126003228,-0.0018325958,0.002443461,0.018936822,359.41473,-92.542725,-1.2055787,STD
309970493000,2.225009,-0.225128814607969,9.88311703663239,-0.34947958785347,0.004276057,0.0030543262,0.011911872,359.4093,-92.53954,-1.2081311,STD
309975435000,2.229951,-0.216438294903599,9.90049797622108,-0.358170112095116,0.006414085,0.00580322,0.007941248,359.40457,-92.531685,-1.2088463,STD
309980494000,2.23501,-0.21068975,9.91557836747491,-0.354960420911371,0.007330383,-0.010079277,0.0143553335,359.40726,-92.52299,-1.2069894,STD
309985521000,2.240037,-0.21068975,9.92564182462375,-0.329802282420569,0.005192355,-0.004581489,0.023823744,359.403,-92.514435,-1.2050755,STD
309990449000,2.244965,-0.21068975,9.92913225314374,-0.320068033691236,0.006414085,-0.0018325958,0.01863139,359.40494,-92.51035,-1.2023664,STD
309995511000,2.250027,-0.21068975,9.9244428766686,-0.329446600574579,0.0012217305,0.006414085,0.014049901,359.40372,-92.503,-1.1968682,STD
310000907000,2.255423,-0.212998030125918,9.91464701500525,-0.330571674927597,0.0012217305,0.008857546,0.015271631,359.40784,-92.49228,-1.187848,STD
310005339000,2.259855,-0.217451794826863,9.90128544186779,-0.321664136224554,0.0021380284,0.0070249503,0.011911872,359.41064,-92.48214,-1.1816506,STD
310010346000,2.264862,-0.222343267080507,9.88661094200334,-0.320188054161014,-0.0021380284,0.013133603,0.010079277,359.41025,-92.47447,-1.1748583,STD
310015323000,2.269839,-0.227028589342377,9.8725551855893,-0.329558698684754,-0.009468411,0.008552114,0.009162978,359.41336,-92.466805,-1.169106,STD
310020313000,2.274829,-0.233686379662921,9.85834655377207,-0.340952770497592,-0.0033597588,0.012217305,0.008246681,359.40833,-92.46498,-1.1682491,STD
310025324000,2.27984,-0.243315065428371,9.84390373374799,-0.35539580165931,-0.012217305,0.020158553,0.008246681,359.406370307061,-92.4626023060612,-1.16937680054011,STD
310030311000,2.284827,-0.247088006557345,9.83728980597015,-0.365827625435978,-0.007941248,0.016187929,-0.002443461,359.40442,-92.460236,-1.1704991,STD
310035319000,2.289835,-0.242378603148075,9.84199882089552,-0.370537033762765,-0.01282817,0.005192355,0.0076358155,359.40445,-92.46041,-1.1680492,STD
310040338000,2.294854,-0.235877344824215,9.85027135542169,-0.375266874813352,0.0030543262,0.013744468,0.013133603,359.40564,-92.46726,-1.1659814,STD
310045354000,2.29987,-0.226389431721311,9.8645035,-0.380010823934426,-0.0030543262,0.008246681,0.009773844,359.41388,-92.46717,-1.1639874,STD
310050368000,2.304884,-0.226249843481586,9.88266296677507,-0.38008061482113,-0.0027488936,0.0106901415,0.003970624,359.4213,-92.46685,-1.1568737,STD
310055312000,2.309828,-0.242896665638569,9.90763327388591,-0.371757208088248,-0.009773844,0.003970624,0.0030543262,359.43274,-92.46305,-1.1497939,STD
310060342000,2.314858,-0.25857377,9.9303757275475,-0.363532031848014,0.006414085,0.0036651916,0.014049901,359.44006,-92.467964,-1.1395849,STD
310065316000,2.319832,-0.25857377,9.92009161744387,-0.35839008417962,0.004581489,0.004276057,0.0076358155,359.44873,-92.46898,-1.1349608,STD
310070306000,2.324822,-0.259590828777811,9.90894387570454,-0.356375971183625,0.00061086525,-0.0021380284,0.0067195175,359.4575,-92.47598,-1.1324103,STD
310075433000,2.329949,-0.264446006016019,9.89437859240581,-0.366086295241768,0.004276057,0.00030543262,0.009773844,359.4634,-92.48452,-1.130545,STD
310080391000,2.334907,-0.269143693367701,9.883265,-0.374488553367701,-0.008246681,0.003970624,0.005497787,359.47263,-92.49605,-1.1295227,STD
310085298000,2.339814,-0.273802497531476,9.883265,-0.379147357531476,-0.010079277,0.002443461,-0.002443461,359.4825,-92.51082,-1.128884,STD
310090314000,2.34483,-0.275225401652844,9.88243098400474,-0.38307226,-0.0030543262,0.0036651916,0.0030543262,359.49542,-92.5296,-1.1230851,STD
310095310000,2.349826,-0.261053084484597,9.87770678455766,-0.38307226,0.0021380284,0.003970624,0.0061086523,359.5088,-92.548225,-1.1204596,STD
310100315000,2.354831,-0.247641168804613,9.8743659144009,-0.38307226,-0.0033597588,0.0076358155,0.011301007,359.52368,-92.56343,-1.1148231,STD
310105305000,2.359821,-0.238680310572848,9.87884643474592,-0.38307226,-0.003970624,-0.0033597588,0.0143553335,359.54248,-92.580574,-1.1093765,STD
310110632000,2.365148,-0.231057910860058,9.88205042419825,-0.382667409854227,0.0021380284,0.016798794,0.0067195175,359.54697,-92.59618,-1.1048937,STD
310115346000,2.369862,-0.245159863456893,9.8679481820075,-0.37796676062474,0.0070249503,0.009773844,0.008857546,359.56232,-92.609375,-1.0975158,STD
310120336000,2.374852,-0.25857377,9.85689760394108,-0.372077296648132,0.005192355,0.012217305,0.007330383,359.57217,-92.62117,-1.0881912,STD
310125339000,2.379855,-0.25857377,9.88026738757194,-0.358055416708614,-0.005192355,0.002443461,0.009162978,359.58743,-92.630974,-1.0779351,STD
310130567000,2.385083,-0.257648089337709,9.902418,-0.34476504,0.0012217305,0.0009162979,0.0143553335,359.6013,-92.64848,-1.0697175,STD
310135526000,2.390042,-0.248202718135442,9.902418,-0.34476504,0.003970624,0.005192355,0.017104227,359.6161,-92.66202,-1.0620763,STD
310140514000,2.39503,-0.240141981622351,9.90169622061176,-0.3444041390004,0.009773844,0.005497787,0.016187929,359.62314,-92.679596,-1.0613444,STD
310145519000,2.400035,-0.249724520401839,9.8921139770092,-0.339612867109156,0.007330383,-0.0015271631,0.013133603,359.631,-92.69508,-1.060586,STD
310150510000,2.405026,-0.258870931980323,9.88177919475278,-0.333702433511604,0.006414085,0.002443461,0.021380283,359.63455,-92.70139,-1.0553707,STD
310155342000,2.409858,-0.262762223820215,9.86232279650185,-0.314246019007736,0.015271631,-0.0009162979,0.024740042,359.642,-92.71027,-1.0527186,STD
310160494000,2.41501,-0.266911217106458,9.8415778950555,-0.293501100232089,0.0070249503,-0.007941248,0.026267206,359.6506,-92.71654,-1.0499533,STD
310165451000,2.419967,-0.2681506,9.83881838374291,-0.280428858181054,0.01160644,-0.0070249503,0.02321288,359.65778,-92.72829,-1.0476482,STD
310170519000,2.425035,-0.2681506,9.84391512476371,-0.270234524553665,0.014660766,-0.008246681,0.020158553,359.66748,-92.73699,-1.0452101,STD
310175410000,2.429926,-0.2681506,9.85174426629286,-0.281724856190826,0.016493361,-0.0021380284,0.020463986,359.6732,-92.73993,-1.0453609,STD
310180430000,2.434946,-0.2681506,9.86058267791157,-0.299401319505469,0.003970624,-0.008857546,0.022907447,359.68283,-92.739815,-1.0459849,STD
310185585000,2.440101,-0.264178434136501,9.86609712129788,-0.31638822740029,0.02443461,-0.0143553335,0.022602014,359.69247,-92.75124,-1.0454817,STD
310190453000,2.444969,-0.258041809755825,9.8691654927603,-0.331729777138344,0.013439035,-0.013744468,0.022602014,359.7022,-92.750595,-1.0443251,STD
310195439000,2.449955,-0.251756434003554,9.87230824134527,-0.347443205033566,0.014660766,-0.015882496,0.025045475,359.71875,-92.75184,-1.0393289,STD
310200544000,2.45506,-0.24899697,9.87667319850347,-0.339416166719401,0.01282817,-0.016187929,0.016493361,359.73425,-92.7506,-1.0377108,STD
310205542000,2.460058,-0.24899697,9.88178980416889,-0.313833651281668,0.018936822,-0.0018325958,0.021991149,359.74615,-92.75009,-1.0314913,STD
310210458000,2.464974,-0.255568088990029,9.88983590285319,-0.316314489908184,0.010079277,-0.0076358155,0.02321288,359.75558,-92.75141,-1.0330051,STD
310215851000,2.470367,-0.265766087468654,9.90003356589989,-0.331611474315332,0.01038471,-0.0070249503,0.01985312,359.75903,-92.75651,-1.0340244,STD
310220456000,2.474972,-0.2681506,9.902418,-0.33518824,0.016798794,-0.010995574,0.015882496,359.7676,-92.75851,-1.0333272,STD
310225410000,2.479926,-0.2681506,9.902418,-0.33518824,0.0076358155,-0.011301007,0.014049901,359.77484,-92.756546,-1.0330151,STD
310230389000,2.484905,-0.265413792094285,9.91336514017522,-0.337925039332499,0.0036651916,-0.00580322,0.016187929,359.7827,-92.7547,-1.0343175,STD
310235392000,2.489908,-0.260416620578849,9.93335365926158,-0.342922195193992,0.0021380284,-0.015882496,0.0067195175,359.79486,-92.75264,-1.0396724,STD
310240412000,2.494928,-0.261561823778498,9.92877288472877,-0.35372917949489,-0.00061086525,-0.0067195175,0.0015271631,359.80673,-92.741714,-1.0376924,STD
310245428000,2.499944,-0.266282478188876,9.90989042482311,-0.367891108221305,-0.0018325958,-0.014660766,0.0021380284,359.82614,-92.73157,-1.037265,STD
310250576000,2.505092,-0.250146769534423,9.89341621792967,-0.367494188400198,-0.008857546,-0.014966198,0.015577064,359.8356,-92.717155,-1.0371337,STD
310255434000,2.50995,-0.222494980599307,9.87959052798415,-0.358276933442298,0.0012217305,-0.015577064,0.004581489,359.84705,-92.70999,-1.0439099,STD
310260418000,2.514934,-0.207934855071174,9.87093305041518,-0.359851644104389,-0.007330383,-0.016798794,0.0067195175,359.8641,-92.6952,-1.040523,STD
310265419000,2.519935,-0.203200411930605,9.8661985133452,-0.369320520498221,0.0021380284,-0.0143553335,0.0067195175,359.87994,-92.68963,-1.0409861,STD
310270462000,2.524978,-0.198745844826685,9.85937671572897,-0.37112836729838,0.004886922,-0.0033597588,0.010995574,359.88992,-92.67697,-1.0349998,STD
310275416000,2.529932,-0.194613854168263,9.85111257045811,-0.366996380954538,-0.0030543262,-0.004581489,0.007330383,359.90244,-92.66526,-1.0316497,STD
310280400000,2.534916,-0.192910466491072,9.844957,-0.361169987017855,-0.0021380284,0.0018325958,0.007941248,359.90454,-92.655136,-1.0285506,STD
310285496000,2.540012,-0.198322845748032,9.844957,-0.350345228503937,-0.0033597588,0.0012217305,0.009773844,359.90887,-92.64307,-1.02634,STD
310290399000,2.544915,-0.20111294,9.85093321604825,-0.348749104989947,0.0030543262,0.0015271631,0.0027488936,359.90582,-92.6382,-1.0292394,STD
310295401000,2.549917,-0.20111294,9.86406723743374,-0.357504945534637,-0.002443461,0.004886922,0.009468411,359.9023,-92.62839,-1.0276166,STD
310300492000,2.555008,-0.199884415380259,9.87491654899317,-0.361461610760518,-0.0012217305,0.011911872,0.0125227375,359.90265,-92.62036,-1.0262421,STD
310305461000,2.559977,-0.195606532524272,9.8791945167206,-0.352905845048544,-0.005192355,0.0061086523,0.007330383,359.90564,-92.61004,-1.0255013,STD
310310501000,2.565017,-0.192313166324549,9.88352399029126,-0.345024052468793,-0.0061086523,0.004581489,0.015271631,359.90555,-92.60029,-1.0200411,STD
310315610000,2.570126,-0.205037136139043,9.88776495631068,-0.349265381645284,-0.005192355,-0.0027488936,0.013744468,359.90854,-92.59193,-1.0189728,STD
310320460000,2.574976,-0.217116066184119,9.89179092718447,-0.35329169726595,0.005192355,0.005192355,0.015882496,359.9048,-92.588135,-1.0154917,STD
310325462000,2.579978,-0.210855946131125,9.8897043962661,-0.360615591545271,0.004886922,0.0036651916,0.004581489,359.90564,-92.58364,-1.0165656,STD
310330431000,2.584947,-0.198342890036813,9.88553372889824,-0.368957623134368,-0.010079277,0.008246681,0.015271631,359.90274,-92.575386,-1.0106378,STD
310335476000,2.589992,-0.201268776198742,9.8783985790844,-0.37349546,-0.004276057,0.004276057,0.010995574,359.9043,-92.57301,-1.0146588,STD
310340489000,2.595005,-0.222101293446518,9.867982111087,-0.37349546,0.0012217305,0.0030543262,0.0070249503,359.9039,-92.5657,-1.0154492,STD
310345538000,2.600054,-0.22984336,9.85939539502357,-0.37349546,0.0021380284,0.008552114,0.005192355,359.90088,-92.56317,-1.014397,STD
310350448000,2.604964,-0.22984336,9.85212809419674,-0.37349546,-0.003970624,0.01282817,0.0021380284,359.8985,-92.56085,-1.0148609,STD
310355758000,2.610274,-0.230794495054464,9.84543257721059,-0.373019892721059,-0.005497787,0.009773844,0.007941248,359.90158,-92.55682,-1.0146958,STD
310360465000,2.614981,-0.240422436347715,9.85024664587783,-0.368205924587783,0.0012217305,0.018936822,-0.0018325958,359.89972,-92.55563,-1.0196093,STD
310365571000,2.620087,-0.249866118565187,9.85627233343263,-0.365656957130374,-0.005497787,0.015882496,-0.0033597588,359.89792,-92.557335,-1.0240979,STD
310370437000,2.624953,-0.25449333619998,9.86552696197001,-0.37491139239996,-0.011911872,0.018936822,0.00061086525,359.8918,-92.56116,-1.0293838,STD
310375433000,2.629949,-0.25683604358871,9.873688,-0.383651503145161,-0.01160644,0.017715093,-0.0030543262,359.88907,-92.56887,-1.0386518,STD
310380548000,2.635064,-0.244228283881263,9.873688,-0.38785409702814,-0.01282817,0.027183503,0.0033597588,359.88263,-92.57269,-1.0434904,STD
310385462000,2.639978,-0.232115961065546,9.873688,-0.391891544993137,-0.006414085,0.024740042,0.0015271631,359.87372,-92.584236,-1.057635,STD
310390464000,2.64498,-0.240778068283582,9.88097757462686,-0.352555133134328,-0.014049901,0.026572637,0.0030543262,359.8612,-92.59034,-1.0683628,STD
310395499000,2.650015,-0.254272248726679,9.88997340998134,-0.303076451156716,-0.009468411,0.016798794,0.004276057,359.85294,-92.6012,-1.0794171,STD
310401503000,2.656019,-0.242365877263634,9.8806852560354,-0.303512101198423,-0.009773844,0.01740966,0.009468411,359.83514,-92.61553,-1.0893489,STD
310405645000,2.660161,-0.227104888012888,9.86923967942676,-0.318773098416851,-0.0076358155,0.02076942,0.007941248,359.81955,-92.63174,-1.1004685,STD
310410452000,2.664968,-0.231366766635899,9.86966122132757,-0.328386492710134,-0.01038471,0.014660766,0.00580322,359.8063,-92.6437,-1.1140946,STD
310415578000,2.670094,-0.250648267983111,9.87930216830322,-0.333206865530244,-0.009773844,0.011301007,0.0009162979,359.79156,-92.657074,-1.1283303,STD
310420621000,2.675137,-0.261008613512297,9.883265,-0.33518824,-0.0106901415,0.0012217305,-0.004276057,359.78067,-92.66906,-1.1380028,STD
310425469000,2.679985,-0.26502909081053,9.883265,-0.33518824,-0.009773844,0.003970624,0.008246681,359.76743,-92.67961,-1.1434911,STD
310430416000,2.684932,-0.270542777871622,9.883265,-0.338776509305321,-0.009468411,0.0033597588,0.0067195175,359.756,-92.690186,-1.1608487,STD
310435568000,2.690084,-0.280960783277027,9.883265,-0.354403528291807,-0.004581489,0.0027488936,0.0106901415,359.74426,-92.699615,-1.1725081,STD
310440389000,2.694905,-0.288693651613681,9.87631775644008,-0.36391866,0.009162978,0.0021380284,0.013744468,359.7313,-92.70876,-1.1869715,STD
310445509000,2.700025,-0.292918112576893,9.85519549573533,-0.36391866,0.01038471,0.00030543262,0.0067195175,359.71902,-92.71647,-1.2026683,STD
310450520000,2.705036,-0.297206346539278,9.83554364968153,-0.364081323269639,0.004581489,0.007330383,0.013133603,359.70383,-92.729256,-1.2163136,STD
310455462000,2.709978,-0.304935979986935,9.83940814355708,-0.367946139993467,0.006414085,0.0009162979,0.013744468,359.69315,-92.745384,-1.2331809,STD
310460530000,2.715046,-0.312862686242038,9.8433711656051,-0.371909493121019,0.0036651916,-0.004581489,0.018325957,359.68356,-92.75674,-1.2455415,STD
310465694000,2.72021,-0.310257962027313,9.85073377861127,-0.359053809036353,0.008857546,-0.004886922,0.011911872,359.67444,-92.77148,-1.2604086,STD
310471279000,2.725795,-0.299970132060012,9.86102182342758,-0.333334223375649,0.008857546,0.004581489,0.0143553335,359.66446,-92.78204,-1.2709625,STD
310475462000,2.729978,-0.287316611461592,9.86889329789778,-0.320829236979177,0.005192355,0.0015271631,0.02107485,359.65747,-92.796524,-1.2849342,STD
310480487000,2.735003,-0.268138178538408,9.87848270210222,-0.311240023020823,0.011301007,-0.00030543262,0.020158553,359.64764,-92.81361,-1.2997161,STD
310485435000,2.739951,-0.248576310211606,9.88576415485733,-0.303958456357807,0.0027488936,-0.0030543262,0.017715093,359.64246,-92.8182,-1.3076192,STD
310490491000,2.745007,-0.227877228847921,9.89093849022123,-0.298783688718606,0.007330383,0.0036651916,0.020463986,359.63528,-92.8268,-1.3139329,STD
310495451000,2.749967,-0.222915763899197,9.89549026645852,-0.29688102,0.012217305,-0.0018325958,0.009468411,359.6298,-92.83461,-1.3216196,STD
310501533000,2.756049,-0.228111674552186,9.90068628019625,-0.29688102,0.0067195175,0.0012217305,0.018325957,359.62036,-92.83766,-1.3224623,STD
310505453000,2.759969,-0.228096164420779,9.89892372195451,-0.305616992422899,0.013133603,0.0067195175,0.018325957,359.61163,-92.83692,-1.3238813,STD
310510560000,2.765076,-0.223382520562837,9.88949673939861,-0.3291851969468,0.0033597588,-0.0021380284,0.01863139,359.60635,-92.829575,-1.3227817,STD
310515603000,2.770119,-0.221877990624811,9.8784305822146,-0.338319280866054,0.0106901415,-0.00061086525,0.01740966,359.6016,-92.82443,-1.3193167,STD
310520469000,2.774985,-0.226581811908751,9.86431883839709,-0.319504005553649,0.011911872,0.005497787,0.017104227,359.59802,-92.81539,-1.3156518,STD
310525390000,2.779906,-0.232855827941236,9.85905279392029,-0.315495225396503,0.011301007,0.007330383,0.018020526,359.5924,-92.81455,-1.3130046,STD
310530479000,2.784995,-0.242765620671004,9.87391778568524,-0.345224608759658,0.007941248,0.0027488936,0.01282817,359.58685,-92.814156,-1.3122088,STD
310535404000,2.78992,-0.247505325507901,9.883265,-0.360935364785553,0.004886922,0.0067195175,0.011301007,359.5836,-92.80622,-1.3074492,STD
310540423000,2.794939,-0.243165288576975,9.883265,-0.352255272796388,0.008552114,-0.0009162979,0.0106901415,359.58484,-92.79993,-1.3042141,STD
310545441000,2.799957,-0.240089756097089,9.88125622766131,-0.34342588640749,0.014049901,0.0027488936,0.02076942,359.58737,-92.795494,-1.2969475,STD
310550546000,2.805062,-0.245065281534704,9.86632932403827,-0.333474825141461,0.0125227375,0.013439035,0.018020526,359.5899,-92.792305,-1.2939807,STD
310555471000,2.809987,-0.248205932650413,9.85216091851302,-0.326402478175582,0.004886922,0.004276057,0.018936822,359.60114,-92.77463,-1.2830087,STD
310560515000,2.815031,-0.243727826711783,9.83872677370909,-0.33088058879021,0.00580322,-0.0036651916,0.014660766,359.60886,-92.759834,-1.2752997,STD
310565786000,2.820302,-0.238988383208867,9.82709936963306,-0.33518824,0.004886922,0.00061086525,0.011301007,359.62067,-92.74085,-1.2647377,STD
310570648000,2.825164,-0.233977891565695,9.8421306038954,-0.33518824,0.0070249503,0.007941248,0.01863139,359.6337,-92.72271,-1.2528293,STD
310575443000,2.829959,-0.232024675914865,9.85598824047319,-0.335915345051876,0.01038471,0.003970624,0.015577064,359.64996,-92.70648,-1.2428544,STD
310580520000,2.835036,-0.246168406310482,9.86541758770484,-0.340629920209444,-0.00030543262,0.0012217305,0.0143553335,359.66364,-92.68667,-1.2306513,STD
310585448000,2.839964,-0.257607067106326,9.87272127725437,-0.343798336769852,0.0012217305,0.0015271631,0.014660766,359.6766,-92.66745,-1.2186066,STD
310590478000,2.844994,-0.247370192253312,9.86248419217964,-0.333561458353758,0.0061086523,0.0015271631,0.022907447,359.69025,-92.646286,-1.2051315,STD
310595528000,2.850044,-0.237092614120564,9.8522064029893,-0.323283876643763,0.01160644,0.008246681,0.01740966,359.69882,-92.63501,-1.2015712,STD
310600419000,2.854935,-0.227172585926975,9.84762782845452,-0.314699233660686,0.0125227375,-0.0015271631,0.01282817,359.71204,-92.62311,-1.1958905,STD
310605609000,2.860125,-0.216742700720806,9.85805792603085,-0.309484293780296,0.006414085,0.004276057,0.018020526,359.71878,-92.610634,-1.1889633,STD
310610805000,2.865321,-0.20913340257534,9.86877997239378,-0.312683206448396,0.0067195175,0.004276057,0.0070249503,359.726832494472,-92.6057179051256,-1.18383132307538,STD
310615559000,2.870075,-0.205745638996205,9.87894311102017,-0.326234253690007,0.0030543262,-0.0021380284,0.019242255,359.7342,-92.60122,-1.1791359,STD
310620534000,2.87505,-0.202200387880051,9.8895787051864,-0.3404152507508,0.015577064,-0.011911872,0.013439035,359.74863,-92.59492,-1.1702368,STD
310625458000,2.879974,-0.206809567289278,9.89568937164114,-0.341916727842451,0.0033597588,-0.004581489,0.0143553335,359.7587,-92.57669,-1.1577435,STD
310630445000,2.884961,-0.215170097098468,9.89986972166302,-0.33773646512035,0.004276057,-0.00030543262,0.01985312,359.77216,-92.565605,-1.1461855,STD
310635451000,2.889967,-0.22026655,9.90822325652621,-0.33518824,0.0033597588,0.013744468,0.020463986,359.77975,-92.55347,-1.1351551,STD
310640463000,2.894979,-0.22026655,9.92302282199383,-0.33518824,-0.0012217305,0.0125227375,0.019242255,359.7903,-92.54062,-1.1236596,STD
310645410000,2.899926,-0.226529039761668,9.9269739225422,-0.32683825510427,-0.003970624,0.004886922,0.012217305,359.804,-92.53251,-1.1120962,STD
310650451000,2.904967,-0.240911368184707,9.91738551002979,-0.307661820544191,-0.0030543262,0.016798794,0.01160644,359.81223,-92.52387,-1.0993378,STD
310655404000,2.90992,-0.244946421138723,9.90996968433134,-0.311057942071856,-0.010079277,0.013744468,0.01160644,359.819622316794,-92.5173070410659,-1.09408191693348,STD
310660508000,2.915024,-0.235189931573852,9.90509134021956,-0.345205658095808,-0.013439035,0.011911872,0.01282817,359.82724,-92.510544,-1.0886658,STD
310665428000,2.919944,-0.231771621462443,9.89663330823217,-0.365846917435508,-0.004276057,0.012217305,0.010079277,359.8371,-92.503456,-1.0795112,STD
310670461000,2.924977,-0.236342954453718,9.88291952883156,-0.370418240880121,-0.0106901415,0.014660766,0.005497787,359.84946,-92.48736,-1.0733434,STD
310675429000,2.929945,-0.242432290301583,9.87820610490694,-0.371989404062904,-0.0070249503,0.015882496,0.0070249503,359.85602,-92.48826,-1.0684549,STD
310680475000,2.934991,-0.252051979277396,9.89263544500846,-0.3671795570638,-0.014660766,0.009468411,0.01038471,359.86395,-92.484955,-1.0645591,STD
310685394000,2.93991,-0.251618445462038,9.90102690662271,-0.361136528441773,-0.0015271631,0.0027488936,0.005192355,359.8721,-92.490685,-1.0636086,STD
310690564000,2.94508,-0.227613753965868,9.89622587006691,-0.351534645827596,-0.009773844,0.0018325958,0.0067195175,359.88043,-92.4877,-1.0599517,STD
310695469000,2.949985,-0.21068975,9.89392811891892,-0.34476504,-0.008246681,-0.0009162979,0.004886922,359.88766,-92.494194,-1.0639877,STD
310700518000,2.955034,-0.21068975,9.89828435972973,-0.34476504,-0.004886922,-0.004581489,0.0067195175,359.89542,-92.49828,-1.0665237,STD
310705645000,2.960161,-0.211255468438819,9.90298372995781,-0.345613617805907,-0.004581489,0.0012217305,0.0061086523,359.896,-92.4976,-1.0679736,STD
310710591000,2.965107,-0.219582978553094,9.91131140963432,-0.358104885151196,-0.0036651916,-0.0027488936,-0.0009162979,359.90033,-92.4985,-1.0708891,STD
310715535000,2.970051,-0.22790712129571,9.91963572187061,-0.370591101438115,-0.005497787,-0.007330383,0.008552114,359.90118,-92.49465,-1.0708665,STD
310720481000,2.974997,-0.241740135181216,9.90967529935368,-0.376469650689683,-0.0015271631,-0.016187929,0.0030543262,359.9042,-92.49528,-1.0770941,STD
310726288000,2.980804,-0.259939443262701,9.8914761052933,-0.381019472959175,-0.0015271631,0.0012217305,0.002443461,359.90118,-92.49275,-1.078927,STD
310730522000,2.985038,-0.269345017371146,9.88445931759524,-0.38307226,-0.004886922,-0.0030543262,0.004886922,359.90338,-92.501076,-1.0867561,STD
310735465000,2.989981,-0.273003013074724,9.88811700772738,-0.38307226,-0.014049901,-0.0067195175,0.005192355,359.9005,-92.507904,-1.0948814,STD
310740460000,2.994976,-0.27669949062669,9.89181317649332,-0.38307226,-0.005497787,0.0036651916,0.008552114,359.89307,-92.516266,-1.1077489,STD
310745459000,2.999975,-0.274489085275384,9.892841,-0.38307226,-0.004886922,-0.0033597588,-0.00030543262,359.8917,-92.52166,-1.1238182,STD
310750553000,3.005069,-0.269919563057325,9.892841,-0.38307226,-0.011301007,-0.002443461,0.005497787,359.88547,-92.525,-1.1340991,STD
310755433000,3.009949,-0.273109968604755,9.88788178675096,-0.388031633783278,-0.0030543262,-0.002443461,0.008246681,359.880238897066,-92.5308926697008,-1.14266634237436,STD
310760880000,3.015396,-0.282399404914968,9.87859264143887,-0.397321079793429,-0.00030543262,0.0015271631,0.011911872,359.8744,-92.53747,-1.152229,STD
310765614000,3.02013,-0.283514679309978,9.86989840017037,-0.40222588,0.0027488936,-0.004886922,0.010995574,359.86624,-92.546265,-1.1702646,STD
310770528000,3.025044,-0.273492233308487,9.8598757448621,-0.40222588,0.0067195175,-0.0021380284,0.01863139,359.8565,-92.556465,-1.1807147,STD
310775445000,3.029961,-0.270256982695253,9.85664042668453,-0.398013110210567,0.0076358155,0.009773844,0.020158553,359.84955,-92.570915,-1.1925163,STD
310780505000,3.035021,-0.274895057733538,9.86127859858346,-0.388736950447933,0.0143553335,-0.004581489,0.027794369,359.84964,-92.58553,-1.2003114,STD
310785492000,3.040008,-0.2807791736553,9.86258508289938,-0.376968715876029,0.016187929,-0.0076358155,0.021991149,359.8442,-92.594086,-1.2076988,STD
310790480000,3.044996,-0.288803552670922,9.85857281379137,-0.360919966223753,0.019547688,-0.008857546,0.029321533,359.84268,-92.60168,-1.2091596,STD
310795762000,3.050278,-0.295910038913276,9.85526225007284,-0.34476504,0.01740966,-0.016798794,0.030848695,359.84674,-92.60815,-1.212923,STD
310800704000,3.05522,-0.277524642244343,9.86905156754395,-0.34476504,0.015271631,-0.020463986,0.029321533,359.84998,-92.614655,-1.2153883,STD
310805294000,3.05981,-0.260448767960571,9.88185872399728,-0.34476504,0.015271631,-0.0290161,0.029626964,359.85587,-92.62482,-1.2202945,STD
310810783000,3.065299,-0.253744195088518,9.88809417147193,-0.364083349731917,0.016187929,-0.028405234,0.032986723,359.86023,-92.63414,-1.2245802,STD
310815298000,3.069814,-0.249369966256955,9.89246803490137,-0.381580274193222,0.019242255,-0.025961773,0.024740042,359.86636,-92.645195,-1.2320833,STD
310820355000,3.074871,-0.25784380730697,9.88399445368265,-0.38307226,0.022602014,-0.020463986,0.022602014,359.8623,-92.656906,-1.2388225,STD
310825260000,3.079776,-0.267131850327237,9.87470671616411,-0.38307226,0.01282817,-0.01985312,0.025350908,359.859,-92.66606,-1.2462708,STD
310830539000,3.085055,-0.241824557300928,9.86491247680711,-0.378684590034789,0.0076358155,-0.01863139,0.025350908,359.84882,-92.682556,-1.2574947,STD
310835290000,3.089806,-0.21544298614225,9.85611844375725,-0.374287665334364,0.013439035,-0.010995574,0.02443461,359.83685,-92.698555,-1.267718,STD
310840385000,3.094901,-0.21068975,9.86252001416347,-0.381481315727353,0.012217305,-0.007941248,0.02565634,359.82736,-92.715164,-1.2785031,STD
310845322000,3.099838,-0.21068975,9.87182101721255,-0.390782134251992,0.007941248,-0.011301007,0.018020526,359.81763,-92.7331,-1.2916434,STD
310850521000,3.105037,-0.214535458025575,9.88907075178929,-0.39264908,0.005497787,-0.0021380284,0.01863139,359.80008,-92.74572,-1.2968723,STD
310855381000,3.109897,-0.218977031458154,9.90683695276267,-0.39264908,0.010079277,-0.004276057,0.010995574,359.7868,-92.76067,-1.3064756,STD
310860468000,3.114984,-0.22704313747642,9.90183027622714,-0.389260784492781,0.0070249503,-0.009162978,0.0106901415,359.76965,-92.77148,-1.3151603,STD
310865597000,3.120113,-0.236498283604427,9.88764777670837,-0.384533208960539,-0.00030543262,0.0018325958,0.014049901,359.74884,-92.78237,-1.3243439,STD
310870450000,3.124966,-0.226547371740874,9.89291946169666,-0.363763061052956,0.00580322,-0.0015271631,0.009773844,359.7366,-92.793045,-1.3345155,STD
310875407000,3.129923,-0.207021511722365,9.90756363753213,-0.334474291413882,0.0027488936,0.004581489,0.009773844,359.71884,-92.798256,-1.3418791,STD
310880407000,3.134923,-0.19112620149568,9.91532398003774,-0.33559817850432,0.0015271631,-0.0009162979,0.004581489,359.7043,-92.81698,-1.3551058,STD
310885460000,3.139976,-0.1767082044493,9.92013007607508,-0.3500161755507,-0.006414085,-0.0009162979,0.01282817,359.697632310709,-92.8214273655521,-1.35835885979525,STD
310890409000,3.144925,-0.178714185202696,9.921572,-0.35434186,-0.005192355,-0.0009162979,-0.0021380284,359.691101854683,-92.825783196171,-1.36154496565845,STD
310895450000,3.149966,-0.188011570663457,9.921572,-0.35434186,-0.01038471,0.0076358155,0.009162978,359.68445,-92.83022,-1.3647903,STD
310900468000,3.154984,-0.200176669632175,9.91581152395702,-0.357222037872423,-0.0125227375,0.009468411,0.013133603,359.6703,-92.83958,-1.3691232,STD
310905460000,3.159976,-0.214059377660439,9.9065561984319,-0.361849603993805,-0.013744468,0.013439035,-0.00030543262,359.65356,-92.84604,-1.3726041,STD
310910724000,3.16524,-0.22324164097541,9.89349286065574,-0.369868835737705,-0.016187929,0.018325957,0.00580322,359.63992,-92.84993,-1.3690592,STD
310915466000,3.169982,-0.227894636161885,9.87953408401639,-0.379174816393443,-0.01282817,0.017715093,0.00030543262,359.62656,-92.8581,-1.3725222,STD
310920511000,3.175027,-0.237765329009374,9.88160985595817,-0.372509632815937,-0.019242255,0.015882496,0.005497787,359.61426,-92.85964,-1.3735218,STD
310925457000,3.179973,-0.250574109238327,9.89441845339823,-0.355431256205156,-0.014966198,0.013744468,-0.0018325958,359.60217,-92.86692,-1.3794612,STD
310930440000,3.184956,-0.265298575959774,9.89905570673835,-0.34476504,-0.012217305,0.021991149,0.009773844,359.58862,-92.871124,-1.3791041,STD
310935791000,3.190307,-0.284297750558903,9.88955642941885,-0.34476504,-0.008857546,0.022907447,0.011301007,359.57773,-92.87865,-1.383603,STD
310940481000,3.194997,-0.291439218998413,9.88108823641412,-0.342588321872273,-0.012217305,0.019242255,0.0030543262,359.5724,-92.87469,-1.3862886,STD
310945522000,3.200038,-0.267501942515867,9.87151313585879,-0.333013421277271,-0.006414085,0.02565634,0.0106901415,359.56415,-92.871544,-1.3838032,STD
310950578000,3.205094,-0.24899697,9.86499172228834,-0.327372847791796,-0.007941248,0.032375857,0.020158553,359.55923,-92.87471,-1.3861898,STD
310955458000,3.209974,-0.24899697,9.86870002666032,-0.334789301651988,-0.0030543262,0.032070424,0.011911872,359.55444,-92.88212,-1.3913414,STD
310960435000,3.214951,-0.24899697,9.87248204118067,-0.342353172730302,-0.0143553335,0.019242255,0.01160644,359.54846,-92.88255,-1.3877106,STD
310965467000,3.219983,-0.258186972910864,9.86756120984215,-0.34476504,-0.0021380284,0.021685716,0.02076942,359.53827,-92.88969,-1.3835043,STD
310970474000,3.22499,-0.271543821844011,9.85865646722377,-0.34476504,-0.008857546,0.015271631,0.025350908,359.5343,-92.88974,-1.3809606,STD
310975459000,3.229975,-0.280105770947016,9.85215557938356,-0.34476504,0.0012217305,0.024129177,0.02107485,359.52762,-92.88952,-1.3765236,STD
310980490000,3.235006,-0.28459230421827,9.84766895241643,-0.34476504,-0.00061086525,0.026267206,0.020463986,359.52475,-92.88364,-1.3700762,STD
310985476000,3.239992,-0.285400390106296,9.844957,-0.350476473656991,-0.0021380284,0.024129177,0.02076942,359.52704,-92.87658,-1.3635668,STD
310990516000,3.245032,-0.280467124366312,9.844957,-0.365276281179477,-0.0061086523,0.01985312,0.018325957,359.5292,-92.8691,-1.358214,STD
310995453000,3.249969,-0.2777274,9.85095630442426,-0.37349546,0.004886922,0.014049901,0.020158553,359.5352,-92.86151,-1.3510007,STD
311000477000,3.254993,-0.2777274,9.86505382801055,-0.37349546,0.004276057,0.01985312,0.02076942,359.5389,-92.850845,-1.3449656,STD
311005421000,3.259937,-0.279248833424098,9.87673077152825,-0.375016893424098,0.009773844,0.014660766,0.015577064,359.5466,-92.845505,-1.3397908,STD
311010781000,3.265297,-0.283616740844112,9.88546631271273,-0.379384800844112,-0.00061086525,0.004276057,0.013744468,359.55405,-92.83569,-1.3337141,STD
311015663000,3.270179,-0.286255612274958,9.892841,-0.383596553999387,0.008246681,0.0027488936,0.014049901,359.56256,-92.83361,-1.3267714,STD
311020468000,3.274984,-0.272142267684404,9.892841,-0.390653228136789,0.014966198,0.004276057,0.018020526,359.57303,-92.82837,-1.3196713,STD
311025386000,3.279902,-0.25769701717528,9.892841,-0.397875855276798,0.009468411,-0.0021380284,0.02565634,359.5868,-92.81981,-1.3125292,STD
311030444000,3.28496,-0.24899697,9.892841,-0.388177600311938,0.016493361,0.00030543262,0.021991149,359.59732,-92.81731,-1.3076351,STD
311035464000,3.28998,-0.24899697,9.892841,-0.354531434265147,0.019242255,0.00061086525,0.02443461,359.61023,-92.81078,-1.2992619,STD
311040459000,3.294975,-0.24899697,9.890732,-0.337297416190476,0.011301007,0.009773844,0.018020526,359.61478,-92.80744,-1.293249,STD
311045458000,3.299974,-0.24899697,9.885733,-0.342296833817878,0.009162978,0.0027488936,0.016187929,359.6238,-92.80543,-1.2857345,STD
311051382000,3.305898,-0.24899697,9.88980708025301,-0.34476504,0.0021380284,-0.0021380284,0.015882496,359.62967,-92.78985,-1.279702,STD
311055493000,3.310009,-0.24899697,9.89758905129472,-0.34476504,0.0015271631,0.0076358155,0.020158553,359.63324,-92.7755,-1.2730067,STD
311060440000,3.314956,-0.242531478657838,9.8959526031746,-0.338299548657838,0.0061086523,0.017715093,0.018936822,359.6378,-92.76541,-1.2683085,STD
311065616000,3.320132,-0.228564290349394,9.88198561904762,-0.324332360349394,-0.0021380284,0.0061086523,0.015271631,359.64566,-92.75207,-1.2634562,STD
311070478000,3.324994,-0.223229460042417,9.873688,-0.313071714598338,0.0033597588,0.014049901,0.01863139,359.6427,-92.74564,-1.2584763,STD
311075456000,3.329972,-0.231483162443733,9.873688,-0.304818025124654,-0.00030543262,0.006414085,0.0125227375,359.6473,-92.73681,-1.2576891,STD
311080529000,3.335045,-0.23942018,9.87452979694703,-0.296319813635898,0.0018325958,0.0061086523,0.01740966,359.646,-92.71922,-1.2505121,STD
311085679000,3.340195,-0.23942018,9.88968802868559,-0.286214174562033,0.0027488936,0.007941248,0.026572637,359.64618,-92.70123,-1.2440467,STD
311090457000,3.344973,-0.238552260185056,9.90155010873262,-0.278595319361809,0.007330383,-0.0030543262,0.0143553335,359.65353,-92.68531,-1.2423038,STD
311095472000,3.349988,-0.228943832211664,9.89194199679904,-0.288203742318696,-0.00061086525,-0.00580322,0.01038471,359.6581,-92.6648,-1.2357258,STD
311100549000,3.355065,-0.221596976750042,9.883265,-0.297767970549265,0.0009162979,-0.003970624,0.008552114,359.66434,-92.64864,-1.2321476,STD
311105482000,3.359998,-0.233573245286463,9.883265,-0.305752144015548,-0.005192355,-0.01160644,0.009773844,359.67395,-92.62931,-1.2291226,STD
311110436000,3.364952,-0.245600497329728,9.883265,-0.313770306462735,0.008246681,-0.014660766,0.015577064,359.67798,-92.62145,-1.2256176,STD
311115520000,3.370036,-0.255538316297498,9.88653539481001,-0.319305294856349,0.0015271631,-0.006414085,0.002443461,359.6807,-92.60976,-1.227248,STD
311120416000,3.374932,-0.264229342477294,9.89088053809082,-0.323650810215014,-0.0036651916,-0.014966198,0.007330383,359.68927,-92.59895,-1.2224466,STD
311125473000,3.379989,-0.256576335251432,9.89862824718863,-0.319824307625716,0.004581489,-0.010995574,0.0030543262,359.69125,-92.596016,-1.2278231,STD
311130476000,3.384992,-0.236244155989815,9.9087945385105,-0.309658217994908,-0.0076358155,-0.0143553335,0.0021380284,359.69785,-92.585785,-1.2309796,STD
311135551000,3.390067,-0.233175918162657,9.90532975840127,-0.313122929365679,-0.00580322,-0.0076358155,-0.002443461,359.6993,-92.58265,-1.2394575,STD
311140478000,3.394994,-0.237867207896202,9.89594700258501,-0.322505499035594,-0.011301007,-0.0027488936,-0.0021380284,359.70233,-92.57439,-1.2466655,STD
311145464000,3.39998,-0.230990007475074,9.89846122651741,-0.336851664164772,-0.010079277,-0.0018325958,0.0018325958,359.70657,-92.56814,-1.2472128,STD
311150525000,3.405041,-0.218273136193808,9.90693930890327,-0.353807483687249,-0.013133603,0.0012217305,-0.0021380284,359.70868,-92.56076,-1.2498453,STD
311155507000,3.410023,-0.20523948970057,9.9083614197817,-0.35846839970057,-0.009773844,0.0012217305,0.008857546,359.708788390032,-92.5591686372627,-1.24964330039557,STD
311160637000,3.415153,-0.191003320995847,9.89887044904859,-0.344232230995847,-0.007330383,0.005192355,0.009162978,359.7089,-92.55753,-1.2494353,STD
311165648000,3.420164,-0.187441924035508,9.88918605435138,-0.337015770072977,-0.01985312,0.004276057,0.014049901,359.70953,-92.55054,-1.2519009,STD
311170493000,3.425009,-0.202603549664525,9.87907862760048,-0.342069641764514,-0.008857546,0.0067195175,0.009468411,359.6997,-92.55476,-1.2563715,STD
311175457000,3.429973,-0.224065808587637,9.873688,-0.34476504,-0.009468411,0.0076358155,0.013744468,359.68912,-92.54671,-1.2544937,STD
311180445000,3.434961,-0.252099329694836,9.873688,-0.34476504,-0.021991149,0.006414085,0.0076358155,359.6784,-92.540634,-1.2567785,STD
311185446000,3.439962,-0.266228603335516,9.86984393843563,-0.342843049356287,-0.013133603,-0.0018325958,0.0009162979,359.67358,-92.54021,-1.2587287,STD
311190398000,3.444914,-0.261791434345996,9.86096944292665,-0.338405894266467,-0.011911872,0.0061086523,0.0070249503,359.66467,-92.53397,-1.2584791,STD
311195423000,3.449939,-0.257138151016099,9.84735590508049,-0.330881380050178,-0.009773844,0.0015271631,0.01038471,359.663,-92.536674,-1.2674316,STD
311200495000,3.455011,-0.252060424735522,9.82196727367761,-0.315648190604223,0.0106901415,0.003970624,0.0143553335,359.6573,-92.54319,-1.2740085,STD
311205541000,3.460057,-0.24899697,9.81149501706716,-0.312917711221873,0.00580322,0.002443461,0.017104227,359.65363,-92.53821,-1.2791328,STD
311211281000,3.465797,-0.24899697,9.82549823860066,-0.331588293101809,-0.004886922,-0.008246681,0.0143553335,359.65198,-92.53704,-1.2845854,STD
311215531000,3.470047,-0.248811672847837,9.83575158308216,-0.344579742654351,-0.0009162979,0.0015271631,0.021380283,359.64688,-92.53391,-1.2836672,STD
311220465000,3.474981,-0.244217420843948,9.84493980884784,-0.339985485853184,0.0106901415,-0.0027488936,0.013439035,359.64865,-92.53278,-1.288032,STD
311225836000,3.480352,-0.239254422979531,9.85420249703628,-0.335519753694776,0.0030543262,-0.008857546,0.021685716,359.644,-92.525505,-1.289026,STD
311230484000,3.485,-0.235736438362444,9.84716676290208,-0.342555715582075,0.015271631,-0.009773844,0.022907447,359.63907,-92.52818,-1.2940803,STD
311235457000,3.489973,-0.231972467299455,9.83963907231487,-0.350083649847467,0.00580322,-0.007330383,0.015882496,359.63666,-92.52367,-1.2963971,STD
311240466000,3.494982,-0.22984336,9.84844604038103,-0.345631702716919,0.0061086523,0.0015271631,0.025350908,359.63287,-92.521965,-1.29357,STD
311245547000,3.500063,-0.22984336,9.87867530731,-0.325478556471319,0.0106901415,0.004276057,0.009773844,359.62985,-92.523766,-1.2998848,STD
311250523000,3.505039,-0.232343797458497,9.88784029218231,-0.313534187763356,0.007941248,0.00580322,0.008857546,359.61987,-92.52633,-1.3018283,STD
311255456000,3.509972,-0.237097037528926,9.87833412969112,-0.308780957619479,0.0033597588,0.004581489,0.010995574,359.60995,-92.53115,-1.3070816,STD
311260497000,3.515013,-0.232067024015181,9.87613910062281,-0.311359923989879,-0.005192355,0.0070249503,0.010079277,359.5963,-92.53452,-1.3148,STD
311265570000,3.520086,-0.217883541007201,9.88086702209031,-0.320815579328533,0.0030543262,0.002443461,0.005497787,359.5852,-92.54093,-1.3227271,STD
311270416000,3.524932,-0.208554367507357,9.88112957514224,-0.319205294751815,-0.0009162979,0.0021380284,0.0015271631,359.57523,-92.54042,-1.3294808,STD
311275456000,3.529972,-0.203819511474397,9.87639462517167,-0.305000731597018,-0.0021380284,0.012217305,0.004886922,359.5638,-92.54207,-1.3350996,STD
311280424000,3.53494,-0.205119111985368,9.87569112677891,-0.304893363970736,-0.013439035,0.01038471,0.013133603,359.54962,-92.542534,-1.3414333,STD
311285447000,3.539963,-0.214761182844257,9.88051226037282,-0.324177505688515,-0.008552114,0.003970624,0.00580322,359.53403,-92.5483,-1.3508259,STD
311290464000,3.54498,-0.224356895907781,9.88530999890689,-0.333143070249429,-0.0061086523,0.004886922,0.006414085,359.52115,-92.54192,-1.3510603,STD
311295535000,3.550051,-0.234008894092219,9.89013558730001,-0.328317078716089,-0.004581489,0.0061086523,0.0076358155,359.51007,-92.53764,-1.3531135,STD
311300523000,3.555039,-0.24348673949223,9.89080788904286,-0.331711286669306,-0.009468411,0.004581489,0.0009162979,359.5053,-92.538734,-1.3550633,STD
311305465000,3.559981,-0.252855940895774,9.88612367722459,-0.345765105895279,-0.008857546,0.0021380284,0.004276057,359.5006,-92.5397,-1.3537385,STD
311310467000,3.564983,-0.263183823646279,9.88172828496405,-0.358951908832512,-0.01282817,0.006414085,0.0033597588,359.49124,-92.54129,-1.3603585,STD
311315592000,3.570108,-0.275080361882524,9.87776269354448,-0.370848434646522,-0.0070249503,0.003970624,0.005192355,359.4847,-92.54435,-1.3650984,STD
311320404000,3.57492,-0.28625034080795,9.87403929336673,-0.382018401908378,-0.0027488936,0.0015271631,0.0076358155,359.47827,-92.54483,-1.3713272,STD
311325466000,3.579982,-0.295345369912536,9.88172890962099,-0.375031098483965,-0.01282817,0.0027488936,0.0012217305,359.4716,-92.54431,-1.3793061,STD
311330732000,3.585248,-0.304534779799563,9.89091802204811,-0.36584169819242,-0.007330383,0.0012217305,0.0036651916,359.46658,-92.54677,-1.3838933,STD
311335439000,3.589955,-0.309929349813977,9.892841,-0.360447130186023,-0.0012217305,0.003970624,0.0076358155,359.46634,-92.546776,-1.3885677,STD
311340469000,3.594985,-0.314773120955254,9.892841,-0.355603359044746,-0.0036651916,-0.00580322,0.00580322,359.4701,-92.546616,-1.3942069,STD
311345468000,3.599984,-0.295460702145977,9.8894123031156,-0.340625912376978,-0.004886922,-0.0009162979,0.0067195175,359.47217,-92.546936,-1.3975133,STD
311350590000,3.605106,-0.266894801563622,9.88465172153742,-0.321581975341163,-0.005192355,-0.004276057,0.0070249503,359.47952,-92.54736,-1.4016596,STD
311355462000,3.609978,-0.252696942276688,9.883265,-0.327788293856209,-0.006414085,0.0009162979,0.006414085,359.4835,-92.546326,-1.4063604,STD
311360465000,3.614981,-0.243998194022331,9.883265,-0.345185817614379,-0.0015271631,0.003970624,0.005497787,359.48917,-92.546776,-1.4110913,STD
311365660000,3.620176,-0.241948334145286,9.883265,-0.349285541149923,-0.0009162979,-0.004581489,0.003970624,359.4974,-92.541504,-1.4080721,STD
311370437000,3.624953,-0.246662226554353,9.883265,-0.339857736642968,-0.005497787,0.00061086525,0.011911872,359.50073,-92.534966,-1.4025704,STD
311376385000,3.630901,-0.245819196792033,9.87373147132932,-0.322477127258916,-0.006414085,0.0067195175,0.013133603,359.5138,-92.531586,-1.3913631,STD
311380444000,3.63496,-0.242218252779991,9.86292840240852,-0.308073328650301,0.003970624,-0.0015271631,0.01038471,359.52933,-92.52938,-1.3796135,STD
311385431000,3.639947,-0.243046719662225,9.86178704524326,-0.298694290777812,0.0015271631,-0.0030543262,0.017104227,359.54147,-92.523636,-1.365994,STD
311390461000,3.644977,-0.252998435156492,9.8816903827084,-0.303670151122818,0.0015271631,0.0009162979,0.023823744,359.548509198329,-92.5240832667595,-1.36030610761886,STD
311395485000,3.650001,-0.260523067562281,9.88699320704927,-0.320102868333641,0.01160644,-0.0036651916,0.021380283,359.55554,-92.52453,-1.354625,STD
311400499000,3.655015,-0.26495361061635,9.87370180457649,-0.351116591064772,0.005192355,-0.013133603,0.013744468,359.57376,-92.51961,-1.3429234,STD
311405507000,3.660023,-0.271626255683203,9.86642815056571,-0.368861253228895,0.014660766,-0.0070249503,0.016493361,359.58865,-92.51925,-1.3291495,STD
311410529000,3.665045,-0.284183624633594,9.87479989886858,-0.352118097542211,0.0018325958,-0.007941248,0.015577064,359.60785,-92.51382,-1.3192638,STD
311415795000,3.670311,-0.296187007954129,9.88395900751662,-0.335014737214995,0.008552114,-0.010995574,0.008552114,359.6284,-92.518,-1.3099259,STD
311420413000,3.674929,-0.279139414189072,9.90100649002602,-0.330752844336513,-0.0015271631,-0.009773844,0.01282817,359.64774,-92.51357,-1.2980734,STD
311425385000,3.679901,-0.260785010507854,9.9193607739231,-0.326164249405416,0.009468411,-0.0076358155,0.0070249503,359.67117,-92.52236,-1.292118,STD
311430447000,3.684963,-0.243429370774205,9.91778582310213,-0.333183635659492,0.00030543262,-0.0070249503,0.011301007,359.69452,-92.52166,-1.282518,STD
311435412000,3.689928,-0.226581523551245,9.9135737755337,-0.341607554872885,-0.0009162979,-0.0027488936,0.02076942,359.71588,-92.525635,-1.2734218,STD
311440454000,3.69497,-0.223201125918505,9.90906036586071,-0.34476504,0.008246681,-0.004581489,0.014660766,359.73373,-92.52758,-1.2666284,STD
311445468000,3.699984,-0.227826703930257,9.90443469607938,-0.34476504,0.0018325958,-0.0036651916,0.009773844,359.7494,-92.52399,-1.2571712,STD
311450544000,3.70506,-0.221579933069267,9.902418,-0.336501613069268,0.002443461,0.0012217305,0.010079277,359.7642,-92.51938,-1.2434516,STD
311455631000,3.710147,-0.207034586080812,9.902418,-0.321956266080812,0.0009162979,0.002443461,0.016187929,359.77948,-92.512794,-1.2299975,STD
311460495000,3.715011,-0.203914074184731,9.89681591297518,-0.310432357480364,-0.004276057,0.007941248,-0.0009162979,359.79233,-92.503815,-1.2243559,STD
311465442000,3.719958,-0.208875481564562,9.88689341941565,-0.300509553081998,-0.0143553335,0.0067195175,0.0106901415,359.80682,-92.48879,-1.2092887,STD
311470475000,3.724991,-0.207881597618008,9.883265,-0.305305474213734,-0.014049901,0.0009162979,0.0027488936,359.81406,-92.47889,-1.2062656,STD
311475451000,3.729967,-0.203547426944065,9.883265,-0.318307981709868,-0.0027488936,0.011301007,0.0015271631,359.81708,-92.46717,-1.1981397,STD
311480528000,3.735044,-0.209914502795006,9.883265,-0.327811828401128,-0.013439035,0.0106901415,0.002443461,359.8253,-92.449,-1.1929872,STD
311485455000,3.739971,-0.22891770169553,9.883265,-0.332562623165526,-0.011301007,0.006414085,0.0018325958,359.83145,-92.43766,-1.188725,STD
311490457000,3.744973,-0.23527910014325,9.87705326022199,-0.33518824,-0.008857546,0.0143553335,0.0018325958,359.83575,-92.42607,-1.1815583,STD
311495485000,3.750001,-0.226142922205673,9.86334872858363,-0.33518824,-0.0106901415,0.008246681,0.01038471,359.84528,-92.41324,-1.1725768,STD
311500563000,3.755079,-0.227589638708273,9.854534,-0.342511328708273,-0.0067195175,0.013439035,-0.0015271631,359.85596,-92.40589,-1.1690474,STD
311505447000,3.759963,-0.24698549838897,9.854534,-0.36190718838897,-0.009162978,0.014660766,0.008246681,359.8696,-92.39269,-1.1573589,STD
311510440000,3.764956,-0.252985505962692,9.85267120706787,-0.380946480013123,-0.021380283,0.01282817,0.005497787,359.8765,-92.38558,-1.1548436,STD
311515876000,3.770392,-0.238345600754593,9.84779113845144,-0.400466357020997,-0.007330383,0.014049901,0.0027488936,359.88214,-92.383316,-1.1497176,STD
311520399000,3.774915,-0.233959758160269,9.85318982211034,-0.409058415514999,-0.005497787,0.021991149,0.00580322,359.8887,-92.375465,-1.1470277,STD
311525420000,3.779936,-0.249090384194462,9.8834511689742,-0.398971335003147,-0.005192355,0.0036651916,0.0018325958,359.90225,-92.37229,-1.1474926,STD
311530387000,3.784903,-0.257117039870455,9.90096123944839,-0.385365423267865,-0.0030543262,0.003970624,0.0125227375,359.90424,-92.368454,-1.1421001,STD
311535419000,3.789935,-0.253089421182616,9.89693353664856,-0.365227313006268,0.0030543262,0.004276057,0.0106901415,359.91122,-92.368095,-1.1417079,STD
311540991000,3.795507,-0.249937842877783,9.89190015806935,-0.342883296209332,-0.00030543262,0.007941248,0.019242255,359.91455,-92.3639,-1.1411235,STD
311545450000,3.799966,-0.259078043666524,9.88276025791952,-0.324602913720034,-0.00580322,0.016187929,0.010079277,359.9163,-92.36345,-1.1460468,STD
311550446000,3.804962,-0.268579749056604,9.873688,-0.306028670943396,-0.01160644,0.014660766,0.01282817,359.91943,-92.35475,-1.144446,STD
311555442000,3.809958,-0.272341202893082,9.873688,-0.302267217106918,-0.0067195175,-0.0012217305,0.0076358155,359.92416,-92.34999,-1.1477532,STD
311560437000,3.814953,-0.276101903836478,9.873688,-0.298506516163522,0.003970624,0.017104227,0.009162978,359.9209,-92.344025,-1.1495465,STD
311565522000,3.820038,-0.274769962870712,9.86777300221636,-0.314625655128232,-0.00580322,0.018020526,0.0033597588,359.92703,-92.33623,-1.1551977,STD
311570490000,3.825006,-0.269748586364116,9.8577300394723,-0.344753935140897,-0.004581489,0.013744468,0.0106901415,359.92957,-92.33191,-1.1564257,STD
311575485000,3.830001,-0.271313834829721,9.86086060178019,-0.34801538373452,-0.010995574,0.0033597588,0.004886922,359.9387,-92.32241,-1.1602068,STD
311580440000,3.834956,-0.275904880108359,9.87004288409443,-0.338833283589396,-0.0021380284,0.004276057,0.009468411,359.9459,-92.31484,-1.1589093,STD
311585698000,3.840214,-0.274454920631295,9.873688,-0.341733205571592,-0.0076358155,0.009162978,0.009468411,359.94946,-92.311104,-1.163452,STD
311590487000,3.845003,-0.269692871498287,9.873688,-0.351257313782577,-0.009162978,-0.0021380284,0.0143553335,359.9575,-92.30926,-1.1653777,STD
311595469000,3.849985,-0.274339130144081,9.88297066597608,-0.351247588465957,0.0036651916,0.00030543262,0.003970624,359.96066,-92.31037,-1.1721351,STD
311600476000,3.854992,-0.283370307769093,9.89651724380827,-0.346731990223185,-0.0030543262,-0.0070249503,0.00061086525,359.96994,-92.30477,-1.1756755,STD
311605457000,3.859973,-0.279956935044296,9.89996886309252,-0.34476504,-0.011301007,0.008857546,0.015882496,359.978,-92.30045,-1.1704782,STD
311610545000,3.865061,-0.266605905010503,9.89551843145493,-0.34476504,-0.003970624,0.0012217305,0.010995574,359.99454,-92.30187,-1.1724322,STD
311615485000,3.870001,-0.262333660385499,9.88908123328458,-0.341005155503552,-0.0067195175,0.0033597588,0.013133603,0.0026530689,-92.29871,-1.1712022,STD
311620434000,3.87495,-0.272236639373172,9.87917858002507,-0.331102192026745,0.00061086525,0.004886922,0.012217305,0.012952964,-92.30105,-1.1723928,STD
311625461000,3.879977,-0.279896000912517,9.873688,-0.321274233646102,-0.0018325958,0.013439035,0.008246681,0.014194891,-92.30386,-1.1749618,STD
311630440000,3.884956,-0.284625507677048,9.873688,-0.311815210240032,-0.005192355,0.005192355,0.01160644,0.019857194,-92.30717,-1.1758215,STD
311635434000,3.88995,-0.285350557961903,9.86978063432486,-0.310365108156141,-0.00030543262,0.009162978,0.0033597588,0.023035755,-92.31296,-1.1806359,STD
311640468000,3.894984,-0.280826807262832,9.86073294398048,-0.319412619001595,-0.0106901415,0.00580322,0.004581489,0.030744903,-92.31225,-1.1819427,STD
311645458000,3.899974,-0.274593761202888,9.8608012350568,-0.320910985894469,-0.016798794,0.008552114,0.015577064,0.036205165,-92.31019,-1.1834592,STD
311650639000,3.905155,-0.264058146272428,9.88187232190254,-0.305107577250239,-0.016798794,0.002443461,0.005497787,0.0403361431869645,-92.311455127907,-1.18644134005508,STD
311655262000,3.909778,-0.25857377,9.88926963026431,-0.295095275463259,-0.0033597588,0.00580322,0.010995574,0.04402221,-92.312584,-1.1891023,STD
311660325000,3.914841,-0.25857377,9.87988134107852,-0.29040097401491,0.0012217305,0.0036651916,0.01038471,0.045720104,-92.316284,-1.1932106,STD
311665291000,3.919807,-0.255413573415525,9.87052773576864,-0.290464401534247,-0.005192355,-0.00580322,0.01282817,0.04890185,-92.321106,-1.1962022,STD
311670335000,3.924851,-0.245610355966514,9.86072430847286,-0.3002676343379,-0.0036651916,-0.0067195175,0.018020526,0.0502971,-92.32841,-1.1984155,STD
311675298000,3.929814,-0.241113619345599,9.854534,-0.309844705764296,0.0033597588,-0.005497787,0.0143553335,0.056006946,-92.3349,-1.2007734,STD
311680388000,3.934904,-0.245961541881651,9.854534,-0.319540571085032,-0.00030543262,-0.0036651916,0.005192355,0.06173532,-92.339066,-1.2032826,STD
311685305000,3.939821,-0.253756943558705,9.85929406799464,-0.330371411901934,-0.008552114,-0.008552114,0.010079277,0.07013379,-92.341385,-1.199633,STD
311690332000,3.944848,-0.267588381176978,9.87312578002298,-0.344202844705995,-0.0018325958,0.0015271631,0.0076358155,0.07349522,-92.348724,-1.2005824,STD
311695325000,3.949841,-0.269958246413066,9.88714951933016,-0.355636717804424,-0.003970624,-0.00061086525,0.0070249503,0.082241125,-92.35581,-1.2006502,STD
311700331000,3.954847,-0.240224008755427,9.90201641823444,-0.360592419768452,-0.00030543262,0.0027488936,-0.0012217305,0.08637904,-92.36713,-1.2034785,STD
311705319000,3.959835,-0.214531915134713,9.90769408597701,-0.358184025134713,-0.00580322,-0.004581489,0.009162978,0.09155786,-92.377075,-1.2070755,STD
311710377000,3.964893,-0.196715095018851,9.89433166390804,-0.340367205018851,0.0009162979,-0.0061086523,0.003970624,0.09393511,-92.39392,-1.2171547,STD
311715376000,3.969892,-0.182687911572274,9.88472211749789,-0.326340021572274,-0.004886922,-0.0076358155,0.005192355,0.09033546,-92.40427,-1.2211703,STD
311720383000,3.974899,-0.187191625069034,9.89372926232742,-0.330843735069034,0.005192355,-0.0067195175,0.008857546,0.08654254,-92.4201,-1.225761,STD
311725594000,3.98011,-0.192549206355391,9.90140493845442,-0.335525931883387,0.0009162979,-0.0033597588,0.0067195175,0.07793198,-92.428696,-1.2301563,STD
311730371000,3.984887,-0.205251216197131,9.88870311429894,-0.339759932216566,-0.0030543262,-0.004886922,0.004886922,0.07061289,-92.43885,-1.2333109,STD
311735393000,3.989909,-0.218604679338269,9.87534984636742,-0.34421108349838,-0.011911872,-0.0015271631,0.006414085,0.0637653,-92.44798,-1.2349344,STD
311740384000,3.9949,-0.232853045456552,9.86949241681718,-0.348960544326711,-0.01282817,-0.004276057,0.005497787,0.059143662,-92.45832,-1.2377405,STD
311745345000,3.999861,-0.247154832895846,9.86472505809753,-0.353727813443709,-0.010995574,-0.008552114,0.005192355,0.054106757,-92.466515,-1.2398033,STD
311750376000,4.004892,-0.266267074101827,9.87274622562102,-0.358659382644221,-0.008552114,-0.007330383,0.0076358155,0.050264373,-92.47396,-1.2435881,STD
311755365000,4.009881,-0.285884685523506,9.88255522849517,-0.363563781658797,-0.0125227375,0.004276057,0.006414085,0.044698834,-92.48055,-1.248289,STD
311760375000,4.014891,-0.265361094137013,9.88765325273534,-0.333198306292755,-0.017715093,0.0027488936,0.0067195175,0.03991671,-92.48647,-1.2577735,STD
311765390000,4.019906,-0.241690481983243,9.89238697772302,-0.30005944334549,-0.023823744,0.0030543262,0.0015271631,0.031393643,-92.491936,-1.2686778,STD
311770806000,4.025322,-0.23942018,9.87847017595784,-0.316042395501723,-0.011911872,0.0067195175,0.0009162979,0.018107498,-92.50357,-1.2861873,STD
311775381000,4.029897,-0.23942018,9.86514767950537,-0.33380598069329,-0.012217305,0.0018325958,0.0027488936,0.0074487557,-92.51091,-1.3039107,STD
311780376000,4.034892,-0.243714692209763,9.85552178724021,-0.322304680949251,-0.010079277,-0.01038471,-0.002443461,359.99496,-92.522736,-1.3192964,STD
311785337000,4.039853,-0.24830729300145,9.8463363842436,-0.308526854596423,-0.003970624,-0.0027488936,0.011301007,359.9787,-92.53196,-1.3280606,STD
311790377000,4.044893,-0.261426179996978,9.844957,-0.30645782,-0.0070249503,-0.0015271631,-0.0009162979,359.96542,-92.544,-1.3472759,STD
311795374000,4.04989,-0.275886893001612,9.844957,-0.30645782,-0.0076358155,-0.0012217305,0.00061086525,359.95078,-92.55359,-1.3580831,STD
