timestamp,rel_time,acc_x,acc_y,acc_z,gyro_x,gyro_y,gyro_z,azimuth,pitch,roll,label
97398631000,0,0.551762542063253,9.88179383433735,-0.52744549686747,0.0012217305,-0.23518312,-0.011911872,174.00227,-60.293446,14.551736,STD
97403692000,0.005061,0.593473560805723,9.87136586596385,-0.600439838192771,0.00580322,-0.23335053,-0.010079277,173.53952,-60.587753,14.151858,STD
97408633000,0.010002,0.645208765933969,9.86010229409453,-0.846316095833743,0.0012217305,-0.22266038,-0.0015271631,173.07819,-60.85084,13.780321,STD
97413730000,0.015099,0.726747614001179,9.84571329831974,-1.54659075721725,-0.015577064,-0.22388211,-0.0015271631,172.61746,-61.097984,13.424328,STD
97418653000,0.020022,0.778008056608739,9.82687582732295,-1.85624870360623,-0.019547688,-0.2098322,0.006414085,172.18047,-61.32651,13.103957,STD
97423724000,0.025093,0.748737933879458,9.79272718864892,-1.08059088681065,-0.032375857,-0.22235495,-0.0021380284,171.74536,-61.5372,12.794193,STD
97428737000,0.030106,0.734386196364708,9.77489188268815,-0.450757303375909,-0.025961773,-0.20738874,0.0036651916,171.72284,-61.834225,12.685929,STD
97433769000,0.035138,0.758060080349774,9.79856571723325,-0.176140615004913,-0.040927973,-0.20647246,0.014966198,171.67688,-62.110264,12.573597,STD
97438695000,0.040064,0.784639075717549,9.81957108183533,-0.132902571105373,-0.044593163,-0.19975294,0.022907447,171.20892,-62.251015,12.305531,STD
97443782000,0.045151,0.82334574497964,9.83408588072301,-0.834461466799086,-0.04184427,-0.19914207,0.02321288,170.74586,-62.38182,12.051137,STD
97448723000,0.050092,0.844781041178757,9.84603627331606,-1.20449437381088,-0.049785517,-0.20647246,0.028099801,170.2521,-62.478992,11.799427,STD
97453723000,0.055092,0.811382461067158,9.85080759655241,-0.517437670941212,-0.06352998,-0.20830505,0.04062254,169.76462,-62.569626,11.561516,STD
97458696000,0.060065,0.784291768368592,9.85503720948539,-0.0387143110886549,-0.065973446,-0.22021692,0.043066,169.49919,-62.743374,11.415224,STD
97463743000,0.065112,0.779535861033651,9.8574152041228,-0.31217818554787,-0.06383542,-0.22479841,0.042760566,169.21669,-62.905132,11.270708,STD
97468711000,0.07008,0.774854397265079,9.85975597633573,-0.581361567420939,-0.07544186,-0.2275473,0.046731193,168.75821,-62.977154,11.064884,STD
97473732000,0.075101,0.770122990344387,9.86212172055495,-0.853416672168257,-0.06994407,-0.21594086,0.0571159,168.30807,-63.052986,10.87002,STD
97478765000,0.080134,0.763062442539683,9.86719304136905,-1.05367014435516,-0.07269296,-0.2134974,0.047647487,167.86975,-63.12169,10.6886635,STD
97483758000,0.085127,0.744087457460317,9.88616792738095,-0.878151383769841,-0.073303826,-0.20647246,0.043066,167.43274,-63.190292,10.516695,STD
97488682000,0.090051,0.722922811423481,9.90149654682241,-0.709407967356959,-0.076052725,-0.19608775,0.05222898,167.06412,-63.315186,10.374325,STD
97493725000,0.095094,0.684676259121956,9.89432542278757,-0.565983392482182,-0.07544186,-0.17684549,0.05497787,166.68628,-63.437046,10.228907,STD
97498707000,0.100076,0.646892336146308,9.88724104048703,-0.424293677624728,-0.07238753,-0.1685988,0.04642576,166.27882,-63.54192,10.072574,STD
97503726000,0.105095,0.60882780194021,9.88010404434765,-0.281551670625619,-0.058643065,-0.15271631,0.03756821,165.86488,-63.647953,9.917491,STD
97508690000,0.110059,0.572042980331885,9.87197773093639,-0.151946200612406,-0.04917465,-0.13439035,0.028405234,165.46326,-63.760857,9.766465,STD
97513709000,0.115078,0.543556605742789,9.8529869335243,-0.137703018275385,-0.045814894,-0.11789699,0.022602014,165.05783,-63.874474,9.615332,STD
97518745000,0.120114,0.516451343267534,9.83468478836481,-0.123106094717662,-0.03634648,-0.10567969,0.01985312,164.59435,-63.968338,9.435688,STD
97523729000,0.125098,0.507391697015279,9.8256249481826,-0.104986778563158,-0.02565634,-0.09437868,0.018325957,164.13116,-64.06336,9.2583685,STD
97529220000,0.130589,0.498568933857664,9.81478953960535,-0.090503644185916,-0.021380283,-0.080634214,0.0070249503,163.65596,-64.15989,9.073639,STD
97533756000,0.135125,0.506693939397737,9.7944770151501,-0.151441259971944,-0.013133603,-0.07452556,0.0018325958,163.18253,-64.25914,8.8946905,STD
97538634000,0.140003,0.515431544561863,9.77263299083513,-0.216973378535491,-0.01740966,-0.061391957,-0.008246681,162.70432,-64.35546,8.711546,STD
97543754000,0.145123,0.529074148270497,9.77231861081189,-0.233818896090166,0.0012217305,-0.06658431,-0.008246681,162.23227,-64.459145,8.536165,STD
97548634000,0.150003,0.543058254075404,9.77698006702573,-0.238480264691801,-0.0015271631,-0.06536258,-0.007330383,161.75946,-64.556404,8.361007,STD
97553726000,0.155095,0.587623365956318,9.79531388734636,-0.270729199018481,0.0143553335,-0.070554934,-0.006414085,161.30801,-64.67655,8.206653,STD
97559337000,0.160706,0.644642170333363,9.8190717018304,-0.313493294858962,0.016798794,-0.058948494,-0.0067195175,160.85246,-64.79135,8.053244,STD
97563751000,0.16512,0.686138441286696,9.8370656039975,-0.319980602723298,0.024129177,-0.053450707,-0.015577064,160.40683,-64.910934,7.905484,STD
97568729000,0.170098,0.730804253653966,9.85691697251718,-0.310054856277327,0.03023783,-0.04795292,-0.017104227,159.9576,-65.029144,7.76093,STD
97573717000,0.175086,0.786846442328574,9.87944004242912,-0.34018173255178,0.035124753,-0.043982297,-0.02076942,159.52539,-65.14971,7.637716,STD
97578788000,0.180157,0.850322401860044,9.9038538534084,-0.393892147297406,0.039095376,-0.040011674,-0.017104227,159.09035,-65.27017,7.5170074,STD
97583782000,0.185151,0.899250478878596,9.9366713570941,-0.424140939068747,0.02687807,-0.036957346,-0.007330383,158.66914,-65.38281,7.407639,STD
97588740000,0.190109,0.940921514022428,9.97371204085812,-0.442661401818625,0.022296581,-0.029932396,-0.0021380284,158.24536,-65.49791,7.2984886,STD
97593740000,0.195109,0.966421068626657,9.99443603410586,-0.476331057175387,0.02076942,-0.014049901,0.0030543262,157.83678,-65.611046,7.204768,STD
97598750000,0.200119,0.980988349671086,10.0041477576156,-0.520032935801032,0.009468411,-0.005497787,0.008857546,157.42635,-65.71902,7.1130886,STD
97603720000,0.205089,0.989364905900467,10.0107168675872,-0.604238766554088,0.00030543262,0.0030543262,0.003970624,157.01736,-65.82421,7.029291,STD
97608726000,0.210095,0.994127144978643,10.015479206119,-0.713770315078971,-0.017104227,0.009162978,0.0061086523,156.60405,-65.9225,6.9481497,STD
97613677000,0.215046,0.981963576730882,10.0089252390964,-0.809860116707412,-0.024740042,0.025350908,0.014966198,156.18686,-66.02467,6.8678136,STD
97618728000,0.220097,0.958311871611578,9.99473393448073,-0.899736576403286,-0.044593163,0.041233405,0.016187929,155.76768,-66.11885,6.78531,STD
97623728000,0.225097,0.950750529439436,9.98066911368091,-0.972933744531556,-0.049480084,0.053145275,0.019547688,155.3441,-66.2305,6.703633,STD
97629641000,0.23101,0.956300109412975,9.96402069247354,-1.04507799444826,-0.05497787,0.08368854,0.022602014,154.91005,-66.335884,6.618174,STD
97633726000,0.235095,0.955160679273203,9.94727896215019,-1.07058562270989,-0.065973446,0.093462385,0.023518313,154.46489,-66.449295,6.5281124,STD
97638728000,0.240097,0.950338512603181,9.92316825468089,-1.08505204719146,-0.06505715,0.12156218,0.021380283,154.0057,-66.56375,6.4326024,STD
97643730000,0.245099,0.940621568455269,9.89453623888997,-1.06432094162624,-0.06169739,0.1386664,0.02076942,153.55092,-66.68588,6.3372574,STD
97648734000,0.250103,0.926671741014943,9.86198644731225,-1.0131715257908,-0.05955936,0.14782938,0.020463986,153.08983,-66.80718,6.2392335,STD
97653730000,0.255099,0.909161053761834,9.84382238475336,-0.956908615396114,-0.06078109,0.15882497,0.016798794,152.62215,-66.92866,6.1377177,STD
97658735000,0.260104,0.887666922907324,9.84143434887892,-0.89481444573991,-0.05100725,0.17470746,0.017715093,152.14911,-67.05251,6.0358663,STD
97663731000,0.2651,0.866211442837568,9.83905060717489,-0.832831933931241,-0.04062254,0.17531833,0.0106901415,151.67877,-67.17064,5.933679,STD
97668724000,0.270093,0.84476884636273,9.83666829686099,-0.770886641405082,-0.032986723,0.1731803,0.011911872,151.20227,-67.289116,5.832226,STD
97673685000,0.275054,0.850135218771878,9.84809557709983,-0.669602033763567,-0.03726278,0.16249016,0.016493361,150.72672,-67.40651,5.730504,STD
97678831000,0.2802,0.888685918992862,9.87700817708028,-0.515399253006747,-0.028710667,0.14263703,0.026267206,150.25203,-67.52816,5.631589,STD
97683730000,0.285099,0.913826039376264,9.90895865214315,-0.360442074452487,-0.027488936,0.111177474,0.03176499,149.78087,-67.63367,5.529464,STD
97688737000,0.290106,0.923520946890416,9.94773860614638,-0.19078098492034,-0.02565634,0.05681047,0.04153884,149.31927,-67.74034,5.4360104,STD
97693658000,0.295027,0.908922495199052,9.99549198399684,-0.0517069963275709,-0.022296581,-0.010995574,0.046731193,148.89018,-67.82755,5.359909,STD
97698676000,0.300045,0.86144999940729,10.0572059980243,0.0527325112682011,-0.009773844,-0.06688975,0.06536258,148.47028,-67.91644,5.294658,STD
97703660000,0.305029,0.801775978177249,10.0958014622596,0.116769105607422,-0.012217305,-0.112399206,0.081855945,148.0819,-67.98286,5.240726,STD
97708731000,0.3101,0.72198592263458,10.1004950900744,0.121462640304436,-0.0021380284,-0.13958271,0.086132,147.70331,-68.05621,5.192286,STD
97713626000,0.314995,0.626409248317286,10.0822565405777,0.0918776294121963,-0.006414085,-0.13072516,0.09101892,147.32033,-68.1164,5.1380553,STD
97718728000,0.320097,0.487510847026135,10.0150476910591,-0.0111760118998624,-0.029932396,-0.09590584,0.09407325,146.93797,-68.17421,5.084529,STD
97723650000,0.325019,0.352235735899762,9.94241569863902,-0.108675753371787,-0.07086037,-0.035124753,0.08368854,146.52747,-68.2291,5.004938,STD
97728817000,0.330186,0.202577705346727,9.81948262216462,-0.199539555802333,-0.095294975,0.05131268,0.07574729,146.10143,-68.28228,4.9212866,STD
97733723000,0.335092,0.0880787603915616,9.71227487778856,-0.26289030114161,-0.11789699,0.1337795,0.06994407,145.62335,-68.34539,4.7962155,STD
97738729000,0.340098,0.0322787637744908,9.62392456159069,-0.276840304301649,-0.13041973,0.20616703,0.0571159,145.12836,-68.40617,4.6613636,STD
97743686000,0.345055,-0.00388939505652174,9.54400329229249,-0.280479305762846,-0.121256754,0.23396139,0.047647487,144.59616,-68.48498,4.5013,STD
97748750000,0.350119,0.0200715484391304,9.48649736897233,-0.251726173968379,-0.0888809,0.24923302,0.046731193,144.05077,-68.56767,4.3369217,STD
97753679000,0.355048,0.0444437658212796,9.43454994282734,-0.228820603120405,-0.070249505,0.23915374,0.042455133,143.4989,-68.64904,4.160323,STD
97758723000,0.360092,0.0732369768115438,9.39615896945162,-0.224021732701172,-0.051618114,0.20433442,0.04795292,142.95123,-68.73929,3.9905782,STD
97763702000,0.365071,0.101791384779279,9.36511364545454,-0.216251003931945,-0.027488936,0.16982053,0.039095376,142.4229,-68.82933,3.8263822,STD
97768726000,0.370095,0.131114217720264,9.36022666363636,-0.19670245408126,-0.010995574,0.13988814,0.036957346,141.90367,-68.92194,3.6716774,STD
97773711000,0.37508,0.155495205761773,9.37240503838544,-0.170627849002176,0.007330383,0.101098195,0.043066,141.40723,-69.01435,3.5254729,STD
97778818000,0.380187,0.165172440256233,9.44014554343095,-0.122241667182875,0.011911872,0.048258353,0.035430185,140.92616,-69.108154,3.3824673,STD
97783774000,0.385143,0.174563545436288,9.50588314730906,-0.0752861322119608,0.034513887,-0.021685716,0.03573562,140.46953,-69.20683,3.2570531,STD
97788727000,0.390096,0.183948965927978,9.57158095844875,-0.0283590206883656,0.06872234,-0.093462385,0.03604105,140.03009,-69.3101,3.1376374,STD
97793700000,0.395069,0.186949373864176,9.62836038345196,0.0297585350513049,0.10995574,-0.16646078,0.039095376,139.61108,-69.420944,3.0285432,STD
97798748000,0.400117,0.163054693808818,9.64747601571768,0.134895132784006,0.14538592,-0.22999077,0.046120327,139.20998,-69.53855,2.9290397,STD
97803695000,0.405064,0.142896997197583,9.67281433919107,0.223286962392376,0.15607607,-0.2864958,0.04428773,138.83464,-69.65032,2.839753,STD
97808726000,0.410095,0.138417136113901,9.73105254965133,0.24120641374384,0.14019357,-0.33261612,0.04734206,138.47386,-69.762314,2.7607293,STD
97813690000,0.415059,0.133996935275221,9.78851517670851,0.25888722402185,0.108123146,-0.35613444,0.049785517,138.13188,-69.859024,2.6847136,STD
97818733000,0.420102,0.129506388774523,9.84689229762901,0.276849417058113,0.06047566,-0.3594942,0.059253927,137.79742,-69.94491,2.6155674,STD
97823657000,0.425026,0.125121805992562,9.90389188981869,0.294387755053464,0.02565634,-0.35918877,0.06291912,137.47452,-70.02285,2.5412557,STD
97828771000,0.43014,0.0899219137135116,9.95521568933081,0.193151288884004,-0.025961773,-0.3484986,0.079107046,137.14925,-70.080986,2.4737618,STD
97833964000,0.435333,0.0492431278830326,10.0060641351158,0.0711149287377946,-0.07422013,-0.33169982,0.084910266,136.82457,-70.130066,2.4052758,STD
97838701000,0.44007,0.0121363671514749,10.0524475527325,-0.0402053558785338,-0.108123146,-0.28985557,0.08246681,136.48767,-70.1699,2.3342276,STD
97844073000,0.445442,-0.0269299660888225,10.1069934234932,-0.181364246581452,-0.11636983,-0.22143865,0.06994407,136.1458,-70.20592,2.2568562,STD
97848731000,0.4501,0.0271765778999813,10.2110448340175,-0.739077903461467,-0.10995574,-0.1872302,0.049785517,135.80507,-70.23783,2.177691,STD
97853624000,0.454993,0.0840128423347639,10.3203457253219,-1.32492868128755,-0.09865474,-0.096516706,0.042455133,135.37918,-70.30246,2.0645025,STD
97858716000,0.460085,0.196793090062053,10.3002101861575,-1.54323732004773,-0.05955936,-0.004276057,0.032070424,134.94818,-70.37739,1.9439222,STD
97863683000,0.465052,0.319781154878282,10.2481762181782,-1.66149504048329,-0.015882496,0.076052725,0.026267206,134.49844,-70.456825,1.8175687,STD
97868727000,0.470096,0.445659084486845,10.1367119555132,-1.66999581125728,0.013133603,0.12217305,0.013133603,133.95589,-70.63475,1.6774197,STD
97873647000,0.475016,0.568682306017273,10.0136887339827,-1.65106912758586,0.041233405,0.14019357,0.011301007,133.40204,-70.821594,1.537069,STD
97878773000,0.480142,0.642977878406339,9.91478556908832,-1.53120195324964,0.06169739,0.13683382,-0.0009162979,132.8539,-71.02276,1.4106108,STD
97884394000,0.485763,0.710075192905983,9.81414004273504,-1.37304401837607,0.06811147,0.12705997,-0.0009162979,132.30435,-71.22428,1.2886425,STD
97888728000,0.490097,0.746521974255215,9.75546605180688,-1.20839123119773,0.06536258,0.07696902,-0.007941248,131.798,-71.41533,1.1934724,STD
97893797000,0.495166,0.77980117797963,9.69841584928019,-0.989699380579767,0.07269296,0.019242255,-0.01038471,131.29756,-71.60801,1.1026758,STD
97898728000,0.500097,0.805729852358318,9.66172018281536,-0.790235403144424,0.07696902,-0.04795292,-0.008246681,130.85219,-71.76796,1.0326608,STD
97903729000,0.505098,0.826331471589418,9.6411186872782,-0.599670434668244,0.08277224,-0.0870483,0.0012217305,130.41486,-71.928,0.9670778,STD
97908728000,0.510097,0.864639684718393,9.64055929657345,-0.413616981677826,0.0870483,-0.10842858,-0.005192355,130.03131,-72.053246,0.9141774,STD
97913702000,0.515071,0.911543020746357,9.6499396650256,-0.230693929539189,0.09132435,-0.106595986,-0.0021380284,129.65086,-72.17846,0.8681211,STD
97918727000,0.520096,0.964958158855707,9.6774264292332,-0.0307768023270254,0.08460484,-0.0983493,0.0061086523,129.30826,-72.28052,0.834513,STD
97923720000,0.525089,1.02151288956239,9.71512982909521,0.176590415647546,0.06536258,-0.09743301,0.015577064,128.96706,-72.37921,0.8025684,STD
97928747000,0.530116,1.03816311652348,9.74858976325295,0.32422580777653,0.047036625,-0.098043874,0.033292156,128.65636,-72.44823,0.7855579,STD
97933729000,0.535098,1.028847146173,9.77886649057893,0.431359267390901,0.033292156,-0.11178834,0.06291912,128.34744,-72.512794,0.7750589,STD
97938722000,0.540091,1.01951060663868,9.80921006736308,0.538729272179049,0.019547688,-0.13958271,0.06841691,128.07727,-72.54294,0.7809214,STD
97943740000,0.545109,1.01012731895929,9.83970557473396,0.646636879634873,-0.016493361,-0.14721853,0.08735373,127.802155,-72.56326,0.7968457,STD
97948725000,0.550094,0.976451065339439,9.83755120435994,0.587504589045391,-0.046731193,-0.16615535,0.09437868,127.53009,-72.58043,0.82234883,STD
97954419000,0.555788,0.911314312586104,9.79955511855465,0.337813603357555,-0.057726767,-0.17745635,0.11453723,127.25621,-72.59383,0.8550518,STD
97958716000,0.560085,0.856701656339976,9.76082873546157,0.0888668403029687,-0.08735373,-0.16462818,0.12339478,127.00953,-72.567406,0.8864078,STD
97963732000,0.565101,0.788328129930866,9.70710664111427,-0.253000613255388,-0.09865474,-0.13805555,0.1255328,126.76266,-72.54552,0.920153,STD
97968721000,0.57009,0.709002837760519,9.66963493786866,-0.54448363531164,-0.10140363,-0.087659165,0.13530666,126.46162,-72.5491,0.9455562,STD
97973728000,0.575097,0.619436359673614,9.64606482500983,-0.794327013741644,-0.098043874,-0.03573562,0.13316862,126.15526,-72.55336,0.9644888,STD
97978887000,0.580256,0.551807982585502,9.63680143114967,-0.990308106939874,-0.076358154,0.027183503,0.13713925,125.77659,-72.61064,0.9650352,STD
97983762000,0.585131,0.509911248738658,9.64145671831688,-1.12065354703859,-0.031154128,0.080634214,0.13347405,125.388596,-72.67651,0.95803833,STD
97988721000,0.59009,0.460834148923933,9.6484420192364,-1.16453825976955,0.004581489,0.10415252,0.1423316,124.940865,-72.78355,0.938843,STD
97993740000,0.595109,0.404512309053803,9.65782869114344,-1.11760338095889,0.04520403,0.113926366,0.13958271,124.4856,-72.90458,0.911703,STD
97998725000,0.600094,0.341859236489836,9.66088887585523,-1.05379252518096,0.08582657,0.10842858,0.14202617,124.003456,-73.052826,0.8745235,WAL
98003739000,0.605108,0.270439144333168,9.65612744025781,-0.968088399677739,0.12034045,0.10140363,0.14935656,123.52103,-73.20929,0.8374126,WAL
98008681000,0.61005,0.177528238014663,9.65744532138194,-0.90327649013257,0.14477506,0.092240654,0.15118915,123.042694,-73.36786,0.79349005,WAL
98013696000,0.615065,0.0521169871750527,9.66709253540223,-0.864688414733353,0.14477506,0.10140363,0.14782938,122.56279,-73.527016,0.7493494,WAL
98018670000,0.620039,-0.036302105980362,9.67560116017853,-0.863942437242747,0.14508049,0.106595986,0.14263703,122.09219,-73.68108,0.70106477,WAL
98023709000,0.625078,-0.0769853692049591,9.68278045450037,-0.914198247160922,0.14080444,0.113926366,0.1423316,121.62025,-73.83177,0.6527684,WAL
98028762000,0.630131,-0.117781663920952,9.68997969526407,-0.964593684254897,0.13255776,0.124005646,0.14019357,121.140396,-73.97756,0.5867354,WAL
98033750000,0.635119,-0.15805316956975,9.69708632754773,-1.01434085231837,0.13225232,0.12461651,0.13164146,120.66398,-74.12254,0.5201329,WAL
98038619000,0.639988,-0.158833704563008,9.70460872735491,-1.05378297508588,0.13439035,0.12980886,0.13133603,120.1854,-74.26403,0.45519248,WAL
98043710000,0.645079,-0.0971290090180799,9.71342386150786,-1.08022782527572,0.13500121,0.11362094,0.13255776,119.715355,-74.40332,0.39103308,WAL
98048629000,0.649998,-0.0276187516354256,9.72486449269132,-1.10397609561479,0.14721853,0.093462385,0.13500121,119.22122,-74.55825,0.31406903,WAL
98053688000,0.655057,0.0921500022949269,9.75090116036113,-1.11959809621668,0.15760323,0.063224554,0.13958271,118.73667,-74.71059,0.24123101,WAL
98058637000,0.660006,0.208704162477876,9.78577743742099,-1.12425174108723,0.16829337,0.019547688,0.14935656,118.26504,-74.867355,0.18227583,WAL
98063696000,0.665065,0.326493386385296,9.84231642390353,-1.10540547785666,0.19181168,0.0033597588,0.16432275,117.79576,-75.02835,0.1269716,WAL
98068633000,0.670002,0.429111054643545,9.90180960597302,-1.07073868737958,0.18936823,-0.008857546,0.17104226,117.34243,-75.18149,0.09176192,WAL
98073692000,0.675061,0.497895867936315,9.97550729773857,-0.987214269039651,0.18997909,-0.019242255,0.18661933,116.893074,-75.3396,0.06384862,WAL
98078687000,0.680056,0.543111578561576,10.046281493399,-0.912351708370443,0.17989981,-0.013439035,0.19761491,116.45114,-75.48692,0.053683575,WAL
98083690000,0.685059,0.533670646463054,10.1123681659606,-0.855706071417734,0.1731803,-0.019547688,0.21563543,116.01559,-75.63318,0.050645854,WAL
98088667000,0.690036,0.510680840099433,10.1634601602864,-0.79428265142289,0.15363261,-0.007941248,0.22449298,115.58265,-75.757454,0.060238864,WAL
98093927000,0.695296,0.445565774453614,10.1734775392264,-0.714141078031222,0.12614368,0.014966198,0.2302962,115.149284,-75.87604,0.07249222,WAL
98098677000,0.700046,0.376142438546248,10.1790581679993,-0.646671167699437,0.11026118,0.034208454,0.23915374,114.7201,-75.98541,0.08568817,WAL
98103693000,0.705062,0.271391003532619,10.1746934367618,-0.589930800990369,0.07422013,0.052534413,0.22968534,114.28797,-76.08042,0.092847936,WAL
98108758000,0.710127,0.165299041943758,10.1721778802532,-0.533403413190827,0.06383542,0.071776666,0.23365596,113.86467,-76.17196,0.091936074,WAL
98113676000,0.715045,0.0577788410777213,10.1966142724914,-0.489417871439245,0.05589417,0.103847094,0.22113322,113.43671,-76.253914,0.081173405,WAL
98118667000,0.720036,-0.0465372234806306,10.2239387176776,-0.435844602109968,0.053145275,0.13805555,0.21197024,113.00545,-76.327095,0.05715845,WAL
98123702000,0.725071,-0.116064123279246,10.2702904349707,-0.315331303575892,0.048258353,0.16523905,0.19242255,112.57131,-76.39785,0.025275119,WAL
98128782000,0.730151,-0.185546629130435,10.3181072564103,-0.186763745039019,0.04642576,0.18570304,0.18509217,112.135506,-76.46971,-0.01888718,WAL
98133652000,0.735021,-0.24226788486166,10.3795555314685,0.0401212532076619,0.03726278,0.21227567,0.18173242,111.69425,-76.53855,-0.06851022,WAL
98138697000,0.740066,-0.299144001209937,10.440013124597,0.274414640157406,0.03268129,0.21685717,0.16737708,111.26365,-76.58987,-0.12849645,WAL
98143713000,0.745082,-0.331029152190404,10.4582331048739,0.4976107208022,0.0018325958,0.23823744,0.16554448,110.82345,-76.63214,-0.18728067,WAL
98149119000,0.750488,-0.367509610949163,10.4767005547066,0.732625234371633,-0.025961773,0.27488935,0.15485434,110.408936,-76.64513,-0.25659567,WAL
98153705000,0.755074,-0.438492805142521,10.4702476317955,0.827269488803997,-0.11636983,0.28955013,0.15210545,109.99736,-76.63349,-0.32235587,WAL
98158690000,0.760059,-0.515651815838966,10.4632332792634,0.930148164849642,-0.13988814,0.32436943,0.14080444,109.608734,-76.608345,-0.3899334,WAL
98168680000,0.770049,-0.670279401968851,10.4491764323636,1.13631826990401,-0.26053402,0.35735616,0.13439035,108.834435,-76.49014,-0.5221444,WAL
98173640000,0.775009,-0.734639775235586,10.4230570126659,1.12818355043064,-0.29168814,0.36957347,0.122478485,108.46725,-76.394516,-0.59493214,WAL
98178583000,0.779952,-0.796996233618401,10.3942770224947,1.10420030876482,-0.32528573,0.37934732,0.11484267,108.101006,-76.286095,-0.6671912,WAL
98183608000,0.784977,-0.85245291986024,10.3210156506012,1.04460416481348,-0.35827246,0.38026363,0.108123146,107.734276,-76.17703,-0.7449607,WAL
98188590000,0.789959,-0.906386564069469,10.2425661736718,0.980864412783887,-0.3839288,0.38637227,0.08368854,107.36949,-76.06575,-0.82883996,WAL
98193636000,0.795005,-0.941534383890724,10.1695966322426,0.931494674151906,-0.42302418,0.37995818,0.070249505,107.005905,-75.94968,-0.91645736,WAL
98198582000,0.799951,-0.974714426664665,10.0984965830081,0.884094591834284,-0.44806966,0.37812558,0.055283304,106.64561,-75.83548,-1.0096378,WAL
98203601000,0.80497,-0.998413300766577,10.0249011074166,0.82496075294174,-0.47128254,0.36682457,0.043676864,106.28,-75.71972,-1.1015043,WAL
98208579000,0.809948,-1.02125409724032,9.95181046330011,0.765574634409735,-0.49357912,0.35521814,0.02076942,105.92168,-75.60223,-1.1980871,WAL
98213608000,0.814977,-1.02897222259406,9.88542418395344,0.76507558960715,-0.5155703,0.3494149,-0.0009162979,105.56629,-75.490425,-1.2951534,WAL
98218555000,0.819924,-1.0338959837248,9.8214154949075,0.774923163282062,-0.5290093,0.34697145,-0.03023783,105.2201,-75.37935,-1.3976158,WAL
98223674000,0.825043,-1.02800157101866,9.74280249521775,0.838656733624292,-0.5510005,0.3484986,-0.055588737,104.87279,-75.27043,-1.5058883,WAL
98228766000,0.830135,-1.02120914847247,9.66355756551212,0.906581006370137,-0.58459806,0.36132678,-0.09254608,104.53032,-75.15822,-1.6236728,WAL
98233793000,0.835162,-1.01450343202711,9.58532420698301,0.973638217503947,-0.6151413,0.36926803,-0.12064589,104.19756,-75.041534,-1.743598,WAL
98238620000,0.839989,-1.00806450358436,9.5102033751509,1.03802754675457,-0.6621779,0.37659842,-0.1414153,103.86708,-74.91461,-1.8710326,WAL
98243677000,0.845046,-0.985553990421225,9.41433634452954,1.15307378439825,-0.6960809,0.4083634,-0.18478674,103.52885,-74.78026,-2.016948,WAL
98248656000,0.850025,-0.954252286684901,9.30999687811816,1.293931437593,-0.7651087,0.4428773,-0.23426682,103.19363,-74.62701,-2.1688743,WAL
98253686000,0.855055,-0.921169139261279,9.22793691244422,1.47166418540407,-0.8414669,0.48716503,-0.28344148,102.88205,-74.43962,-2.3296304,WAL
98258690000,0.860059,-0.887906233896877,9.15190737193852,1.65698604773426,-0.93859446,0.56107974,-0.35308012,102.563225,-74.230896,-2.5100555,WAL
98263705000,0.865074,-0.854451455673307,9.0868458059761,1.98025284298805,-1.0598512,0.63194007,-0.43066,102.269135,-73.97826,-2.7005568,WAL
98268666000,0.870035,-0.821326581964144,9.02532841772908,2.33516228886454,-1.1859949,0.70188415,-0.4981606,101.96534,-73.7027,-2.9077356,WAL
98273672000,0.875041,-0.782324630654258,9.00120717804099,2.76914395024441,-1.3319917,0.754724,-0.57848936,101.69393,-73.36316,-3.1310892,WAL
98279368000,0.880737,-0.736174469255499,8.98582401579244,3.28705133133108,-1.4944818,0.7892379,-0.6618725,101.42104,-72.99089,-3.3715937,WAL
98283687000,0.885056,-0.635939865072917,9.10448095625,3.63989485270833,-1.6719382,0.7819075,-0.74036866,101.20602,-72.51333,-3.6191056,WAL
98288690000,0.890059,-0.496194312811458,9.289144813125,4.03417680085417,-1.8661933,0.74220127,-0.81245077,101.006386,-71.99618,-3.8801854,WAL
98293689000,0.895058,-0.378111436329622,9.56792571642091,4.22584918522419,-2.0744984,0.70341134,-0.8729264,100.89924,-71.36092,-4.142467,WAL
98298703000,0.900072,-0.267326354405658,9.88101377821246,4.34626787171231,-2.2455406,0.6627888,-0.9224065,100.81998,-70.697685,-4.408862,WAL
98303696000,0.905065,-0.187419378665867,10.2657661493406,4.31542342983388,-2.3918428,0.6337727,-0.96852684,100.825775,-69.95129,-4.652139,WAL
98308679000,0.910048,-0.117950211628875,10.6744084188217,4.23369518928755,-2.454762,0.6035349,-1.0146471,100.85893,-69.200905,-4.8956337,WAL
98313695000,0.915064,-0.0830586910653981,11.1474043370516,4.07336481251094,-2.4312437,0.55924714,-1.0354166,100.919556,-68.4461,-5.122095,WAL
98318690000,0.920059,-0.0987529690476815,11.7071666303587,3.80133046999125,-2.3267858,0.47525316,-1.0360274,101.01137,-67.7195,-5.3388524,WAL
98323672000,0.925041,-0.302725007003474,12.2081928188586,3.65417393554342,-2.1099286,0.28771752,-1.0577132,101.11076,-67.081154,-5.5366616,WAL
98328779000,0.930148,-0.652246611929528,12.6790759602978,3.59592037611911,-1.8640553,0.03145956,-1.1145236,101.2615,-66.49887,-5.7185545,WAL
98333702000,0.935071,-1.03203866082329,13.1110565805155,3.50020048149564,-1.6313156,-0.20952678,-1.2095132,101.383484,-66.04292,-5.9095435,WAL
98338689000,0.940058,-1.44864145269921,13.5323405294521,3.37381539457022,-1.5048665,-0.29932398,-1.2803736,101.54058,-65.63683,-6.0899954,WAL
98343662000,0.945031,-1.54420407310841,13.9121763923251,3.39450906363816,-1.4853189,-0.34238997,-1.387275,101.67565,-65.28787,-6.33318,WAL
98348943000,0.950312,-1.33465939028312,14.2763851391931,3.55915128466016,-1.5580118,-0.25350907,-1.41904,101.802795,-64.95604,-6.570844,WAL
98353687000,0.955056,-0.854006878954827,14.3105063312666,3.8098811190434,-1.7577647,-0.1469131,-1.3588698,101.828674,-64.628136,-6.8739886,WAL
98358679000,0.960048,-0.0682732714437554,14.0658467457927,4.17216550900502,-1.9801197,-0.112399206,-1.2724323,101.85782,-64.27911,-7.167185,WAL
98363674000,0.965043,0.608976665847953,13.7473847992203,4.46353881481481,-2.1670444,-0.15790866,-1.2229522,101.89926,-63.88304,-7.424804,WAL
98368689000,0.970058,1.16178772702868,13.3416925732851,4.67307205996473,-2.3069327,-0.35521814,-1.17897,101.96774,-63.4564,-7.636623,WAL
98373677000,0.975046,1.63012138766184,12.9022995521706,4.6550649428789,-2.3839016,-0.6087272,-1.1172725,102.22293,-62.936775,-7.698472,WAL
98378755000,0.980124,1.92113493217278,12.3731836651072,4.12065801296921,-2.398257,-0.7318166,-1.0308352,102.48792,-62.418003,-7.730024,WAL
98383756000,0.985125,2.02797450761766,11.8952352363901,3.50915583149927,-2.3704627,-0.7611381,-0.9465357,102.915985,-61.83515,-7.6431785,WAL
98388685000,0.990054,1.94552197559437,11.4692304477438,2.81747062468705,-2.3075435,-0.73761976,-0.88697636,103.35166,-61.279564,-7.532108,WAL
98393683000,0.995052,1.69232157053842,11.1016100090744,2.24344092355314,-2.1762075,-0.7528914,-0.7996226,103.773315,-60.802353,-7.368367,WAL
98398708000,1.000077,1.19255191173624,10.8250389337568,1.85041808250655,-2.0164661,-0.84665924,-0.74097955,104.20294,-60.365482,-7.190923,WAL
98403673000,1.005042,0.667725377970073,10.6505577527072,1.59604767631424,-1.8332067,-0.90408057,-0.7110472,104.48731,-60.014492,-7.065561,WAL
98408674000,1.010043,0.097226564854302,10.6081240855483,1.52060982152983,-1.6517797,-0.9120218,-0.70249504,104.776405,-59.719765,-6.926925,WAL
98413646000,1.015015,-0.445551262643942,10.5434319879048,1.57495963754498,-1.5060883,-0.8940013,-0.6924158,104.943436,-59.49571,-6.866357,WAL
98418969000,1.020338,-0.98569504155138,10.4364223418633,1.85012723798481,-1.3723087,-0.9416488,-0.7098254,105.130684,-59.324276,-6.800768,WAL
98423674000,1.025043,-1.40112506832923,10.3275749578117,2.09934363309019,-1.2592987,-0.9993755,-0.743423,105.20335,-59.186443,-6.8410044,WAL
98428723000,1.030092,-1.75382531488418,10.1893542902908,2.37578432114342,-1.1866057,-1.024421,-0.76174897,105.28139,-59.078503,-6.8770967,WAL
98433635000,1.035004,-2.04271127496733,10.036818698152,2.59031697028187,-1.146594,-1.0305296,-0.7984009,105.338715,-58.93587,-6.98795,WAL
98438687000,1.040056,-2.24140548247153,9.84715603696099,2.71224293981706,-1.1456778,-1.054048,-0.81581056,105.41034,-58.805504,-7.0869865,WAL
98443728000,1.045097,-2.37341774126772,9.64168761676795,2.79998786855887,-1.1117748,-1.07665,-0.84116143,105.4875,-58.633675,-7.2325006,WAL
98448709000,1.050078,-2.28386289996542,9.38480683313571,2.77406412720221,-1.0885619,-1.099252,-0.8622363,105.57788,-58.46166,-7.370356,WAL
98453662000,1.055031,-2.19481147877081,9.12937006916654,2.74828611255867,-1.0537425,-1.1389582,-0.8723156,105.679726,-58.25284,-7.52634,WAL
98458670000,1.060039,-2.10477119665036,8.87109683800207,2.72222184901438,-1.0241156,-1.2043208,-0.8539896,105.798546,-58.053596,-7.665019,WAL
98463673000,1.065042,-1.94573958022718,8.5666532531342,2.69442269461506,-1.0082331,-1.1988231,-0.8142834,105.90405,-57.84595,-7.7998953,WAL
98468694000,1.070063,-1.45214363757678,8.03664439323517,2.65800990410602,-0.98624194,-1.1847731,-0.8042041,106.03035,-57.651424,-7.9220066,WAL
98473671000,1.07504,-0.96287317221708,7.51128010410602,2.6219162059655,-0.9266826,-1.210124,-0.79412484,106.21609,-57.44585,-7.9981494,WAL
98478721000,1.08009,-0.718874540319085,7.22504046779049,2.58354109391933,-0.8524625,-1.2272283,-0.763887,106.393936,-57.257774,-8.065199,WAL
98483628000,1.084997,-0.544405795886012,7.0081333423239,2.54581805135461,-0.8029824,-1.2379184,-0.72784597,106.57588,-57.085022,-8.12096,WAL
98488670000,1.090039,-0.399392377123867,6.86961418463243,2.46444703790534,-0.7452556,-1.2614367,-0.70188415,106.85593,-56.86499,-8.091837,WAL
98493658000,1.095027,-0.264696003178248,6.7541602689426,2.37304603178248,-0.691194,-1.2513574,-0.70096785,107.126915,-56.66411,-8.062305,WAL
98498732000,1.100101,-0.172125195064629,6.68499282911797,2.26484843170512,-0.6395759,-1.2116512,-0.6924158,107.42131,-56.473267,-8.000726,WAL
98503663000,1.105032,-0.091933901996404,6.62838705726701,2.15635431477375,-0.589485,-1.1676689,-0.6789767,107.70864,-56.302105,-7.940065,WAL
98508716000,1.110085,-0.104074773121762,6.48811763964727,2.12385929988043,-0.5363397,-1.1090258,-0.6640105,107.979324,-56.129303,-7.870652,WAL
98513657000,1.115026,-0.137079257865285,6.33252522471104,2.10971453041052,-0.46273044,-1.0613784,-0.659429,108.23878,-55.980583,-7.806099,WAL
98518722000,1.120091,-0.130695404128534,6.35151477331281,2.12910906339569,-0.38881573,-1.0366384,-0.66950834,108.47948,-55.844517,-7.736854,WAL
98523710000,1.125079,-0.114859089743121,6.41259763469098,2.15625701228511,-0.3203988,-1.0076222,-0.6542367,108.70014,-55.732838,-7.669249,WAL
98528730000,1.130099,-0.0989211791146578,6.47407236687189,2.1835791260431,-0.22937989,-0.977079,-0.64751714,108.92084,-55.63832,-7.615856,WAL
98534558000,1.135927,-0.0804179633491831,6.54544183682216,2.21529890273265,-0.15790866,-0.9673051,-0.65087694,109.13627,-55.560093,-7.5629244,WAL
98538717000,1.140086,-0.103581100093195,6.59606812573965,2.2487857941568,-0.080634214,-0.96669424,-0.64660084,109.32873,-55.485394,-7.517209,WAL
98543744000,1.145113,-0.149363379698225,6.65711133093829,2.29456798558749,-0.03970624,-0.97249746,-0.65270954,109.52039,-55.42118,-7.4753814,WAL
98548720000,1.150089,-0.189908065866182,6.6953612434809,2.30462250941985,0.018020526,-0.9767735,-0.6450737,109.70813,-55.388924,-7.4232163,WAL
98553721000,1.15509,-0.22863344634526,6.7244052560946,2.2997818406509,0.08735373,-0.99296147,-0.6356053,109.89824,-55.37161,-7.369817,WAL
98558723000,1.160092,-0.273654226012282,6.70853148280507,2.25392930381339,0.14905111,-1.0115929,-0.6206391,110.07523,-55.35254,-7.3185525,WAL
98563729000,1.165098,-0.321139854811807,6.67529156347068,2.19219807463352,0.21624629,-1.0143417,-0.6065892,110.248405,-55.354828,-7.2659006,WAL
98568718000,1.170087,-0.301912250542789,6.62386267408875,2.21386639290808,0.29077184,-0.9984592,-0.58123827,110.40437,-55.368954,-7.202601,WAL
98573715000,1.175084,-0.254511988479596,6.56461229082805,2.27074671530309,0.35643986,-1.0005972,-0.5510005,110.559395,-55.399803,-7.132752,WAL
98578733000,1.180102,-0.206912525795365,6.50511290655705,2.32786607847662,0.41996986,-0.9987647,-0.5180137,110.69168,-55.456406,-7.0696564,WAL
98583732000,1.185101,-0.159493292244453,6.44583880891442,2.38476916666006,0.48502702,-0.9841039,-0.48747048,110.81427,-55.531433,-7.003087,WAL
98588716000,1.190085,-0.0649589861605951,6.34129096257868,2.56721808918558,0.5390886,-0.97524637,-0.45906523,110.92457,-55.607796,-6.9270587,WAL
98593757000,1.195126,0.0547428807266832,6.21238140103948,2.8158295753004,0.59773165,-0.98837996,-0.43157628,111.02903,-55.70283,-6.8447547,WAL
98598717000,1.200086,0.152323397123623,6.12748901410649,3.00382929097307,0.65209866,-1.0375546,-0.3979787,111.16552,-55.786552,-6.7415442,WAL
98604297000,1.205666,0.244985159424725,6.0675311628213,3.16735009819461,0.70829827,-1.0461067,-0.3472769,111.285,-55.88693,-6.634779,WAL
98608715000,1.210084,0.28814022179128,6.06110864583744,3.33387936574275,0.7458665,-1.0415252,-0.2919936,111.458984,-55.950497,-6.4921904,WAL
98613695000,1.215064,0.321070528281712,6.07522157679029,3.54086988754192,0.79473567,-1.0302242,-0.2501493,111.62307,-56.032394,-6.3447986,WAL
98618719000,1.220088,0.28068731333202,6.1085226141436,3.7331615418891,0.84299403,-1.0207558,-0.19792034,111.801216,-56.101246,-6.175948,WAL
98623755000,1.225124,0.185683275014282,6.15602489618832,3.91366918195607,0.8866709,-1.0073168,-0.1695151,111.9681,-56.180664,-6.0103936,WAL
98628822000,1.230191,0.0664270178648384,6.24893970701273,4.11069751698335,0.9263771,-0.9633345,-0.14080444,112.14195,-56.246914,-5.8344827,WAL
98633778000,1.235147,-0.0683836573947111,6.37445290685602,4.31523789872674,0.96974856,-0.9401216,-0.129198,112.3107,-56.32392,-5.66052,WAL
98638705000,1.240074,-0.236071788108854,6.521006470282,4.49555640149872,1.0042624,-0.91507614,-0.12583824,112.47366,-56.385815,-5.503608,WAL
98643787000,1.245156,-0.442419778781305,6.69376305227766,4.65871530930783,1.0143417,-0.86590147,-0.100792766,112.61569,-56.45195,-5.3513565,WAL
98648726000,1.250095,-0.670632635007429,6.91647523316493,4.81083567173848,1.0323622,-0.8213083,-0.100792766,112.761375,-56.51597,-5.2149315,WAL
98653733000,1.255102,-0.931881676196137,7.20147411955423,4.95808496989599,1.0366384,-0.816116,-0.09987647,112.89674,-56.577698,-5.07848,WAL
98658710000,1.260079,-1.16101240592534,7.40889611273948,5.09130882532096,0.9819659,-0.8002335,-0.10476339,113.01288,-56.61732,-4.980471,WAL
98663729000,1.265098,-1.35563074791626,7.52756577301995,5.2099787334288,0.9575313,-0.7079928,-0.13958271,113.11108,-56.663254,-4.9054246,WAL
98668697000,1.270066,-1.53326127965625,7.60265125699065,5.34483049357724,0.95722586,-0.6395759,-0.16126843,113.19271,-56.708282,-4.856924,WAL
98674443000,1.275812,-1.71578569278319,7.62477552278621,5.527354675686,0.95569867,-0.59589905,-0.16798794,113.25949,-56.743877,-4.8247776,WAL
98678720000,1.280089,-1.84626546694664,7.65158001492095,5.6473538493083,0.945314,-0.5320636,-0.17837265,113.30844,-56.778267,-4.830389,WAL
98683773000,1.285142,-1.99450056454545,7.69461609636364,5.77168011818182,0.9080512,-0.49174652,-0.17623462,113.350624,-56.803665,-4.8372025,WAL
98688651000,1.29002,-2.08339778680805,7.75726523623293,5.89590319665708,0.84329945,-0.4373795,-0.18020524,113.39199,-56.807323,-4.8731923,WAL
98693784000,1.295153,-2.09665031824227,7.85444979022286,6.03284534494968,0.79045963,-0.3659083,-0.17379116,113.41692,-56.80407,-4.913475,WAL
98698627000,1.299996,-2.1007223220489,7.96488319730186,6.17931365847386,0.7507534,-0.31673363,-0.1591304,113.44783,-56.791206,-4.9673553,WAL
98703724000,1.305093,-2.06470928804806,8.17067134907251,6.41596992556914,0.6960809,-0.28802297,-0.14905111,113.46507,-56.759266,-5.0268016,WAL
98708639000,1.310008,-2.02797780635046,8.37867921368701,6.68356361009762,0.6239988,-0.27366763,-0.13225232,113.48416,-56.713665,-5.081109,WAL
98713699000,1.315068,-1.98497144879203,8.61760392130954,7.06106425894882,0.5323691,-0.29016098,-0.11148291,113.50067,-56.649307,-5.1292496,WAL
98718649000,1.320018,-1.97070717330041,8.90137842770676,7.39341262236103,0.46120325,-0.35094208,-0.086437434,113.538445,-56.5739,-5.155125,WAL
98723726000,1.325095,-2.03898249819872,9.34163658435018,7.62413611543676,0.38331795,-0.42852196,-0.057421334,113.57898,-56.47566,-5.1680765,WAL
98728701000,1.33007,-2.10588613053457,9.7730496884079,7.85022423402092,0.33200526,-0.4633413,-0.015577064,113.641304,-56.353924,-5.1464934,WAL
98733727000,1.335096,-2.17347560915166,10.2088853187585,8.07863003985086,0.2782491,-0.52931476,0.00030543262,113.72662,-56.21555,-5.107302,WAL
98738673000,1.340042,-2.24739412105926,10.6469570317583,8.28087876287761,0.24617869,-0.6065892,0.04428773,113.81357,-56.09141,-5.036962,WAL
98744195000,1.345564,-2.38564392464175,11.2050768210689,8.33720284207978,0.19517145,-0.7098254,0.10323623,113.91501,-55.953598,-4.9461894,WAL
98748741000,1.35011,-2.49146290854675,11.6505085365628,8.36850694564435,0.08979719,-0.71593404,0.11728613,113.99608,-55.82538,-4.861436,WAL
98753721000,1.35509,-2.51108343245912,11.9693407056464,8.22135314434845,0.053145275,-0.73884153,0.13072516,114.09302,-55.710205,-4.7470794,WAL
98758683000,1.360052,-2.50683627854187,12.2566343148768,8.07208926640394,-0.025350908,-0.7339546,0.13194689,114.152336,-55.610146,-4.638955,WAL
98763730000,1.365099,-2.32588089192118,12.3233029472906,7.9006580908867,-0.10995574,-0.73761976,0.13500121,114.21465,-55.502537,-4.52585,WAL
98768696000,1.370065,-2.13453944857198,12.3815340193941,7.72122593458124,-0.20463985,-0.73823065,0.11362094,114.24505,-55.41366,-4.424822,WAL
98773731000,1.3751,-1.8088595777692,12.367576031648,7.43276668429178,-0.29749137,-0.7272351,0.084910266,114.27375,-55.304314,-4.32955,WAL
98778890000,1.380259,-1.47441710798917,12.3568759541671,7.13514878081436,-0.38087448,-0.7089091,0.051618114,114.29837,-55.21153,-4.215758,WAL
98783764000,1.385133,-1.14672532496239,12.4036890353024,6.82150069727209,-0.44532076,-0.6579019,0.011911872,114.319176,-55.09928,-4.1213646,WAL
98788938000,1.390307,-0.794768593729982,12.4560283064485,6.50536260792909,-0.4550946,-0.5729916,-0.00580322,114.32218,-55.022575,-3.998277,WAL
98793700000,1.395069,-0.421614569333723,12.5359898752192,6.41651647194623,-0.44104472,-0.43585235,-0.021685716,114.309166,-54.935272,-3.905584,WAL
98799033000,1.400402,0.00816745849099804,12.6441991107143,6.326599762818,-0.39584067,-0.2648101,-0.021685716,114.2615,-54.896515,-3.8069122,WAL
98803690000,1.405059,0.654026517326419,13.1635045071429,6.46624505694716,-0.36682457,-0.111177474,-0.005497787,114.1881,-54.858093,-3.7318876,WAL
98808656000,1.410025,1.34273944113503,13.7172667142857,6.61515605772994,-0.3680463,0.051618114,0.016493361,114.076744,-54.842125,-3.6444998,WAL
98813752000,1.415121,1.35793972929353,14.2809588965174,5.94696667393035,-0.41996986,0.23793201,0.04795292,113.92196,-54.82083,-3.5841053,WAL
98818629000,1.419998,1.31611346116418,14.8200542268657,5.24056622253731,-0.49510628,0.49296826,0.07238753,113.71265,-54.793457,-3.5613227,WAL
98823672000,1.425041,1.15317994513909,15.2949677375968,4.52356518302266,-0.56016344,0.8503244,0.106901415,113.44569,-54.78871,-3.493911,WAL
98828687000,1.430056,0.97871741466877,15.7586704290221,3.81194171671924,-0.61391956,1.0308352,0.121256754,113.16337,-54.766186,-3.443174,WAL
98833690000,1.435059,0.874990709237733,15.6531937004423,2.72847572962658,-0.63438356,1.3539828,0.15577064,112.67245,-54.84879,-3.4732149,WAL
98838626000,1.439995,0.7874606430717,15.4295062246682,1.58085887778006,-0.68661255,1.5601498,0.15241088,112.173836,-54.905163,-3.5211432,WAL
98843725000,1.445094,0.87165960167861,14.0897403608521,0.0921515765878079,-0.7165449,1.7935003,0.1554652,111.50198,-55.072807,-3.6414752,WAL
98848632000,1.450001,0.977760290350447,12.6412346156867,-1.38403230751939,-0.65393126,2.058616,0.116675265,110.78402,-55.247692,-3.8090525,WAL
98853716000,1.455085,1.50061581097506,10.9662655515891,-2.37629227211668,-0.50976706,2.2974641,0.02687807,109.93926,-55.524372,-4.0350804,WAL
98858640000,1.460009,2.08651249421986,9.31047047118934,-3.23390930213379,-0.24281894,2.3808472,-0.02565634,109.06972,-55.850845,-4.2722654,WAL
98863738000,1.465107,2.88040771691358,7.68104843518519,-3.7431717308642,0.13713925,2.262034,0.01160644,108.15987,-56.31045,-4.5240026,WAL
98868721000,1.47009,3.76904369095679,6.13943665509259,-4.0131990654321,0.5748242,2.0421226,0.06963864,107.25449,-56.86232,-4.7687464,WAL
98873729000,1.475098,4.44812197238076,5.10094892830493,-3.73483468100232,1.0396926,1.8041905,0.1591304,106.41587,-57.517567,-4.920572,WAL
98878810000,1.480179,5.03692635891903,4.28643650015126,-3.19509768105274,1.4337007,1.5986344,0.3210097,105.595436,-58.287067,-4.9989843,WAL
98883798000,1.485167,5.33112288349334,3.84826874970579,-2.3448435814184,1.7171422,1.4315627,0.50518554,104.88372,-59.101444,-4.9241962,WAL
98888716000,1.490085,5.51101887612264,3.55654539766698,-1.38215652984412,1.8796324,1.2754866,0.70463306,104.186554,-60.006664,-4.762895,WAL
98893738000,1.495107,5.34365891251362,3.5186818093332,-0.6547184386882,1.9254472,1.1136073,0.9263771,103.59139,-60.863655,-4.4443374,WAL
98898728000,1.500097,5.06904081581294,3.56129501511939,-0.0107865955394829,1.9043725,0.97433007,1.1398746,102.996605,-61.756207,-4.0465293,WAL
98903713000,1.505082,4.60040959619696,4.09542100930745,-0.167141729865893,1.8493946,0.9034697,1.3542882,102.474236,-62.514557,-3.5381293,WAL
98908752000,1.510121,4.05949261403122,4.80537460513411,-0.601807226442154,1.7815884,0.9300423,1.5567901,101.92966,-63.259193,-2.9654193,WAL
98913694000,1.515063,3.43132350717541,5.74332226764278,-1.24855355999224,1.7369953,1.0555751,1.7614299,101.370316,-63.876556,-2.36756,WAL
98918689000,1.520058,2.7633892301949,6.77305408626976,-1.97678741110249,1.7201965,1.2293663,1.9440787,100.763275,-64.46564,-1.7325554,WAL
98923674000,1.525043,2.07724416587317,7.81280653711674,-2.55028484734336,1.7018706,1.2950343,2.0711386,100.063385,-65.09708,-1.1394669,WAL
98929079000,1.530448,1.32313225609408,8.94643894694344,-3.09245678440297,1.6841555,1.3610078,2.1181753,99.305176,-65.70059,-0.5439371,WAL
98933689000,1.535058,0.681881539857897,9.80703991934709,-3.33726740570331,1.6847663,1.3222178,2.1786509,98.4945,-66.46851,0.008711906,WAL
98938678000,1.540047,-0.010829187318291,10.6694878463754,-3.4611295937206,1.6679676,1.1942415,2.1887302,97.69948,-67.19944,0.5631992,WAL
98943677000,1.545046,-0.660502873703783,11.4986769660184,-3.43880836135926,1.6707164,0.98807454,2.1560488,96.91961,-68.06336,1.0430788,WAL
98948696000,1.550065,-1.26659251889079,12.2948116844411,-3.26417242262236,1.6658295,0.7654142,2.0638082,96.20224,-68.89093,1.5247651,WAL
98953699000,1.555068,-1.79727334105492,12.8561731044046,-3.01180418189233,1.6129897,0.5897904,1.9312505,95.54876,-69.748955,1.8999687,WAL
98958681000,1.56005,-2.28156771847018,13.2756065736813,-2.71344414893964,1.5424347,0.48563787,1.7394388,94.97238,-70.57383,2.2476268,WAL
98963691000,1.56506,-2.84072725303064,13.5378031009478,-2.31195971080009,1.457219,0.5112942,1.5021176,94.4504,-71.37441,2.4661472,WAL
98968686000,1.570055,-3.49970008695173,13.5747057690104,-1.76896621895526,1.3487904,0.68508536,1.2589933,93.95036,-72.129265,2.6266122,WAL
98973673000,1.575042,-4.09398235778154,13.3702399505128,-1.0588441025809,1.2473868,0.97433007,1.0656544,93.44994,-72.825676,2.6437738,WAL
98978729000,1.580098,-4.65325343646321,12.9989997649109,-0.224758868638853,1.2125676,1.2104294,0.9275989,92.93965,-73.49866,2.6048183,WAL
98983691000,1.58506,-4.99221589939585,12.3815902558161,0.611627211733093,1.2528846,1.2886202,0.8396343,92.43092,-74.10272,2.434636,WAL
98988690000,1.590059,-5.19079353390442,11.5872798079351,1.46637404602344,1.3564262,1.2275337,0.7501425,91.908226,-74.70609,2.2289524,WAL
98993656000,1.595025,-5.0856249792695,10.6405789358342,2.26769897472853,1.525636,1.0363328,0.6209445,91.434105,-75.217094,1.9214017,WAL
98998685000,1.600054,-4.45699170516617,9.40972553186355,2.99670230725019,1.6899587,0.7440339,0.42577308,91.01696,-75.74718,1.595202,WAL
99003663000,1.605032,-3.70045106689082,8.6390996302413,3.30249818279272,1.815797,0.46395215,0.2510656,90.675644,-76.145905,1.2254226,WAL
99008670000,1.610039,-2.82792358190269,8.23602994081289,3.26456213629351,1.8649716,0.23457226,0.13408493,90.413635,-76.556755,0.8460742,WAL
99013705000,1.615074,-2.09596770575752,8.08950157545687,3.14907190752604,1.8206838,0.08155051,0.108123146,90.19927,-76.80846,0.53985405,WAL
99018719000,1.620088,-1.49680283417174,8.17442256730202,2.96507643340538,1.690875,-0.052534413,0.10873401,90.05386,-77.03756,0.23117007,WAL
99023689000,1.625058,-0.995297895095541,8.29902931110669,2.68297177762739,1.5012014,-0.11636983,0.12308934,89.83282,-77.12088,0.043983005,WAL
99028807000,1.630176,-0.575790267515924,8.46975953622612,2.2878542316879,1.4126259,-0.21380283,0.1432479,89.66392,-77.192276,-0.12333279,WAL
99033702000,1.635071,-0.293536560698742,8.6000642346668,1.932833868793,1.2528846,-0.2751948,0.1459968,89.43832,-77.1625,-0.19901843,WAL
99038684000,1.640053,-0.129401729088166,8.69854491827207,1.59518496427167,1.105666,-0.32253686,0.15607607,89.24126,-77.11531,-0.25791222,WAL
99043665000,1.645034,-0.0213073641719235,8.85095057579854,1.32916616764794,1.0122037,-0.3371976,0.19150625,89.03371,-77.10431,-0.24438834,WAL
99048697000,1.650066,0.0172952124304596,9.07291508365876,1.15062932631421,0.95905846,-0.3830125,0.22693644,88.852455,-77.06743,-0.22272444,WAL
99053733000,1.655102,0.00584594910732907,9.25216457304476,0.927931850619774,0.9242391,-0.43188173,0.26297748,88.68426,-77.09702,-0.13969629,WAL
99058713000,1.660082,-0.0645315710953271,9.37884470093458,0.655805421401869,0.9062186,-0.41386122,0.26236662,88.51311,-77.11802,-0.06123266,WAL
99063673000,1.665042,-0.186377636278884,9.48986069800797,0.426843236565737,0.904386,-0.41050145,0.2415972,88.35909,-77.17674,0.041858815,WAL
99069200000,1.670569,-0.402530167144422,9.59002876503984,0.237050768828685,0.9086621,-0.4196644,0.19608775,88.20711,-77.23244,0.13356104,WAL
99073647000,1.675016,-0.503628252737315,9.62487751178023,0.0968859394984847,0.91813046,-0.39614612,0.14752395,88.04238,-77.332375,0.20495223,WAL
99078848000,1.680217,-0.518236432466517,9.60053058793626,-0.0491957103411868,0.9239337,-0.30940324,0.08979719,87.86681,-77.431564,0.25506228,WAL
99083669000,1.685038,-0.531484137508058,9.57051820830647,-0.151527684116401,0.95417154,-0.22082779,0.053450707,87.73045,-77.616165,0.2719706,WAL
99088727000,1.690096,-0.544866434515149,9.52591055161617,-0.200596143738834,0.9944886,-0.13469578,0.04153884,87.57145,-77.80144,0.27410167,WAL
99093637000,1.695006,-0.549874047855386,9.45806154369451,-0.233839427855386,1.0033462,-0.04062254,0.004886922,87.4033,-78.025444,0.25729406,WAL
99098729000,1.700098,-0.518577583185367,9.27549844732057,-0.202542963185367,1.0067059,0.087964594,-0.029626964,87.20007,-78.25402,0.23113252,WAL
99103623000,1.704992,-0.47168185970658,9.12765317516301,-0.170265067477771,1.0082331,0.23548855,-0.07452556,86.97434,-78.4969,0.1870997,WAL
99108718000,1.710087,-0.384911568415333,9.03606247125074,-0.131700493011263,1.0177015,0.38453966,-0.10476339,86.71143,-78.73767,0.13191327,WAL
99113642000,1.715011,-0.301121232289655,8.99387649103448,-0.0794941056524138,1.0204504,0.49632803,-0.115453534,86.41549,-78.9599,0.06968502,WAL
99118706000,1.720075,-0.215116785795074,9.06554680906404,0.0112883640398029,1.0177015,0.57696223,-0.124005646,86.08699,-79.17902,-0.003727576,WAL
99123658000,1.725027,-0.174417952961194,9.13519304597015,0.0822233184740298,1.0085385,0.60994893,-0.12767084,85.74176,-79.3894,-0.06692221,WAL
99128719000,1.730088,-0.256403997629851,9.20512246925373,0.103925507390746,0.9993755,0.6404922,-0.12095132,85.37402,-79.59555,-0.13020574,WAL
99133668000,1.735037,-0.33657568999602,9.27350435343284,0.125147426566567,0.9789116,0.59681535,-0.10476339,85.01334,-79.77816,-0.1725479,WAL
99138820000,1.740189,-0.420035895910448,9.34469115223881,0.147239834647761,0.9596693,0.47403142,-0.092240654,84.666756,-79.95643,-0.20877202,WAL
99143671000,1.74504,-0.527485136336173,9.37747475188193,0.0956295798652932,0.9486737,0.32559118,-0.086437434,84.3399,-80.129265,-0.23653863,WAL
99148700000,1.750069,-0.727841099059033,9.30591859726624,-0.181052491172742,0.93767816,0.2049453,-0.089491755,84.0402,-80.29454,-0.25676984,WAL
99153671000,1.75504,-0.905372225012261,9.23217295487984,-0.481418898293281,0.9425651,0.1572978,-0.08368854,83.76877,-80.454216,-0.28957397,WAL
99158717000,1.760086,-1.01439284920059,9.14685274183423,-0.879581123278077,0.95233893,0.16768251,-0.08735373,83.51584,-80.60962,-0.3211162,WAL
99168719000,1.770088,-1.07296869456996,8.95968363872374,-1.49208777417757,1.010982,0.269697,-0.08368854,83.091835,-81.109375,-0.45089954,WAL
99173699000,1.775068,-1.00579420232762,8.8518534253993,-1.68621004314375,1.0577132,0.35033122,-0.07360926,82.865295,-81.448875,-0.529424,WAL
99178757000,1.780126,-0.727460536014803,8.70089271601091,-1.63431731776393,1.102001,0.42394048,-0.051618114,82.62048,-81.78952,-0.60138017,WAL
99183672000,1.785041,-0.461256437821387,8.56911176071289,-1.57696839198481,1.1447614,0.5002986,-0.038179077,82.347664,-82.18296,-0.66989106,WAL
99188723000,1.790092,-0.220995917306194,8.55026791020647,-1.46390464945462,1.1850786,0.59650993,-0.009773844,82.04528,-82.58045,-0.728432,WAL
99193669000,1.795038,0.0109342273194816,8.53736779160666,-1.35133653005554,1.2137892,0.68294734,0.030848695,81.71794,-82.98132,-0.7412602,WAL
99198630000,1.799999,0.191749899759309,8.61067138880889,-1.20961614007406,1.2382239,0.77579886,0.08155051,81.35811,-83.38479,-0.7439924,WAL
99203608000,1.804977,0.372970170582178,8.68786200217822,-1.07629657436634,1.2699889,0.8396343,0.12339478,80.96151,-83.75774,-0.7131637,WAL
99208624000,1.809993,0.553704417932673,8.79725351267327,-1.01922258949505,1.2889256,0.86590147,0.17348573,80.54578,-84.12762,-0.66582686,WAL
99213597000,1.814966,0.726729437938044,8.90758034143272,-0.964810917666989,1.3066407,0.8940013,0.22357668,80.11468,-84.48984,-0.5946315,WAL
99218615000,1.819984,0.831402173339787,9.04016605401742,-0.934572124201355,1.3151928,0.9074403,0.2742785,79.677826,-84.847946,-0.5090555,WAL
99223590000,1.824959,0.935177952260407,9.1716156196031,-0.904592451524685,1.3252722,0.9285152,0.29657507,79.23385,-85.21234,-0.40200767,WAL
99228770000,1.830139,1.04322991905615,9.3084816999516,-0.873377435551791,1.3460416,0.95356065,0.36560285,78.78178,-85.57419,-0.26881674,WAL
99234062000,1.835431,1.15046206408135,9.44824673642046,-0.839556895281275,1.3350459,0.95325524,0.46975538,78.32928,-85.91919,-0.12050854,WAL
99238720000,1.840089,1.177952301479,9.56998911673563,-0.768867777841359,1.3185526,0.94806284,0.5036584,77.870804,-86.25565,0.025071915,WAL
99243655000,1.845024,1.20707731684127,9.69897122211462,-0.693974949467383,1.2944235,0.93187493,0.5699373,77.42701,-86.59458,0.22687218,WAL
99248728000,1.850097,1.2027374759679,9.83423202708124,-0.579136510154463,1.2562444,0.895223,0.63163465,76.99016,-86.90045,0.43320882,WAL
99253723000,1.855092,1.1835454535005,9.96857598395186,-0.449590248278836,1.2159272,0.84788096,0.6918049,76.56018,-87.16718,0.653578,WAL
99258726000,1.860095,1.18133814700949,10.0959250930604,-0.377894188661008,1.1701124,0.7892379,0.7507534,76.15252,-87.37879,0.8833886,WAL
99263688000,1.865057,1.18608303783325,10.2192923535696,-0.330445250695956,1.1175779,0.7644979,0.79229224,75.7486,-87.5314,1.1194657,WAL
99268722000,1.870091,1.17450522862787,10.3413825109848,-0.260704523722297,1.0757337,0.77640975,0.8219192,75.36838,-87.62149,1.3541529,WAL
99273723000,1.875092,1.15604552470611,10.4613703696281,-0.182250933848526,1.0354166,0.77763146,0.84879726,74.99833,-87.64702,1.5936217,WAL
99278822000,1.880191,1.1523480290631,10.5777754646272,-0.134441520581262,0.9786061,0.78801614,0.8597928,74.63494,-87.62092,1.827657,WAL
99283774000,1.885143,1.15712052716112,10.6875432198853,-0.105806509069538,0.9108001,0.8023715,0.8585711,74.27043,-87.546135,2.0589938,WAL
99289244000,1.890613,1.12586226460657,10.9126345949043,0.032298333533613,0.8582657,0.838718,0.8512407,73.90276,-87.43488,2.2805755,WAL
99293697000,1.895066,1.0865898391896,11.1351779744193,0.185024543554282,0.79443026,0.86132,0.8503244,73.53549,-87.29514,2.4971852,WAL
99298670000,1.900039,0.930151819453039,11.269478158399,0.323595520591875,0.72265357,0.86498517,0.8549059,73.18232,-87.148254,2.7031193,WAL
99303691000,1.90506,0.718978401996207,11.3510685313904,0.448379809080747,0.6420194,0.86590147,0.86162543,72.82413,-86.98797,2.9034872,WAL
99308677000,1.910046,0.401914536643234,11.4245839947276,0.542065793453427,0.5467244,0.8784242,0.8558222,72.47967,-86.82608,3.0874538,WAL
99313706000,1.915075,0.0304266079554774,11.4951196233158,0.622006246172623,0.4370741,0.8741482,0.8332202,72.14057,-86.66319,3.263116,WAL
99318692000,1.920061,-0.403360969881178,11.5359503062406,0.642192094252621,0.30940324,0.8707884,0.8072584,71.816605,-86.52528,3.4016163,WAL
99323738000,1.925107,-0.881057662873689,11.5600763835247,0.62771641261308,0.2452624,0.8558222,0.7837401,71.49809,-86.39457,3.5305624,WAL
99328777000,1.930146,-1.35035373194998,11.5231052860584,0.562540469949977,0.1133155,0.8402451,0.74189585,71.22745,-86.316605,3.5961425,WAL
99333722000,1.935091,-1.80659825913849,11.4529137710051,0.47041416713849,0.016187929,0.7996226,0.6728681,70.96903,-86.25227,3.6461148,WAL
99338683000,1.940052,-2.24193054276576,11.2977930063966,0.348911202428673,-0.06841691,0.7367035,0.59131753,70.75395,-86.25979,3.6147184,WAL
99343697000,1.945066,-2.65634214818763,11.0442706268657,0.192897443724236,-0.129198,0.6814202,0.5112942,70.54839,-86.27652,3.5666442,WAL
99348747000,1.950116,-2.9819054985933,10.7260395333058,-0.00855850677699629,-0.19456059,0.6545421,0.42210788,70.373726,-86.36429,3.4359121,WAL
99353731000,1.9551,-3.21394400086885,10.3508280529582,-0.250470948167149,-0.2302962,0.6780604,0.30451632,70.199875,-86.46761,3.2802908,WAL
99359362000,1.960731,-3.2740489942069,10.1238449383251,-0.433394395919212,-0.23396139,0.7098254,0.17654006,70.05685,-86.63072,3.0614805,WAL
99363717000,1.965086,-3.22474018248276,10.0416637284729,-0.532011924973399,-0.1966986,0.73548174,0.06414085,69.90725,-86.80617,2.8215783,WAL
99368724000,1.970093,-3.09647815290112,10.0671543759621,-0.499890624653641,-0.1423316,0.7247916,0.008552114,69.760345,-86.99961,2.569813,WAL
99373714000,1.975083,-2.90785255836787,10.1944766830472,-0.34427459410302,-0.1255328,0.63071835,-0.03940081,69.62804,-87.20388,2.2954943,WAL
99378788000,1.980157,-2.71831929246365,10.4936794805657,-0.0786148775304124,-0.10293079,0.47952923,-0.058337633,69.512436,-87.411705,2.0333402,WAL
99383817000,1.985186,-2.53255053925428,10.9461929890219,0.283396192845416,-0.13988814,0.2706133,-0.0711658,69.43815,-87.60565,1.7674943,WAL
99388721000,1.99009,-2.4577701856571,11.4264708484704,0.587403342632231,-0.24862215,0.01282817,-0.0888809,69.41636,-87.74543,1.5252228,WAL
99393710000,1.995079,-2.48964387158105,11.9546644040789,0.846946389647384,-0.42149702,-0.2751948,-0.10903945,69.46146,-87.84199,1.2880243,WAL
99398732000,2.000101,-2.60551674038363,12.4798930557086,0.978574539108254,-0.6243043,-0.5858198,-0.1459968,69.59923,-87.83869,1.0697466,WAL
99403704000,2.005073,-2.84843016440159,12.9900108200184,0.910558786470768,-0.86559606,-0.87872964,-0.21227567,69.81412,-87.75324,0.8487094,WAL
99408706000,2.010075,-3.10613720684959,13.4302295411076,0.709778263829315,-1.0564915,-1.1044444,-0.30970868,70.1152,-87.56988,0.61722714,WAL
99413681000,2.01505,-3.38009489397761,13.7714749940482,0.334888747310602,-1.212873,-1.185384,-0.44135013,70.45935,-87.30236,0.3688822,WAL
99418675000,2.020044,-3.49375569533126,13.9766718459827,0.0492151706870972,-1.280679,-1.2464706,-0.50885075,70.8645,-86.99294,0.09743441,WAL
99423719000,2.025088,-3.40193312351059,14.0080258401409,-0.12323217836571,-1.2935071,-1.1636983,-0.65209866,71.25323,-86.63343,-0.22058836,WAL
99429197000,2.030566,-3.30220987838101,14.0420776204738,-0.310517384176828,-1.3243558,-0.87872964,-0.8604037,71.58607,-86.266045,-0.588216,WAL
99433726000,2.035095,-3.21976252949604,14.0702303245862,-0.465357599057907,-1.3927728,-0.7669413,-0.9230174,71.94203,-85.868835,-0.9394885,WAL
99438685000,2.040054,-3.10312509358257,14.1157907364341,-0.577265034176823,-1.4462235,-0.57360244,-1.0317514,72.19615,-85.43954,-1.3548207,WAL
99443720000,2.045089,-2.80503738236679,14.2624692635659,-0.298103602886468,-1.6035212,-0.43035457,-1.1151345,72.43266,-84.95358,-1.7668502,WAL
99448675000,2.050044,-2.488069460438,14.3995202472878,0.00232939220602251,-1.813659,-0.36651915,-1.1798862,72.61625,-84.48314,-2.1663537,WAL
99453726000,2.055095,-1.91915499431208,14.4632776636926,0.576148409546791,-2.0479257,-0.37323865,-1.2327261,72.78126,-83.96122,-2.572757,WAL
99458680000,2.060049,-1.20933197511976,14.4932878344902,1.11579680187702,-2.2864685,-0.40286562,-1.2452488,72.95496,-83.3844,-2.931652,WAL
99463714000,2.065083,0.666456455440415,14.2764882331606,1.48812662901554,-2.5014932,-0.3631594,-1.2180653,73.11545,-82.76855,-3.281538,WAL
99468693000,2.070062,2.43871279283147,14.0703747790189,1.80075688970374,-2.7235427,-0.28252518,-1.1588113,73.30716,-82.07712,-3.5533357,WAL
99473686000,2.075055,3.17257243850413,13.9681916639145,1.41524830543953,-2.924212,-0.14538592,-1.0946705,73.478905,-81.36141,-3.808548,WAL
99478926000,2.080295,3.93049382204586,13.8626218324515,1.01046287135802,-3.0808988,0.06352998,-1.0210613,73.65005,-80.66974,-3.8427458,WAL
99483703000,2.085072,4.4414989106506,13.7909017723888,0.638415302002743,-3.1844406,0.3408628,-0.9437868,73.774574,-79.958626,-3.8656175,WAL
99489026000,2.090395,5.00683051267496,13.7177104836703,0.229366766702955,-3.218649,0.66706485,-0.86009824,73.802155,-79.294525,-3.8053443,WAL
99493684000,2.095053,5.41007852587481,13.8044304183515,-0.00477722898522553,-3.2247577,0.9654725,-0.7706065,73.770515,-78.62735,-3.7379193,WAL
99498737000,2.100106,5.8475221091077,13.8985042332815,-0.25877671593507,-3.202461,1.2305881,-0.66675943,73.637825,-78.02511,-3.612337,WAL
99503690000,2.105059,6.01912994880587,13.9576370691705,-0.659896182479437,-3.1245756,1.4657712,-0.5687156,73.43874,-77.451,-3.4852178,WAL
99508673000,2.110042,6.17046085892379,14.0143862839164,-1.07605593840056,-3.0427198,1.6826283,-0.51343226,73.17946,-76.8976,-3.363116,WAL
99513673000,2.115042,5.97750717576868,14.0509399415598,-1.4515775277133,-2.9547553,1.8057177,-0.50610185,72.86812,-76.405556,-3.2037938,WAL
99518637000,2.120006,5.74518328295663,14.0848201765425,-1.81942362394624,-2.8964176,2.0317378,-0.52931476,72.47565,-75.93702,-3.0677974,WAL
99523677000,2.125046,5.31122332848506,13.8974446689189,-1.97501548831792,-2.7779098,2.278833,-0.6160576,72.00985,-75.55189,-2.9632032,WAL
99528745000,2.130114,4.8581471022404,13.6903244121622,-2.11309591481152,-2.6951375,2.5030203,-0.7480045,71.49968,-75.17803,-2.9001393,WAL
99533746000,2.135115,4.36250150123381,13.4705792569402,-1.8198414844232,-2.6395488,2.6499333,-0.8863655,70.9022,-74.86742,-2.9175704,WAL
99538644000,2.140013,3.85610037332922,13.2487274541435,-1.34720054921859,-2.6212227,2.6908615,-0.91324353,70.27801,-74.579445,-2.9516072,WAL
99543671000,2.14504,3.3133558325504,12.7366618510472,-0.679660883538853,-2.6798658,2.6520715,-0.84879726,69.58786,-74.283966,-3.0747616,WAL
99548654000,2.150023,2.76692960110589,12.1248510812292,0.0489075063319633,-2.7724118,2.5433373,-0.7901542,68.912056,-73.99553,-3.2016163,WAL
99553719000,2.155088,2.29669851881882,11.5401383373373,0.811210187787788,-2.8344147,2.2950208,-0.77488256,68.29854,-73.629745,-3.3597517,WAL
99558702000,2.160071,1.87155439572573,10.9812412664665,1.57073725394394,-2.8011227,2.021964,-0.79412484,67.725746,-73.282074,-3.4971611,WAL
99563715000,2.165084,1.42383136820774,10.4766167634493,2.05378350048996,-2.7311785,1.6694947,-0.7867944,67.285416,-72.8088,-3.6546125,WAL
99568752000,2.170121,0.965318643182754,9.9944694966193,2.41775746599706,-2.6306913,1.2968669,-0.81000733,66.93601,-72.369095,-3.797229,WAL
99573691000,2.17506,0.475007970506965,9.81456383653937,2.55867080135506,-2.5051584,0.96883225,-0.8781188,66.729866,-71.823425,-3.9637506,WAL
99578934000,2.180303,-0.0674042817701128,9.78125764550365,2.59197689302568,-2.300213,0.63407815,-0.93187493,66.6339,-71.34624,-4.0955834,WAL
99583773000,2.185142,-0.564557093693694,9.78676335135135,2.4206889481982,-2.0818288,0.27183503,-0.96791595,66.64325,-70.83286,-4.272209,WAL
99588727000,2.190096,-1.07095563345084,9.81928452761457,2.09547888347043,-1.8603901,-0.008857546,-1.0366384,66.73413,-70.3879,-4.4429708,WAL
99593717000,2.195086,-1.43418608461943,9.96076178029266,1.84239858524055,-1.7235563,-0.22113322,-1.138042,66.86484,-69.95419,-4.677953,WAL
99598739000,2.200108,-1.65696399248342,10.2088556647015,1.66012567943994,-1.6536123,-0.4804455,-1.2202033,67.09376,-69.57074,-4.887408,WAL
99603726000,2.205095,-1.93423262457002,10.3703882506143,1.50906474054054,-1.6227635,-0.6740898,-1.2483032,67.277504,-69.229836,-5.175314,WAL
99608724000,2.210093,-2.24784371879607,10.4781916517199,1.37676013851351,-1.7085901,-0.8772025,-1.2757921,67.54811,-68.87582,-5.4480567,WAL
99614270000,2.215639,-2.52200341034549,10.4623205616676,1.18273844350511,-1.790446,-1.0051788,-1.3087788,67.79872,-68.53548,-5.7522893,WAL
99618724000,2.220093,-2.71547847344142,10.4005732148234,1.00984572189732,-1.8176296,-1.2305881,-1.3371841,68.13891,-68.18985,-6.0211134,WAL
99623714000,2.225083,-2.69116170968756,10.3306665138534,0.81137325302024,-1.8597792,-1.4456125,-1.4230106,68.463066,-67.79884,-6.352068,WAL
99628840000,2.230209,-2.48858665189625,10.2583177932796,0.603974875002947,-1.8506162,-1.6010778,-1.5308284,68.843834,-67.41503,-6.6670747,WAL
99633758000,2.235127,-2.263009562001,10.0952281515758,0.456059116444222,-1.8481728,-1.5754215,-1.5754215,69.18512,-66.997795,-7.0241394,WAL
99638724000,2.240093,-2.01082376016008,9.85731725212606,0.346620043075538,-1.8723019,-1.5219707,-1.6077974,69.57676,-66.57176,-7.3814235,WAL
99643712000,2.245081,-1.73067442401168,9.57856239571568,0.253587697573515,-1.8289305,-1.525636,-1.6380352,69.96903,-66.16807,-7.7216983,WAL
99648819000,2.250188,-1.42112537953262,9.25948877137293,0.172628709059396,-1.7547104,-1.53205,-1.641395,70.353226,-65.77085,-8.0572605,WAL
99653720000,2.255089,-1.09313402661358,8.82345784101704,0.10764877091981,-1.6841555,-1.5274686,-1.6077974,70.73587,-65.37367,-8.366664,WAL
99658701000,2.26007,-0.728826483989941,8.25033990788861,0.054335469442116,-1.602605,-1.4703526,-1.6053538,71.11359,-65.00159,-8.680341,WAL
99663725000,2.265094,-0.361035911069888,7.68734251650129,0.0317123274493098,-1.5372424,-1.4801265,-1.5974126,71.51579,-64.63364,-8.943646,WAL
99668725000,2.270094,0.00563432188955992,7.15541251218723,0.0678629130834771,-1.4691309,-1.5396858,-1.5842791,71.91784,-64.2949,-9.196306,WAL
99673722000,2.275091,0.296847734029777,6.7289267342928,0.104913324567742,-1.402852,-1.5457945,-1.5506815,72.33279,-63.93701,-9.409013,WAL
99678825000,2.280194,0.515127634665012,6.40393223920596,0.143718643612903,-1.3292428,-1.5409076,-1.5100589,72.759674,-63.608128,-9.602783,WAL
99684374000,2.285743,0.706025056659739,6.01364317820665,0.0994361479168646,-1.2702943,-1.5008959,-1.4492778,73.21134,-63.258904,-9.741356,WAL
99688727000,2.290096,0.825675442921615,5.68357316199525,0.00866689905938242,-1.2070698,-1.378112,-1.4150693,73.63834,-62.939003,-9.880634,WAL
99693689000,2.295058,0.967210061107549,5.38791530032061,0.0170127186557855,-1.1181889,-1.2873985,-1.3927728,74.08022,-62.612053,-9.981841,WAL
99698734000,2.300103,1.11741697870203,5.18607471681725,0.162525655126202,-1.03786,-1.2855659,-1.353372,74.50624,-62.312298,-10.068597,WAL
99703661000,2.30503,1.18665500691694,5.10799628628436,0.259918438090452,-0.9691377,-1.3332134,-1.3081679,74.926414,-62.030045,-10.14154,WAL
99708721000,2.31009,1.13413306445955,5.21781503827963,0.288566768073702,-0.88270026,-1.3542882,-1.2605205,75.332825,-61.783997,-10.202768,WAL
99713625000,2.314994,1.09803983091483,5.36707529416404,0.317983218675079,-0.8005389,-1.3613132,-1.2373075,75.76957,-61.50754,-10.236619,WAL
99718728000,2.320097,1.08840449763407,5.60314111045938,0.351706905279968,-0.75228053,-1.3518448,-1.1914927,76.19639,-61.258034,-10.248869,WAL
99723645000,2.325014,1.08524559312185,5.76945973702935,0.365829473993478,-0.6582073,-1.3628404,-1.1371256,76.61314,-61.039734,-10.25862,WAL
99728794000,2.330163,1.09499180187766,5.81331757466153,0.341463941927068,-0.5589417,-1.3710871,-1.073901,77.01716,-60.84602,-10.25368,WAL
99733687000,2.335056,1.12220625233073,5.80845447045861,0.296388605283925,-0.47891834,-1.4227052,-1.0228939,77.41347,-60.68374,-10.233258,WAL
99738726000,2.340095,1.19037302245032,5.69938761928618,0.200955122371221,-0.3830125,-1.4333953,-0.9642508,77.78894,-60.562584,-10.198156,WAL
99743664000,2.345033,1.25679533362533,5.57185312074094,0.109538607133863,-0.28588495,-1.4144585,-0.895223,78.15737,-60.475883,-10.135872,WAL
99748733000,2.350102,1.32324049238982,5.34593955318916,0.0253747378237065,-0.16218472,-1.38025,-0.8194757,78.51235,-60.43033,-10.058012,WAL
99754102000,2.355471,1.40013294906219,5.09592927936821,-0.0632088149062192,-0.051618114,-1.3710871,-0.7464773,78.85386,-60.424187,-9.958731,WAL
99758722000,2.360091,1.53989948766041,4.75961612852912,-0.133092088766041,0.073303826,-1.3365731,-0.6835582,79.16776,-60.461933,-9.851924,WAL
99764051000,2.36542,1.69722456516111,4.38014316506798,-0.208737465670516,0.21533,-1.3118331,-0.6206391,79.47674,-60.54713,-9.721776,WAL
99768728000,2.370097,1.74727939761594,4.23832113252002,-0.162853878690631,0.344528,-1.2895365,-0.5653558,79.76659,-60.66696,-9.583668,WAL
99773698000,2.375067,1.80047001495623,4.08761437567517,-0.114095822823617,0.48288897,-1.258077,-0.5006041,80.05517,-60.833008,-9.415587,WAL
99778838000,2.380207,1.87448281347925,3.92760423107854,-0.0650534296579182,0.6215554,-1.2260065,-0.43676865,80.32701,-61.037384,-9.238914,WAL
99783675000,2.385044,1.94788760592255,3.77620684965831,-0.0191754293507973,0.7528914,-1.1838568,-0.3726278,80.57584,-61.280754,-9.053773,WAL
99788723000,2.390092,2.03597870082203,3.66414197066455,0.0478441996209765,0.8772025,-1.1386528,-0.3032946,80.81781,-61.533836,-8.845912,WAL
99793648000,2.395017,2.12473279065069,3.56604535533327,0.117913193081906,0.9960158,-1.065349,-0.22021692,81.027214,-61.824627,-8.630389,WAL
99798713000,2.400082,2.16747603243563,3.49887593512874,0.160058420011838,1.1166617,-0.990518,-0.13805555,81.228195,-62.137302,-8.393235,WAL
99803626000,2.404995,2.19532499271974,3.44317801456052,0.192548893063036,1.2409728,-0.92179567,-0.052839845,81.39595,-62.486362,-8.14614,WAL
99808718000,2.410087,2.15636124264864,3.40356376174944,0.343587768396513,1.3497068,-0.8897252,0.039095376,81.54982,-62.84219,-7.8703156,WAL
99813637000,2.415006,2.09637411233226,3.37126309934372,0.528163402023705,1.4822645,-0.75808376,0.09560041,81.648254,-63.236813,-7.607029,WAL
99818724000,2.420093,2.00161544708748,3.38697643355221,0.810194649409024,1.5662584,-0.602924,0.1853976,81.71647,-63.640526,-7.3188744,WAL
99823710000,2.425079,1.89541454479983,3.42237666390595,1.12374025745393,1.7217237,-0.4605924,0.28069258,81.740395,-64.09802,-7.0333314,WAL
99828741000,2.43011,1.81183970412886,3.54081049228675,1.40257464674229,1.9162843,-0.32406402,0.36896262,81.70815,-64.495056,-6.7609224,WAL
99833671000,2.43504,1.73472121728675,3.67362567649728,1.6682049704265,2.1227567,-0.17806722,0.46914452,81.616005,-64.93807,-6.484336,WAL
99838719000,2.440088,1.63945411785785,3.90027924907939,2.0296146694219,2.3044891,-0.04734206,0.5702427,81.45597,-65.2615,-6.237711,WAL
99843724000,2.445093,1.53506860518709,4.18022224640665,2.44241187903385,2.47095,0.05681047,0.6554584,81.24685,-65.63723,-5.9904056,WAL
99848730000,2.450099,1.4086742238365,4.62869826515581,3.01377966669365,2.6322184,0.086132,0.743423,81.031784,-66.03729,-5.7358236,WAL
99853722000,2.455091,1.26840564010522,5.18493575410765,3.68610171153379,2.7818804,0.100792766,0.83169305,80.77616,-66.47757,-5.4757543,WAL
99858722000,2.460091,0.921966943321157,5.96842683996446,4.72975219528088,2.8985555,0.08002335,0.93828905,80.53567,-66.91074,-5.201378,WAL
99863735000,2.465104,0.452735543311284,6.88793100750321,5.99525501848159,2.9703321,-0.002443461,1.0574077,80.289635,-67.36927,-4.902567,WAL
99868707000,2.470076,-0.304900000309837,8.08140084275755,7.39994147947328,2.9767463,-0.12736541,1.1646146,80.098145,-67.794815,-4.5792685,WAL
99873728000,2.475097,-1.26399568836173,9.47348621891944,8.91773367728505,2.898861,-0.26358834,1.2504412,79.91374,-68.21071,-4.2301664,WAL
99878811000,2.48018,-2.57816710263443,11.2095677414899,10.1633440076961,2.722321,-0.39828414,1.2864822,79.84051,-68.43633,-3.928808,WAL
99883734000,2.485103,-4.12723711685249,13.154045878145,11.1355833188949,2.404671,-0.5332854,1.2589933,79.79293,-68.599,-3.6191158,WAL
99888722000,2.490091,-6.05518326621963,14.7883728468416,11.4836599344995,2.0027218,-0.66248333,1.0845913,79.9034,-68.52289,-3.4740555,WAL
99893720000,2.495089,-8.3298117776482,16.104773675413,11.2231703916424,1.5699236,-0.7287622,0.70157874,80.04517,-68.3591,-3.3875031,WAL
99898729000,2.500098,-10.0500628629857,17.1419537539877,10.8470699232618,1.1142182,-0.8145888,0.19456059,80.3157,-68.06435,-3.5691895,WAL
99903852000,2.505221,-11.1185907546012,17.8543053325153,10.3203309730061,0.59986967,-1.0064005,-0.29260445,80.65235,-67.65426,-3.80268,WAL
99908711000,2.51008,-10.8441398695099,18.3391400623806,10.139357144494,0.007330383,-1.1187997,-0.46822822,81.04725,-67.317795,-4.3083553,WAL
99913701000,2.51507,-9.28407901109393,18.6476760685642,10.2697244678549,-0.3115413,-1.4230106,-0.6963864,81.58104,-66.90072,-4.8640413,WAL
99918718000,2.520087,-7.53593620625204,18.4878218265984,10.3250285416621,-0.9224065,-1.8295414,-0.829555,82.15441,-66.37324,-5.462829,WAL
99923724000,2.525093,-5.36366077782377,17.2084755767346,10.1997046048361,-1.4257594,-2.115121,-0.91507614,82.77534,-65.78527,-6.0382633,WAL
99928767000,2.530136,-3.60188416515346,15.4987603375111,9.82589210125333,-1.6853772,-2.2293527,-0.96791595,83.39801,-65.126114,-6.3607817,WAL
99933738000,2.535107,-2.34747922321129,13.3376140402645,9.17754821207935,-1.6826283,-2.1368067,-1.0070114,84.03691,-64.42434,-6.663473,WAL
99939338000,2.540707,-1.24411105292867,11.1180762950694,8.13349613826711,-1.5015068,-1.6804903,-0.9987647,84.57457,-63.711052,-6.7711906,WAL
99943690000,2.545059,-0.62961107788224,9.56187526031594,7.07607746935376,-1.255328,-0.8915578,-0.9080512,85.000404,-63.04948,-6.911836,WAL
99948624000,2.549993,0.0527607078738222,8.06034830622696,5.93109590184351,-0.98837996,-0.029932396,-0.7480045,85.29333,-62.463562,-6.986383,WAL
99953693000,2.555062,0.72395617648095,7.06598457788816,4.86712681894715,-0.7247916,0.70707655,-0.51159966,85.40455,-61.975113,-7.1005516,WAL
99958634000,2.560003,1.47170833168482,6.37453058130704,3.86411623328427,-0.4999932,1.2690725,-0.2302962,85.319176,-61.633125,-7.1956587,WAL
99963669000,2.565038,2.38962894963203,6.13322157350603,2.89887995504857,-0.27091873,1.6801848,0.08552113,85.0577,-61.394985,-7.296078,WAL
99968620000,2.569989,3.35241270793604,6.13843060392854,1.99360541673675,-0.09560041,2.019826,0.3827071,84.62981,-61.30993,-7.334428,WAL
99973676000,2.575045,4.45645955282795,6.63071113062876,1.15720644335209,0.013439035,2.293799,0.66248333,84.07925,-61.29712,-7.3405967,WAL
99978812000,2.580181,5.59353274660853,7.46322764689923,0.378636516531008,0.052534413,2.4123068,0.9224065,83.41188,-61.459473,-7.202655,WAL
99983723000,2.585092,6.7100796710562,8.88511613910853,-0.232046400091085,0.06047566,2.3429737,1.1786644,82.68712,-61.66398,-7.004178,WAL
99988641000,2.59001,7.79851512560188,10.4728651039342,-0.897394054932472,0.093462385,2.159714,1.4618006,81.86736,-62.060883,-6.597984,WAL
99993665000,2.595034,8.82031127138383,12.5917973348992,-1.74025806589352,0.14935656,1.8939877,1.7519615,81.054115,-62.47428,-6.1079645,WAL
99998656000,2.600025,9.70652888105906,14.5387208028513,-2.3178994010998,0.23457226,1.5033394,1.9847012,80.21269,-63.077324,-5.3862734,WAL
100003690000,2.605059,10.1041851486762,15.8936967464358,-1.90060607362525,0.34574974,1.2363913,2.0949624,79.39762,-63.68281,-4.615205,WAL
100009343000,2.610712,9.81594318659957,17.1512395602921,-0.384843197631735,0.39858958,-0.13408493,1.9468275,78.90356,-64.45989,-3.5604644,WAL
100013670000,2.615039,8.48698844010262,17.715533476416,2.35484744931912,0.37690386,-0.7351763,1.7736472,78.29641,-65.19567,-2.575377,WAL
100018691000,2.62006,6.72526608412169,18.1228340353288,4.72488170244357,0.31031954,-1.6560557,1.382999,78.21244,-65.88728,-1.4816536,WAL
100023675000,2.625044,4.21459765373896,17.6684781177625,4.27052563814524,-0.014966198,-1.8634444,1.1453724,78.12199,-66.429306,-0.4560685,WAL
100028745000,2.630114,1.86136837623229,16.9713648584115,3.55653863554979,-0.31795537,-1.4532484,1.0855075,78.24573,-66.61262,0.35843533,WAL
100033731000,2.6351,0.370075477449611,15.3228431112552,1.82225553916983,-0.44257188,-0.90377516,1.1780536,78.39762,-66.71941,1.1198585,WAL
100038677000,2.640046,-0.991437005940006,13.6704211075141,0.208215188803089,-0.39461896,-0.53878313,1.3408492,78.489685,-66.81734,1.5826569,WAL
100043749000,2.645118,-1.83778363459063,11.8959788194238,-0.950702606203346,-0.25289822,-0.33628133,1.4782939,78.47321,-66.8937,2.0043743,WAL
100048679000,2.650048,-2.58804124355363,10.2286633011918,-2.02768906858072,-0.08460484,-0.15332718,1.5018122,78.33459,-67.08857,2.2642314,WAL
100053710000,2.655079,-2.96768001794544,8.83349014626219,-2.86289458036048,0.092240654,0.03726278,1.4501941,78.136284,-67.316124,2.509124,WAL
100058686000,2.660055,-3.28706951952862,7.50957081818182,-3.59642958653199,0.22632557,0.22296582,1.3573426,77.898476,-67.61996,2.6871123,WAL
100063730000,2.665099,-3.22966567262824,6.54805494652406,-3.71123748013468,0.24648413,0.29871312,1.2498302,77.65288,-67.94136,2.8340192,WAL
100068690000,2.670059,-3.16063001201142,5.63041046614314,-3.78562310155274,0.22632557,0.27763826,1.1093313,77.40704,-68.325455,2.9256265,WAL
100073719000,2.675088,-2.98871576075317,4.92556209881313,-3.54924098363377,0.1591304,0.20066923,0.9575313,77.17528,-68.70921,2.9794464,WAL
100079626000,2.680995,-2.74684200761421,4.10772068680203,-3.36651483350254,0.13255776,0.069027774,0.75961095,76.9944,-69.08203,3.002843,WAL
100083723000,2.685092,-2.02644568738525,3.67972056172373,-4.55305010534615,0.12980886,-0.025350908,0.552833,76.84489,-69.45424,2.9829962,WAL
100088978000,2.690347,-1.12080130974843,3.24863460663236,-6.0057063890223,0.26053402,0.010995574,0.39095375,76.72202,-69.80147,2.9492388,WAL
100093727000,2.695096,-0.518385084402516,4.24543839302459,-6.50410810120069,0.5332854,0.183565,0.37904188,76.59554,-70.19582,2.8927417,WAL
100098680000,2.700049,0.109908780440252,5.28506129342481,-7.0239193626072,0.90408057,0.2919936,0.52778757,76.45872,-70.78664,2.94868,WAL
100103728000,2.705097,0.454497367319132,6.434868718877,-6.8021130839305,1.2773192,0.43799037,0.7162395,76.26629,-71.460434,2.9926848,WAL
100108648000,2.710017,0.764392185891823,7.56344098941789,-6.5199701370374,1.4474452,0.4642576,0.7703011,76.080055,-72.18616,3.0422084,WAL
100113666000,2.715035,1.02467679615703,8.84857017652639,-6.00493221354324,1.68385,0.45845437,0.8378017,75.830315,-73.1237,3.2255166,WAL
100118640000,2.720009,1.2746538225936,10.1417200230901,-5.46171308487234,1.7730364,0.43310347,0.8732319,75.58507,-74.059296,3.416807,WAL
100123719000,2.725088,1.40617202626383,11.2968217440423,-4.80489270256257,1.7898352,0.3652974,0.9053023,75.34534,-75.00794,3.6698418,WAL
100128640000,2.730009,1.51895080652109,12.3964159801077,-4.15641417633862,1.8203784,0.21838433,0.9126327,75.142105,-75.96012,3.9337146,WAL
100133701000,2.73507,1.48971805200476,12.9947441502084,-3.36878426841008,1.915368,0.037873644,0.8707884,74.956894,-76.84117,4.219225,WAL
100138628000,2.739997,1.44288905875347,13.5098633204645,-2.58673964102819,2.096184,-0.21533,0.768163,74.841545,-77.71698,4.4988246,WAL
100143736000,2.745105,1.19346799969501,13.3935714115517,-2.08745729361418,2.400395,-0.5311473,0.5467244,74.78004,-78.52003,4.75229,WAL
100148827000,2.750196,0.914652581814716,13.1798129762676,-1.63670567549562,2.82403,-0.8567385,0.23273966,74.80159,-79.3715,4.955022,WAL
100153728000,2.755097,0.961595761344428,12.6323484889868,-1.11825164867026,3.3622024,-1.0693196,-0.035430185,74.84791,-80.15986,5.1050153,WAL
100158642000,2.760011,1.08598455130038,11.999654753304,-0.577697858361886,3.8829648,-1.1178834,-0.16920967,74.93923,-81.009415,5.2043977,WAL
100173722000,2.775091,1.4677067638636,10.0580549295154,1.08114446110295,4.8963904,0.23060162,-0.24648413,74.91025,-83.615265,5.1004276,WAL
100178711000,2.78008,1.59399403962474,9.41570469603524,1.62994846188612,4.874094,1.5396858,-0.18906279,74.52206,-84.32079,5.027186,WAL
100183618000,2.784987,1.85504133702662,9.00082341697639,3.17609332125565,4.370435,2.7382035,-0.0067195175,73.923874,-84.76483,4.997034,WAL
100188606000,2.789975,2.19573511518835,8.69851804841788,5.30183070926168,3.2919528,3.186884,0.12858713,73.15825,-84.97178,4.980464,WAL
100193613000,2.794982,2.21816300937465,8.42926014067533,6.52495501108519,2.103209,2.878397,0.12095132,72.13443,-84.83655,5.148432,WAL
100198592000,2.799961,2.06456929320227,8.18033198567144,7.23996059243586,1.1346822,2.5662448,0.03176499,70.98882,-84.66022,5.328164,WAL
100203600000,2.804969,2.10751997984787,8.28356599575225,6.28834536857651,0.763887,1.7705929,-0.006414085,70.090996,-84.40494,5.5474257,WAL
100208605000,2.809974,2.18801420379334,8.45402448903487,5.01937832120913,0.2932153,1.0467176,-0.021991149,69.28352,-84.10467,5.7330008,WAL
100213607000,2.814976,2.24567180374214,8.56324417193893,3.08379110250873,0.13530666,0.5729916,0.067500606,68.68992,-83.73869,5.91897,WAL
100218599000,2.819968,2.29814967445365,8.65865857289692,1.00375563727373,0.20341812,0.39645153,0.20677789,68.23821,-83.3106,6.1042967,WAL
100223692000,2.825061,2.11239544023954,8.65524713094387,-0.475414614263497,0.42943826,0.46883908,0.33322698,67.846306,-82.902245,6.322756,WAL
100228961000,2.83033,1.86433414154451,8.62818581444405,-1.85553786569896,0.74372846,0.64568454,0.42760566,67.48419,-82.49415,6.5599246,WAL
100233688000,2.835057,1.5546109547654,8.66341891874024,-2.61200425782756,1.0503827,0.82711154,0.46486846,67.09982,-82.238014,6.832239,WAL
100238687000,2.840056,1.17217793045634,8.73814733614911,-3.10872763682857,1.3558154,0.9486737,0.43768495,66.68445,-82.02508,7.1003857,WAL
100243670000,2.845039,0.760803814901536,8.85216937675828,-3.33591413626921,1.5812247,1.0384709,0.4016439,66.27465,-81.98998,7.3217616,WAL
100248701000,2.85007,0.302037273236312,9.02420649578013,-3.17951650295391,1.7577647,1.1343768,0.35216382,65.82818,-81.966774,7.5272255,WAL
100253690000,2.855059,-0.127986674273562,9.25526833813436,-2.73493704435959,1.8936822,1.2403619,0.29932398,65.40552,-82.04168,7.6490154,WAL
100258675000,2.860044,-0.538706235733204,9.53215822358627,-2.0704019457129,1.9813415,1.3457361,0.27397305,64.95533,-82.07781,7.765833,WAL
100264385000,2.865754,-0.928417454280435,9.84148916074728,-1.12030549556559,2.0073032,1.4428637,0.26725355,64.505226,-82.1361,7.8073792,WAL
100268691000,2.87006,-1.17393057267502,10.0700700457812,-0.290640647012934,1.9388863,1.4941764,0.27214047,64.03716,-82.143974,7.8490157,WAL
100273702000,2.875071,-1.38434013739459,10.2511429467869,0.519854356876999,1.7693712,1.4694363,0.26633725,63.58331,-97.81619,7.8150163,WAL
100278777000,2.880146,-1.53508869099544,10.3642047186198,1.2123557909179,1.5430456,1.3674219,0.26542094,63.13584,-97.80885,7.788884,WAL
100283739000,2.885108,-1.63141418359271,10.4083106699563,1.60771939722908,1.2864822,1.1869112,0.258396,62.730732,-97.74723,7.7087255,WAL
100288692000,2.890061,-1.67642646289619,10.3858045538053,1.72025007198709,1.0607675,0.9673051,0.23426682,62.3667,-97.68499,7.628389,WAL
100293663000,2.895032,-1.64118502496075,10.330602411303,1.6190757304427,0.91446525,0.7678576,0.20555615,62.067116,-97.57897,7.5192475,WAL
100298682000,2.900051,-1.47014953375196,10.2199322794349,1.15627390327787,0.8378017,0.68936145,0.18600847,61.79782,-97.4689,7.4107637,WAL
100303685000,2.905054,-1.27455449007475,10.1047196564892,0.73696043717734,0.8231409,0.5925393,0.18753563,61.60862,-97.34879,7.2936006,WAL
100308672000,2.910041,-1.05087660308025,9.98427752039989,0.367031577427722,0.8072584,0.5366451,0.22021692,61.431927,-97.23495,7.1848135,WAL
100313762000,2.915131,-0.801745399928683,9.85526810140406,-0.0181782161488745,0.79443026,0.51251596,0.24373524,61.270782,-97.16187,7.107869,WAL
100318689000,2.920058,-0.502041732788054,9.71330362948518,-0.412525155554937,0.7672467,0.5342017,0.27030787,61.11327,-97.10148,7.0445237,WAL
100323716000,2.925085,-0.181652571041028,9.59318106416213,-0.716405725648048,0.74189585,0.6087272,0.29535335,60.927467,-97.10163,7.035388,WAL
100328694000,2.930063,0.152979898345032,9.50363169174493,-0.900217930260999,0.72418076,0.72082096,0.32162055,60.724964,-97.11068,7.0358076,WAL
100334115000,2.935484,0.505377929340986,9.44257468929349,-0.998264119434,0.72112644,0.816116,0.3399465,60.485348,-97.17952,7.089602,WAL
100338694000,2.940063,0.791766722289729,9.42521744290521,-0.985246456501089,0.72143185,0.8958339,0.3494149,60.218468,-97.25294,7.148386,WAL
100343637000,2.945006,1.08233964282598,9.4177691245414,-0.944805882730788,0.71837753,0.95447695,0.36926803,59.93916,-97.40364,7.27333,WAL
100348699000,2.950068,1.35152716570154,9.42738316003966,-0.863088217298959,0.70952,0.9789116,0.40744713,59.64725,-97.5608,7.4039373,WAL
100353623000,2.954992,1.55387398100611,9.456919116126,-0.797054155383169,0.69027776,0.97005403,0.45051312,59.33217,-97.76812,7.5862317,WAL
100358673000,2.960042,1.66301447653973,9.52058425481899,-0.751578959990597,0.6795876,0.95325524,0.51159966,59.013638,-97.9867,7.7797112,WAL
100363651000,2.96502,1.74800722331553,9.57477264153657,-0.740888366852917,0.64934975,0.9184359,0.56321776,58.69292,-98.239876,8.012898,WAL
100368776000,2.970145,1.76817206642358,9.60501993251849,-0.831630008184059,0.6215554,0.9071349,0.61544675,58.371876,-98.50237,8.256535,WAL
100373736000,2.975105,1.76309230746327,9.65349778145373,-0.936127539758684,0.57635134,0.9025534,0.66859204,58.066372,-98.77882,8.515676,WAL
100378792000,2.980161,1.70655400686971,9.74301658110343,-1.07747328632286,0.5549711,0.9147707,0.7128797,57.760643,-99.05863,8.779084,WAL
100383710000,2.985079,1.65073125493171,9.83430865383156,-1.20440340421093,0.5412266,0.9193522,0.75900006,57.45806,-99.34793,9.052373,WAL
100388683000,2.990052,1.5920125008346,9.93819572747534,-1.30377365061646,0.5363397,0.91599244,0.8026769,57.15576,-99.638954,9.328832,WAL
100393691000,2.99506,1.52795210295418,10.0503504749297,-1.3842431426045,0.5516113,0.9068295,0.84788096,56.856846,-99.93104,9.601673,WAL
100398701000,3.00007,1.43635075709405,10.2046267093549,-1.35531643360129,0.57940567,0.87109387,0.86345804,56.567677,-100.2188,9.86952,WAL
100403800000,3.005169,1.29598092086076,10.3549714979857,-1.23010451275425,0.61300325,0.8374963,0.89766645,56.296097,-100.510574,10.132598,WAL
100408669000,3.010038,0.956924132485015,10.4695176294586,-0.694028210793947,0.67073005,0.8038987,0.9233228,56.03529,-100.80055,10.389731,WAL
100413663000,3.015032,0.614199090969897,10.5780014570457,-0.166723981107111,0.74097955,0.766025,0.956615,55.79704,-101.081726,10.633622,WAL
100418694000,3.020063,0.305810377012201,10.6213684858486,0.199487580648065,0.8072584,0.73731434,0.9825767,55.56599,-101.36542,10.875697,WAL
100423766000,3.025135,-0.0227473769655476,10.6709314297739,0.54767484520505,0.84788096,0.7244862,1.0024298,55.369625,-101.58411,11.067517,WAL
100428712000,3.030081,-0.449267251561026,10.7543807174317,0.760934805013213,0.82619524,0.7315111,1.0137309,55.17582,-101.80249,11.259198,WAL
100433668000,3.035037,-0.883156996720827,10.8358154983752,0.958051323574594,0.766025,0.77549344,1.0112875,54.99327,-101.9677,11.411824,WAL
100438689000,3.040058,-1.39928509223043,10.8926370997538,0.962786440541605,0.6301075,0.82772243,0.990518,54.806107,-102.11861,11.558914,WAL
100443732000,3.045101,-1.91317274161596,10.9468670082793,0.956294563808479,0.453262,0.88208944,0.9593639,54.64309,-102.19821,11.6465,WAL
100448697000,3.050066,-2.34953116420948,10.9563532536658,0.776059536686284,0.2302962,0.88331115,0.9071349,54.47962,-102.249756,11.720138,WAL
100453818000,3.055187,-2.78931083378987,10.9475890969544,0.58172501013516,0.008857546,0.84696466,0.82558435,54.340107,-102.21035,11.713018,WAL
100458663000,3.060032,-3.07779299553073,10.7092777877095,0.293242900782123,-0.19028452,0.7651087,0.7357872,54.21151,-102.14044,11.687591,WAL
100463703000,3.065072,-3.37788589443143,10.4613750016219,-0.00684994362227426,-0.33964106,0.6658431,0.63407815,54.118675,-101.98862,11.580337,WAL
100468690000,3.070059,-3.44711660524485,9.97641393523827,-0.481992695110443,-0.4266894,0.573297,0.5222898,54.043743,-101.80417,11.4449415,WAL
100473971000,3.07534,-3.47088532448538,9.41071752382743,-1.02391987104427,-0.43066,0.54428095,0.3811799,53.97516,-101.585014,11.273834,WAL
100478737000,3.080106,-3.20523782933346,9.37365393314928,-1.03875114657858,-0.33078352,0.6249151,0.21655174,53.911842,-101.31535,11.0365,WAL
100483629000,3.084998,-2.83106817841649,9.50299721691974,-0.886311660954447,-0.14538592,0.6637051,0.13805555,53.865444,-101.04046,10.785636,WAL
100488723000,3.090092,-2.43930951633363,9.70940387796998,-0.304029117118998,0.03145956,0.5626069,0.11148291,53.829502,-100.77297,10.518803,WAL
100493698000,3.095067,-2.05565175040262,9.94622925946913,0.472759489352818,0.13775012,0.45020768,0.07360926,53.78175,-100.49064,10.229174,WAL
100498743000,3.100112,-1.70033961264126,10.4183597618262,1.26682499608961,0.14294247,0.13347405,0.04795292,53.807102,-100.263214,9.991575,WAL
100503726000,3.105095,-1.36625759448945,11.0006170077008,2.05430394988499,0.10781772,-0.2284636,0.014049901,53.876263,-100.031136,9.742287,WAL
100508713000,3.110082,-1.21904028534877,11.6732115738654,2.50811110648797,-0.03970624,-0.5580254,0.004276057,54.01262,-99.82462,9.550153,WAL
100513695000,3.115064,-1.16575281537212,12.3901703895827,2.79392580095441,-0.26267207,-0.8026769,0.010995574,54.2293,-99.61044,9.354375,WAL
100518712000,3.120081,-1.3800348568892,13.0742907694673,2.72104634296201,-0.5543602,-0.9434814,0.0061086523,54.50508,-99.407936,9.206314,WAL
100523747000,3.125116,-1.71485736234501,13.7439352809245,2.48667056417022,-0.8958339,-0.9935723,-0.019547688,54.827904,-99.198685,9.057436,WAL
100528837000,3.130206,-2.13001572389688,14.1670311685672,1.99945879995042,-1.221425,-0.9950995,-0.07147124,55.188248,-98.982704,8.905995,WAL
100533751000,3.13512,-2.56398892191373,14.4656795794745,1.42082782053545,-1.4963144,-0.95325524,-0.17867808,55.55438,-98.76293,8.737491,WAL
100538720000,3.140089,-2.76192040158107,14.1802124689536,0.927887616376006,-1.6759088,-0.82558435,-0.29229903,55.910637,-98.49771,8.496616,WAL
100543750000,3.145119,-2.84039037772135,13.5939957556535,0.475531223792641,-1.7531832,-0.5842926,-0.39920044,56.225155,-81.75121,8.237382,WAL
100548735000,3.150104,-2.85884469345909,12.8673602811154,0.290143667238056,-1.815797,-0.2843578,-0.49602258,56.4948,-82.052216,7.8882475,WAL
100553726000,3.155095,-2.83434304859545,12.034303844064,0.295044006444536,-1.9028453,-0.026572637,-0.6072,56.708065,-82.32909,7.5166783,WAL
100558720000,3.160089,-2.73274448238764,11.48117665,0.383693700286517,-2.044566,0.20280726,-0.7122689,56.833786,-82.572464,7.1318836,WAL
100563735000,3.165104,-2.58434429320225,11.0944365666667,0.52309990958427,-2.2608123,0.36193767,-0.82619524,56.907692,-82.771675,6.721687,WAL
100568725000,3.170094,-2.33040426842105,10.9155435338346,0.701483104962406,-2.5024095,0.40653083,-0.9462303,56.944527,-82.89313,6.299468,WAL
100573766000,3.175135,-1.96238031491228,10.9508336923559,0.923305771823308,-2.6881125,0.34788775,-1.0824533,56.970985,-82.940025,5.848667,WAL
100578802000,3.180171,-1.51104215674378,11.239503715889,1.17847008149382,-2.8017335,0.26267207,-1.2253957,57.000572,-82.85643,5.4018636,WAL
100583745000,3.185114,-1.00991289980396,11.6988720358753,1.4522351470496,-2.8744264,0.15607607,-1.361924,57.063046,-82.67603,4.929466,WAL
100588708000,3.190077,-0.519901020467551,12.2757486489881,1.73721136650384,-2.919936,0.047036625,-1.4804319,57.172443,-82.34637,4.5002255,WAL
100593720000,3.195089,-0.036609749371947,12.9600125610607,2.03388524200977,-2.997821,-0.013744468,-1.5732834,57.312626,-81.93297,4.0525904,WAL
100598730000,3.200099,0.436464781164739,13.5481600247308,2.10828421595533,-3.050661,-0.17104226,-1.6041322,57.56768,-81.40314,3.7178898,WAL
100603728000,3.205097,0.899457745809733,14.0493381130834,1.98418299876346,-3.1633656,-0.35827246,-1.6282613,57.86563,-80.81235,3.3749049,WAL
100608716000,3.210085,1.40733268225108,14.3866630350256,1.5915100325915,-3.2510247,-0.43982297,-1.6508633,58.22723,-80.126274,3.1500921,WAL
100613679000,3.215048,1.95445723982684,14.5737140322708,0.95553616831464,-3.2797356,-0.3885103,-1.6783522,58.620422,-79.425064,2.9265845,WAL
100618719000,3.220088,2.49256364155456,14.7951337070254,0.196185674361734,-3.2241468,-0.23335053,-1.6924021,59.040604,-78.74417,2.7841482,WAL
100623803000,3.225172,3.01656521405082,15.0522822750374,-0.691705987115097,-3.1300735,0.0106901415,-1.668273,59.432804,-78.07495,2.6394613,WAL
100628778000,3.230147,3.55889883313309,15.4017794302218,-1.5402373318854,-3.0066788,0.3359759,-1.6172657,59.727825,-77.47956,2.5470889,WAL
100633834000,3.235203,4.14065887512939,15.858237633549,-2.38155190016636,-2.903748,0.7696902,-1.5228871,59.929405,-76.91187,2.4513206,WAL
100638704000,3.240073,4.73121809128097,16.3194523623616,-3.11608903120717,-2.7940977,1.3158038,-1.3637567,59.98039,-76.48618,2.4139836,WAL
100643725000,3.245094,5.40547476195045,16.8416215402214,-3.70923191006853,-2.7107146,1.9150625,-1.1985176,59.89486,-76.08383,2.3686156,WAL
100648657000,3.250026,5.8618310058584,17.0435984603316,-3.93077449198689,-2.6254988,2.44621,-1.056186,59.59054,-75.77458,2.354041,WAL
100653726000,3.255095,6.03053996941714,16.797764291828,-3.63191851301758,-2.5549438,2.8793132,-0.960891,59.146492,-75.48287,2.3326416,WAL
100659196000,3.260565,5.98679812221033,16.2981715119822,-3.11517282608087,-2.4996605,3.1780264,-0.93523467,58.57217,-75.2721,2.348704,WAL
100663722000,3.265091,5.72979303450548,15.6556591654451,-2.49764666080046,-2.4162774,3.2724051,-0.9789116,57.94062,-75.08748,2.348947,WAL
100669039000,3.270408,5.38416351311443,14.8607213094035,-1.71435728607927,-2.2736404,3.1801646,-1.0311406,57.273396,-74.85886,2.3434575,WAL
100673761000,3.27513,4.11897576879736,13.2748435268117,0.24931980828638,-2.1468859,2.8961122,-1.1227703,56.647247,-74.657814,2.3177445,WAL
100679311000,3.28068,2.6555893587239,11.4619322163411,2.49505635886825,-2.0549507,2.435825,-1.2272283,56.155922,-74.366936,2.2839046,WAL
100683818000,3.285187,2.02420394125686,11.1919316436339,2.85228748545857,-1.9853121,1.9144517,-1.3603969,55.773952,-74.12028,2.2413347,WAL
100688624000,3.289993,1.35093162788952,10.9040188962564,3.23321777043595,-1.8894062,1.7076738,-1.4236214,55.540474,-73.643074,2.0835648,WAL
100693737000,3.295106,0.421141823245046,10.6596422315244,3.06446278510835,-1.8634444,1.2498302,-1.4886786,55.537277,-73.185,1.9522097,WAL
100698702000,3.300071,-0.525607762557881,10.4350644944434,2.7826397199574,-1.7767016,0.6001751,-1.5512923,55.65322,-72.78567,1.8412373,WAL
100703686000,3.305055,-1.23459737923008,10.3910071418482,2.52730531572665,-1.6084082,0.08246681,-1.7330247,55.8369,-72.33019,1.6076035,WAL
100708688000,3.310057,-1.83023034467323,10.4338930847508,2.2842870789615,-1.4556919,-0.18448131,-1.920255,56.13985,-71.90668,1.3947804,WAL
100713665000,3.315034,-2.13777688657254,10.4324890949234,1.94973892069691,-1.4202617,-0.47250426,-2.0143282,56.479618,-71.525986,1.0279541,WAL
100718715000,3.320084,-2.3024247868429,10.4082761981576,1.56233226904976,-1.4831808,-0.72143185,-2.0482311,56.89838,-71.159966,0.6591755,WAL
100723695000,3.325064,-2.33001024191786,10.3033465727291,1.21003328909569,-1.5793921,-0.872621,-2.0460932,57.28302,-70.81898,0.17063375,WAL
100729110000,3.330479,-2.288045032632,10.1459769009711,0.842838392524783,-1.6071864,-0.98715824,-2.0476203,57.734028,-70.47096,-0.2958236,WAL
100733722000,3.335091,-2.10453032601815,10.0324544230847,0.594755394647178,-1.5848899,-1.0522153,-2.0259347,58.155113,-70.13809,-0.7875491,WAL
100738689000,3.340058,-1.85518196903226,9.91737073548387,0.350202195483871,-1.525636,-1.1530081,-2.0100522,58.62159,-69.80018,-1.2549477,WAL
100743683000,3.345052,-1.63266883880349,9.75116085978655,0.386713398441202,-1.3930782,-1.2272283,-1.9813415,59.05968,-69.50746,-1.7197156,WAL
100748699000,3.350068,-1.42100950258494,9.56301935856262,0.541930254824244,-1.29198,-1.3585643,-1.9724839,59.543667,-69.21638,-2.1592023,WAL
100753691000,3.35506,-1.22191047187155,9.44473915384969,0.640459956999265,-1.2528846,-1.5845845,-1.9819523,60.056904,-68.95232,-2.5526354,WAL
100758670000,3.360039,-1.02914597541345,9.36149987137082,0.71055610675487,-1.251052,-1.9135354,-1.998751,60.63451,-68.701996,-2.9124203,WAL
100763663000,3.365032,-0.773311677581238,9.33883278028421,0.637128382510186,-1.2305881,-2.2922719,-2.0384574,61.31397,-68.41508,-3.209025,WAL
100768693000,3.370062,-0.447797324455928,9.38191568250025,0.407353553830866,-1.2134838,-2.6505444,-2.046704,62.074806,-68.12788,-3.4606643,WAL
100773663000,3.375032,-0.120094697574297,9.23328076345382,0.102648751475904,-1.2406673,-2.8707612,-2.0146337,62.909733,-67.79738,-3.6498952,WAL
100778708000,3.380077,0.219468489333333,8.86461181666667,-0.29512526125,-1.2797627,-2.9275718,-1.969735,63.79425,-67.471085,-3.8099086,WAL
100783685000,3.385054,0.470390756881814,8.46113154413893,-0.495772760689822,-1.3448198,-2.9400945,-1.9526308,64.70428,-67.15717,-3.9166112,WAL
100788688000,3.390057,0.632180111890014,8.01274400434153,-0.491150210723589,-1.3881912,-2.9590313,-1.9300288,65.62256,-66.84497,-3.9972525,WAL
100793658000,3.395027,0.780611745688781,7.61863279715967,-0.47864410185636,-1.4034629,-3.0311134,-1.9052887,66.532234,-66.56357,-4.0440936,WAL
100798985000,3.400354,0.920338123513897,7.27707942313857,-0.452768839698722,-1.4016303,-3.0735686,-1.7773124,67.42213,-66.28599,-4.053279,WAL
100803682000,3.405051,0.984357109807976,7.05189391825702,-0.473396973098966,-1.3460416,-3.1297681,-1.7220291,68.349236,-65.983055,-4.0459933,WAL
100808672000,3.410041,0.979651227779419,6.90601137881832,-0.548691154349581,-1.321607,-3.1838295,-1.6239853,69.26381,-65.68658,-3.9843514,WAL
100813646000,3.415015,0.935218845573833,6.75354925055624,-0.734892689188932,-1.2855659,-3.2360587,-1.5625933,70.196724,-65.3814,-3.8937948,WAL
100818689000,3.420058,0.829598947903395,6.58823110815822,-1.09308185066844,-1.2696834,-3.2388074,-1.4627168,71.11029,-65.08996,-3.763575,WAL
100823670000,3.425039,0.765707114972852,6.37186455832003,-1.40625210405621,-1.2528846,-3.1193833,-1.4046847,71.99346,-64.82055,-3.6471348,WAL
100828765000,3.430134,0.796875334040243,6.02381964609816,-1.62962421594805,-1.17897,-2.9342911,-1.3414601,72.84356,-64.58177,-3.5091808,WAL
100833672000,3.435041,0.878482707055723,5.69388845890437,-1.76203416384601,-1.1099422,-2.7507262,-1.2819008,73.62968,-64.42436,-3.4084477,WAL
100838689000,3.440058,1.03224707024096,5.36374709728916,-1.78464660075301,-1.0076222,-2.5778513,-1.2345587,74.36242,-64.3034,-3.3143022,WAL
100843638000,3.445007,1.23069217399478,5.04789695785901,-1.77731532349869,-0.88208944,-2.4126122,-1.1756102,75.03853,-64.240135,-3.2274597,WAL
100848700000,3.450069,1.54965833645953,4.74918276040731,-1.69630799211488,-0.7339546,-2.2626448,-1.1166617,75.666824,-64.217445,-3.1468458,WAL
100853617000,3.454986,1.85021586606737,4.51619381446821,-1.60699683959122,-0.54611355,-2.149024,-1.0577132,76.26841,-64.231186,-3.0437438,WAL
100858673000,3.460042,2.1434503744701,4.37415853634557,-1.49703400658592,-0.3277292,-2.0366247,-0.9776898,76.8203,-64.30116,-2.9379783,WAL
100863694000,3.465063,2.425707309425,4.19473049204088,-1.37843347037266,-0.124005646,-1.9495764,-0.9049969,77.36239,-64.38264,-2.7774096,WAL
100868690000,3.470059,2.68254405190461,3.9131977690926,-1.23519752632394,0.07941248,-1.8832976,-0.850019,77.87107,-64.52966,-2.6124454,WAL
100873697000,3.475066,2.90765479425067,3.67007534287083,-1.10430786079916,0.28924468,-1.781283,-0.79473567,78.35446,-64.70005,-2.3905375,WAL
100878799000,3.480168,3.07152315343043,3.50152508225374,-0.99662292997317,0.4792238,-1.6982054,-0.7162395,78.81281,-64.92445,-2.1557834,WAL
100883725000,3.485094,3.19970162040896,3.33102983125609,-0.881595885495618,0.6951646,-1.6233743,-0.623388,79.256905,-65.16376,-1.8647932,WAL
100888680000,3.490049,3.24128651821811,3.13696655666991,-0.733738198197663,0.8854492,-1.6016886,-0.5815437,79.68519,-65.448135,-1.5729716,WAL
100893666000,3.495035,3.2627500271124,2.95156306227581,-0.586985929577521,0.9776898,-1.5479325,-0.48808134,80.076416,-65.72257,-1.2213628,WAL
100898698000,3.500067,3.19552544528697,2.80751017921483,-0.447734805942607,1.1759156,-1.4865406,-0.3915646,80.448524,-66.07715,-0.8656057,WAL
100903686000,3.505055,3.13538007321597,2.67696633305404,-0.322732620219356,1.3600914,-1.4019357,-0.29229903,80.79162,-66.39172,-0.48662955,WAL
100908669000,3.510038,3.10393130094144,2.60059081026172,-0.25534244283939,1.5491543,-1.2977833,-0.204029,81.09609,-66.757645,-0.09962519,WAL
100913745000,3.515114,3.07168623393339,2.52704261535554,-0.182278263082628,1.7400496,-1.1866057,-0.08857546,81.35386,-67.10011,0.31316397,WAL
100918689000,3.520058,3.03759243663366,2.50999569445545,-0.0544266037544554,1.917506,-1.026559,0.013439035,81.553635,-67.48236,0.7219888,WAL
100923989000,3.525358,3.00104366525653,2.49172128491449,0.0826312025641764,2.087021,-0.84299403,0.13041973,81.69163,-67.868965,1.1404778,WAL
100928774000,3.530143,3.04165947796209,2.5429124551271,0.175182121138302,2.259896,-0.6188065,0.2593123,81.75413,-68.29258,1.5608418,WAL
100934151000,3.53552,3.09075188219536,2.64036723148733,0.294357899900785,2.399784,-0.38698313,0.4083634,81.741264,-68.73758,1.9913447,WAL
100938690000,3.540059,3.05938594701903,3.075568164517,0.615857722197168,2.5308146,-0.13530666,0.57848936,81.616905,-69.11767,2.4491894,WAL
100943676000,3.545045,3.02493109952196,3.55362761639758,0.96901879599531,2.654515,0.10476339,0.74067414,81.38814,-69.45559,2.9265828,WAL
100948774000,3.550143,2.83021840560319,4.18258966857428,1.39283440283151,2.7910433,0.34605515,0.88086766,81.0648,-69.810356,3.4089375,WAL
100953626000,3.554995,2.59858000723829,4.82191168289133,1.81441631397807,2.908024,0.54641896,1.0177015,80.66071,-70.16679,3.9058962,WAL
100958670000,3.560039,2.29293549236058,5.76911532754011,2.39062776394194,2.9984322,0.6612616,1.1340714,80.09116,-70.282875,4.43808,WAL
100963721000,3.56509,1.9649710525974,6.81305877613636,3.01422214025974,3.073874,0.7367035,1.2479976,79.456825,-70.41286,4.971229,WAL
100968692000,3.570061,1.3354613868477,8.14070439079103,4.14658771216057,3.1227431,0.73548174,1.3451253,78.82136,-70.54031,5.460355,WAL
100973700000,3.575069,0.547871056123216,9.62837494740796,5.54674840045079,3.1202996,0.64873886,1.4156802,78.17496,-70.66123,5.956887,WAL
100978802000,3.580171,-0.395380121423167,11.2243049418123,7.14318008315619,3.0454686,0.41386122,1.4672983,77.59647,-70.75662,6.404397,WAL
100984298000,3.585667,-1.44787307185372,12.9642369583859,8.90681707742749,2.8915308,0.06994407,1.4953982,77.0642,-70.822556,6.86635,WAL
100988702000,3.590071,-2.68441420795746,14.2813093780268,10.1799883519134,2.65818,-0.11942416,1.4920384,76.62213,-70.775055,7.1790924,WAL
100993683000,3.595052,-4.3105699950622,15.7262770923939,11.5388922756623,2.5014932,-0.5479461,1.4242324,76.34054,-70.72382,7.52283,WAL
100998692000,3.600061,-6.16226533488225,16.8727020990601,12.6013699837364,2.10046,-1.01312,1.2327261,76.256294,-70.55004,7.6264954,WAL
101003690000,3.605059,-8.24994033308692,17.6764321206041,13.3242215025874,1.6749926,-1.4480561,0.89736104,76.29155,-70.37944,7.7156234,WAL
101008687000,3.610056,-9.41527841645751,18.2129951502331,13.1998991303335,1.2889256,-1.9031507,0.44532076,76.654106,-70.32122,7.483071,WAL
101013731000,3.6151,-9.91755745876658,18.5593953316601,12.4551400514521,0.8570439,-2.408947,-0.0009162979,77.160675,-70.18588,7.242359,WAL
101018758000,3.620127,-9.80396515697229,18.7496876490306,11.5621597331581,0.33567044,-2.6597073,-0.364992,77.83005,-70.1206,6.6845007,WAL
101023680000,3.625049,-8.62670082747289,18.6670714827473,10.4262032172198,-0.2171626,-2.5103507,-0.6407976,78.542046,-69.94688,6.0989604,WAL
101028801000,3.63017,-7.17111666268354,17.5975888044822,9.48013227028594,-0.72418076,-2.2375994,-0.8258898,79.33525,-69.801735,5.4418774,WAL
101033716000,3.635085,-5.57968519480294,15.7424345888717,8.77080832032457,-1.0885619,-1.9679024,-0.9297369,80.08743,-69.52898,4.7726617,WAL
101038668000,3.640037,-4.01184718643851,13.9974216891212,8.03240578256238,-1.2803736,-1.7061466,-0.95325524,80.75002,-69.20533,4.2302403,WAL
101043675000,3.645044,-2.47007282265509,12.3847069404281,7.25678928447579,-1.3017539,-1.42973,-0.93859446,81.328545,-68.81583,3.6770217,WAL
101048657000,3.650026,-1.19822946785551,11.1870486595822,6.36503166420688,-1.212873,-1.0760391,-0.8570439,81.745125,-68.32201,3.3325675,WAL
101054359000,3.655728,-0.157195724792484,10.4598192307762,5.15464305995622,-1.069625,-0.56321776,-0.6908886,82.034615,-67.83525,2.9826748,WAL
101058688000,3.660057,0.554670728070175,9.94587776023392,4.25568643567251,-0.90041536,0.10629055,-0.44226643,82.08803,-67.32575,2.8485909,WAL
101063752000,3.665121,1.13655588233515,9.46667825146199,3.26794858933253,-0.6759224,0.84482664,-0.15577064,81.975845,-66.877686,2.7060833,WAL
101068665000,3.670034,1.71512403275834,9.1275197048105,2.37063573540654,-0.47525316,1.5351044,0.13530666,81.61795,-66.51132,2.7313716,WAL
101073691000,3.67506,2.35050498570619,9.17039822521866,1.64170178393262,-0.3005457,2.1905627,0.43157628,81.05895,-66.20704,2.7484355,WAL
101078755000,3.680124,2.99068985353903,9.21360093658892,0.90725659287334,-0.15485434,2.726597,0.70554936,80.33577,-66.04328,2.8427348,WAL
101083719000,3.685088,3.71989042465271,9.81653275468089,0.188987176041876,-0.064446285,2.939789,0.95233893,79.50855,-65.91442,2.9646535,WAL
101088624000,3.689993,4.46701430692571,10.5589282544796,-0.520307720777129,-0.027183503,3.1627548,1.0647382,78.53614,-65.81701,3.0558922,WAL
101093689000,3.695058,5.06496216657661,11.7608205783511,-1.01055926623671,-0.029932396,3.128852,1.2455542,77.54331,-65.829025,3.3270972,WAL
101098683000,3.700052,5.60683558381558,13.0654845804427,-1.42738486466794,-0.080634214,2.9159653,1.3677273,76.543495,-65.8378,3.602468,WAL
101103688000,3.705057,5.8631329414385,14.463001181038,-1.21683560006089,-0.19761491,2.5320365,1.3640621,75.58863,-65.93773,3.961931,WAL
101108683000,3.710052,5.82892249875358,15.948716675521,-0.371345854205762,-0.43218717,1.8402315,1.1404854,74.79024,-65.98819,4.3488283,WAL
101113667000,3.715036,5.37212549884317,16.9005419769641,0.630359243335278,-0.7867944,0.8005389,0.70616025,74.22206,-66.10479,4.8010187,WAL
101118651000,3.72002,4.55108457177346,17.3950880379237,1.76829307098079,-1.1456778,-0.2406809,0.18600847,73.88084,-66.16098,5.2364845,WAL
101124133000,3.725502,3.53346558555269,16.7024113671363,1.79897236862473,-1.2800682,-0.8723156,-0.16249016,73.7574,-66.16674,5.659304,WAL
101128667000,3.730036,2.62436826290931,15.4012388463981,1.10530105118079,-1.1435398,-1.1539245,-0.25473082,73.85172,-66.15724,6.0690613,WAL
101133642000,3.735011,1.9769060607849,13.5741908217586,0.220880248216592,-0.6627888,-1.5344934,-0.1966986,74.18012,-66.14072,6.414435,WAL
101138709000,3.740078,1.63459867103825,11.3516037540984,-0.79157803989071,0.054367006,-1.8915442,-0.01282817,74.57339,-66.219734,6.7811227,WAL
101143698000,3.745067,1.39040923807924,9.34836862651912,-1.93949027314495,0.75716746,-1.9098701,0.17745635,74.96581,-66.461006,7.0471616,WAL
101148687000,3.750056,1.22990382610414,7.51199763136054,-3.2235337168264,1.3377949,-1.5271631,0.35063666,75.32448,-66.8371,7.341153,WAL
101153657000,3.755026,1.09381873061616,6.27680488188923,-3.86224656726924,1.7241671,-0.9294315,0.5186246,75.60758,-67.3401,7.633994,WAL
101158667000,3.760036,0.981087484631983,5.64182885762647,-3.84844275005514,1.9052887,-0.29077184,0.7021896,75.75474,-67.90799,7.925718,WAL
101163663000,3.765032,0.868671256101654,5.00862721746344,-3.83467750638216,1.890628,0.25473082,0.8720101,75.75869,-68.57463,8.194981,WAL
101168692000,3.770061,0.755512486430113,4.37124310049389,-3.82082133936226,1.7577647,0.7110472,1.0268645,75.60061,-69.22386,8.45592,WAL
101173597000,3.774966,0.657001602633617,3.98499020604183,-3.58860983214562,1.5482379,1.0253373,1.1523973,75.33231,-69.84656,8.709039,WAL
101178637000,3.780006,0.582226841982959,4.11317563749032,-2.86222637126259,1.2928963,1.1365148,1.2000448,74.99379,-70.40026,8.963746,WAL
101183602000,3.784971,0.678690534584502,4.53431477952984,-2.50446321448196,1.03786,1.2257011,1.1969905,74.571266,-70.80922,9.21443,WAL
101188600000,3.789969,0.942625742478475,5.24740274934701,-2.4952023367805,0.93492925,1.2030991,1.1606439,74.15217,-71.17737,9.472258,WAL
101193604000,3.794973,1.23763547215013,6.0546105569974,-2.68169704418048,0.79626286,1.1664472,1.1533136,73.70559,-71.3865,9.725131,WAL
101198607000,3.799976,1.57242216901577,6.98244801968457,-3.12170250424236,0.7339546,1.2269229,1.2635747,73.23432,-71.56622,9.996089,WAL
101203552000,3.804921,1.84566555551181,7.86223776574803,-3.49832457440945,0.73731434,1.4052955,1.4257594,72.726326,-71.703964,10.302057,WAL
101208595000,3.809964,2.04531375610236,8.70836560814961,-3.80255029988189,0.8029824,1.6206255,1.5882497,72.185,-71.80957,10.631615,WAL
101213552000,3.814921,2.20557911689059,9.53010827351248,-3.86925050403071,0.8891144,1.8185458,1.7217237,71.59133,-71.93612,11.015116,WAL
101218600000,3.819969,2.3122879265643,10.3513020892514,-3.57232171815739,0.92271197,1.9300288,1.8249599,70.95642,-72.01989,11.425278,WAL
101223706000,3.825075,2.37906624732443,11.1108776467902,-3.18898673378716,0.9059132,1.8408424,1.88849,70.3254,-72.115654,11.869097,WAL
101228724000,3.830093,2.36250222064627,11.7154651394227,-2.64651451415769,0.82650065,1.5778649,1.8988746,69.715576,-72.166435,12.327871,WAL
101233813000,3.835182,2.33773558475375,12.3267943094218,-2.07852194337259,0.72601336,1.1429288,1.8481728,69.17222,-72.16224,12.790174,WAL
101238691000,3.84006,2.11266006877944,12.866975359743,-1.08318816149893,0.6407976,0.5549711,1.6826283,68.76013,-72.142395,13.241101,WAL
101243655000,3.845024,1.8504466865353,13.3824160821018,-0.113993881280788,0.64934975,-0.19547687,1.4095715,68.50018,-72.08597,13.6492605,WAL
101248699000,3.850068,1.37453125816913,13.6897781026273,0.594921760899015,0.89919364,-1.0806206,1.1108584,68.462135,-72.085014,14.033817,WAL
101253694000,3.855063,0.876833805134921,13.8283392708974,1.11742065327415,1.5311338,-1.8616118,0.88300574,68.57967,-72.122055,14.342259,WAL
101258681000,3.86005,0.272335869130702,13.2910078832733,0.907525551217368,2.3854287,-2.2748623,0.7128797,68.8573,-72.276184,14.59986,WAL
101263687000,3.865056,-0.334465147038762,12.7516293137031,0.696830768603322,3.1380148,-2.1707096,0.54825157,69.20322,-72.542336,14.732444,WAL
101268688000,3.870057,-0.589549124858833,11.8235218059368,0.74877889937507,3.642284,-1.4104879,0.3811799,69.476715,-72.908,14.798456,WAL
101273750000,3.875119,-0.776974524080114,10.8994397072008,0.910710923933238,3.67466,-0.16157386,0.27275133,69.56897,-73.296196,14.806853,WAL
101278738000,3.880107,-0.717747211885551,10.293498799237,1.59865904276204,3.1746666,0.42332962,0.26389378,69.69321,-73.74697,14.724974,WAL
101283908000,3.885277,-0.67047480823879,9.68733922870521,2.31172698400864,2.43216,1.3316863,0.24129178,69.366684,-74.16026,14.561992,WAL
101288723000,3.890092,-0.795035359494868,9.3842417854313,2.97605001075095,1.7437148,1.2699889,0.24129178,69.14942,-74.49237,14.422485,WAL
101293696000,3.895065,-0.923683255942734,9.07119846551414,3.66217221469476,1.3979651,0.838718,0.24831672,68.72213,-74.68843,14.3043,WAL
101298732000,3.900101,-0.595377511376214,8.53222578956311,2.82539038446602,0.7556403,0.37384954,0.13408493,68.33005,-74.812096,14.157956,WAL
101303627000,3.904996,-0.173433369742921,7.95857149213188,1.66859970728155,0.44959682,0.28863382,-0.08552113,67.95935,-74.957344,13.9883585,WAL
101309336000,3.910705,0.25135224339299,7.92961840861563,0.346692755112591,0.54367006,0.39492437,-0.14294247,67.65467,-75.02968,13.832095,WAL
101313685000,3.915054,0.565334401640102,7.99893901607597,-0.656419150755825,0.7858781,0.48533243,-0.079107046,67.39078,-75.1063,13.653928,WAL
101318715000,3.920084,0.693480802249357,7.97931073444674,-1.42048751565467,1.0348058,0.4886922,0.01740966,67.12812,-75.1733,13.56251,WAL
101323702000,3.925071,0.758545025460417,7.93352489595842,-2.07353931498764,1.1863003,0.46273044,0.10720685,66.84967,-75.240105,13.487803,WAL
101328789000,3.930158,0.824913925294919,7.88682095363035,-2.73968619752359,1.2980887,0.47128254,0.17134771,66.61084,-75.35923,13.474265,WAL
101333626000,3.934995,0.888021133570816,7.84241227090166,-3.37309537205207,1.3790283,0.5308419,0.19486602,66.36147,-75.47083,13.475654,WAL
101338717000,3.940086,0.907998081618136,7.88049731346492,-3.47219972296267,1.4489723,0.5705481,0.19517145,66.12442,-75.57003,13.498694,WAL
101343793000,3.945162,0.917498142478014,7.93749765878444,-3.44369952550322,1.5167783,0.5919284,0.17867808,65.87316,-75.66478,13.523769,WAL
101348731000,3.9501,0.964071643268266,7.98657089487367,-3.23865106003831,1.5922203,0.6133087,0.14202617,65.67867,-75.83477,13.545429,WAL
101353722000,3.955091,1.02075067848217,8.0345298841558,-2.98577557808994,1.7003434,0.6588182,0.09468412,65.469246,-75.99166,13.560048,WAL
101358719000,3.960088,1.12186986775223,8.16017136076576,-2.52694842984927,1.8506162,0.74036866,0.049480084,65.24036,-76.13277,13.567169,WAL
101363707000,3.965076,1.25326242578942,8.33886567873254,-1.92779787128397,2.0335703,0.89827734,0.055588737,64.972855,-76.24645,13.57654,WAL
101368726000,3.970095,1.35691159173603,8.6815461646849,-1.00313352594828,2.1792617,1.0726794,0.10354166,64.65324,-76.30809,13.6013975,WAL
101373758000,3.975127,1.45241398555291,9.07310576991677,0.018741753821839,2.228131,1.2370021,0.1881465,64.286896,-76.32629,13.641392,WAL
101379458000,3.980827,1.4408849720098,9.38563487117647,1.06896791405588,2.1395555,1.3585643,0.25411993,63.82806,-76.267296,13.72515,WAL
101383758000,3.985127,1.40858670240196,9.59557351823529,1.84008869729118,1.9300288,1.4187346,0.2761111,63.33657,-76.17674,13.823256,WAL
101388714000,3.990083,1.26984576758757,9.71704769659596,2.45933542599901,1.7873917,1.4688255,0.32436943,62.70299,-103.99839,13.99767,WAL
101393722000,3.995091,1.09002294086828,9.79276262821904,2.9798752473705,1.4666874,1.3836098,0.3640757,62.09543,-104.17402,14.172758,WAL
101398733000,4.000102,0.864266386141546,9.79006888865857,3.07579701193367,1.1615603,1.2000448,0.38362336,61.46568,-104.366554,14.366533,WAL
101403726000,4.005095,0.618833206524529,9.7523101578324,2.98139959345573,0.9111055,0.9505063,0.3894266,60.89279,-75.440125,14.558667,WAL
101408716000,4.010085,0.502115473850828,9.68988828971871,2.41200841487798,0.743423,0.73548174,0.3707952,60.3933,-75.2941,14.697561,WAL
101413712000,4.015081,0.450532300235225,9.61485819229638,1.60074600676272,0.68569624,0.64996064,0.38148534,59.941372,-75.138535,14.839094,WAL
101418723000,4.020092,0.444771138913587,9.53941348133741,0.778957139552654,0.7058548,0.68477994,0.4202753,59.56506,-75.03866,14.921494,WAL
101423740000,4.025109,0.467021234203946,9.46376305047698,-0.0487461682689636,0.7779369,0.79717916,0.48808134,59.198536,-74.9275,15.011363,WAL
101428812000,4.030181,0.4763426330415,9.33366041900531,-0.773156186910825,0.8622363,0.9450085,0.5357288,58.87083,-74.853775,15.078214,WAL
101433750000,4.035119,0.471218525712428,9.14919302600498,-1.35730299383465,0.9492846,1.0855075,0.55741453,58.5146,-74.772064,15.154416,WAL
101438717000,4.040086,0.500426278111687,9.02498622203032,-1.6736613625024,1.0167851,1.2064588,0.58368176,58.16072,-74.70406,15.233823,WAL
101443725000,4.045094,0.551046807668394,8.93755044386874,-1.82552293195164,1.0574077,1.2684617,0.6075055,57.783215,-74.63126,15.31774,WAL
101449178000,4.050547,0.648017194876726,8.98249672603581,-1.75856620960614,1.0748174,1.25319,0.63346726,57.415733,-74.56338,15.40316,WAL
101453727000,4.055096,0.754979593305371,9.10728638322251,-1.55801171255243,1.078788,1.146594,0.6722572,57.057087,-74.48142,15.499219,WAL
101458710000,4.060079,0.905028527954254,9.26014440530415,-1.29128077864537,1.0855075,0.96852684,0.72234815,56.72808,-74.37869,15.613437,WAL
101463730000,4.065099,1.08040031507838,9.42603701892931,-0.987934992191659,1.0732902,0.7528914,0.7761043,56.44205,-74.25912,15.739416,WAL
101468724000,4.070093,1.19267155369088,9.55491870750049,-0.737671875103899,1.0803152,0.52015173,0.82863873,56.197395,-105.89376,15.893708,WAL
101473783000,4.075152,1.2549946692262,9.65559410904413,-0.526731949267762,1.0800097,0.30818152,0.88331115,56.010513,-106.064285,16.061499,WAL
101478810000,4.080179,1.22619624776653,9.8699972662299,-0.316764716131626,1.071763,0.21227567,0.9324858,55.83375,-106.273285,16.265593,WAL
101483747000,4.085116,1.12294286726226,10.1750645623387,-0.110257811531566,1.0797043,0.059253927,0.95478237,55.736347,-106.4882,16.472351,WAL
101488718000,4.090087,1.0419940691725,10.413268422284,0.0751846831244606,1.0934488,-0.042455133,0.98746365,55.636383,-106.71902,16.694721,WAL
101493712000,4.095081,0.982377062872759,10.587533355547,0.240277850706971,1.1362094,-0.08368854,1.0134255,55.562866,-106.95052,16.915236,WAL
101498724000,4.100093,0.912691174913136,10.7189628539063,0.462257277347353,1.1856894,-0.06505715,1.0372492,55.505177,-107.15456,17.10842,WAL
101503705000,4.105074,0.83030419004267,10.7916569635782,0.757881226449253,1.2391402,0.018936822,1.0598512,55.438904,-107.36269,17.303825,WAL
101508665000,4.110034,0.735672807730932,10.8594172313343,1.06393427772691,1.2690725,0.19333886,1.0800097,55.342953,-107.55265,17.48225,WAL
101513698000,4.115067,0.624121021978265,10.9224684958744,1.38888945680217,1.2345587,0.4550946,1.0910053,55.194313,-107.742516,17.661776,WAL
101518674000,4.120043,0.489037757877634,11.0236451580169,1.60620501731501,1.1129965,0.74220127,1.1090258,54.98881,-107.92051,17.836134,WAL
101523724000,4.125093,0.322904033757311,11.1718181874478,1.70498720884783,0.8744536,0.98349303,1.1294898,54.718597,-108.09454,18.012545,WAL
101528744000,4.130113,0.108534607384425,11.3209356056749,1.70496785724388,0.5720753,1.0965031,1.1319333,54.407562,-108.24319,18.172852,WAL
101533764000,4.135133,-0.210184358389463,11.4739211373641,1.49673818624591,0.23762658,1.1157454,1.1151345,54.0545,-108.383766,18.33067,WAL
101538814000,4.140183,-0.548264475229605,11.6217537057116,1.27265216849176,-0.04917465,1.0183123,1.0574077,53.72469,-108.47134,18.437048,WAL
101543732000,4.145101,-1.09507264424381,11.6901045764486,0.872310420520369,-0.25167647,0.8579602,0.9972375,53.41118,-108.55169,18.534515,WAL
101548682000,4.150051,-1.6577637394336,11.7082108162765,0.44990231915755,-0.36713,0.625526,0.9239337,53.19901,-108.55411,18.54749,WAL
101553732000,4.155101,-2.32528116556589,11.3423122169512,-0.128612783490441,-0.41630468,0.38820487,0.8054258,53.03751,-108.53085,18.529978,WAL
101558684000,4.160053,-2.93874390101126,10.935753813776,-0.686758107437512,-0.39187005,0.20311269,0.659429,52.98387,-71.595924,18.404007,WAL
101563772000,4.165141,-3.35247072322076,10.2663531955734,-1.21205171229155,-0.28893927,0.15882497,0.47433686,52.957165,-71.76199,18.236166,WAL
101568730000,4.170099,-3.70141271590361,9.65190969216867,-1.66477209783133,-0.12797627,0.23915374,0.24678956,52.99836,-72.05557,17.941114,WAL
101573781000,4.17515,-3.3760158347992,9.5013531253514,-1.38308513048193,0.048563786,0.31673363,0.032986723,53.0492,-72.394035,17.601631,WAL
101578735000,4.180104,-3.03908780833112,9.38454206654245,-1.04786121203088,0.24220806,0.4877759,-0.04153884,53.078594,-72.78658,17.210527,WAL
101583742000,4.185111,-2.50303632706947,9.60576941589034,-0.060845975192973,0.31642818,0.5314528,-0.1337795,53.117477,-73.241455,16.757116,WAL
101588622000,4.189991,-1.98058151809068,9.82138544641114,0.901134123822198,0.36010507,0.43279803,-0.19639318,53.11605,-73.65137,16.348179,WAL
101593725000,4.195094,-1.42109279151533,10.4144091450829,1.85431196586286,0.26542094,0.23273966,-0.23976462,53.12823,-74.07739,15.922556,WAL
101598645000,4.200014,-0.878701679874963,11.0690191242433,2.76141432370745,0.06047566,0.004886922,-0.26511553,53.174435,-105.48857,15.488535,WAL
101603725000,4.205094,-0.61690771695494,11.8646475195999,3.11067520103051,-0.22082779,-0.2125811,-0.27885997,53.212757,-74.856255,15.143368,WAL
101608688000,4.210057,-0.434433670575874,12.6713746956961,3.30755517472217,-0.5671884,-0.3894266,-0.28924468,53.307865,-75.19795,14.79883,WAL
101613670000,4.215039,-0.584442594913809,13.3093965899907,3.07262495188137,-0.92271197,-0.5693264,-0.30085114,53.426697,-75.43599,14.545923,WAL
101618737000,4.220106,-0.80930671923633,13.9210271629286,2.73982603548656,-1.2889256,-0.7254025,-0.3231477,53.59833,-75.65235,14.295581,WAL
101623787000,4.225156,-1.11741128736701,14.2454151214895,2.19874701292054,-1.5601498,-0.840856,-0.3817908,53.81425,-75.83687,14.048746,WAL
101628782000,4.230151,-1.46129235681012,14.4334036437266,1.56600580684367,-1.7272215,-0.8698721,-0.4615087,54.06086,-75.98959,13.799508,WAL
101634491000,4.23586,-1.80327689318419,14.1862503339954,0.967161420572862,-1.8148806,-0.79290307,-0.54702985,54.34018,-76.18707,13.478067,WAL
101638729000,4.240098,-2.03663027296676,13.8171276667364,0.572582133744512,-1.8875736,-0.61819565,-0.6469063,54.607265,-76.36002,13.141519,WAL
