timestamp,rel_time,acc_x,acc_y,acc_z,gyro_x,gyro_y,gyro_z,azimuth,pitch,roll,label
56165286424000,0,1.75916419585815,6.63910584807614,-3.20362077328484,0.2828306,-0.14508049,-0.07696902,58.88744,-21.609797,35.972263,WAL
56165291394000,0.00497,1.71890865865554,6.54912287823007,-3.18159862322166,0.1469131,-0.26450464,-0.20555615,59.80826,-22.450941,36.26391,WAL
56165296416000,0.009992,1.67823193675784,6.4581984366673,-3.15934606032079,-0.09682214,-0.44104472,-0.4175264,60.80968,-23.275286,36.561577,WAL
56165301382000,0.014958,1.63800879837793,6.36828788772251,-3.13734163432205,-0.50885075,-0.48747048,-0.6872234,61.875412,-24.06374,36.815533,WAL
56165306399000,0.019975,1.59737257500861,6.27745397228635,-3.11511122650173,-0.9456194,-0.3417791,-0.9645562,63.010593,-24.832642,37.01836,WAL
56165311431000,0.025007,1.55661485605417,6.18634847847036,-3.09281435343977,-1.205848,-0.070249505,-1.2076806,64.20223,-25.593636,37.15195,WAL
56165316386000,0.029962,1.51648081443667,6.09663708700411,-3.07085866861822,-1.2415836,0.20677789,-1.3857478,65.42223,-26.347597,37.204063,WAL
56165321377000,0.034953,1.47605518341489,6.00627390742629,-3.04874346721674,-1.1554517,0.35246924,-1.5030339,66.65699,-27.103706,37.184074,WAL
56165326424000,0.04,1.43517596887533,5.9148968352305,-3.02638012891315,-1.0338894,0.3368922,-1.5635096,67.88829,-27.87776,37.109108,WAL
56165331381000,0.044957,1.39502572784649,5.8251492333136,-3.00441558205938,-0.9370673,0.25870144,-1.5558738,69.09884,-28.66739,36.99972,WAL
56165336370000,0.049946,1.35461629623606,5.73482226418643,-2.98230924269012,-0.8405506,0.17012598,-1.4941764,70.298836,-29.476261,36.88835,WAL
56165342167000,0.055743,1.30766230244057,5.62986627299977,-2.95662264230455,-0.7467828,0.07880162,-1.3912456,71.486,-30.28773,36.79651,WAL
56165346419000,0.059995,1.2732223539123,5.55288285493428,-2.93778196180784,-0.7101309,0.021991149,-1.2525792,72.64327,-31.080868,36.72635,WAL
56165351378000,0.064954,1.2330559134721,5.46309904256674,-2.91580855292186,-0.7312057,-0.020463986,-1.1294898,73.78142,-31.857267,36.68043,WAL
56165356399000,0.069975,1.19238729128009,5.37219270622929,-2.8935604210371,-0.7770206,-0.046731193,-1.0256428,74.88601,-32.60581,36.65639,WAL
56165361517000,0.075093,1.15093299763764,5.27953016303569,-2.87088248058975,-0.8686504,-0.046731193,-0.9618073,75.96298,-33.318283,36.64223,WAL
56165366447000,0.080023,1.111001448662,5.19027140220247,-2.84903757117093,-1.0134255,0.01160644,-0.9401216,77.00716,-33.99323,36.62402,WAL
56165371374000,0.08495,1.0710941988034,5.1010669570452,-2.82720595480045,-1.1899655,0.073303826,-0.9272934,78.027756,-34.62779,36.607094,WAL
56165376397000,0.089973,1.03040937720003,5.01012441025711,-2.80494896088347,-1.3283265,0.22113322,-0.91782504,78.997856,-35.233067,36.557064,WAL
56165381366000,0.094942,0.990161939703088,4.92015954563636,-2.7829312418364,-1.3842206,0.3747658,-0.8549059,79.924225,-35.801838,36.501266,WAL
56165386371000,0.099947,0.949622912801863,4.82954289290405,-2.76075400620939,-1.5250251,0.5354234,-0.7458665,80.78655,-36.311035,36.42268,WAL
56165391661000,0.105237,0.911048458031169,4.74987221922574,-2.73632004136208,-1.6847663,0.7247916,-0.5897904,81.564255,-36.77802,36.329647,WAL
56165396412000,0.109988,0.926992941800824,4.86900028636116,-2.70260884782657,-1.8603901,0.93126404,-0.41050145,82.25374,-37.18248,36.230095,WAL
56165401372000,0.114948,0.943638835191161,4.9933688851807,-2.66741467398187,-1.998751,1.0629056,-0.25320363,82.61918,-37.341396,36.01901,WAL
56165406406000,0.119982,0.960533074571596,5.11959298325682,-2.63169542576933,-2.0436497,1.119716,-0.11362094,82.911606,-37.45262,35.82081,WAL
56165412213000,0.125789,0.980021522740485,5.26519952626994,-2.59049127909268,-2.0576997,1.0503827,0.028099801,83.16591,-37.512054,35.658978,WAL
56165416374000,0.12995,0.993985950643144,5.36953374798126,-2.56096648930079,-2.0305161,0.8854492,0.18478674,83.39541,-37.54123,35.54071,WAL
56165421374000,0.13495,1.01076608510921,5.49490531937192,-2.52548849147347,-2.0244074,0.7473936,0.30818152,83.61224,-37.54444,35.456165,WAL
56165426395000,0.139971,1.02761669614003,5.62080345136243,-2.48986148605528,-2.0384574,0.64904433,0.39003745,83.83736,-37.529446,35.421494,WAL
56165431377000,0.144953,1.04433642212202,5.74572368509609,-2.45451120902014,-2.0570886,0.5384777,0.43982297,84.08326,-37.50088,35.43556,WAL
56165436379000,0.149955,1.06112326864187,5.87114540511532,-2.41901901999369,-2.0451767,0.45478916,0.49480084,84.330444,-37.462917,35.482,WAL
56165441409000,0.154985,1.07800408391473,5.99726920593433,-2.38332815417941,-2.053729,0.4279111,0.54092115,84.58513,-37.414722,35.547,WAL
56165446394000,0.15997,1.0947338779774,6.12226466261082,-2.34795659034558,-2.087021,0.48380527,0.54641896,84.839775,-37.367226,35.614407,WAL
56165451371000,0.164947,1.11143682382492,6.24705952477309,-2.31264179130827,-2.1728477,0.6252206,0.53969944,85.07425,-37.307014,35.676834,WAL
56165456406000,0.169982,1.12833441923225,6.3733086971635,-2.27691544749616,-2.3011293,0.73914695,0.5497787,85.299034,-37.233555,35.737667,WAL
56165461524000,0.1751,1.14551056487172,6.50163903763898,-2.24060016892012,-2.4153612,0.7663304,0.605062,85.50303,-37.143818,35.79589,WAL
56165466409000,0.179985,1.16190475624506,6.62412706288767,-2.20593816504283,-2.495079,0.8689558,0.591623,85.67309,-37.05363,35.805412,WAL
56165471375000,0.184951,1.17857078579676,6.74864610759288,-2.17070141760074,-2.5809057,0.94897914,0.49877146,85.85011,-36.95082,35.808666,WAL
56165476401000,0.189977,1.19543817696205,6.87466961115478,-2.13503893418472,-2.6462681,1.1301007,0.4269948,85.97401,-36.83998,35.774807,WAL
56165481592000,0.195168,1.21285931256472,7.00483037657257,-2.0982056768404,-2.7495046,1.0800097,0.3032946,86.173584,-36.7404,35.739803,WAL
56165486370000,0.199946,1.22889440906049,7.12463545019349,-2.06430290211661,-2.6771169,0.60994893,0.32711834,86.41851,-36.650894,35.768898,WAL
56165491403000,0.204979,1.24578529241403,7.25083447395533,-2.02859074950364,-2.3261747,0.01282817,0.3848451,86.7311,-36.618786,35.81544,WAL
56165496429000,0.210005,1.26265268357932,7.37685797751723,-1.99292826608762,-1.7760907,-0.50885075,0.39553526,87.15349,-36.650444,35.933517,WAL
56165501372000,0.214948,1.27924152451247,7.50080031299405,-1.95785471743553,-1.2391402,-0.74128497,0.344528,87.66077,-36.755623,36.10717,WAL
56165506510000,0.220086,1.2964847906898,7.6296321397551,-1.92139752686818,-0.82558435,-0.67073005,0.21960606,88.246216,-36.96377,36.303,WAL
56165511444000,0.22502,1.31304342738092,7.75334880640341,-1.88638783861219,-0.50243664,-0.3915646,0.058948494,88.86509,-37.28188,36.47624,WAL
56165516373000,0.229949,1.32958528393756,7.87694010148033,-1.85141362835402,-0.21746802,0.005497787,-0.07727446,89.46259,-37.696465,36.583588,WAL
56165521374000,0.23495,1.34636877443052,8.00233674718527,-1.81592853492714,0.06872234,0.3481932,-0.1459968,90.02448,-38.193443,36.62149,WAL
56165526397000,0.239973,1.36322609751513,8.12828502780434,-1.78028733830981,0.25473082,0.56169057,-0.17623462,90.53723,-38.74543,36.58325,WAL
56165531385000,0.244961,1.37996595965848,8.25335570742367,-1.74489448767728,0.44257188,0.67164636,-0.16646078,90.99078,-39.35463,36.491604,WAL
56165536374000,0.24995,1.39670917782872,8.37845146135728,-1.70949454144519,0.60903263,0.7315111,-0.10629055,91.394135,-39.985844,36.373066,WAL
56165541406000,0.254982,1.41359670515537,8.50462541080484,-1.67378948443177,0.7449502,0.77732605,-0.054061573,91.76965,-40.640476,36.236443,WAL
56165546389000,0.259965,1.43031978716425,8.62957071885278,-1.63843211179707,0.820392,0.7825184,-0.02565634,92.13183,-41.3005,36.10302,WAL
56165551397000,0.264973,1.44712676984546,8.75514288475768,-1.60289734917323,0.8579602,0.7593055,-0.05222898,92.48951,-41.97232,35.96391,WAL
56165556396000,0.269972,1.46390354828463,8.88048938183407,-1.56742644694548,0.8188649,0.72692966,-0.09987647,92.846794,-42.635574,35.82475,WAL
56165561483000,0.275059,1.48097565709041,9.00804241856693,-1.53133113195597,0.68844515,0.47342056,-0.2134974,93.29416,-43.303696,35.69855,WAL
56165566417000,0.279993,1.49753429378152,9.13175908521524,-1.49632144369997,0.2773328,0.30176744,-0.33750305,93.73736,-43.924286,35.54644,WAL
56165571374000,0.28495,1.51417011909118,9.25605246109195,-1.46114855665397,-0.26267207,0.33933565,-0.34697145,94.192,-44.49548,35.397675,WAL
56165576405000,0.289981,1.53105429039093,9.38220133622524,-1.42545059524012,-0.42210788,0.2602286,-0.32559118,94.74813,-45.078465,35.264515,WAL
56165581381000,0.294957,1.54775388021156,9.50697112407323,-1.39014289180238,-0.5919284,0.10903945,-0.2593123,95.3064,-45.55877,35.14157,WAL
56165586370000,0.299946,1.5644970983818,9.63206687800684,-1.35474294557028,-0.56382865,0.062002823,-0.15668693,95.844635,-46.029007,35.026413,WAL
56165591409000,0.304985,1.57634313327406,9.74013638905355,-1.3125467526971,-0.32498032,0.16187929,-0.063224554,96.37207,-46.489662,34.92308,WAL
56165597199000,0.310775,1.51608360245011,9.59770536356451,-1.17011515518672,-0.07513642,0.24617869,-0.058337633,96.914154,-46.95061,34.827747,WAL
56165601403000,0.314979,1.47769637648632,9.49875890426954,-1.07178291947589,0.011911872,0.19975294,-0.067500606,97.501114,-47.757835,34.37661,WAL
56165606448000,0.320024,1.53798783637579,9.46861301693555,-1.05455675595864,-0.008857546,0.16768251,-0.050396383,98.02649,-48.55412,33.928734,WAL
56165611408000,0.324984,1.59726348375969,9.4389750385061,-1.03762082512702,0.007330383,0.15241088,-0.03848451,98.49902,-49.34303,33.451515,WAL
56165616384000,0.32996,1.60145787521127,9.47410601408451,-0.995205550422535,0.02565634,0.1432479,-0.032986723,98.956154,-50.104904,32.988316,WAL
56165621367000,0.334943,1.59218712350656,9.52509524526469,-0.946534079771734,0.044593163,0.1301143,-0.021380283,99.396255,-50.84408,32.54005,WAL
56165626394000,0.33997,1.58283451085964,9.57653471248179,-0.897432838960661,0.044593163,0.11453723,-0.008246681,99.80326,-51.553246,32.106247,WAL
56165631380000,0.344956,1.57355817772705,9.62755464157358,-0.848732065798931,0.040927973,0.10873401,0.0033597588,100.191025,-52.243835,31.68196,WAL
56165636368000,0.349944,1.54948539224777,9.70416178931751,-0.809055452781899,0.057421334,0.093462385,0.00580322,100.55951,-52.91391,31.276876,WAL
56165641401000,0.354977,1.51819823125927,9.79355354451038,-0.773298704033754,0.07391469,0.09254608,0.01863139,100.9055,-53.561092,30.882542,WAL
56165646384000,0.35996,1.49576911364903,9.8561528551532,-0.733199240947075,0.07666359,0.08552113,0.025961773,101.22383,-54.200104,30.475668,WAL
56165651382000,0.364958,1.48095486220984,9.89565731940576,-0.688756486629527,0.080634214,0.06627888,0.036651913,101.52889,-54.82103,30.081179,WAL
56165656397000,0.369973,1.45954942058447,9.91338400895405,-0.630096049632982,0.08093964,0.04337143,0.03970624,101.81562,-55.444866,29.668564,WAL
56165661491000,0.375067,1.43314843607203,9.91578414857817,-0.560493398964873,0.07422013,0.021991149,0.036651913,102.093,-56.05076,29.266333,WAL
56165667058000,0.380634,1.40429600560858,9.91840715157926,-0.484427840215488,0.05955936,-0.009162978,0.03481932,102.35758,-56.6458,28.86076,WAL
56165671374000,0.38495,1.38192720915084,9.92044072099774,-0.425455511930532,0.04886922,-0.032375857,0.028405234,102.61423,-57.226875,28.461983,WAL
56165676391000,0.389967,1.35200786551339,9.9110867109375,-0.394979149642857,0.043982297,-0.052839845,0.022907447,102.86566,-57.79593,28.067247,WAL
56165681438000,0.395014,1.31829264282459,9.89085763834635,-0.39947450953869,0.03573562,-0.04520403,0.034208454,103.102974,-58.34596,27.682503,WAL
56165686395000,0.399971,1.28517864265253,9.87098929817708,-0.403889706488095,0.026267206,-0.048563786,0.05375614,103.309,-58.882202,27.284721,WAL
56165691424000,0.405,1.25158366446708,9.85083237207031,-0.408369033794643,0.022602014,-0.06261369,0.042760566,103.5082,-59.40984,26.88986,WAL
56165696379000,0.409955,1.22531406722149,9.83279483610743,-0.419561178158786,0.025045475,-0.052534413,0.0421497,103.68446,-59.92564,26.497059,WAL
56165701389000,0.414965,1.22295830702116,9.82101603510581,-0.454897610681986,0.011301007,-0.06780604,0.037873644,103.865524,-60.430183,26.110981,WAL
56165706399000,0.419975,1.22060254682084,9.80923723410419,-0.490234043205185,0.009773844,-0.0693332,0.042455133,104.02012,-60.94365,25.705545,WAL
56165711428000,0.425004,1.21823785259979,9.79741376299897,-0.525704486151127,0.004581489,-0.07666359,0.029321533,104.17507,-61.448837,25.3034,WAL
56165716374000,0.42995,1.21852375585331,9.78976622425952,-0.565288249929478,-0.013439035,-0.09101892,0.030848695,104.322365,-61.938602,24.911238,WAL
56165721393000,0.434969,1.23416852938049,9.80541077997179,-0.633082323000976,-0.002443461,-0.09315695,0.025350908,104.46254,-62.425514,24.520824,WAL
56165726390000,0.439966,1.24843444558893,9.81047775735179,-0.69375149076034,-0.0106901415,-0.09682214,0.016798794,104.61144,-62.901726,24.142342,WAL
56165731379000,0.444955,1.25970476840698,9.79169388598836,-0.738832809492058,-0.008552114,-0.09254608,0.023823744,104.750984,-63.367603,23.773336,WAL
56165736848000,0.450424,1.27205942775594,9.77110278707344,-0.788251476989307,0.0009162979,-0.09773844,0.028405234,104.899086,-63.829536,23.413334,WAL
56165741410000,0.454986,1.29732995987979,9.77227885199098,-0.838168474755823,-0.0030543262,-0.09468412,0.01740966,105.03716,-64.28216,23.05681,WAL
56165746398000,0.459974,1.32809254109692,9.77740604701084,-0.894566490353118,-0.0030543262,-0.08674286,0.020158553,105.1677,-64.72187,22.711918,WAL
56165751378000,0.464954,1.34241645779408,9.7666795074666,-0.937687401629552,0.00061086525,-0.07941248,0.01740966,105.29988,-65.15647,22.37476,WAL
56165756390000,0.469966,1.35499149620121,9.75410420644485,-0.979604213827613,0.009162978,-0.07666359,0.015271631,105.42452,-65.58153,22.044277,WAL
56165761426000,0.475002,1.37211614492438,9.7430844028382,-1.01735469126787,0.004886922,-0.0711658,0.010079277,105.547165,-65.99818,21.723337,WAL
56165766380000,0.479956,1.39177363129273,9.73325594188937,-1.05175543353014,0.008246681,-0.076358154,0.01160644,105.6657,-66.40659,21.40966,WAL
56165771369000,0.484945,1.41754149265514,9.73164668162286,-1.06141495201359,0.008857546,-0.06383542,0.008552114,105.77904,-66.80828,21.102196,WAL
56165776426000,0.490002,1.44657911816229,9.73406653217748,-1.0589951519936,0.00061086525,-0.06505715,0.0033597588,105.89202,-67.200966,20.80065,WAL
56165781373000,0.494949,1.47498511645848,9.73643374607775,-1.05662798752873,0.00061086525,-0.06261369,0.00061086525,106.00048,-67.5848,20.5085,WAL
56165786375000,0.499951,1.50370692836015,9.73882727830519,-1.0542345052863,-0.0061086523,-0.06719518,-0.0036651916,106.105865,-67.960594,20.219675,WAL
56165791402000,0.504978,1.52204135979853,9.73367561080586,-1.05938606520147,-0.010079277,-0.06872234,-0.0012217305,106.20371,-68.327736,19.936523,WAL
56165796398000,0.509974,1.53518587239927,9.72491248040293,-1.06814901260073,-0.014049901,-0.06566802,0.0021380284,106.29622,-68.68731,19.657139,WAL
56165801368000,0.514944,1.54419595973779,9.72744885488391,-1.08658230440352,-0.020463986,-0.06811147,-0.002443461,106.3876,-69.029686,19.392275,WAL
56165806718000,0.520294,1.54932359634708,9.74283171116893,-1.11734844531625,-0.02565634,-0.06841691,-0.00061086525,106.471886,-69.36201,19.134329,WAL
56165811421000,0.524997,1.54117799122581,9.74662304387097,-1.13519554098925,-0.03756821,-0.07666359,0.00061086525,106.55633,-69.68476,18.883205,WAL
56165816376000,0.529952,1.52076802654839,9.74152099225807,-1.14540049668817,-0.027794369,-0.08002335,0.010079277,106.63417,-69.99979,18.638884,WAL
56165821371000,0.534947,1.51024987011891,9.74346035308784,-1.12228516768955,-0.040317107,-0.08307768,0.015577064,106.71401,-70.307556,18.39853,WAL
56165826424000,0.54,1.50560932827004,9.74964770991561,-1.07897341146273,-0.031154128,-0.08124508,0.0076358155,106.788864,-70.613014,18.160921,WAL
56165831387000,0.544963,1.50105144004603,9.75572486248561,-1.03643308964327,-0.036957346,-0.089186326,0.016493361,106.86195,-70.90738,17.930428,WAL
56165836373000,0.549949,1.496472429229,9.76183017836594,-0.993695623475259,-0.044593163,-0.10995574,0.013744468,106.93459,-71.201454,17.698536,WAL
56165841410000,0.554986,1.49184658135788,9.76799794332566,-0.950521011143076,-0.04734206,-0.083383106,0.03023783,106.98993,-71.48169,17.477224,WAL
56165846386000,0.559962,1.48727675427695,9.77409101428846,-0.907869259909219,-0.043676864,-0.076358154,0.02076942,107.05413,-71.76362,17.25269,WAL
56165851369000,0.564945,1.48620842337662,9.77611653896104,-0.873852506493507,-0.03634648,-0.080634214,0.019242255,107.10902,-72.03328,17.038176,WAL
56165856397000,0.569973,1.49109399058442,9.77123086972403,-0.854310237662338,-0.056505036,-0.105374254,0.02107485,107.1642,-72.29685,16.825811,WAL
56165861491000,0.575067,1.50466353717039,9.77012332360929,-0.81961525781866,-0.07147124,-0.10140363,0.02076942,107.193474,-72.55212,16.611195,WAL
56165866412000,0.579988,1.52943489844065,9.77425196285589,-0.765944025361367,-0.07788532,-0.09040806,0.018936822,107.22503,-72.80128,16.400791,WAL
56165871386000,0.584962,1.5595391319992,9.77676334356505,-0.707850803440666,-0.08552113,-0.08124508,0.014966198,107.25137,-73.04248,16.194407,WAL
56165876419000,0.589995,1.62722906929481,9.76709315778914,-0.620820898485304,-0.08093964,-0.06811147,0.016798794,107.270485,-73.27845,15.992266,WAL
56165881397000,0.594973,1.69018501415059,9.75526572720393,-0.536543964388952,-0.0842994,-0.07238753,0.0070249503,107.28548,-73.50382,15.79484,WAL
56165886369000,0.599945,1.72621668240636,9.72824188195233,-0.464480571441544,-0.084910266,-0.090713486,0.007941248,107.29816,-73.722176,15.604327,WAL
56165891710000,0.605286,1.76324992298444,9.69906999292786,-0.387806494144272,-0.09407325,-0.10445796,-0.0076358155,107.30238,-73.92468,15.4229765,WAL
56165896390000,0.609966,1.77683435822388,9.67190159527177,-0.328940775170742,-0.09315695,-0.11911872,-0.018020526,107.31034,-74.12261,15.24685,WAL
56165901592000,0.615168,1.79985062563112,9.61455162773173,-0.26482181123587,-0.11056661,-0.14508049,-0.029626964,107.3183,-74.306114,15.07858,WAL
56165906399000,0.619975,1.91693462863602,9.23294392991711,-0.221457346224567,-0.11301007,-0.16523905,-0.033292156,107.32748,-74.48826,14.912658,WAL
56165911995000,0.625571,2.06897767531075,8.75120065098708,-0.156361266517183,-0.11484267,-0.1826487,-0.022296581,107.33772,-74.65699,14.75546,WAL
56165916432000,0.630008,2.62477095193761,7.33237464733122,0.299320154657568,-0.11636983,-0.15118915,-0.04886922,107.33929,-74.83397,14.588569,WAL
56165921352000,0.634928,3.24106640404582,5.75909902461613,0.804605841423349,-0.0711658,-0.06505715,-0.22143865,107.33231,-74.99987,14.431302,WAL
56165926397000,0.639973,3.38755284811352,4.87449467396326,0.790869810580794,0.21563543,-0.32406402,-0.14721853,107.41231,-75.12163,14.344829,WAL
56165931420000,0.644996,2.93249059656803,4.89566022901771,0.118859437324827,0.25992316,-0.41905355,-0.08124508,107.4213,-75.27578,14.203792,WAL
56165936369000,0.649945,2.36865092247455,5.86866436667972,-0.318153210761551,0.09896017,-0.3567453,-0.06414085,107.41503,-75.15468,14.310938,WAL
56165941397000,0.654973,1.72762738324197,7.41937565602976,-0.629238174336335,-0.083383106,-0.3359759,-0.05589417,107.44684,-75.019005,14.4373665,WAL
56165946405000,0.659981,1.28063273005141,9.13226695024832,-0.687643405977172,-0.31215215,-0.26206118,-0.1133155,107.48863,-74.99465,14.4661255,WAL
56165951375000,0.664951,0.969597208138015,10.9487142596497,-0.571523493674305,-0.45937067,-0.29077184,-0.17806722,107.55398,-74.96227,14.496978,WAL
56165956399000,0.669975,0.702710271105315,12.6335185291816,-0.610570617541572,-0.5558874,-0.23060162,-0.20280726,107.59087,-75.14439,14.314429,WAL
56165961526000,0.675102,0.547954453557222,13.9782936853603,-1.0374832474568,-0.5448918,-0.035124753,-0.12217305,107.594284,-75.310005,14.143577,WAL
56165966414000,0.67999,0.467176118376493,14.3176691545151,-1.08548187206402,-0.40775254,0.051618114,-0.08002335,107.58885,-75.664406,13.779585,WAL
56165971378000,0.684954,0.462633434615385,13.5681250769231,-0.717523842307692,-0.31398472,0.13164146,-0.05681047,107.52544,-75.98757,13.440628,WAL
56165976387000,0.689963,0.511158217095204,12.8547335330985,-0.432693492534963,-0.17898351,0.12186762,-0.03481932,107.48491,-76.40838,13.041234,WAL
56165981379000,0.694955,0.654783518145654,12.2208012475914,-0.303925961810836,-0.13439035,0.112399206,-0.005497787,107.41571,-76.80185,12.666675,WAL
56165986363000,0.699939,0.778536236741214,11.6700582204473,-0.23767615028754,-0.12003502,0.051923547,0.0106901415,107.330444,-77.1298,12.343142,WAL
56165992004000,0.70558,0.888370504429277,11.1731887386969,-0.258596969422016,-0.109650314,0.03359759,0.02107485,107.23396,-77.44351,12.036353,WAL
56165996433000,0.710009,0.914485874040062,10.8535598479775,-0.254412781835688,-0.099571034,0.030848695,0.032986723,107.14584,-77.68663,11.795261,WAL
56166001493000,0.715069,0.848836467479195,10.6003409762919,-0.216898826136056,-0.094989546,0.013744468,0.036651913,107.066666,-77.92328,11.561506,WAL
56166006390000,0.719966,0.656767116235523,10.2803133785535,-0.501788361742124,-0.10934488,-0.023518313,0.04520403,106.99878,-78.114235,11.374357,WAL
56166011419000,0.724995,0.153578719561027,9.77322383502065,-1.55887404834859,-0.12767084,0.008246681,0.056505036,106.91486,-78.29958,11.1919365,WAL
56166016401000,0.729977,-0.344906981817446,9.27087344610027,-2.60608042947275,-0.12950343,0.2003638,0.0571159,106.7904,-78.48172,11.007594,WAL
56166021381000,0.734957,-0.362270030793037,9.2528438549323,-1.67260685775242,-0.112399206,1.0726794,0.012217305,106.45877,-78.67015,10.804477,WAL
56166026410000,0.739986,-0.278429436656673,9.33668516402321,-0.3125262066206,-0.065973446,1.8472565,-0.07849618,106.100174,-78.87035,10.589833,WAL
56166031385000,0.744961,-0.00329394604900457,9.95959315885656,0.209361032820521,0.04550946,1.3121386,-0.10445796,105.92044,-79.24026,10.288811,WAL
56166036366000,0.749942,0.332739035742726,10.7534099673303,0.472343387157734,0.0106901415,0.6743952,-0.008552114,105.53805,-79.58831,9.988645,WAL
56166041407000,0.754983,0.47217402960322,11.1863081480736,0.390509594491087,-0.042455133,0.18234327,0.12889257,105.19051,-79.83497,9.727581,WAL
56166046378000,0.759954,0.558863695940196,11.5193789643473,0.221692890879816,-0.124005646,-0.09101892,0.22999077,104.96379,-80.05673,9.492965,WAL
56166051404000,0.76498,0.518826169382915,11.5891472,0.134543066192965,-0.21777347,-0.21135938,0.2669481,104.82792,-80.19974,9.326247,WAL
56166056341000,0.769917,0.428541409551759,11.5511323,0.0822729533095477,-0.2843578,-0.24281894,0.2733622,104.74538,-80.314995,9.185677,WAL
56166061729000,0.775305,0.379289171503083,11.4177228135045,0.0249870162920247,-0.3390302,-0.32711834,0.2773328,104.72447,-80.416626,9.066419,WAL
56166066328000,0.779904,0.352577112152027,11.275258410189,-0.0239850942227838,-0.35308012,-0.33750305,0.2843578,104.69141,-80.50975,8.952484,WAL
56166071298000,0.784874,0.337995828729648,11.1015944509116,-0.0653840908125183,-0.35735616,-0.3576616,0.31703907,104.6859,-80.605385,8.835726,WAL
56166076330000,0.789906,0.328599229802086,10.9183608699425,-0.10297051252413,-0.37659842,-0.36132678,0.35124752,104.67866,-80.692314,8.724498,WAL
56166081302000,0.794878,0.315482953200209,10.6811626654469,-0.0744077328008364,-0.41325033,-0.35796702,0.38362336,104.67515,-80.76975,8.623779,WAL
56166086299000,0.799875,0.300473448888657,10.4159951495034,-0.0143697155546262,-0.44898596,-0.32711834,0.40225476,104.664375,-80.837074,8.530869,WAL
56166091336000,0.804912,0.322299734238894,10.2435913390918,0.0472061895449161,-0.45570546,-0.3268129,0.40408736,104.66311,-80.89601,8.448074,WAL
56166096306000,0.809882,0.355189869559724,10.102633209773,0.108287877136229,-0.48288897,-0.30818152,0.42455134,104.64686,-80.937126,8.376685,WAL
56166101364000,0.81494,0.414281070541491,9.98023734511252,0.193746817641526,-0.4990769,-0.27916542,0.44868052,104.62247,-80.966286,8.312296,WAL
56166106376000,0.819952,0.48179013757384,9.86631567774262,0.286571802434072,-0.5213735,-0.23182335,0.4596761,104.58724,-80.98826,8.250286,WAL
56166111471000,0.825047,0.568604393948227,9.77063028605612,0.409800669628018,-0.5342017,-0.1704314,0.46700647,104.53696,-80.98791,8.204339,WAL
56166116353000,0.829929,0.670309803249946,9.69943666521645,0.557273496123559,-0.5552765,-0.09040806,0.47219884,104.467514,-80.98047,8.160057,WAL
56166121349000,0.834925,0.809923679850158,9.64875396727129,0.732021506328864,-0.5757405,-0.00580322,0.47342056,104.37565,-80.944,8.133714,WAL
56166126379000,0.839955,0.971381225394322,9.61076417823344,0.921971572160883,-0.5849035,0.09010262,0.4718934,104.25752,-80.90469,8.106088,WAL
56166131436000,0.845012,1.14404576149615,9.62265702230223,1.12056968843884,-0.59681535,0.18173242,0.46700647,104.10871,-80.83194,8.095612,WAL
56166136353000,0.849929,1.31829309845985,9.66504137543754,1.31836389371937,-0.59986967,0.2648101,0.47403142,103.93477,-80.75554,8.085617,WAL
56166141397000,0.854973,1.50036639166667,9.70170445833333,1.48480402083333,-0.60903263,0.33536503,0.46028697,103.73167,-80.63646,8.09734,WAL
56166146360000,0.859936,1.68163902025172,9.73342686784897,1.62529037660183,-0.6227771,0.3885103,0.45234573,103.50995,-80.51224,8.110019,WAL
56166151372000,0.864948,1.87960722285377,9.79474610099321,1.7286630676566,-0.64934975,0.40194935,0.44226643,103.27393,-80.340645,8.148407,WAL
56166156397000,0.869973,2.09256384690727,9.88466143190088,1.79491622750516,-0.6872234,0.3998113,0.4288274,103.02855,-80.167206,8.181102,WAL
56166161541000,0.875117,2.2887638280922,9.91919091623345,1.84351980051986,-0.71837753,0.37995818,0.4196644,102.783005,-79.94721,8.245477,WAL
56166166421000,0.879997,2.45379106811182,9.89627047287886,1.87102433254537,-0.74097955,0.33292156,0.4092797,102.54798,-79.72601,8.3046,WAL
56166171368000,0.884944,2.58715319764504,9.80285067848019,1.87984898292071,-0.7510588,0.26297748,0.3857614,102.33034,-79.47104,8.394209,WAL
56166176419000,0.889995,2.67927410940127,9.61636181805936,1.86412103839937,-0.7263188,0.20616703,0.3643811,102.12474,-79.22179,8.480287,WAL
56166181358000,0.894934,2.76935234800037,9.4340081293604,1.84874184259836,-0.70341134,0.1423316,0.33475417,101.947815,-78.950714,8.590297,WAL
56166186374000,0.89995,2.860834924395,9.24881151010265,1.83312288205212,-0.66828656,0.09285152,0.29932398,101.78619,-78.69518,8.691703,WAL
56166191406000,0.904982,2.93246774397416,9.0573068865214,1.80119774898766,-0.61850107,0.059864793,0.26175576,101.64141,-78.45643,8.783674,WAL
56166196393000,0.909969,2.87721181282298,8.83167879348245,1.66766265015426,-0.56169057,0.06566802,0.22204952,101.50315,-78.23653,8.863485,WAL
56166201484000,0.91506,2.81828930295841,8.60430407540102,1.54078146193449,-0.5207626,0.07727446,0.17440203,101.3776,-77.99768,8.977192,WAL
56166206400000,0.919976,2.73236941833637,8.41889801604072,1.52721507737969,-0.4636467,0.10873401,0.11362094,101.24849,-77.78711,9.072927,WAL
56166211807000,0.925383,2.63390682705838,8.22429066251871,1.51450185307822,-0.41172317,0.12889257,0.045814894,101.12579,-77.61402,9.147785,WAL
56166216475000,0.930051,2.49169547331587,8.1908289465756,1.535415305436,-0.37415496,0.15943582,-0.020158553,100.99482,-77.463806,9.203061,WAL
56166221353000,0.934929,2.34308643656437,8.15586188351422,1.55726959433945,-0.33567044,0.18325958,-0.094989546,100.85986,-77.34769,9.224197,WAL
56166226404000,0.93998,2.05791560909091,8.31308429249012,1.62779216798419,-0.29626966,0.22418754,-0.16737708,100.71515,-77.2535,9.224932,WAL
56166231388000,0.944964,1.75079583911205,8.50613125636547,1.70676582181267,-0.28221974,0.28069258,-0.23487769,100.563354,-77.177155,9.20409,WAL
56166236370000,0.949946,1.56791122127352,8.68104125373854,1.75475187435601,-0.27672195,0.3210097,-0.29352075,100.40285,-77.13683,9.135114,WAL
56166241402000,0.954978,1.44702816251809,8.84841775928606,1.78729733565847,-0.27763826,0.3820962,-0.36132678,100.22493,-77.112976,9.041801,WAL
56166246387000,0.959963,1.34453482711289,8.99228762157842,1.80326490383616,-0.28955013,0.42271876,-0.4202753,100.02714,-77.1384,8.863596,WAL
56166251378000,0.964954,1.2538097155045,9.12121297962038,1.80803990971029,-0.3036,0.47861293,-0.47586402,99.812294,-77.17235,8.665828,WAL
56166256395000,0.969971,1.16074793747422,9.19678348590789,1.80446584954336,-0.30207285,0.51068336,-0.5299256,99.59256,-77.23278,8.424114,WAL
56166261510000,0.975086,1.06453781639006,9.23526729323382,1.7948448474811,-0.30940324,0.57787853,-0.54336464,99.34964,-77.28565,8.17699,WAL
56166266417000,0.979993,0.934821631775701,9.22122935700935,1.83830836233645,-0.30940324,0.6404922,-0.5934556,99.09896,-77.36762,7.884702,WAL
56166271402000,0.984978,0.774199807009346,9.16768859345794,1.92308098948598,-0.29871312,0.6740898,-0.64904433,98.84035,-77.44648,7.589092,WAL
56166276391000,0.989967,0.646300985720366,9.17202864843584,1.87607177173867,-0.2751948,0.6792821,-0.7031059,98.57368,-77.543365,7.2623568,WAL
56166281381000,0.994957,0.564941950712918,9.25847277910194,1.6421644863588,-0.26419923,0.6588182,-0.74220127,98.30859,-77.63781,6.9284334,WAL
56166286372000,0.999948,0.491467358607441,9.32992906710709,1.49482842774687,-0.25289822,0.698219,-0.7788532,98.01876,-77.73797,6.548193,WAL
56166291407000,1.004983,0.424403058111961,9.38861062656467,1.42357267357441,-0.19364429,0.7266242,-0.8017606,97.74158,-77.84484,6.167857,WAL
56166296386000,1.009962,0.350509659715034,9.44283317425483,1.37916163741675,-0.13133603,0.7318166,-0.82619524,97.46412,-77.99839,5.7645073,WAL
56166301375000,1.014951,0.25139457101867,9.48456559547986,1.42089433099683,-0.06811147,0.70616025,-0.8371908,97.18835,-78.15646,5.364717,WAL
56166306415000,1.019991,0.155440020552491,9.506761087162,1.4415858894011,-0.017715093,0.63804877,-0.84940815,96.92003,-78.34292,4.9489937,WAL
56166311491000,1.025067,0.0650483818965678,9.49922869171767,1.43028694228713,0.020158553,0.5546656,-0.8491027,96.66277,-78.52965,4.5425153,WAL
56166317679000,1.031255,-0.047461125452291,9.49027695989674,1.41465523227621,0.053145275,0.4813618,-0.84635377,96.41955,-78.71811,4.1243553,WAL
56166321378000,1.034954,-0.13563891288725,9.48701105015211,1.38852846584309,0.08582657,0.41172317,-0.8402451,96.198296,-78.90267,3.7182512,WAL
56166326382000,1.039958,-0.254925652093666,9.48259293380658,1.35318422706739,0.10445796,0.3549127,-0.83016586,95.98718,-79.088196,3.3011236,WAL
56166331377000,1.044953,-0.390110040888243,9.49068324094635,1.34396779174017,0.12339478,0.30085114,-0.82924956,95.7946,-79.26841,2.8934095,WAL
56166336384000,1.04996,-0.534406086510325,9.50561020058109,1.34894351422642,0.14752395,0.24740042,-0.82650065,95.616684,-79.43999,2.4985714,WAL
56166341435000,1.055011,-0.694287570413976,9.51641797683251,1.36030302225598,0.16676621,0.18112154,-0.81306165,95.452194,-79.61357,2.0906384,WAL
56166346465000,1.060041,-0.858944634741739,9.525565775921,1.37402438657425,0.18448131,0.124311075,-0.8213083,95.300476,-79.77879,1.6863503,WAL
56166351400000,1.064976,-1.03368314522937,9.51133684831071,1.39957726676905,0.20097467,0.09010262,-0.82650065,95.154724,-79.936226,1.2677559,WAL
56166356427000,1.070003,-1.21970931483702,9.48271736480729,1.43296664758744,0.2171626,0.032070424,-0.8179486,95.03122,-80.080925,0.8617325,WAL
56166361510000,1.075086,-1.37846771048304,9.46229084069887,1.50723981325797,0.21777347,-0.021685716,-0.81397796,94.91266,-80.20822,0.4270035,WAL
56166366465000,1.080041,-1.51502328371017,9.44766009558068,1.60477947204522,0.2284636,-0.093767814,-0.79626286,94.814705,-80.3229,0.009591293,WAL
56166371373000,1.084949,-1.59296521024249,9.43982778663047,1.70442947320476,0.21991149,-0.16279559,-0.78038037,94.72976,-80.40408,-0.43492153,WAL
56166376403000,1.089979,-1.64257525115626,9.43531769300627,1.80815955447056,0.20341812,-0.24281894,-0.7504479,94.66747,-80.46512,-0.8590803,WAL
56166381378000,1.094954,-1.68233750524946,9.45179040065076,1.90581984354664,0.19792034,-0.31398472,-0.7141015,94.62611,-80.484634,-1.2921267,WAL
56166386891000,1.100467,-1.71669557362256,9.49187505292842,2.00889410845987,0.17134771,-0.38515055,-0.6753115,94.60722,-80.47493,-1.7049936,WAL
56166391404000,1.10498,-1.73261574741622,9.51777385005903,2.05372452096994,0.15607607,-0.46853364,-0.6273586,94.61735,-80.427605,-2.1032999,WAL
56166396400000,1.109976,-1.74565153693579,9.5438450661157,2.08848671710108,0.1386664,-0.5564982,-0.573297,94.64852,-80.35979,-2.478598,WAL
56166401379000,1.114955,-1.76679721050675,9.57426828248168,2.11401839286094,0.14202617,-0.6444628,-0.5183192,94.70829,-80.26714,-2.8339932,WAL
56166406423000,1.119999,-1.79758790206098,9.6101909077871,2.12941371184532,0.1554652,-0.72265357,-0.4792238,94.79018,-80.165054,-3.1687448,WAL
56166411469000,1.125045,-1.83606712019389,9.64363678869537,2.12141853483405,0.1872302,-0.8023715,-0.43249258,94.898964,-80.05872,-3.477769,WAL
56166416401000,1.129977,-1.87875205667105,9.67468018731515,2.09813578327309,0.23365596,-0.8707884,-0.40653083,95.027466,-79.95441,-3.772942,WAL
56166421398000,1.134974,-1.92296061953238,9.73702136354231,2.09412537688806,0.2706133,-0.9401216,-0.3912592,95.179085,-79.849754,-4.0541654,WAL
56166426405000,1.139981,-1.972568562425,9.97017890233809,2.1983021605628,0.29565877,-1.0164797,-0.35979962,95.35171,-79.75316,-4.3149242,WAL
56166431412000,1.144988,-2.00326819852761,10.1697579128834,2.2871412197137,0.30390546,-1.0873401,-0.34147367,95.54528,-79.6585,-4.5770664,WAL
56166436409000,1.149985,-1.96803732520245,10.2519637744785,2.32237217478937,0.30207285,-1.1068878,-0.31520647,95.74567,-79.5674,-4.822209,WAL
56166441403000,1.154979,-1.93282760309202,10.3341202829448,2.35758197860123,0.28802297,-1.103528,-0.27672195,95.96375,-79.46166,-5.056738,WAL
56166446446000,1.160022,-1.91728222298054,10.3640128056433,2.3922673195681,0.26083946,-1.1016954,-0.24098633,96.18821,-79.35238,-5.278698,WAL
56166451370000,1.164946,-1.9076751814811,10.3784231672609,2.42589196481614,0.22510384,-1.0870347,-0.2134974,96.40796,-79.23945,-5.4882207,WAL
56166456995000,1.170571,-1.89761721954391,10.3363381303233,2.42842528845132,0.21105394,-1.0296134,-0.1957823,96.616234,-79.1288,-5.676897,WAL
56166461480000,1.175056,-1.88974980087004,10.2930670606283,2.42449155857679,0.16218472,-1.0085385,-0.18784106,96.83072,-79.00319,-5.8553963,WAL
56166466385000,1.179961,-1.89213734662131,10.1933167319114,2.37612751933438,0.15057829,-0.95356065,-0.1777618,97.019966,-78.88266,-6.0257525,WAL
56166471398000,1.184974,-1.90096491838742,10.0609038467408,2.30109350498299,0.12980886,-0.874759,-0.17745635,97.197105,-78.74857,-6.19484,WAL
56166476430000,1.190006,-1.91773607145188,9.92486794371941,2.26809402683524,0.10262536,-0.799928,-0.1853976,97.36196,-78.61095,-6.361224,WAL
56166481459000,1.195035,-1.94392515638934,9.78519309751677,2.28555337121624,0.08735373,-0.72112644,-0.19730948,97.50384,-78.471664,-6.528983,WAL
56166486369000,1.199945,-1.97688189955503,9.64237887629784,2.33138842138831,0.06627888,-0.6264423,-0.21838433,97.6176,-78.32877,-6.7080526,WAL
56166491408000,1.204984,-2.03414383393652,9.47536490101849,2.46977162878473,0.028710667,-0.535118,-0.27855456,97.71255,-78.17076,-6.9017205,WAL
56166496473000,1.210049,-2.08581104210627,9.39173613585448,2.56633305237913,-0.03390302,-0.43188173,-0.34422258,97.78184,-77.98622,-7.113084,WAL
56166501375000,1.214951,-2.11727291818095,9.57601238267113,2.52588209567257,-0.12370021,-0.31856623,-0.398895,97.82487,-77.77961,-7.3395753,WAL
56166506442000,1.220018,-2.12030962039629,9.83421460970733,2.4793892532176,-0.23976462,-0.18906279,-0.44257188,97.84921,-77.5105,-7.5971026,WAL
56166511478000,1.225054,-1.94496399174696,10.5005274859117,2.40486739308308,-0.37140608,-0.058948494,-0.45448375,97.84274,-77.21645,-7.8624897,WAL
56166516930000,1.230506,-1.70229570996423,11.2634844238631,2.30781953712315,-0.5314528,0.04550946,-0.4437936,97.80241,-76.90118,-8.136388,WAL
56166521371000,1.234947,-0.380232324646568,12.770274271504,1.88041277276444,-0.6737844,0.14813483,-0.40378192,97.72438,-76.56825,-8.407239,WAL
56166526549000,1.240125,1.16123225746892,14.5271213399762,1.3820763111906,-0.78038037,0.2302962,-0.32803464,97.59904,-76.28949,-8.609526,WAL
56166531383000,1.244959,2.25186708803966,15.1302720673415,1.07900605434001,-0.82802784,0.22357668,-0.20463985,97.463684,-76.01404,-8.783813,WAL
56166536372000,1.249948,3.14013024883289,15.0463809141706,0.87667941114026,-0.820392,0.124311075,-0.043676864,97.32344,-75.75369,-8.922079,WAL
56166541400000,1.254976,3.7141922211428,14.176596433639,0.707306474104605,-0.7626653,-0.057421334,0.12370021,97.11536,-75.88279,-8.658023,WAL
56166546399000,1.259975,4.10980914159024,12.8836050584501,0.557744021320165,-0.64751714,-0.31703907,0.2742785,96.953545,-76.039444,-8.355989,WAL
56166551378000,1.264954,4.2689683522438,11.5831137295364,0.251957290370715,-0.46700647,-0.46028697,0.3576616,96.78625,-76.332535,-7.896223,WAL
56166556451000,1.270027,4.30959345282914,10.2515122676763,-0.140752288663012,-0.38423425,-0.7473936,0.52595496,96.72784,-76.64556,-7.366149,WAL
56166561487000,1.275063,4.20693977009924,9.02121827094227,-0.601639332997546,-0.17440203,-0.93645644,0.71929383,96.67588,-77.02986,-6.781427,WAL
56166566431000,1.280007,3.97957359342653,7.89449275264113,-1.11700258940988,0.013439035,-1.0274754,0.92149025,96.674774,-77.431496,-6.1497765,WAL
56166571372000,1.284948,3.70404759416745,7.14151948908749,-1.49330983123236,0.18661933,-1.0467176,1.0977248,96.667145,-77.88963,-5.506343,WAL
56166576402000,1.289978,3.3958959770461,6.58865931834431,-1.79692971646284,0.32406402,-1.0106765,1.2330315,96.66805,-78.383156,-4.8235893,WAL
56166581379000,1.294955,3.03664089745144,6.23073683368616,-1.96408193067516,0.42546764,-0.9416488,1.3271047,96.60556,-78.92485,-4.1858263,WAL
56166586372000,1.299948,2.62387475439318,6.05383701410955,-2.00339296748536,0.50426924,-0.84238315,1.3720033,96.527756,-79.48407,-3.5314624,WAL
56166591401000,1.304977,2.31564413996953,6.0559210966581,-2.07747589761021,0.57360244,-0.76083267,1.3164146,96.400475,-80.060394,-2.9683294,WAL
56166596438000,1.310014,2.09059603471389,6.19829857017995,-2.17851793537085,0.6087272,-0.68325275,1.1979067,96.25461,-80.629715,-2.4173915,WAL
56166601377000,1.314953,1.97718398589934,6.49962160340156,-2.27283301158904,0.5864306,-0.573297,1.0146471,96.093704,-81.16401,-1.9765979,WAL
56166606453000,1.320029,1.98679771808563,6.99953597824582,-2.36416356774449,0.5684101,-0.47403142,0.8045095,95.92508,-81.68799,-1.5815824,WAL
56166611515000,1.325091,2.0581151514004,7.52751814476922,-2.46976837918157,0.56382865,-0.42241332,0.5873469,95.759,-82.20673,-1.2825929,WAL
56166616412000,1.329988,2.19724075441061,8.07174511389931,-2.58843434097374,0.57757306,-0.40622538,0.39828414,95.58407,-82.71095,-1.0391558,WAL
56166621358000,1.334934,2.33391847907268,8.6014469676274,-2.69676316710526,0.63132924,-0.40378192,0.25289822,95.41461,-83.24271,-0.83779186,WAL
56166626402000,1.339978,2.44994027631579,9.02013425877193,-2.73711848552632,0.7119634,-0.42332962,0.15882497,95.25113,-83.77619,-0.6765049,WAL
56166631368000,1.344944,2.55443366329749,9.35396693596177,-2.73104657495818,0.79320854,-0.464563,0.10873401,95.090744,-84.358665,-0.5106249,WAL
56166636372000,1.349948,2.6269565097491,9.42648966284349,-2.57073300248507,0.81092364,-0.55955255,0.080634214,94.95126,-84.93647,-0.36483192,WAL
56166642285000,1.355861,2.71265347039427,9.51218648219833,-2.38129771990442,0.77457714,-0.70005155,0.09132435,94.835556,-85.52694,-0.19860008,WAL
56166646438000,1.360014,2.74857094578375,9.50856193455068,-2.12821843173984,0.72418076,-0.78801614,0.15027285,94.72927,-86.106384,-0.028253082,WAL
56166651362000,1.364938,2.7872711712659,9.49404957098892,-1.80894168516619,0.68936145,-1.0164797,0.18692477,94.7017,-86.665276,0.14121774,WAL
56166656455000,1.370031,2.7168390151136,9.54252153362156,-1.58460606468586,0.6740898,-1.2901474,0.27030787,94.721466,-87.15171,0.36249763,WAL
56166661460000,1.375036,2.61542853475301,9.60865880342195,-1.39501246584491,0.6789767,-1.5803084,0.36560285,94.81022,-87.59654,0.59614116,WAL
56166666486000,1.380062,2.43718395788134,9.69217510475817,-1.29554117262581,0.7110472,-1.856114,0.44226643,94.99143,-87.91739,0.8614609,WAL
56166671402000,1.384978,2.21593666816135,9.78436141531232,-1.25405728474643,0.75777835,-2.0900755,0.5015204,95.243576,-88.14343,1.1449441,WAL
56166676399000,1.389975,1.95855844975088,9.90891758189745,-1.32129216355616,0.7858781,-2.2455406,0.53878313,95.57058,-88.22137,1.423315,WAL
56166681386000,1.394962,1.67598692341706,10.05763930164,-1.4749713257214,0.77579886,-2.3606887,0.56505036,95.95373,-88.16333,1.7093512,WAL
56166686370000,1.399946,1.40420063681869,10.0949556929922,-1.68355782491657,0.73761976,-2.436436,0.5681047,96.386375,-88.02888,1.9498931,WAL
56166691395000,1.404971,1.13655076246334,10.0657574398827,-1.92687595718475,0.67073005,-2.4697282,0.5635232,96.84085,-92.19025,2.1887848,WAL
56166696402000,1.409978,0.910531326027397,9.92548116712329,-2.14129529917808,0.5946773,-2.479502,0.5195409,97.32083,-92.39914,2.3545592,WAL
56166701376000,1.414952,0.707520456012177,9.72730398538813,-2.33947258185693,0.537256,-2.4495697,0.46609017,97.80011,-92.641,2.5100727,WAL
56166706443000,1.420019,0.568316420936668,9.54273748935604,-2.49764044478446,0.48624873,-2.388483,0.41141775,98.27767,-92.85751,2.5916615,WAL
56166712585000,1.426161,0.437881936544261,9.32882493320915,-2.66459655560582,0.45478916,-2.3047945,0.3484986,98.740555,-93.08006,2.6512575,WAL
56166716373000,1.429949,0.404425321489709,9.23955663541326,-2.74762682829141,0.41813725,-2.221106,0.30757064,99.18345,-93.29408,2.6559823,WAL
56166721371000,1.434947,0.409637653668736,9.16658354949363,-2.83623652976152,0.39584067,-2.1484132,0.27763826,99.60502,-93.51457,2.643302,WAL
56166726391000,1.439967,0.487668867570261,9.15032228204106,-2.86180263304764,0.4025602,-2.0793853,0.26053402,99.99914,-93.74803,2.59367,WAL
56166731436000,1.445012,0.617677330984652,9.17439790293004,-2.84254223689456,0.42149702,-2.0091357,0.2611449,100.371056,-93.99492,2.5391886,WAL
56166736402000,1.449978,0.798629054575913,9.29514495600423,-2.77800787685593,0.4266894,-1.967597,0.2837469,100.72461,-94.26711,2.4835815,WAL
56166741407000,1.454983,1.01838394524775,9.48531774607653,-2.68080854397813,0.42241332,-1.9434677,0.3371976,101.0624,-94.55634,2.4356244,WAL
56166746422000,1.459998,1.25514539033465,9.66750642403507,-2.53260519300759,0.41783184,-1.9352211,0.38545597,101.39157,-94.86345,2.4158738,WAL
56166751377000,1.464953,1.52404444074628,9.82986068363092,-2.27892683456645,0.42332962,-1.9688187,0.4129449,101.7252,-95.17781,2.4023042,WAL
56166756424000,1.47,1.85889225873518,9.91944461897233,-1.92714885762846,0.41783184,-2.0280726,0.47433686,102.06449,-95.49726,2.4593484,WAL
56166761499000,1.475075,2.27191566757905,9.91464192381423,-1.45649421014822,0.4083634,-2.10046,0.5345071,102.41746,-95.815704,2.5193741,WAL
56166766371000,1.479947,2.53588236396882,9.85653512847657,-1.1282540534501,0.39675698,-2.1731532,0.5757405,102.79124,-96.110214,2.6402147,WAL
56166771374000,1.48495,2.6234911964681,9.72281670089501,-0.962258500057742,0.38240165,-2.2464569,0.6096435,103.18748,-96.402885,2.7698152,WAL
56166776369000,1.489945,2.70125648155717,9.56349527638704,-0.837522908756514,0.36865717,-2.314874,0.63591075,103.605896,-96.649605,2.991964,WAL
56166781490000,1.495066,2.76138859573925,9.34802136579136,-0.792423731552059,0.33750305,-2.3710735,0.655153,104.043045,-96.89117,3.214879,WAL
56166786349000,1.499925,2.82082023845333,9.16148329031632,-0.773113849165535,0.3231477,-2.4178047,0.6444628,104.49749,-97.11634,3.4519942,WAL
56166791404000,1.50498,2.8865830613235,8.99707660100912,-0.791903214515816,0.29993483,-2.4120014,0.6301075,104.95409,-97.33466,3.6886158,WAL
56166796386000,1.509962,2.98334206974053,8.84973339236959,-0.818356792872254,0.2742785,-2.3839016,0.59712076,105.41718,-97.54864,3.9253983,WAL
56166801379000,1.514955,3.14761696090769,8.73301157860953,-0.861587072530513,0.27214047,-2.3359487,0.559858,105.872826,-97.760635,4.1532683,WAL
56166806403000,1.519979,3.31978366805618,8.61943603507023,-0.906560423958314,0.27214047,-2.2708917,0.51007247,106.31015,-97.97432,4.3803253,WAL
56166811505000,1.525081,3.55002973855913,8.53530782319891,-0.964121913843226,0.2779437,-2.189341,0.4605924,106.72841,-98.183105,4.595052,WAL
56166816401000,1.529977,3.77097931934753,8.45457639918441,-1.01935928241957,0.29046643,-2.094657,0.39584067,107.10895,-98.41318,4.826631,WAL
56166821371000,1.534947,3.99365325050726,8.39108227282674,-1.00759169725482,0.30390546,-2.006387,0.33475417,107.46707,-98.6368,5.0438704,WAL
56166826381000,1.539957,4.21794727298588,8.32904328436443,-0.988502869723493,0.31337386,-1.922393,0.28038713,107.79782,-98.85174,5.2441783,WAL
56166831388000,1.544964,4.41390095780302,8.31388504973566,-0.973871436479342,0.32895094,-1.8380935,0.22082779,108.08521,-99.098816,5.4743147,WAL
56166836365000,1.549941,4.60522782092226,8.30455183473664,-0.959871906344233,0.3286455,-1.7507398,0.17562376,108.346825,-99.33631,5.692459,WAL
56166841397000,1.554973,4.69061555360713,8.31456182309317,-0.961504227847923,0.3378085,-1.7033978,0.1337795,108.582565,-99.59412,5.9383492,WAL
56166846455000,1.560031,4.75655062549636,8.32820382243605,-0.966051465998592,0.35033122,-1.6224581,0.10323623,108.78325,-99.84549,6.1751676,WAL
56166851584000,1.56516,4.82341123912227,8.34203731682704,-0.970662534498944,0.34391713,-1.5146403,0.081855945,108.952194,-100.1099,6.4408526,WAL
56166856410000,1.569986,4.8863220056184,8.35505358587186,-0.975001200239381,0.33841935,-1.4059063,0.0711658,109.09786,-100.3726,6.699788,WAL
56166861546000,1.575122,4.83282816198704,8.39898824157667,-1.00566091512959,0.35613444,-1.2980887,0.062002823,109.214455,-100.63405,6.9533105,WAL
56166866430000,1.580006,4.70655091792657,8.45960100226782,-1.05112077573434,0.37018433,-1.1881329,0.065973446,109.300224,-100.89256,7.2078586,WAL
56166871372000,1.584948,4.52702416926847,8.54233521973135,-1.03437078679434,0.37323865,-1.0836749,0.0729984,109.34977,-101.16833,7.4875197,WAL
56166876435000,1.590011,4.32459009965511,8.6347508231984,-0.994764093029588,0.38759398,-1.0177015,0.06963864,109.37957,-101.446594,7.76359,WAL
56166881374000,1.59495,4.02475938938837,8.72041638869678,-0.971355633563864,0.41416663,-0.9434814,0.069027774,109.38666,-101.71563,8.016777,WAL
56166886372000,1.599948,3.63166091041712,8.80317395753188,-0.961010950961746,0.44104472,-0.8790351,0.08460484,109.37867,-101.9879,8.271731,WAL
56166891399000,1.604975,3.25800957124147,8.8714957044111,-0.924932280882219,0.48166725,-0.8142834,0.089491755,109.36953,-102.2235,8.476852,WAL
56166896432000,1.610008,2.89415278436562,8.93286900818554,-0.876710281637108,0.51343226,-0.77763146,0.09590584,109.35044,-102.46364,8.684952,WAL
56166901370000,1.614946,2.54471635971535,8.95916176361386,-0.797950675352723,0.54611355,-0.7611381,0.094989546,109.345276,-102.65347,8.815902,WAL
56166906414000,1.61999,2.19597676957508,8.94919757466997,-0.683364807048267,0.59864795,-0.7678576,0.084910266,109.33513,-102.8509,8.94451,WAL
56166911501000,1.625077,1.89195172018898,8.9561147776378,-0.566648330267717,0.62888575,-0.7831292,0.073303826,109.35,-102.981415,8.988944,WAL
56166916438000,1.630014,1.63383146920735,8.97597058824147,-0.452479725821522,0.65087694,-0.81397796,0.05100725,109.36886,-103.11539,9.0257435,WAL
56166921380000,1.634956,1.45520916432294,8.99459917236805,-0.34536579677722,0.6618725,-0.8518516,0.046731193,109.41607,-103.19133,8.995814,WAL
56166926407000,1.639983,1.31834962522505,9.01284699658865,-0.240440188244101,0.66156703,-0.89858276,0.024740042,109.47134,-103.26132,8.953147,WAL
56166931378000,1.644954,1.23144838636735,9.03932886081633,-0.145309471627755,0.65668017,-0.9569204,0.009468411,109.55902,-103.28124,8.858127,WAL
56166936372000,1.649948,1.18752605444898,9.07349036877551,-0.0574647486783673,0.657291,-1.0192287,-0.01863139,109.6583,-103.29635,8.752112,WAL
56166941397000,1.654973,1.17858599254402,9.11392773136006,0.00638513549381791,0.6450737,-1.0485502,-0.052839845,109.77456,-103.26747,8.610596,WAL
56166946421000,1.659997,1.19661291019108,9.15899502547771,0.051452461611465,0.63285637,-1.1001683,-0.06963864,109.9136,-103.238266,8.463874,WAL
56166951377000,1.664953,1.25210610414996,9.21719606676023,0.024991278952486,0.6224717,-1.1496484,-0.09987647,110.06394,-103.178665,8.2947855,WAL
56166956393000,1.669969,1.3580423548316,9.29424114294306,-0.0953907973089415,0.59773165,-1.1866057,-0.13622294,110.223694,-103.11108,8.1197605,WAL
56166961479000,1.675055,1.48221597697264,9.34819507573354,-0.2060380545341,0.5842926,-1.2147056,-0.16829337,110.39564,-103.03336,7.9405317,WAL
56166966771000,1.680347,1.6329310143636,9.37331423988898,-0.306514784597542,0.5766568,-1.2296717,-0.20372356,110.571945,-102.946815,7.751797,WAL
56166971361000,1.684937,1.77336587698672,9.38145467341736,-0.424944318210506,0.5888741,-1.2544118,-0.22204952,110.75112,-102.88993,7.5784473,WAL
56166976410000,1.689986,1.94083927365788,9.37215064979796,-0.597069770409852,0.61483586,-1.2501358,-0.23609942,110.9239,-102.83168,7.399966,WAL
56166981366000,1.694942,2.09924720525683,9.35089750936265,-0.719752720661399,0.64721173,-1.2137892,-0.23640485,111.08254,-102.81148,7.2524853,WAL
56166986371000,1.699947,2.24746485050679,9.30560853603333,-0.752689967040886,0.66737026,-1.1930199,-0.24648413,111.242035,-102.79251,7.1001935,WAL
56166991688000,1.705264,2.42604763678598,9.2647985094499,-0.791520919040228,0.70463306,-1.1685852,-0.24373524,111.37309,-102.83911,6.9911537,WAL
56166996436000,1.710012,2.84373833584627,9.31761029637842,-0.873138632971175,0.7507534,-1.1270463,-0.24190263,111.49124,-102.8919,6.8827415,WAL
56167001388000,1.714964,3.26016748693305,9.37389666949735,-0.945881235697035,0.75991637,-1.1004738,-0.23915374,111.59204,-102.9748,6.8154407,WAL
56167006400000,1.719976,3.5381900549676,9.43986823890634,-0.927032262961909,0.766025,-1.067487,-0.23640485,111.6777,-103.06814,6.75213,WAL
56167011455000,1.725031,3.81587287412558,9.51145256367411,-0.90369771996056,0.7696902,-1.0360274,-0.21930063,111.719406,-103.224266,6.783332,WAL
56167016389000,1.729965,4.06108299559938,9.62915317208095,-0.839943122175402,0.7528914,-1.0100657,-0.22021692,111.75133,-103.37277,6.8109365,WAL
56167021383000,1.734959,4.27557360259307,9.75090439750516,-0.800409788843925,0.7473936,-0.98715824,-0.21288654,111.758896,-103.55118,6.904247,WAL
56167026386000,1.739962,4.30381015915922,9.88738098929378,-0.899237800708182,0.7360926,-0.93859446,-0.21471913,111.75087,-103.7203,6.9954543,WAL
56167031395000,1.744971,4.35592908379023,10.0236367981724,-0.978474183154549,0.7110472,-0.88361657,-0.19608775,111.72308,-103.89665,7.141183,WAL
56167037252000,1.750828,4.62334912768176,10.1796314892729,-0.900476663081049,0.68386364,-0.7996226,-0.15577064,111.67494,-104.07072,7.2935367,WAL
56167041417000,1.754993,4.80642776296394,10.2916264860051,-0.844941231692551,0.6377433,-0.7654142,-0.12797627,111.62531,-104.24537,7.445238,WAL
56167046425000,1.760001,4.97054687009739,10.4347049185751,-0.777610326085812,0.63194007,-0.7440339,-0.12064589,111.55743,-104.42401,7.602565,WAL
56167051396000,1.764972,5.13345343590419,10.5767262620865,-0.71077687325612,0.6188065,-0.74281216,-0.11453723,111.47592,-104.5997,7.8074427,WAL
56167056369000,1.769945,5.21060282081315,10.7874848749859,-0.707962123335961,0.6133087,-0.7443393,-0.09865474,111.3918,-104.77702,8.0125675,WAL
56167061506000,1.775082,5.2637392329872,11.014615785059,-0.717209069896159,0.6047566,-0.7128797,-0.05222898,111.301796,-104.954796,8.224572,WAL
56167066303000,1.779879,5.21742417138825,11.1581925727392,-0.703314551416473,0.6035349,-0.6737844,-0.0143553335,111.20182,-105.13394,8.46654,WAL
56167071420000,1.784996,5.16521446525431,11.3090850629166,-0.682642424856178,0.6068946,-0.63316184,0.016187929,111.101654,-105.3128,8.717224,WAL
56167076349000,1.789925,5.07900467541777,11.4254681554196,-0.587811836074331,0.600786,-0.58368176,0.056199603,110.993195,-105.49612,8.976678,WAL
56167081292000,1.794868,4.99255002109396,11.5421818146288,-0.492711896867866,0.58246,-0.5516113,0.08124508,110.893394,-105.661385,9.218875,WAL
56167086299000,1.799875,4.85529278029153,11.6381488357121,-0.337573963539832,0.5748242,-0.5195409,0.10170906,110.783714,-105.83289,9.46693,WAL
56167091312000,1.804888,4.70950323155178,11.7304821150926,-0.172345686515842,0.550695,-0.4978552,0.11881329,110.6711,-105.999374,9.71543,WAL
56167096303000,1.809879,4.55207874807491,11.7491969701493,-0.0929903486982603,0.4981606,-0.48655418,0.122783914,110.57411,-106.12187,9.936164,WAL
56167101330000,1.814906,4.39189312306303,11.7583506119403,-0.0243394197334347,0.44073927,-0.45723262,0.14019357,110.46909,-106.24346,10.161841,WAL
56167106388000,1.819964,4.31368156786364,11.7274949449392,-0.0168710633344824,0.39095375,-0.4334089,0.14874569,110.38435,-106.30715,10.349136,WAL
56167111397000,1.824973,4.25855935273389,11.6861533075745,-0.0260581214132912,0.33383787,-0.37598756,0.1469131,110.28305,-106.35969,10.537481,WAL
56167116352000,1.829928,4.25994973731405,11.7333698485384,-0.0705483786643087,0.26328292,-0.30451632,0.14844026,110.19414,-106.36842,10.692804,WAL
56167121331000,1.834907,4.28475098936856,11.8176937947571,-0.130071425030688,0.17195857,-0.24556783,0.1554652,110.09315,-106.36405,10.848261,WAL
56167126374000,1.83995,4.17810181065066,11.9709777515492,-0.226977182292796,0.07941248,-0.19975294,0.17928895,109.98245,-106.34693,10.999205,WAL
56167131364000,1.84494,4.03466288849729,12.1421790083269,-0.33339954232378,-0.004886922,-0.16432275,0.22143865,109.85991,-106.32119,11.156756,WAL
56167136346000,1.849922,3.84111867735776,12.323805246249,-0.479882557139517,-0.0983493,-0.1518,0.28893927,109.73489,-106.29351,11.325843,WAL
56167141733000,1.855309,3.60990741971941,12.5248585936282,-0.655804132439595,-0.13805555,-0.1591304,0.37048978,109.60939,-106.27593,11.507731,WAL
56167146393000,1.859969,3.37870321392454,12.571289843325,-1.01711337946753,-0.31215215,-0.1695151,0.41355577,109.50047,-106.20673,11.658737,WAL
56167151386000,1.864962,3.1176834519345,12.5667106952212,-1.4933600357307,-0.3680463,-0.14844026,0.4831944,109.39091,-106.181435,11.8378315,WAL
56167156414000,1.86999,2.9549267288204,12.5015928027767,-1.8901227887948,-0.5021312,-0.09896017,0.5308419,109.2979,-106.097206,11.972287,WAL
56167161524000,1.8751,2.86337375294407,12.3907652752068,-2.23224191778259,-0.66614854,-0.029932396,0.58001655,109.196236,-106.019325,12.1260805,WAL
56167166460000,1.880036,2.79244928357859,12.3067629409504,-2.59394495005155,-0.8399397,0.03726278,0.63804877,109.09823,-105.95128,12.245474,WAL
56167171369000,1.884945,2.7351652704096,12.240665595651,-2.97730711416253,-0.9990701,0.12889257,0.711658,108.9751,-105.87683,12.3855715,WAL
56167176434000,1.89001,2.66624436962155,12.1337416017729,-3.33556623927719,-1.1792754,0.22907446,0.7797695,108.831764,-105.8142,12.527927,WAL
56167181399000,1.894975,2.5851859624446,11.9756779574668,-3.63548224426355,-1.3478742,0.321926,0.82558435,108.66538,-105.74485,12.685504,WAL
56167186445000,1.900021,2.50584694062058,11.8067148938296,-3.93001946488685,-1.5360206,0.4352415,0.86559606,108.46136,-105.698074,12.851452,WAL
56167191388000,1.904964,2.46399928064003,11.5430740984795,-4.09741045438472,-1.7464638,0.5421429,0.88147855,108.23278,-105.633,13.022867,WAL
56167196416000,1.909992,2.42143200684229,11.2748997268388,-4.26767990516266,-1.9437732,0.64934975,0.8738427,107.96932,-105.577896,13.186259,WAL
56167201371000,1.914947,2.26284041440329,11.1272576871493,-4.1387203546951,-2.147802,0.7675522,0.8677341,107.67229,-105.503235,13.35401,WAL
56167206423000,1.919999,2.07278750082305,11.0050812191358,-3.93509224650206,-2.3515258,0.8573494,0.8604037,107.35153,-105.41005,13.516485,WAL
56167211632000,1.925208,1.80999605625317,11.3260967411502,-3.60894378588092,-2.5124888,0.91599244,0.852157,107.00055,-105.3266,13.675114,WAL
56167216410000,1.929986,1.54080414689117,11.8087854798661,-3.2608508079927,-2.6520715,0.9789116,0.8445212,106.62188,-105.232925,13.828314,WAL
56167221366000,1.934942,1.20423955017364,12.4420227919641,-2.79430455571098,-2.7608054,0.9960158,0.8127562,106.23984,-105.09691,13.940581,WAL
56167226407000,1.939983,0.836319641269535,13.145262473471,-2.27269649064249,-2.8096747,0.9407325,0.7473936,105.857506,-104.9619,14.034043,WAL
56167231373000,1.944949,0.394172189961438,13.8664720723293,-1.94264049365294,-2.8371637,0.80909103,0.6783658,105.48315,-104.752686,14.049417,WAL
56167236389000,1.949965,-0.101470229206879,14.6124388366858,-1.72235502513809,-2.8283062,0.71593404,0.62858033,105.10712,-104.557465,14.046483,WAL
56167241391000,1.954967,-0.573107953089263,15.1486629739199,-1.70639641988977,-2.8182268,0.5357288,0.623388,104.77215,-104.27793,13.944546,WAL
56167246537000,1.960113,-1.04842146661943,15.6094257153823,-1.77914848234426,-2.7889054,0.39278635,0.605062,104.44453,-104.01928,13.823134,WAL
56167251370000,1.964946,-1.33275776981943,15.7889573144285,-1.88422839268058,-2.7327056,0.26450464,0.5888741,104.1243,-103.69059,13.596627,WAL
56167256439000,1.970015,-1.55403503832398,15.8570426756662,-2.01188841167602,-2.6371052,0.15790866,0.5815437,103.83173,-103.40124,13.370527,WAL
56167261419000,1.974995,-1.64821329835056,15.7690053065758,-2.12919362040906,-2.5341744,0.0888809,0.56199604,103.52791,-103.0519,13.04938,WAL
56167266413000,1.979989,-1.55354882678689,15.4429395012096,-2.23437624455685,-2.4211645,0.062002823,0.5354234,103.23692,-77.262726,12.7325,WAL
56167271368000,1.984944,-1.35307142130921,15.037825256207,-2.23797319113827,-2.332589,0.06536258,0.49846604,102.934784,-77.59524,12.372116,WAL
56167276414000,1.98999,-1.06696343814458,14.5625168236249,-2.16413891642475,-2.26631,0.086437434,0.45906523,102.63163,-77.90383,12.013025,WAL
56167281374000,1.99495,-0.693628312594087,14.1193048825336,-2.05872368833231,-2.2241604,0.093767814,0.41874814,102.33221,-78.176094,11.671626,WAL
56167286373000,1.999949,-0.214841744120537,13.6993165222388,-1.91592766337398,-2.200642,0.064751714,0.38606682,102.0347,-78.431076,11.328465,WAL
56167291358000,2.004934,0.2984543353147,13.2191384195648,-1.75809496101984,-2.1960607,0.026267206,0.37384954,101.751625,-78.60597,11.04491,WAL
56167296479000,2.010055,0.983819267614679,12.4552962545872,-1.52789601376147,-2.2049181,-0.00030543262,0.3555236,101.47173,-78.76802,10.754273,WAL
56167301350000,2.014926,1.63205051745666,11.7533311111835,-1.26976992984267,-2.2061398,-0.02076942,0.32895094,101.236885,-78.81162,10.561025,WAL
56167306445000,2.020021,2.30193268280389,11.0736699054013,-0.912825431796773,-2.1832323,-0.054367006,0.27580565,101.013115,-78.84914,10.356651,WAL
56167311441000,2.025017,2.88475505576185,10.5687960082121,-0.672806806646434,-2.1138992,-0.029932396,0.23426682,100.83265,-78.751755,10.27042,WAL
56167316382000,2.029958,3.31558057359636,10.3871729104704,-0.651687892974203,-2.0143282,0.09315695,0.23396139,100.63393,-78.65035,10.178375,WAL
56167321401000,2.034977,3.7341114015054,10.203803712786,-0.65078654503714,-1.9364429,0.2828306,0.23915374,100.47041,-78.41068,10.203267,WAL
56167327106000,2.040682,3.97760986441517,10.0090053944736,-0.899696293957611,-1.8851302,0.5326745,0.23243423,100.25675,-78.17519,10.217936,WAL
56167331445000,2.045021,4.15155137045979,9.84204526042961,-1.06940616303923,-1.8692477,0.82253003,0.2180789,100.02333,-77.862015,10.311199,WAL
56167336386000,2.049962,4.21455398865613,9.42622936623469,-1.02740454914788,-1.8646661,0.958753,0.204029,99.765625,-77.553055,10.39716,WAL
56167341394000,2.05497,4.27841092286526,9.00477500514823,-0.984833393032132,-1.8512272,1.1722504,0.13408493,99.42617,-77.24765,10.48758,WAL
56167346425000,2.060001,4.26786298206936,8.61744665285173,-0.96743986605267,-1.8118263,1.3942999,0.0580322,99.04917,-76.95179,10.563828,WAL
56167351357000,2.064933,4.2406747376601,8.24587369536144,-0.956111419053101,-1.7767016,1.6132951,-0.0009162979,98.616844,-76.66971,10.613987,WAL
56167356443000,2.070019,4.2126375496906,7.86269850035017,-0.944429245200748,-1.7314975,1.8176296,-0.032375857,98.13325,-76.37601,10.665524,WAL
56167361498000,2.075074,4.18477125295726,7.48185882068403,-0.932818276104475,-1.6646078,2.039679,-0.06719518,97.588036,-76.1065,10.686594,WAL
56167366374000,2.07995,4.10991231433679,7.27301796439042,-0.969935025008938,-1.5598444,2.228742,-0.09101892,96.986336,-75.86,10.688336,WAL
56167371381000,2.084957,4.00704970214516,7.14443965439757,-1.0342241128754,-1.4456125,2.3924537,-0.067500606,96.33108,-75.626396,10.6816635,WAL
56167376402000,2.089978,3.87034748684437,7.12833898624248,-1.11025085657782,-1.314582,2.5002716,-0.002443461,95.64438,-75.38554,10.68694,WAL
56167381378000,2.094954,3.68595898297506,7.27687451160791,-1.20244510851247,-1.1615603,2.5781567,0.11789699,94.9189,-75.15697,10.705639,WAL
56167386372000,2.099948,3.50694987396345,7.51803806867754,-1.22467583621537,-1.0369438,2.6215281,0.26389378,94.13294,-74.958694,10.7178755,WAL
56167391396000,2.104972,3.33204181658479,7.83949040115936,-1.18685792055414,-0.90285885,2.6145031,0.42180246,93.33425,-74.76969,10.763995,WAL
56167397064000,2.11064,3.09046938117787,8.2292055304417,-1.18673143211301,-0.7809912,2.6019804,0.57971114,92.492386,-74.62179,10.805277,WAL
56167401373000,2.114949,2.88109917784521,8.54120829481695,-1.21136320561082,-0.6740898,2.6267207,0.7244862,91.63478,-74.47322,10.883712,WAL
56167406503000,2.120079,2.60632095237952,8.73193656383723,-1.25569347739452,-0.61361414,2.6881125,0.8185594,90.71048,-74.36711,10.93306,WAL
56167411418000,2.124994,2.31925138964207,8.74605478094381,-1.31216619840032,-0.62949663,2.7305677,0.88789266,89.77816,-74.24696,11.0139265,WAL
56167416379000,2.129955,1.92781312384314,8.28185453711765,-1.15500049060784,-0.6597345,2.7424796,0.926988,88.77792,-74.1921,11.037369,WAL
56167421372000,2.134948,1.43089135827451,7.33020254129412,-0.779965197686274,-0.6753115,2.7534752,0.9483683,87.76354,-74.13023,11.071675,WAL
56167426396000,2.139972,1.04474955535714,6.60038754664443,-0.40461820163854,-0.689056,2.7320948,0.93676186,86.698746,-74.12466,11.036886,WAL
56167431426000,2.145002,0.794251064285714,6.14192796962323,-0.0312336174646782,-0.6805039,2.7210991,0.8943067,85.62992,-74.125984,10.997781,WAL
56167436403000,2.149979,0.548067806851132,5.78846597500237,0.285114417164787,-0.6435465,2.643214,0.86620694,84.53679,-74.10507,10.898232,WAL
56167441406000,2.154982,0.302896818241258,5.57053618627878,0.530285391552165,-0.6264423,2.5390613,0.8237518,83.46061,-74.0979,10.783331,WAL
56167446411000,2.159987,0.051953674460888,5.37467396828753,0.737009186046512,-0.5647449,2.4126122,0.7675522,82.40122,-74.0727,10.63493,WAL
56167451377000,2.164953,-0.209466833505285,5.22888165733615,0.857664796627907,-0.46700647,2.3160956,0.70432764,81.36976,-74.07215,10.474994,WAL
56167456400000,2.169976,-0.45855604211294,5.09345472898394,0.972325719375185,-0.39003745,2.2525656,0.64721173,80.3415,-74.07831,10.260846,WAL
56167461424000,2.175,-0.686156907472159,4.97491268897211,1.07664278885385,-0.35002577,2.165212,0.57635134,79.35709,-74.11378,10.03126,WAL
56167466855000,2.180431,-0.897140616386601,4.83609272597474,1.33923568462383,-0.3576616,2.0925188,0.50946164,78.35536,-74.18019,9.735262,WAL
56167471418000,2.184994,-1.0371245024492,4.70810738330588,1.71919192531576,-0.36743546,2.0015,0.4447099,77.39423,-74.26683,9.426669,WAL
56167476361000,2.189937,-1.16280756740669,4.54869948542471,2.12068439834835,-0.35094208,1.8383989,0.38362336,76.446686,-74.379906,9.057405,WAL
56167481392000,2.194968,-1.18347723989704,4.3006639011583,2.48757045105105,-0.24801129,1.6062702,0.34513888,75.55488,-74.515305,8.687388,WAL
56167486351000,2.199927,-1.16775059440403,4.12984273126282,2.71764987469688,-0.08307768,1.3182472,0.3155119,74.72924,-74.602036,8.295343,WAL
56167491398000,2.204974,-1.07759174331281,4.10730304202574,2.68158632484611,0.12095132,1.0571023,0.28710666,73.97375,-74.72292,7.9075165,WAL
56167496424000,2.21,-0.970621192677743,4.09849201945518,2.64909723910356,0.27458394,0.8436049,0.23090707,73.30968,-74.79466,7.5341315,WAL
56167501375000,2.214951,-0.796571590311051,4.14429484342156,2.63077624343122,0.321926,0.6618725,0.16676621,72.72284,-74.88802,7.167794,WAL
56167506486000,2.220062,-0.615157162958452,4.18903830934093,2.61777940264218,0.30909783,0.47555858,0.116980694,72.22091,-74.9943,6.834981,WAL
56167511461000,2.225037,-0.427966872785581,4.21711673827718,2.64117817486494,0.2724459,0.28680122,0.083383106,71.78264,-75.10588,6.503833,WAL
56167516399000,2.229975,-0.240853086178445,4.24788301239637,2.66647338645874,0.25809056,0.096516706,0.061086524,71.428894,-75.19961,6.226576,WAL
56167521390000,2.234966,-0.0380000289459139,4.30921063916305,2.71364848397157,0.2932153,-0.07727446,0.033292156,71.13263,-75.29584,5.9523277,WAL
56167526457000,2.240033,0.167324047946367,4.37662069515571,2.76141916591695,0.32070425,-0.2501493,0.015882496,70.91878,-75.3544,5.742608,WAL
56167531430000,2.245006,0.360956978905709,4.50845595761246,2.80673756427336,0.35308012,-0.3381139,-0.0018325958,70.73637,-75.42239,5.5329785,WAL
56167536602000,2.250178,0.562338342051038,4.64556675138408,2.85386942759516,0.36743546,-0.50701815,-0.0076358155,70.64936,-75.45917,5.3955803,WAL
56167541412000,2.254988,0.741098749996073,4.79711260239544,2.96590215860986,0.42302418,-0.64843345,-0.016493361,70.58374,-75.51463,5.2580547,WAL
56167546374000,2.25995,0.923043033573532,4.9603958201453,3.10119406503043,0.44012842,-0.77213365,-0.032070424,70.56406,-75.56193,5.128681,WAL
56167551376000,2.264952,1.09300675180662,5.19317908952362,3.30861765685305,0.5018258,-0.8885035,-0.050701816,70.602234,-75.6092,5.06236,WAL
56167556414000,2.26999,1.2585730353149,5.45613716392814,3.54722782166936,0.5503896,-1.0012082,-0.07544186,70.676735,-75.65761,4.999036,WAL
56167561422000,2.274998,1.35751521119374,5.71856044699609,3.77566446952055,0.6133087,-1.0925325,-0.09987647,70.79557,-75.686615,4.9843683,WAL
56167566381000,2.279957,1.43186566317025,5.97878717448141,3.9987158739726,0.6783658,-1.1695015,-0.13469578,70.944435,-75.73103,4.9669666,WAL
56167571417000,2.284993,1.41151648656032,6.12520168387621,4.15215078963607,0.73456544,-1.2067643,-0.1826487,71.12365,-75.739105,4.9812727,WAL
56167576426000,2.290002,1.34736683742478,6.21684427901423,4.27128609154647,0.7644979,-1.248914,-0.2574797,71.329285,-75.762596,4.983896,WAL
56167581379000,2.294955,1.33775078284431,6.50669399646373,4.40258892848131,0.7623598,-1.2513574,-0.36682457,71.545235,-75.7571,4.9783907,WAL
56167586371000,2.299947,1.36516584682214,6.93619779460958,4.54423362449584,0.6747007,-1.2092078,-0.47158796,71.76482,-75.74295,4.9535174,WAL
56167591410000,2.304986,1.52808670057176,7.67779645837775,4.62300629188875,0.5537493,-1.1218541,-0.58032197,71.97883,-75.71316,4.8761544,WAL
56167596433000,2.310009,1.82643688577382,8.72668345934684,4.63699139673418,0.40958515,-0.929126,-0.66706485,72.15857,-75.65987,4.7677946,WAL
56167601378000,2.314954,2.18808215692399,9.99502830256005,4.67743547458733,0.2687807,-0.6960809,-0.72051555,72.30809,-75.573814,4.6280837,WAL
56167606413000,2.319989,2.64563336503904,11.596457655382,4.75369420004942,0.15485434,-0.45662177,-0.72387534,72.407715,-75.4577,4.468244,WAL
56167611415000,2.324991,3.0427684010283,13.0380592094811,4.76043198682075,0.04642576,-0.20708331,-0.6936375,72.4357,-75.35303,4.3387423,WAL
56167616374000,2.32995,3.35639078890094,14.258946179316,4.67082559362736,-0.067500606,0.049480084,-0.61483586,72.394325,-75.21373,4.208071,WAL
56167621349000,2.334925,3.67102506590566,15.4837722883962,4.58093008926415,-0.18387043,0.3539964,-0.49480084,72.25797,-75.10592,4.1485786,WAL
56167626406000,2.339982,3.99084527471226,16.7287864861085,4.48955289015566,-0.2843578,0.5338962,-0.30024028,72.074196,-74.96493,4.121981,WAL
56167631359000,2.344935,4.26795382939879,17.7314812320453,4.46095268980727,-0.38423425,0.91324353,-0.18692477,71.75087,-74.79531,4.0693502,WAL
56167636368000,2.349944,4.36454727204909,17.6440871740339,4.74153401735545,-0.40042216,1.1921035,-0.069027774,71.39126,-74.61327,4.0637827,WAL
56167641427000,2.355003,4.39637820591206,17.3990372346009,5.02663699673203,-0.38820487,1.3869696,-0.03359759,70.91579,-74.599396,4.1112123,WAL
56167646434000,2.36001,3.77906404539513,15.6088254898,5.32579706535948,-0.34605515,1.5005904,0.010995574,70.37339,-74.577324,4.1707144,WAL
56167651458000,2.365034,3.15340676095624,13.7911675984119,5.61486291633722,-0.27458394,1.525636,0.06811147,69.8134,-74.49897,4.2504783,WAL
56167656387000,2.369963,2.46755593875655,11.7615279780368,5.77037557274877,-0.19425514,1.4602734,0.11728613,69.24207,-74.434395,4.3303537,WAL
56167661438000,2.375014,1.76472929989863,9.68165179168779,5.929737396148,-0.10567969,1.3426818,0.13744467,68.709915,-74.26194,4.3455615,WAL
56167666372000,2.379948,1.07217091588518,7.46289674287466,5.98271695889263,-0.021380283,1.2690725,0.13988814,68.18086,-74.114944,4.3683667,WAL
56167671356000,2.384932,0.370032200257432,5.1419380611707,5.99246887863929,0.092240654,1.1859949,0.122783914,67.68623,-74.006256,4.3984184,WAL
56167676397000,2.389973,0.14782946487643,4.29499564791807,5.68108618526781,0.2098322,1.1090258,0.06841691,67.26312,-73.800705,4.322325,WAL
56167681380000,2.394956,0.10193925497067,3.99212034016732,5.25889617938263,0.33536503,1.0283916,-0.0571159,66.87204,-73.63829,4.2286067,WAL
56167686380000,2.399956,0.249459839392128,4.17076384743398,4.6995637103139,0.3643811,0.9101892,-0.12705997,66.545265,-73.393585,4.0513225,WAL
56167691401000,2.404977,0.498630519370204,4.60202081471849,4.06705370511211,0.3032946,0.72784597,-0.16768251,66.270355,-73.16139,3.8586428,WAL
56167696432000,2.410008,0.568160900769075,5.25005556754706,3.49734093022667,0.18997909,0.4810564,-0.21655174,66.04061,-72.983635,3.655353,WAL
56167701372000,2.414948,0.544223726350941,5.99689523542805,2.97072308302975,0.05589417,0.16279559,-0.25900686,65.88739,-72.78003,3.4635222,WAL
56167706401000,2.419977,0.384783002923737,6.88954522412829,2.46914821887004,-0.005497787,-0.19303341,-0.33108896,65.78506,-72.69218,3.3176248,WAL
56167711455000,2.425031,0.159157496729442,7.8507094406116,1.98179716205482,0.030543262,-0.57940567,-0.43463063,65.7862,-72.59559,3.181542,WAL
56167716368000,2.429944,0.0432586719669825,8.91830070650033,1.45678580211988,0.15332718,-0.9569204,-0.5696318,65.848015,-72.65322,3.031913,WAL
56167721894000,2.43547,0.0134745427258231,10.2486589008536,0.816427054535222,0.31887165,-1.294118,-0.7318166,66.01573,-72.73732,2.87661,WAL
56167726393000,2.439969,0.129079052292457,11.6491987366203,0.143520943763169,0.46273044,-1.4391985,-0.89919364,66.182,-73.02882,2.6297278,WAL
56167731379000,2.444955,0.451034107184998,13.6412958895912,-0.81228317469448,0.5149594,-1.7061466,-0.9755518,66.479256,-73.33722,2.4026597,WAL
56167736371000,2.449947,0.912764005799819,15.2570273125693,-1.91175598316702,0.559858,-1.8848248,-1.0989466,66.72595,-73.887054,2.092,WAL
56167741400000,2.454976,1.51957987364983,16.4997859254107,-3.16422384568088,0.56505036,-1.8845193,-1.1395692,66.99423,-74.42343,1.7922624,WAL
56167746474000,2.46005,2.11956421302605,17.4065847895792,-4.03423462705411,0.5320636,-1.6029104,-1.071763,67.12476,-75.21561,1.5133768,WAL
56167751375000,2.464951,2.68840311124153,17.9799021700544,-4.53140887609505,0.4541783,-1.0784826,-0.8210029,67.17734,-75.95931,1.2602767,WAL
56167756500000,2.470076,3.2806151190344,17.8979247439278,-4.54504031711113,0.26847526,-0.49266282,-0.42913285,67.01082,-76.894485,1.1234331,WAL
56167761486000,2.475062,3.85340657165659,16.946429167245,-3.91070945483295,0.06261369,-0.0720821,-0.086132,66.739296,-77.74998,1.0192306,WAL
56167766346000,2.479922,4.34316734127603,15.7487103195778,-3.28470532783113,-0.076052725,0.14294247,0.19181168,66.3187,-78.61775,1.067721,WAL
56167771378000,2.484954,4.74639642455073,14.0991358401635,-2.62487553606542,-0.12370021,0.17592919,0.43188173,65.83043,-79.39663,1.1803366,WAL
56167776365000,2.489941,5.09153136535465,12.4063254607934,-2.16580630692907,-0.0842994,0.12614368,0.5671884,65.36785,-79.971466,1.4421452,WAL
56167781381000,2.494957,5.30818163940139,10.5647986969557,-2.17073017211972,-0.005497787,0.108123146,0.61422503,64.89107,-80.502846,1.7325568,WAL
56167786349000,2.499925,5.46163623072232,8.84547555779493,-2.26563032526205,0.0888809,0.08399397,0.6068946,64.49135,-80.844345,2.1339881,WAL
56167792018000,2.505594,5.50302436047265,7.11234627396608,-2.5708679442348,0.19517145,0.04642576,0.55955255,64.10578,-81.17773,2.5306222,WAL
56167796416000,2.509992,5.42181737896927,6.01690912641135,-2.79212228990071,0.36682457,-0.0106901415,0.5155703,63.714348,-81.4815,2.9613414,WAL
56167801373000,2.514949,5.01779848849173,5.46923881341844,-2.99862092558865,0.6032294,-0.11178834,0.5112942,63.3502,-81.79157,3.3905153,WAL
56167806435000,2.520011,4.56648039304675,4.9257474635554,-3.14997728585374,0.86070913,-0.34972036,0.43096542,62.930832,-82.17853,3.768928,WAL
56167811475000,2.525051,3.88450814437404,4.47936560844323,-2.94331898682994,1.0772609,-0.6774496,0.21685717,62.573772,-82.581696,4.1168375,WAL
56167816464000,2.53004,3.20943680536051,4.03750071257921,-2.73875187297482,1.2767084,-1.0033462,-0.014049901,62.16976,-83.115944,4.3377295,WAL
56167821370000,2.534946,2.48989110497773,3.76711010137517,-2.43509091509781,1.4056009,-1.1435398,-0.23487769,61.81231,-83.64764,4.509724,WAL
56167826373000,2.539949,1.74284911408096,3.53046946108851,-2.10101004251404,1.4895949,-1.4196508,-0.3408628,61.587826,-84.14063,4.6639524,WAL
56167831376000,2.544952,0.700487401311937,3.77246104307432,-1.34722914122354,1.5106697,-1.6264287,-0.5476407,61.36972,-84.70798,4.5910735,WAL
56167836364000,2.54994,-0.447118956428303,4.18936487978604,-0.441696056515578,1.5155567,-1.8826867,-0.743423,61.239635,-85.193756,4.4993653,WAL
56167841398000,2.554974,-1.0393097356367,4.7791174451727,-0.0374593433905535,1.4740179,-2.1859813,-0.88239485,61.2819,-85.65702,4.260237,WAL
56167846453000,2.560029,-1.25587890445693,5.48422631065335,0.0280150476550146,1.3924674,-2.4572055,-0.97097033,61.380848,-86.020096,3.9799042,WAL
56167851372000,2.564948,-1.30014302570915,6.21928291840015,-0.0593977536770045,1.2938126,-2.6450465,-1.0097603,61.839924,-93.55797,3.5168257,WAL
56167856388000,2.569964,-1.26834829204803,6.99144005833964,-0.218371294875189,1.1322387,-2.715296,-1.0122037,62.33988,-93.20614,3.0340693,WAL
56167861809000,2.575385,-1.155085493792,8.00932688928,-0.516099470816,0.9456194,-2.7354546,-0.9828822,62.896416,-92.899734,2.4982567,WAL
56167866374000,2.57995,-1.01518750200533,8.96995968181333,-0.837864847056,0.75991637,-2.7134633,-0.93492925,63.45893,-92.69924,1.9645934,WAL
56167871370000,2.584946,-0.802385185997213,9.78758952930794,-1.03359321653971,0.59223384,-2.6267207,-0.8573494,63.996456,-92.63266,1.4453665,WAL
56167876397000,2.589973,-0.560889520935439,10.503132195634,-1.15881321817,0.4636467,-2.515543,-0.7816021,64.51865,-92.66801,0.94125587,WAL
56167881375000,2.594951,-0.227068124270957,11.0681779894544,-1.14741442958141,0.37934732,-2.4193318,-0.6994407,64.99111,-92.85034,0.48665676,WAL
56167886372000,2.599948,0.190050102985042,11.5110445752717,-1.01867422303885,0.35155296,-2.3612995,-0.61911196,65.44051,-93.089554,0.058362268,WAL
56167891397000,2.604973,0.626925065023128,11.6485629426238,-0.941574187324082,0.3472769,-2.3536637,-0.5412266,65.86603,-93.37308,-0.28941855,WAL
56167896472000,2.610048,1.07654771924023,11.6389963104025,-0.888958758970574,0.3848451,-2.3918428,-0.44257188,66.28675,-93.67627,-0.6038168,WAL
56167901371000,2.614947,1.4260518882384,11.3246666026723,-1.0960611519339,0.47433686,-2.414445,-0.34025195,66.70832,-93.949585,-0.80995923,WAL
56167906396000,2.619972,1.73909123357068,10.8381868822082,-1.44717286738748,0.58062744,-2.3457224,-0.25595254,67.11372,-94.230446,-0.9898409,WAL
56167911437000,2.625013,1.99669997513751,10.2757180620462,-1.85291930446645,0.70341134,-2.162463,-0.16401732,67.48818,-94.49763,-1.0454594,WAL
56167916414000,2.62999,2.15924967117712,9.59930105511551,-2.34056833783278,0.86070913,-1.8964312,-0.0870483,67.81871,-94.7938,-1.079138,WAL
56167921371000,2.634947,2.27211088029395,9.08787094043705,-2.69187524465287,1.0238101,-1.767844,-0.023518313,68.0815,-95.19443,-1.0274385,WAL
56167926395000,2.639971,2.34654740088958,8.70173218816477,-2.93844604302843,1.10139,-1.539075,0.005192355,68.239296,-95.61055,-0.95835435,WAL
56167931358000,2.644934,2.46618828619792,8.43258824322917,-3.02678044036458,1.2626585,-1.3439035,0.06169739,68.299164,-96.19738,-0.84411556,WAL
56167936369000,2.649945,2.636983784375,8.28262101875,-2.947631434375,1.4123205,-1.1808025,0.12522738,68.30374,-96.800575,-0.7170211,WAL
56167941363000,2.654939,2.81621833694737,8.14704764736842,-2.80030481793684,1.5460999,-1.0668762,0.21471913,68.23476,-97.506256,-0.5584843,WAL
56167946437000,2.660013,3.04127934568421,8.07543748421053,-2.32460759722105,1.6847663,-1.0262536,0.29932398,68.14333,-98.25263,-0.38273084,WAL
56167951353000,2.664929,3.22226929726504,8.02862133316758,-1.88855486394828,1.7919732,-1.056186,0.37507126,68.051796,-99.00861,-0.14574105,WAL
56167956421000,2.669997,3.30975823040776,8.0406887048732,-1.50541355992044,1.8359555,-1.1462886,0.43096542,67.96986,-99.78446,0.10523621,WAL
56167961521000,2.675097,3.39779957986077,8.05283227150671,-1.11985305271009,1.8206838,-1.29198,0.46853364,67.97086,-100.47695,0.4136961,WAL
56167966459000,2.680035,3.47794883597031,8.06994313842347,-0.730248322477201,1.743104,-1.4202617,0.47586402,67.99325,-101.164665,0.7210717,WAL
56167971385000,2.684961,3.49795957480382,8.14998602410746,-0.149936457510074,1.6310102,-1.5302174,0.47158796,68.05235,-101.8373,1.0240381,WAL
56167976418000,2.689994,3.51840497645811,8.23176755956168,0.442980638791092,1.466382,-1.6227635,0.43279803,68.203865,-102.34266,1.3414913,WAL
56167981375000,2.694951,3.4875770483707,8.30658892965417,0.908746590796042,1.3038919,-1.6844609,0.3820962,68.37406,-102.81676,1.6449132,WAL
56167986431000,2.700007,3.28540455654897,8.36372535517836,0.987857612148498,1.1606439,-1.7110336,0.3182608,68.55462,-103.24754,1.9257879,WAL
56167991456000,2.705032,3.0815137715697,8.42015851920966,1.05498360407245,1.0225884,-1.690875,0.25503623,68.80639,-103.45535,2.1936176,WAL
56167996512000,2.710088,2.81167142702862,8.4692204609474,0.87100020402854,0.9306532,-1.6209309,0.1872302,69.044,-103.63493,2.4409308,WAL
56168001369000,2.714945,2.5524498551465,8.51635136502575,0.694258239231614,0.8741482,-1.5125023,0.09896017,69.28733,-103.74894,2.6156569,WAL
56168006431000,2.720007,2.33859617750406,8.62185113014418,0.509426120310322,0.80848014,-1.4138476,0.0012217305,69.506226,-103.83097,2.771183,WAL
56168011488000,2.725064,2.15362562263917,8.75595458082689,0.324455584759859,0.7644979,-1.3411547,-0.12217305,69.69228,-103.89709,2.8990283,WAL
56168016397000,2.729973,2.11769079748647,8.91869361774942,0.175219266784223,0.75777835,-1.2910637,-0.23945917,69.86697,-103.96966,2.9327977,WAL
56168021386000,2.734962,2.18697548675561,9.1080716012181,0.0458879381322506,0.77366084,-1.2654073,-0.28313604,70.02325,-104.032074,2.956008,WAL
56168026386000,2.739962,2.291754849924,9.29914877654723,0.0196995229233442,0.79076505,-1.2479976,-0.36163223,70.16613,-104.10177,2.8933673,WAL
56168031438000,2.745014,2.43359142295331,9.49351748273616,0.0984976151500543,0.7987063,-1.2513574,-0.41874814,70.30461,-104.170876,2.8259087,WAL
56168036424000,2.75,2.56796473172292,9.58267368139329,0.183922185392109,0.80939645,-1.255328,-0.4529566,70.426506,-104.26184,2.757298,WAL
56168041449000,2.755025,2.70054923064056,9.62055524933583,0.273890268955033,0.79381937,-1.2702943,-0.47311515,70.54785,-104.34417,2.6770184,WAL
56168046955000,2.760531,2.79451045068095,9.6271960194272,0.359496607259163,0.77824235,-1.2794572,-0.49205196,70.6686,-104.40844,2.6137624,WAL
56168051450000,2.765026,2.85055098317645,9.61857422591628,0.424158757714801,0.7693848,-1.2541064,-0.49541172,70.78228,-104.469376,2.5516646,WAL
56168056464000,2.77004,2.85481393299733,9.63941819507857,0.46529993930922,0.7892379,-1.2052372,-0.48747048,70.89144,-104.51842,2.517665,WAL
56168061345000,2.774921,2.82709704980729,9.67637420011859,0.488397271221465,0.82436264,-1.1239921,-0.4746423,70.98369,-104.56908,2.4887574,WAL
56168066300000,2.779876,2.7543712564268,9.70842234193548,0.48408263222928,0.86193085,-1.042747,-0.45265114,71.06772,-104.61432,2.4809825,WAL
56168071300000,2.784876,2.64981071052109,9.73693847096774,0.460318850591563,0.9071349,-0.96669424,-0.42180246,71.1312,-104.672424,2.48471,WAL
56168076318000,2.789894,2.51454384103749,9.71248542937853,0.421876302788906,0.93034774,-0.9410379,-0.37598756,71.19867,-104.7263,2.4917312,WAL
56168081312000,2.794888,2.35733261843862,9.64861865875706,0.372747823941448,0.9492846,-0.9602802,-0.34880406,71.25736,-104.79189,2.5041754,WAL
56168086297000,2.799873,2.23220494108448,9.50327179763116,0.426089486142315,0.91354895,-1.0158689,-0.32620203,71.33578,-104.84585,2.5006375,WAL
56168091328000,2.804904,2.12520562191172,9.30710609206995,0.542005448609235,0.86498517,-1.0784826,-0.30940324,71.421936,-104.90186,2.5010886,WAL
56168096300000,2.809876,2.29755017196543,9.2699984392082,0.532205643427954,0.77854776,-1.1475104,-0.29749137,71.54156,-104.940216,2.4661005,WAL
56168101364000,2.81494,2.79947800661174,9.4161911630828,0.376266895618067,0.6844745,-1.1963795,-0.28985557,71.67273,-104.96263,2.4321444,WAL
56168106358000,2.819934,3.29446766028939,9.56036305546624,0.222483699219453,0.5684101,-1.212873,-0.30909783,71.834206,-104.93089,2.3660471,WAL
56168111407000,2.824983,3.79490874187098,9.7061227440213,0.0670068552834104,0.46731192,-1.183246,-0.33292156,71.99582,-104.877014,2.3019593,WAL
56168116877000,2.830453,4.52039362647059,9.84749255147059,-0.220970721220588,0.3475823,-1.1322387,-0.3454443,72.15847,-104.784325,2.236447,WAL
56168121350000,2.834926,5.23862461071562,9.95181639415511,-0.537955293231547,0.24220806,-1.1023064,-0.34025195,72.31776,-104.66779,2.1715243,WAL
56168126367000,2.839943,6.06956268512,10.04343768672,-0.848750222752,0.19730948,-0.99265605,-0.3005457,72.33246,-104.64047,2.3502538,WAL
56168131361000,2.844937,6.94191939936,10.08935132416,-1.07831782398933,0.1301143,-0.86376345,-0.25228736,72.33568,-104.58168,2.5320787,WAL
56168136349000,2.849925,7.64650706409406,10.2069711280933,-1.16654083351664,0.09987647,-0.73914695,-0.21594086,72.20481,-104.65304,2.9199982,WAL
56168141376000,2.854952,8.17599834787143,10.4032481434531,-1.10263673442685,0.10995574,-0.63132924,-0.18142697,72.05155,-104.728584,3.3163254,WAL
56168146408000,2.859984,8.49469175404397,10.604822146827,-0.979308956117793,0.15943582,-0.505491,-0.13958271,71.7732,-104.92221,3.9031277,WAL
56168151355000,2.864931,8.47012910908337,10.8111480567192,-0.763157475279967,0.23182335,-0.3717115,-0.06414085,71.47897,-105.14474,4.4962225,WAL
56168156387000,2.869963,8.30001844915093,11.0073439274948,-0.584060914564015,0.29016098,-0.22327125,0.02107485,71.122185,-105.41785,5.2035646,WAL
56168161431000,2.875007,7.94977852623545,11.187072397634,-0.45502529886472,0.30848694,-0.09468412,0.0852157,70.75143,-105.721855,5.9076576,WAL
56168166363000,2.879939,7.57846930893886,11.3874819839365,-0.365600003617122,0.30818152,0.0290161,0.13805555,70.383606,-106.003784,6.603165,WAL
56168171371000,2.884947,7.14794291075309,11.6367339722196,-0.342940722490787,0.2687807,0.14446963,0.1863139,69.99644,-106.301895,7.299449,WAL
56168176362000,2.889938,6.70632938068421,11.9209869836842,-0.333804145267368,0.22724187,0.27305678,0.23060162,69.63185,-106.540825,7.9148903,WAL
56168181383000,2.894959,6.22041629189474,12.3259147778947,-0.369235302155789,0.15577064,0.40775254,0.28955013,69.243286,-106.78214,8.537076,WAL
56168186656000,2.900232,5.7357665766606,12.6837921146497,-0.47101507177434,0.06505715,0.516792,0.36102137,68.887245,-106.95025,9.063171,WAL
56168191431000,2.905007,5.33631175750682,12.9043241210191,-0.662420499253867,-0.05009095,0.6041457,0.44959682,68.50757,-107.11654,9.602839,WAL
56168196445000,2.910021,4.93927966501241,13.1127866401985,-0.884179297270471,-0.18509217,0.66798115,0.53023106,68.1617,-107.19869,10.045987,WAL
56168201431000,2.915007,4.67040706919259,13.1902590301584,-1.22140943916778,-0.3399465,0.73548174,0.61544675,67.79742,-107.275475,10.50831,WAL
56168206649000,2.920225,4.40058133183274,13.2583064927712,-1.56892746169163,-0.5030475,0.8258898,0.7012733,67.45135,-107.301994,10.889974,WAL
56168211447000,2.925023,4.25737434461086,13.2026146350965,-1.83942932251753,-0.6918049,0.9138544,0.79901177,67.09292,-107.316986,11.292288,WAL
56168216382000,2.929958,4.11007828751623,13.1453325764003,-2.11765497553459,-0.86498517,0.9682214,0.8524625,66.73152,-107.326355,11.644863,WAL
56168221399000,2.934975,3.94853291408437,12.9440093254075,-2.48697920708533,-0.94959,1.0952814,0.97127575,66.33458,-107.35671,12.043102,WAL
56168226373000,2.939949,3.7841167479674,12.6928180333653,-2.88431839839885,-1.1404854,1.2504412,1.0803152,65.91567,-107.35187,12.447836,WAL
56168231400000,2.944976,3.38248645078312,12.5204534147863,-2.94777770581365,-1.3381003,1.4370605,1.1682798,65.46143,-107.382774,12.850027,WAL
56168236411000,2.949987,2.85380074280595,12.3930590158614,-2.82675327625431,-1.5198327,1.6264287,1.2159272,64.96553,-107.4082,13.268997,WAL
56168241423000,2.954999,2.32500952979825,12.2656391939873,-2.70570469494293,-1.7174476,1.7736472,1.2321151,64.42644,-107.45825,13.679883,WAL
56168246460000,2.960036,1.63635064261416,12.5656588121843,-2.46392154768581,-1.9327776,1.897042,1.251052,63.84322,-107.49818,14.1011715,WAL
56168251467000,2.965043,0.865258190908154,13.0994924450057,-2.15746171522523,-2.1697934,1.9761491,1.2596041,63.23076,-107.51956,14.515934,WAL
56168256446000,2.970022,0.00433660882820264,13.5293499095333,-1.99479649871897,-2.4251351,2.057394,1.2541064,62.619804,-107.4108,14.804402,WAL
56168261442000,2.975018,-0.898412956891758,13.9189570408143,-1.89026762670308,-2.6612344,2.1111503,1.2049317,61.987225,-107.285446,15.073798,WAL
56168266400000,2.979976,-1.71572775094458,14.2453065234797,-1.91373561805506,-2.8634307,2.1450534,1.0677924,61.36251,-106.98155,15.168206,WAL
56168271382000,2.984958,-2.50119307096977,14.5457579641058,-1.99528664653652,-2.9886582,2.1676552,0.8530733,60.709743,-106.65993,15.219403,WAL
56168276406000,2.989982,-3.27099756872688,14.8610395309032,-2.06383832319913,-3.0143147,2.1380284,0.59437186,60.066303,-106.16152,15.052431,WAL
56168281395000,2.994971,-4.00925371969532,15.1885757954298,-2.11582826332971,-2.9153545,2.0744984,0.33505958,59.405754,-105.64493,14.82097,WAL
56168286373000,2.999949,-4.47101753629781,15.5130771143706,-2.04532398898997,-2.751337,1.930945,0.10629055,58.770817,-104.97034,14.37242,WAL
56168291412000,3.004988,-4.76669115260862,15.8401097112885,-1.89748711066654,-2.5778513,1.6698002,-0.07819075,58.171715,-104.28289,13.8649235,WAL
56168296452000,3.010028,-4.79514556446829,16.2070239081729,-1.61537975093089,-2.431549,1.2996159,-0.20799962,57.63207,-103.4836,13.199715,WAL
56168301379000,3.014955,-4.53209719601346,16.6090421285369,-1.19350966444725,-2.3606887,0.8200866,-0.22174409,57.191513,-102.707016,12.525173,WAL
56168306410000,3.019986,-4.09572482381745,16.7588845120948,-0.976306256533151,-2.3521366,0.28344148,-0.14355333,56.857628,-101.90267,11.798916,WAL
56168311448000,3.025024,-3.52871324356087,16.7069083971208,-0.92433022050142,-2.4233024,-0.19853121,-0.012217305,56.643898,-101.14868,11.101304,WAL
56168316378000,3.029954,-2.90494381485325,16.5380079447574,-0.993474236274335,-2.5540276,-0.37110063,0.054367006,56.484936,-100.46771,10.458976,WAL
56168321370000,3.034946,-2.21043939979247,16.2592605649768,-1.17300599345192,-2.6258042,-0.5500842,0.14813483,56.46766,-80.11942,9.879578,WAL
56168326382000,3.039958,-1.54849315670131,15.931688166302,-1.1040256071663,-2.6899452,-0.5571091,0.22143865,56.45967,-80.55706,9.413588,WAL
56168331436000,3.045012,-0.917442021498906,15.5521755280817,-0.777467673194748,-2.7073548,-0.49449542,0.29138273,56.48118,-80.9133,8.987283,WAL
56168336475000,3.050051,-0.253785382954546,15.1128544772727,-0.471657739545455,-2.6667323,-0.4251622,0.3747658,56.526115,-81.09432,8.699695,WAL
56168341449000,3.055025,0.474261035812822,14.5502726656411,-0.21164115894601,-2.5579982,-0.28710666,0.46914452,56.52956,-81.20967,8.441738,WAL
56168346417000,3.059993,1.10128657285887,13.8477503534379,0.113558514813028,-2.4388795,-0.086437434,0.5589417,56.484955,-81.15433,8.3105755,WAL
56168351419000,3.064995,1.49244185893106,12.8031882213046,0.598057665211098,-2.3118196,0.063224554,0.63194007,56.413235,-81.05455,8.202382,WAL
56168356440000,3.070016,1.8655925191698,11.7625662523988,1.03228146985816,-2.1673498,0.1160644,0.64751714,56.326214,-80.81381,8.21704,WAL
56168361426000,3.075002,2.11958158487693,10.7764906278682,1.15180579113475,-1.9978348,0.12736541,0.61727935,56.208,-80.56853,8.236022,WAL
56168366387000,3.079963,2.3769084788121,9.87871303784276,1.16380830581807,-1.8277088,0.16523905,0.56230146,56.073116,-80.216095,8.333484,WAL
56168371994000,3.08557,2.68660584473338,9.20498572144086,0.740012064125266,-1.709201,0.2932153,0.5198463,55.910637,-79.87713,8.4202385,WAL
56168376412000,3.089988,2.94457861705524,8.69856900677179,0.445044964773338,-1.6639969,0.52106804,0.4700608,55.711723,-79.49981,8.5380745,WAL
56168381382000,3.094958,3.27610261850634,8.20128293247557,0.228633405088711,-1.6533068,0.7348709,0.40133846,55.48341,-79.146774,8.631749,WAL
56168386390000,3.099966,3.60002463308334,7.71401666234094,0.0333602440760091,-1.6325374,0.96974856,0.3408628,55.214752,-78.79722,8.757025,WAL
56168391399000,3.104975,3.87490261478048,7.29361522204432,-0.0515285000444931,-1.6062702,1.1939361,0.29352075,54.891644,-78.46325,8.856796,WAL
56168396433000,3.110009,4.1511525169293,6.87111555136092,-0.136840925259628,-1.568091,1.3817772,0.25625798,54.541756,-78.11539,8.997239,WAL
56168401375000,3.114951,4.39193640660588,6.49598241189058,-0.24531701529866,-1.4807373,1.568091,0.23640485,54.13173,-77.790146,9.118686,WAL
56168406461000,3.120037,4.63212100574991,6.11984413034983,-0.363143456443059,-1.3475688,1.704925,0.25259277,53.68483,-77.483696,9.2322,WAL
56168411437000,3.125013,4.7938707391468,5.91907941907152,-0.53598875131744,-1.1798862,1.7733418,0.31215215,53.226707,-77.15705,9.409437,WAL
56168416388000,3.129964,4.9174300856095,5.80467266103658,-0.737344779256829,-0.9950995,1.9046779,0.36102137,52.713493,-76.86171,9.578472,WAL
56168421372000,3.134948,4.94579181424873,5.79934263168376,-0.935539492014338,-0.8894198,2.0305161,0.4822781,52.163597,-76.53962,9.82469,WAL
56168426424000,3.14,4.90243445664642,5.8764224791397,-1.13305651434631,-0.66614854,2.186592,0.6414085,51.56484,-76.25987,10.088046,WAL
56168431376000,3.144952,4.71223948008053,6.13240161093452,-1.3939175523416,-0.42943826,2.4065037,0.8170323,50.90703,-75.98684,10.39997,WAL
56168436370000,3.149946,4.4081925581691,6.52766258296249,-1.70809930991736,-0.20922135,2.6526823,0.9877691,50.190372,-75.71791,10.747315,WAL
56168442039000,3.155615,3.99184840227048,7.01952996386969,-2.28467441470879,-0.04734206,2.944065,1.1236867,49.379505,-75.48632,11.106842,WAL
56168446437000,3.160013,3.64674867374136,7.41452333089832,-2.80024505162883,0.008552114,3.2861495,1.1939361,48.478977,-75.24469,11.483613,WAL
56168451375000,3.164951,3.02007440541568,6.62383794095012,-2.7280205312114,-0.06078109,3.5689802,1.1765264,47.489155,-75.089035,11.794834,WAL
56168456385000,3.169961,2.25877974831354,5.17418703900238,-2.31318334422803,-0.20922135,3.7201693,1.119716,46.439575,-74.91336,12.107667,WAL
56168461433000,3.175009,1.69260499737199,3.99955969680884,-1.62206484995724,-0.3277292,3.7103956,1.0290025,45.326954,-74.90682,12.295131,WAL
56168466374000,3.17995,1.29782759945771,3.07676768505579,-0.728881006499114,-0.36774087,3.5897496,0.93584555,44.210285,-74.89318,12.468469,WAL
56168471372000,3.184948,0.864418629329852,2.48818337104729,-0.0555410380272701,-0.31703907,3.3600643,0.84391034,43.051815,-74.926926,12.515629,WAL
56168476391000,3.189967,0.408904920409051,2.10239112416594,0.483638459315347,-0.15974127,3.1129694,0.7706065,41.9456,-74.98744,12.552375,WAL
56168481379000,3.194955,-0.0769067182589328,1.91415417562316,0.898962686787982,0.03756821,2.8759537,0.7131852,40.910587,-74.93649,12.590162,WAL
56168486371000,3.199947,-0.588918690280542,1.87790551824472,1.22066929037058,0.24862215,2.660929,0.6630942,39.9494,-74.929504,12.619874,WAL
56168491398000,3.204974,-1.07158243826758,1.95256817764264,1.54236676429348,0.4370741,2.4523184,0.6062838,39.048103,-74.91544,12.597644,WAL
56168496436000,3.210012,-1.51527465956689,2.16248708607733,1.86201603274004,0.61117065,2.2269092,0.54641896,38.219944,-74.94616,12.569854,WAL
56168501375000,3.214951,-1.83529621465095,2.43780158897867,2.09811987200954,0.79534656,1.9996674,0.4908302,37.404766,-75.085434,12.420195,WAL
56168506397000,3.219973,-2.00731338561399,2.81050543722347,2.23509650198702,0.9505063,1.897042,0.4266894,36.627117,-75.26554,12.255084,WAL
56168512231000,3.225807,-2.2071437670155,3.24347123783283,2.3942206874288,1.0436633,1.6157386,0.36132678,35.926228,-75.54654,11.979004,WAL
56168516370000,3.229946,-2.29479369340637,3.66155951556773,2.60679913032868,1.0757337,1.53205,0.3323107,35.20753,-75.8503,11.691424,WAL
56168521372000,3.234948,-2.33296363655379,4.30567617275896,2.98849781449203,1.0626001,1.3096951,0.2828306,34.62229,-76.18257,11.397288,WAL
56168526391000,3.239967,-2.24271598664248,4.89018350206977,3.42975968959778,1.0277808,1.0751228,0.25503623,34.05084,-76.568405,11.025979,WAL
56168531381000,3.244957,-1.96229827032967,5.37963957472527,3.95490562857143,1.0170907,0.79076505,0.22204952,33.570427,-76.96818,10.650974,WAL
56168536371000,3.249947,-1.59474451804463,5.77980805017696,4.3966940549941,1.0369438,0.50426924,0.18051068,33.155193,-77.35267,10.247895,WAL
56168541400000,3.254976,-1.14494434572355,6.10177044427841,4.76600350519072,1.0296134,0.23823744,0.16584991,32.826878,-77.728645,9.855262,WAL
56168546433000,3.260009,-0.699399529389257,6.31939531451927,5.07757700541067,0.99112886,-0.01985312,0.17470746,32.582096,-77.998055,9.51838,WAL
56168551375000,3.264951,-0.266460016980537,6.42993298427404,5.32628695472947,0.915687,-0.26725355,0.19975294,32.420044,-78.25328,9.1944275,WAL
56168556401000,3.269977,0.16530024283067,6.39554762989649,5.53408162504271,0.8142834,-0.52748215,0.23854288,32.34043,-78.36014,8.984758,WAL
56168561494000,3.27507,0.591729427051553,6.17007922502261,5.68602785860718,0.72204274,-0.7703011,0.24465153,32.333324,-78.451225,8.784151,WAL
56168566385000,3.279961,0.902816763836727,5.98348432441721,5.72774951202433,0.6227771,-0.9923506,0.22449298,32.396313,-78.40022,8.698735,WAL
56168571375000,3.284951,1.10096217400903,5.8293714871372,5.64408781479775,0.537256,-1.1523973,0.21410827,32.513336,-78.328156,8.626245,WAL
56168576397000,3.289973,1.24919752434307,5.72999184370402,5.52430130318478,0.4605924,-1.2388347,0.19120082,32.67482,-78.137825,8.6553755,WAL
56168581412000,3.294988,1.26434183336136,5.7754246653353,5.31228113506412,0.39492437,-1.2990049,0.14080444,32.876335,-77.94062,8.679324,WAL
56168586359000,3.299935,1.22930190741834,5.75998571952577,5.10418335056376,0.39003745,-1.3927728,0.063224554,33.11683,-77.720184,8.750305,WAL
56168591397000,3.304973,1.10789405509799,5.64091265656908,4.89405433132349,0.4465425,-1.5121969,-0.08582657,33.386562,-77.524635,8.790446,WAL
56168596445000,3.310021,0.986245218553109,5.52160324374546,4.68350822391483,0.514654,-1.5717562,-0.26145032,33.669357,-77.38352,8.805679,WAL
56168601375000,3.314951,0.867439995857731,5.40508275935156,4.4778837568933,0.5140431,-1.5500705,-0.44532076,33.970234,-77.27099,8.778489,WAL
56168606381000,3.319957,0.807289945166403,5.47539906180666,4.25236033597464,0.44868052,-1.5155567,-0.5907067,34.289906,-77.184525,8.715713,WAL
56168611525000,3.325101,0.942613775446381,6.16242768008452,3.96609817618595,0.41447207,-1.3515394,-0.6789767,34.57372,-77.12625,8.611391,WAL
56168616352000,3.329928,1.12528383356061,7.25073435265151,3.67947259410985,0.34147367,-1.087951,-0.70341134,34.837868,-77.15544,8.4303055,WAL
56168621372000,3.334948,1.42120351613636,9.22656737159091,3.34713209846591,0.31795537,-0.7507534,-0.70921457,35.03962,-77.194824,8.220052,WAL
56168626374000,3.33995,1.72101333274227,11.2660563513402,3.04026305282474,0.3191771,-0.38087448,-0.6771441,35.16261,-77.281654,8.007376,WAL
56168631386000,3.344962,2.03770750680412,13.5422954206186,2.8126390942268,0.30848694,0.028099801,-0.63621616,35.180065,-77.35449,7.7800775,WAL
56168636375000,3.349951,2.48985329762877,15.5625043979849,2.78108042002953,0.22082779,0.4801401,-0.5552765,35.082157,-77.53878,7.554224,WAL
56168641398000,3.354974,3.27536603199861,17.0040041788413,3.21979765168939,0.084910266,0.9251554,-0.41996986,34.864983,-77.68627,7.342089,WAL
56168646558000,3.360134,4.06083993111431,18.4478063088795,3.6705302068114,0.01282817,1.2336423,-0.28344148,34.557404,-77.932816,7.138835,WAL
56168651379000,3.364955,4.07034080810783,18.5475666333985,4.09332173801831,0.07849618,1.421178,-0.25717425,34.154537,-78.163666,6.936546,WAL
56168656576000,3.370152,4.02567761005114,18.4360643532651,4.56636803599528,0.2171626,1.640784,-0.15088372,33.63342,-78.25092,6.9117203,WAL
56168661644000,3.37522,3.40037099301731,16.0064368426436,5.21076812372148,0.3173445,1.8167132,-0.022296581,33.06787,-78.33096,6.893854,WAL
56168666684000,3.38026,2.78621768644631,13.5625863289654,5.83682127224721,0.33841935,1.8848248,0.029321533,32.469273,-78.357475,6.8767867,WAL
56168671399000,3.384975,2.30049393405046,10.9573408820653,6.25189435067475,0.3277292,1.9208658,0.0106901415,31.827438,-78.389175,6.868329,WAL
56168676758000,3.390334,1.76625588917507,8.04155406567749,6.70073537467338,0.2828306,1.9446895,-0.04337143,31.179586,-78.27331,6.818928,WAL
56168681380000,3.394956,1.65472844389698,6.4140796743561,6.63877551511758,0.13469578,1.8997909,-0.111177474,30.545765,-78.1409,6.7613564,WAL
56168686353000,3.399929,1.5347314760545,4.66301300450728,6.57211035251026,-0.106901415,1.7513506,-0.18448131,29.955439,-77.857025,6.660901,WAL
56168691394000,3.40497,1.55336752558954,5.11593795773766,6.0151500923913,-0.44165558,1.5183055,-0.28252518,29.411623,-77.52654,6.539277,WAL
56168697072000,3.410648,1.60846593588799,6.16781643352985,5.26881710869565,-0.75900006,1.2641857,-0.2556471,28.918343,-77.13001,6.439523,WAL
56168701375000,3.414951,1.58912158818182,6.94617372177132,4.59590392014058,-0.9776898,0.86315256,-0.17470746,28.539206,-76.62338,6.3620434,WAL
56168706378000,3.419954,1.54421738909091,7.8442573753702,3.77415760661668,-0.9963212,0.6047566,-0.1591304,28.198994,-76.08538,6.278025,WAL
56168711429000,3.425005,1.48196908222412,8.76056209390022,2.67439882829826,-0.9468411,0.007941248,-0.19303341,28.06863,-75.64887,6.2403727,WAL
56168716375000,3.429951,1.40606872044653,9.66630620329025,1.35879250112808,-0.74464476,-0.61727935,-0.30970868,28.02548,-75.254745,6.2035265,WAL
56168721376000,3.434952,1.63983747665648,10.8361354509261,0.0520068137941572,-0.5122105,-1.2070698,-0.4810564,28.14145,-75.08951,6.1527357,WAL
56168726401000,3.439977,2.04415908038954,12.1501806270766,-1.2482545676265,-0.28313604,-1.6997325,-0.6392705,28.41219,-74.989716,6.109633,WAL
56168731515000,3.445091,2.61407610271605,13.6323438524691,-2.56115938524691,-0.07666359,-2.005165,-0.7492262,28.784647,-75.23206,6.0241036,WAL
56168736369000,3.449945,3.26927741234568,15.1436112839506,-3.79982482839506,0.12583824,-2.028378,-0.7510588,29.216284,-75.53563,5.937183,WAL
56168741406000,3.454982,3.74913181215627,15.7418865089802,-4.53022711665145,0.3042109,-1.6856827,-0.6246097,29.585146,-76.16341,5.8888826,WAL
56168746455000,3.460031,4.10239807188229,15.722260730898,-4.90802541966514,0.43096542,-1.0228939,-0.344528,29.855867,-76.791046,5.8605204,WAL
56168751373000,3.464949,4.43928569237209,14.7325641232558,-4.69648375931163,0.43951756,-0.39400807,-0.096516706,29.996054,-77.61512,5.9094005,WAL
56168756384000,3.46996,4.77855929302326,13.1879758139535,-4.16078846790698,0.45723262,0.0027488936,0.060170226,30.002222,-78.394875,5.9788623,WAL
56168761429000,3.475005,5.13323654647029,11.7029797892331,-3.63819927348908,0.52442783,0.23548855,0.21563543,29.84827,-79.1257,6.140829,WAL
56168767138000,3.480714,5.54974767384459,10.1035783590655,-3.06619104901981,0.5867361,0.34391713,0.3659083,29.613628,-79.7657,6.325161,WAL
56168771373000,3.484949,5.85440576040748,9.08417063385248,-2.94557308820648,0.6310238,0.40378192,0.47739118,29.308847,-80.168724,6.63124,WAL
56168776396000,3.489972,6.21251382691743,8.00042185160153,-3.03038818248604,0.66553766,0.47250426,0.52442783,28.972317,-80.49777,6.9520273,WAL
56168781374000,3.49495,6.32811432043437,7.16440855578991,-3.24832946223243,0.6637051,0.4999932,0.52015173,28.62737,-80.60639,7.3789444,WAL
56168786370000,3.499946,6.18323308526679,6.5848841889527,-3.61303005456824,0.7125743,0.4810564,0.50823987,28.279066,-80.65104,7.8133793,WAL
56168791385000,3.504961,5.76057225883362,6.07085776603774,-3.75010007101201,0.8536842,0.39553526,0.48197266,27.9029,-80.591286,8.316426,WAL
56168796421000,3.509997,5.11945188319039,5.60759660113207,-3.70873749399657,1.0589349,0.2180789,0.36743546,27.565964,-80.48559,8.792651,WAL
56168801374000,3.51495,4.44879499900479,5.14815597492823,-3.61852633933971,1.3057245,0.10415252,0.18387043,27.171797,-80.40154,9.209868,WAL
56168806398000,3.519974,3.63385191092823,4.66931925607656,-3.36069124590431,1.5488489,-0.14080444,0.06963864,26.872679,-80.22876,9.621029,WAL
56168811440000,3.525016,2.80096908424096,4.21013040221687,-3.06775359219277,1.6756034,-0.42058071,-0.18173242,26.597136,-80.16369,9.815657,WAL
56168816374000,3.52995,1.90375107358072,3.87765879246265,-2.59409534654458,1.88849,-0.75319684,-0.43860126,26.408508,-99.99563,9.98132,WAL
56168821424000,3.535,0.981792348449525,3.58341105854854,-2.10572063088701,2.0460932,-1.1414018,-0.6942484,26.315191,-100.08088,9.933883,WAL
56168826401000,3.539977,0.0282250774155355,3.8607238900888,-1.58028557827907,2.1111503,-1.5916094,-0.92087936,26.328897,-100.25165,9.820144,WAL
56168831396000,3.544972,-0.893648811514813,4.20004528479598,-1.09327628158189,2.104736,-1.9795089,-1.0830641,26.501871,-100.33115,9.498926,WAL
56168836832000,3.550408,-1.58719380684181,5.10698876048072,-0.91867752216322,1.983174,-2.2342396,-1.1866057,26.752396,-100.48618,9.120615,WAL
56168841954000,3.55553,-2.21898175928722,5.98634209000302,-0.776933234913923,1.7507398,-2.3478606,-1.201572,27.19376,-100.47112,8.5482855,WAL
56168846425000,3.560001,-2.52935018012685,7.0295245602537,-0.906253432769556,1.4288138,-2.325564,-1.1410962,27.658812,-100.50277,7.9581757,WAL
56168851711000,3.565287,-2.87984117373982,8.27948268222761,-1.0356380618551,1.07665,-2.179567,-1.0042624,28.177538,-100.406105,7.2197437,WAL
56168856402000,3.569978,-2.81369506720942,9.76971294786073,-0.611525510394595,0.7632761,-2.0140228,-0.84635377,28.680815,-100.33932,6.5035415,WAL
56168861415000,3.574991,-2.74300855430452,11.3622357194699,-0.158300991001819,0.5177083,-1.9477439,-0.70005155,29.196945,-100.229095,5.7238545,WAL
56168866368000,3.579944,-2.31467173611978,11.9605749463506,0.270398915565606,0.43951756,-2.1029036,-0.59223384,29.728334,-100.16597,4.980319,WAL
56168871356000,3.584932,-1.70377553774173,12.0748073031815,0.692563034113745,0.505491,-2.3558018,-0.50335294,30.269005,-100.15003,4.2762723,WAL
56168876399000,3.589975,-1.09571781457679,11.9134282068418,0.782458537212132,0.589485,-2.605951,-0.42149702,30.896156,-100.01008,3.6005962,WAL
56168881381000,3.594957,-0.498375632427261,11.6568240199259,0.753012088427085,0.68539083,-2.8053987,-0.34269542,31.580692,-99.93941,2.9552445,WAL
56168886368000,3.599944,0.0576249340641476,11.2022763800527,0.562048298760984,0.74281216,-2.9074132,-0.26236662,32.300934,-99.87043,2.4646895,WAL
56168891402000,3.604978,0.571282168007469,10.519164681239,0.186072385883128,0.7693848,-2.9373455,-0.19486602,33.05762,-99.84302,1.9973989,WAL
56168896439000,3.610015,0.831758715170095,9.82397656546677,-0.375796855025712,0.7620544,-2.8903089,-0.13164146,33.78986,-99.88238,1.7022449,WAL
56168901378000,3.614954,0.958053809928798,9.13637027492089,-1.02130507696598,0.7467828,-2.8295279,-0.0711658,34.526794,-99.93407,1.4290833,WAL
56168906523000,3.620099,1.06246163186834,8.66209052953767,-1.73428659641362,0.75441855,-2.6667323,-0.040011674,35.18189,-100.0937,1.2751409,WAL
56168911447000,3.625023,1.14769451672374,8.33910268878425,-2.43857902925228,0.7806858,-2.44621,-0.032070424,35.801723,-100.25333,1.1379997,WAL
56168916371000,3.629947,1.3089110673394,8.12628598603373,-2.98904976801213,0.8561276,-2.2003367,-0.015577064,36.326458,-100.59154,1.0467505,WAL
56168921373000,3.634949,1.5403931911029,8.00827556405154,-3.41116434887247,0.9993755,-1.933083,0.024740042,36.780582,-100.95243,0.9752922,WAL
56168926390000,3.639966,1.85213026498423,7.89131888801262,-3.58438432113565,1.2024882,-1.7330247,0.06811147,37.124096,-101.53265,0.92668015,WAL
56168931384000,3.64496,2.27353265508539,7.776863937311,-3.40749942695529,1.4269812,-1.6209309,0.13225232,37.416912,-102.15316,0.90195185,WAL
56168936370000,3.649946,2.6832868010194,7.66580817072447,-2.99755486125297,1.6279559,-1.6291776,0.1777618,37.63775,-102.93379,0.9278892,WAL
56168941404000,3.65498,3.08885088148258,7.55606726965558,-2.41067969219121,1.7611245,-1.7146988,0.22388211,37.8502,-103.74871,0.9689819,WAL
56168946479000,3.660055,3.45647272504563,7.44727229086368,-1.81826386496301,1.81091,-1.8683313,0.25503623,38.08262,-104.5579,1.0944866,WAL
56168951407000,3.664983,3.78292145456816,7.34299014856374,-1.24244462945528,1.7889189,-2.0350976,0.26175576,38.34106,-105.37417,1.2125773,WAL
56168956414000,3.66999,4.03139251655809,7.28122901386485,-0.763781288841031,1.7198911,-2.151162,0.24678956,38.654884,-106.059616,1.416377,WAL
56168961444000,3.67502,4.19063679016043,7.2671780744385,-0.39845660944385,1.6001616,-2.2269092,0.22327125,38.999508,-106.717804,1.6038456,WAL
56168966373000,3.679949,4.28649837732272,7.29321233720136,-0.0971117949222601,1.4764613,-2.2305744,0.17715092,39.37018,-107.232544,1.8535088,WAL
56168971372000,3.684948,4.30011434907091,7.37490930511945,0.129824383468904,1.3536774,-2.1881194,0.10720685,39.740734,-107.709564,2.0830946,WAL
56168976374000,3.68995,4.25997898527863,7.51764484190921,0.30626279440151,1.2211196,-2.1303926,0.034513887,40.11253,-108.07288,2.333968,WAL
56168981383000,3.694959,4.09796572387007,7.79878547799742,0.368209043166782,1.0943651,-2.0751092,-0.04062254,40.463238,-108.39985,2.5650344,WAL
56168986372000,3.699948,3.95105119645402,8.10020882800278,0.387432013015818,0.99265605,-1.988061,-0.12217305,40.79494,-108.63716,2.7809408,WAL
56168991397000,3.704973,3.83812460641404,8.45571840670085,0.303782694986094,0.8949176,-1.8866574,-0.21197024,41.097126,-108.83628,2.978016,WAL
56168996466000,3.710042,3.72517174078825,8.81385592531292,0.216918085496017,0.81336707,-1.7843374,-0.31581733,41.38899,-108.964874,3.1106126,WAL
56169001377000,3.714953,3.7057110333092,9.11549760246199,-0.0993186294858798,0.788627,-1.7272215,-0.37690386,41.65908,-109.07948,3.2338572,WAL
56169006471000,3.720047,3.69864826344877,9.41732581037995,-0.411818803018333,0.79168135,-1.5989398,-0.47800204,41.883537,-109.155045,3.2930279,WAL
56169011437000,3.725013,3.84607051136303,9.58159612921796,-0.533968689451776,0.8219192,-1.4715744,-0.56107974,42.087173,-109.228775,3.3443837,WAL
56169016362000,3.729938,3.99227562029935,9.74451020901603,-0.655110089106368,0.8775079,-1.3509285,-0.6337727,42.246773,-109.346436,3.3689897,WAL
56169021377000,3.734953,4.14268880704091,9.83266084300666,-0.555873964395813,0.9309586,-1.25319,-0.66828656,42.37234,-109.46851,3.3897731,WAL
56169026375000,3.739951,4.29297823904853,9.90097413472883,-0.401030389027593,0.95081174,-1.1921035,-0.7012733,42.467014,-109.59179,3.3980296,WAL
56169031379000,3.744955,4.39624072303308,9.94202384412214,-0.197543455863613,0.956615,-1.1441506,-0.6969972,42.527737,-109.74791,3.4474847,WAL
56169036369000,3.749945,4.47892763865649,9.9712073448855,0.0261980473221374,0.9502009,-1.0995574,-0.6921103,42.568497,-109.90279,3.4914684,WAL
56169041422000,3.754998,4.22575754313043,9.94190785891304,0.179003008086957,0.9505063,-1.0332786,-0.66737026,42.594032,-110.03007,3.5790715,WAL
56169046583000,3.760159,3.84324414907826,9.89033308834783,0.307940136452174,0.9599747,-0.94134337,-0.6206391,42.60239,-110.15891,3.677638,WAL
56169051400000,3.764976,3.5440513099874,9.82112398756167,0.390028944383332,0.97524637,-0.86467975,-0.5842926,42.60668,-110.247116,3.7971013,WAL
56169056415000,3.769991,3.30459342972604,9.72282035446625,0.427838075337462,0.9914343,-0.82619524,-0.5360342,42.601593,-110.34207,3.933865,WAL
56169061369000,3.774945,3.06804819765928,9.62571243854309,0.465187314569119,0.9755518,-0.81153446,-0.48655418,42.631004,-110.38164,3.9824893,WAL
56169066317000,3.779893,2.83178945557888,9.52872213414506,0.502491318549386,0.9407325,-0.81214535,-0.4560109,42.656193,-110.42231,4.039932,WAL
56169071297000,3.784873,2.51362304548566,9.45257096265727,0.678107324656266,0.8848383,-0.8402451,-0.44532076,42.69166,-110.45345,4.100885,WAL
56169076322000,3.789898,2.14064812324107,9.3896011627076,0.944518035426271,0.79351395,-0.88270026,-0.44318274,42.73256,-110.46658,4.164732,WAL
56169081305000,3.794881,1.94508873497355,9.45824260974149,1.00523880387763,0.6942484,-0.93462384,-0.46211955,42.82552,-110.42935,4.117172,WAL
56169086301000,3.799877,1.85435426418804,9.60628283112087,0.943157283186945,0.5671884,-0.990518,-0.50640726,42.9282,-110.35795,4.0597477,WAL
56169091680000,3.805256,2.63002291752177,9.86403458415373,0.608394662651458,0.44593164,-0.98990715,-0.54428095,43.075756,-110.187675,3.9107058,WAL
56169096308000,3.809884,3.71246686265619,10.132547516755,0.193038290977849,0.35094208,-0.9575313,-0.5589417,43.22812,-109.99043,3.7566242,WAL
56169101351000,3.814927,4.65996624117704,10.2830661027006,-0.162247662760623,0.3210097,-0.86467975,-0.54550266,43.37505,-109.77565,3.583046,WAL
56169106348000,3.819924,5.37795789590553,10.2969634799148,-0.421651108357371,0.2724459,-0.79901177,-0.5018258,43.522617,-109.53376,3.4178662,WAL
56169111441000,3.825017,6.00299027506564,10.3067381785446,-0.642485730940548,0.24037547,-0.75808376,-0.44165558,43.52696,-109.44438,3.559294,WAL
56169116447000,3.830023,6.4930149122937,10.3112334388597,-0.808824375079707,0.22113322,-0.68630713,-0.376293,43.51066,-109.3516,3.7185977,WAL
56169121335000,3.834911,6.92361051785169,10.3598401174855,-0.887440043942631,0.21410827,-0.52595496,-0.33475417,43.3828,-109.363686,4.0679393,WAL
56169126458000,3.840034,7.26795756682942,10.5095561577663,-0.782638737580104,0.24556783,-0.38789943,-0.29565877,43.250267,-109.3914,4.4277124,WAL
56169131334000,3.84491,7.45391203912685,10.6731321616557,-0.621079381031713,0.28221974,-0.2773328,-0.25045475,43.032898,-109.50357,4.919826,WAL
56169136350000,3.849926,7.37971944934102,10.8808716196458,-0.339147343585255,0.31245756,-0.16035213,-0.19517145,42.785965,-109.63461,5.422421,WAL
56169141346000,3.854922,7.18569196780502,11.0556518251455,-0.101945532415339,0.33078352,-0.08246681,-0.13072516,42.510906,-109.78281,5.995633,WAL
56169146392000,3.859968,6.81229783549556,11.1847260310026,0.0732269857474005,0.3173445,-0.021685716,-0.090713486,42.217125,-109.94337,6.5673847,WAL
56169151342000,3.864918,6.43601644027611,11.3117892202881,0.23142416517407,0.2773328,0.03390302,-0.051618114,41.940506,-110.04372,7.1182127,WAL
56169156491000,3.870067,6.02163861179472,11.4449827652061,0.364617091964786,0.2321288,0.08093964,-0.04062254,41.654163,-110.150894,7.659679,WAL
56169162137000,3.875713,5.61234444791256,11.6189428352537,0.423569831388209,0.14630222,0.14294247,-0.037873644,41.401844,-110.166046,8.110494,WAL
56169166385000,3.879961,5.35228092238182,11.7794755632152,0.375409925833794,0.03756821,0.1957823,-0.018325957,41.142967,-110.17642,8.559239,WAL
56169171355000,3.884931,5.04801639274722,11.9672928084997,0.31906465026754,-0.079107046,0.2843578,0.03940081,40.907795,-110.10043,8.925286,WAL
56169176408000,3.889984,4.68162825180661,12.2223950785773,0.108874984016629,-0.20586158,0.35063666,0.13836098,40.66962,-110.0128,9.300893,WAL
56169181362000,3.894938,4.30663867465613,12.4902449218333,-0.139494812852597,-0.3436117,0.40591997,0.267559,40.417686,-109.917114,9.697399,WAL
56169186374000,3.89995,4.03985728296424,12.5666316474931,-0.598767570346084,-0.4978552,0.45020768,0.38545597,40.198235,-109.759125,10.023622,WAL
56169191371000,3.904947,3.79670396238136,12.6033342795513,-1.0988373847541,-0.6808093,0.5290093,0.48899764,39.962364,-109.59149,10.380265,WAL
56169196436000,3.910012,3.68659729657219,12.5531382411747,-1.60897020674307,-0.8454375,0.5830709,0.56596667,39.761494,-109.394646,10.670686,WAL
56169201357000,3.914933,3.62390860053208,12.4759828222654,-2.10565792014734,-0.945314,0.71837753,0.60231316,39.518917,-109.19539,10.983672,WAL
56169206368000,3.919944,3.57881935665893,12.2696050867749,-2.4934583162413,-1.1184943,0.8741482,0.70432764,39.27548,-109.02463,11.284754,WAL
56169211377000,3.924953,3.53875135456148,12.0291972601392,-2.84961774088167,-1.3197744,1.0280862,0.7877107,38.994045,-108.842804,11.593592,WAL
56169216373000,3.929949,3.39058127991234,11.7258382556611,-3.0897899109569,-1.5085317,1.1801916,0.8564331,38.66561,-108.72405,11.922546,WAL
56169221362000,3.934938,3.18117874248148,11.3868059528331,-3.26429214695816,-1.7085901,1.3338243,0.9111055,38.297894,-108.586105,12.272536,WAL
56169226396000,3.939972,2.82727486743942,11.3506710305285,-3.17116114716657,-1.9306396,1.4798211,0.9465357,37.88303,-108.49157,12.639081,WAL
56169231575000,3.945151,2.40614840053425,11.4358424079374,-2.96769552026331,-2.157576,1.6520851,0.98929626,37.42228,-108.382965,13.023853,WAL
56169236371000,3.949947,1.8380211603988,11.8772572191426,-2.69932853168494,-2.4153612,1.8497,1.0473285,36.92232,-108.26801,13.399439,WAL
56169241432000,3.955008,1.13733408653041,12.5489503134596,-2.37073041634098,-2.656042,2.0231857,1.0952814,36.382584,-108.14062,13.781297,WAL
56169246435000,3.960011,0.321377293628355,13.2955511374718,-2.23508859119033,-2.8533516,2.1056526,1.094976,35.840927,-107.9155,14.082784,WAL
56169251381000,3.964957,-0.556865514402786,14.0816028766646,-2.21082775693505,-2.9657507,2.1389446,1.0338894,35.259888,-107.69013,14.375732,WAL
56169256371000,3.969947,-1.46482625417557,14.6596992634464,-2.44529462745936,-2.9782734,2.1142046,0.8881981,34.703106,-107.29728,14.490264,WAL
56169261435000,3.975011,-2.39737335578263,15.1372351690664,-2.81470935838365,-2.8667905,2.0803015,0.6731735,34.125137,-106.910805,14.560911,WAL
56169266376000,3.979952,-3.15276095018001,15.6003151431352,-3.09078414645324,-2.6618452,2.0186043,0.46639562,33.58799,-106.3736,14.41042,WAL
56169271371000,3.984947,-3.77183328889754,16.0657828477182,-3.29093540523499,-2.3890939,1.8371773,0.3036,33.0782,-105.85059,14.207169,WAL
56169276404000,3.98998,-4.19512761972128,16.5507993772171,-3.00620332889569,-2.1438315,1.4831808,0.18661933,32.66056,-105.202385,13.778027,WAL
56169281383000,3.994959,-4.38138910810811,17.0491750945946,-2.16047586621622,-1.9614882,0.92179567,0.1600467,32.343224,-104.58663,13.330861,WAL
56169286370000,3.999946,-4.28909447488658,17.3728298036092,-1.42175563079444,-1.8930714,0.29657507,0.2501493,32.160946,-103.916695,12.776824,WAL
56169291403000,4.004979,-3.97809495731425,17.5623449094667,-0.760881605212219,-1.9434677,0.027183503,0.40194935,32.029423,-103.2882,12.250152,WAL
56169296436000,4.010012,-3.48543648568036,17.4694716437407,-0.631389730870856,-2.0674734,-0.34208453,0.4728097,32.070477,-102.60541,11.697535,WAL
56169301426000,4.015002,-2.87064433812964,17.1809923612073,-0.872577418005938,-2.1487186,-0.43951756,0.5946773,32.11084,-102.0039,11.225842,WAL
56169306383000,4.019959,-2.16689120266041,16.8359811455399,-0.947983975273865,-2.2782218,-0.37110063,0.6908886,32.174343,-101.43223,10.825422,WAL
56169311482000,4.025058,-1.36926137546948,16.434777522007,-0.895445473210094,-2.355191,-0.25137106,0.78038037,32.250816,-100.924545,10.47419,WAL
56169316372000,4.029948,-0.357314261036861,15.7938825810845,-0.670740880967055,-2.4077253,-0.15424347,0.8713993,32.32068,-100.56677,10.254807,WAL
56169321370000,4.034946,0.905826360381374,14.9015351425896,-0.279574760839704,-2.4480424,-0.041233405,0.97249746,32.348965,-100.26751,10.07525,WAL
56169326364000,4.03994,2.03662108668296,14.011890871506,0.0536551548483367,-2.463925,0.16798794,1.0974194,32.31987,-100.14796,10.052,WAL
56169331384000,4.04496,2.49136916958232,13.1279424455309,0.089421866821979,-2.461787,0.5012149,1.237613,32.21992,-100.09692,10.065244,WAL
56169336359000,4.049935,2.80531969684352,12.1475653584381,0.116204345908088,-2.4297166,0.82741696,1.3365731,32.05281,-100.32534,10.3243475,WAL
56169341408000,4.054984,2.76820700369375,10.8810922765998,0.120843443451022,-2.3157902,1.1765264,1.4052955,31.781593,-79.380035,10.608342,WAL
56169346506000,4.060082,2.75298372006908,9.66099508793055,0.0914583729086157,-2.1578815,1.4398094,1.3955216,31.44567,-78.974525,10.968133,WAL
56169351375000,4.064951,2.81392021178008,8.69471633626435,-0.0521776361252684,-1.92392,1.5732834,1.2742649,31.046694,-78.567696,11.305434,WAL
56169356528000,4.070104,2.90729006444373,7.71637937002244,-0.209099238243027,-1.6530013,1.6890424,1.0778717,30.57721,-78.14927,11.638998,WAL
56169361434000,4.07501,3.29894741680026,7.24940330412525,-0.409949142765844,-1.4214834,1.8677205,0.9101892,30.052744,-77.75992,11.93585,WAL
56169366416000,4.079992,3.71204545098039,6.78113035294118,-0.617797919607843,-1.2846496,2.0518963,0.77091193,29.506287,-77.3893,12.217192,WAL
56169371411000,4.084987,4.19079773498775,6.33657458777574,-0.842518388817402,-1.1997393,2.3017402,0.6554584,28.892864,-77.069046,12.448616,WAL
56169376414000,4.08999,4.64271891759223,5.88766765545418,-1.00406796308013,-1.138042,2.631913,0.5546656,28.229021,-76.735374,12.702926,WAL
56169381430000,4.095006,5.00476105364934,5.42558760721936,-0.956430860858786,-1.0546589,2.9874365,0.45204028,27.490004,-76.44281,12.915055,WAL
56169386392000,4.099968,5.31815475388601,5.01750224766839,-0.891585828238342,-0.93951076,3.2779028,0.3640757,26.704826,-76.11723,13.176786,WAL
56169391411000,4.104987,5.46852235506892,4.78725158695865,-0.760014060670642,-0.7733554,3.3783903,0.2843578,25.87723,-75.83016,13.406613,WAL
56169396444000,4.11002,5.57779924735905,4.60941350420376,-0.663769366647873,-0.679893,3.5036175,0.26511553,24.967302,-75.487785,13.689959,WAL
56169401384000,4.11496,5.4935688758457,4.67960572477745,-0.73396137711276,-0.48624873,3.5995235,0.2666427,24.041475,-75.18587,13.955372,WAL
56169406383000,4.119959,5.38422748666892,4.74397141441107,-0.81673710842052,-0.2919936,3.6728272,0.30634892,23.08044,-74.85005,14.255574,WAL
56169411419000,4.124995,5.12786457833277,4.76838692139723,-0.97136875039487,-0.100792766,3.7336085,0.37598756,22.09689,-74.522736,14.564069,WAL
56169416898000,4.130474,4.8489502862808,4.79495017850152,-1.13960281838086,0.07147124,3.7931678,0.4352415,21.091764,-74.22391,14.863858,WAL
56169421371000,4.134947,4.42996386394991,4.92703686228377,-1.19399089623262,0.2134974,3.8722749,0.49541172,20.062849,-73.917885,15.184442,WAL
56169426365000,4.139941,3.92748786097846,5.09452866894832,-1.23967054732039,0.32803464,3.9009855,0.5564982,19.03093,-73.60441,15.525267,WAL
56169431456000,4.145032,3.50611248119199,5.63307105080606,-1.39268385280899,0.42730024,3.8854084,0.6102544,17.989,-73.345604,15.831358,WAL
56169436402000,4.149978,3.10811025324866,6.20230679486077,-1.55466146269663,0.51251596,3.8820486,0.67256266,16.935123,-73.0688,16.161098,WAL
56169441405000,4.154981,2.68608524345114,6.50603653139293,-1.82865243471933,0.5665775,3.926947,0.7171558,15.859541,-72.86678,16.416952,WAL
56169446450000,4.160026,2.25690282174447,6.76171977260442,-2.12542758710074,0.5421429,4.0210204,0.70738196,14.773376,-72.65478,16.67926,WAL
