timestamp,rel_time,acc_x,acc_y,acc_z,gyro_x,gyro_y,gyro_z,azimuth,pitch,roll,label
745431719000,0,-3.10721298062133,8.00090478251563,-0.684248202382175,-0.0030543262,0.23884831,2.4000895,236.96494,-109.01751,-19.012087,STD
745436737000,0.005018,-3.05954033965663,8.10175993860978,-0.722817521828272,-0.122783914,0.35216382,2.463314,236.8663,-108.462616,-18.457064,STD
745442171000,0.010452,-3.00791556265341,8.21097614391382,-0.764584297808761,-0.22113322,0.27672195,2.485,236.79474,-107.902794,-17.897957,STD
745446683000,0.014964,-2.96505008715865,8.30166136995942,-0.799264403297161,-0.28680122,0.04428773,2.4584272,236.74094,-107.35574,-17.352156,STD
745451796000,0.020077,-2.91647491512747,8.40442590027218,-0.838563911134525,-0.3549127,-0.07971791,2.4013114,236.68044,-106.82825,-16.826138,STD
745456696000,0.024977,-2.86992331275062,8.50290941260007,-0.876226259736732,-0.40866885,-0.13958271,2.2592852,236.67117,-106.34965,-16.348913,STD
745461700000,0.029981,-2.82238367636414,8.60348318723044,-0.914687972472538,-0.4334089,-0.15943582,2.0357084,236.6864,-105.92716,-15.927134,STD
745466692000,0.034973,-2.77495804390186,8.70381577774898,-0.953057450885236,-0.39614612,-0.10293079,1.7980819,236.6955,-74.435616,-15.564151,STD
745471731000,0.040012,-2.72708589606983,8.80509300603882,-0.991788180396771,-0.35796702,-0.002443461,1.5546521,236.69574,-74.71982,-15.278839,STD
745476701000,0.044982,-2.67986927080189,8.90498342568569,-1.02998856255044,-0.31856623,0.08857546,1.3206906,236.68103,-74.928375,-15.068619,STD
745481727000,0.050008,-2.63212062722106,9.00599937118773,-1.06861937154527,-0.29749137,0.16279559,1.1221595,236.64127,-75.069466,-14.925562,STD
745486711000,0.054992,-2.5847709973749,9.10617117229838,-1.10692736040923,-0.28099802,0.21135938,0.9682214,236.5824,-75.15086,-14.84222,STD
745491703000,0.059984,-2.53734536491261,9.20650376281692,-1.14529683882193,-0.26725355,0.3005457,0.9108001,236.48997,-75.19935,-14.791968,STD
745496683000,0.064964,-2.49003373637451,9.30659516922364,-1.18357408291152,-0.26389378,0.32589662,0.82772243,236.40291,-75.194016,-14.795403,STD
745501818000,0.070099,-2.44124955714898,9.40980187040807,-1.22304268700792,-0.23243423,0.31581733,0.74189585,236.30109,-75.17004,-14.817942,STD
745506777000,0.075058,-2.39413743547821,9.5094712046191,-1.26115852103207,-0.2003638,0.24404067,0.63346726,236.21133,-75.11474,-14.871645,STD
745511641000,0.079922,-2.34792784487393,9.60723116461152,-1.29854416666495,-0.1432479,0.12003502,0.5180137,236.14133,-75.03329,-14.951899,STD
745516746000,0.085027,-2.29942867545887,9.7098349055164,-1.33778218495358,-0.07147124,0.019547688,0.41538838,236.08627,-74.925896,-15.0584755,STD
745521672000,0.089953,-2.25263006457962,9.80884098341991,-1.37564437458919,-0.016798794,0.022907447,0.32467487,236.03711,-74.79143,-15.192564,STD
745526698000,0.094979,-2.20488142099879,9.90985692892195,-1.41427518358402,0.00580322,0.12339478,0.26267207,235.98813,-74.63938,-15.344705,STD
745531713000,0.099994,-2.15723728101514,10.0106517889881,-1.45282144444934,-0.016187929,0.32406402,0.22937989,235.90756,-74.473564,-15.511054,STD
745536689000,0.10497,-2.10996365378511,10.1106628006909,-1.49106794376456,-0.110872045,0.5674938,0.22204952,235.78416,-74.30102,-15.683939,STD
745541669000,0.10995,-2.06265202524701,10.2107542070976,-1.52934518785415,-0.2501493,0.7706065,0.23548855,235.61386,-74.1282,-15.8567295,STD
745546695000,0.114976,-2.04725272669225,10.1980372723022,-1.49478798271728,-0.42546764,0.8781188,0.25595254,235.40164,-73.957275,-16.026402,STD
745551853000,0.120134,-2.03418756345267,10.1753581498673,-1.45312736519752,-0.5891795,0.9831876,0.28588495,235.1325,-73.7941,-16.18726,STD
745556704000,0.124985,-2.02190002819187,10.1540288705086,-1.41394635403266,-0.7153232,1.1053606,0.31337386,234.9607,-73.86841,-16.118599,STD
745561707000,0.129988,-2.00922747842692,10.1320312649363,-1.37353765503084,-0.818254,1.1371256,0.30298916,234.78897,-73.93565,-16.054497,STD
745566692000,0.134973,-1.99660052248483,10.1101128032577,-1.33327434011498,-0.6914995,1.0152581,0.2761111,234.63153,-74.003555,-15.989915,STD
745571725000,0.140006,-1.98385198301511,10.0879832911959,-1.29262333430324,-0.36713,0.7098254,0.24098633,234.52399,-74.06301,-15.93333,STD
745576702000,0.144983,-1.97124529099429,10.0661000045812,-1.25242463453669,-0.043066,0.29871312,0.19700404,234.48819,-74.10962,-15.888945,STD
745581800000,0.150081,-1.95833210716424,10.0436846951254,-1.21124863063678,0.17195857,-0.09437868,0.160963,234.54039,-74.146774,-15.853139,STD
745586782000,0.155063,-1.94571275019263,10.0217794240957,-1.17100954640191,0.24037547,-0.25625798,0.13439035,234.6463,-105.82754,-15.826951,STD
745591700000,0.159981,-1.93325550459118,10.0001555535771,-1.13128738336155,0.21838433,-0.4578435,0.122783914,234.87888,-105.80922,-15.805982,STD
745596671000,0.164952,-1.92066401051132,9.97829864826034,-1.09113714495698,0.124311075,-0.5131268,0.10140363,235.11276,-105.802025,-15.794234,STD
745601769000,0.17005,-1.90775082668127,9.9558833388045,-1.04996114105707,0.0143553335,-0.45540005,0.09590584,235.36835,-105.79327,-15.779866,STD
745606714000,0.174995,-1.89522519034554,9.9341407524453,-1.01002090188778,-0.06414085,-0.33414328,0.100792766,235.61623,-105.78644,-15.76692,STD
745611722000,0.180003,-1.88253997562979,9.91212116245808,-0.969571818417638,-0.103847094,-0.21105394,0.12003502,235.84142,-105.775505,-15.749728,STD
745616683000,0.184964,-1.86997381145151,9.89030822597114,-0.929502348949717,-0.093462385,-0.10629055,0.13683382,236.03178,-105.76308,-15.730276,STD
745621730000,0.190011,-1.85718981011957,9.86811715754751,-0.888738266626677,-0.070249505,-0.032070424,0.15454891,236.19142,-105.74447,-15.703935,STD
745626697000,0.194978,-1.84460844800034,9.84627783976265,-0.84862033579677,-0.045814894,-0.024740042,0.18081611,236.33757,-105.719246,-15.669847,STD
745631693000,0.199974,-1.8319536291665,9.82431101237125,-0.808268175050603,-0.032986723,-0.034208454,0.20708331,236.46503,-105.68996,-15.630335,STD
745636696000,0.204977,-1.81928107940155,9.80231340679894,-0.767859476048786,-0.048258353,-0.0693332,0.22815818,236.59656,-105.6555,-15.585178,STD
745641704000,0.209985,-1.8065958646858,9.78029381681172,-0.727410392578649,-0.058643065,-0.076052725,0.26267207,236.72131,-105.61134,-15.528979,STD
745646669000,0.21495,-1.79401956854689,9.75846329279284,-0.687308615536071,-0.08277224,-0.08002335,0.29565877,236.85413,-105.56207,-15.4681,STD
745651810000,0.220091,-1.78099746614001,9.73585891736865,-0.6457853052086,-0.08827003,-0.0580322,0.33200526,236.97989,-105.503815,-15.397162,STD
745656717000,0.224998,-1.76856808343031,9.71428341256288,-0.606151987998543,-0.10293079,-0.017715093,0.36254853,237.0999,-105.43854,-15.319564,STD
745661700000,0.229981,-1.75594619346854,9.69237374465027,-0.56590482687001,-0.077579886,0.00580322,0.3848451,237.21716,-105.36865,-15.235476,STD
745666690000,0.234971,-1.74330657257565,9.67043329855677,-0.525601127485827,-0.050396383,0.012217305,0.41905355,237.32678,-105.28881,-15.140946,STD
745671699000,0.23998,-1.73061882486975,9.64840931168656,-0.485143967122026,-0.05009095,0.01038471,0.45051312,237.43121,-105.20599,-15.042732,STD
745676701000,0.244982,-1.71794880809496,9.62641610299724,-0.444743345013873,-0.040317107,0.0033597588,0.4792238,237.53496,-105.11873,-14.937833,STD
745681706000,0.249987,-1.70527119234969,9.60440970365897,-0.404318492224728,-0.047036625,-0.013133603,0.50762904,237.64172,-105.02513,-14.826695,STD
745686711000,0.254992,-1.69259357660442,9.5824033043207,-0.363893639435584,-0.042455133,-0.04428773,0.5235115,237.75446,-104.931305,-14.713944,STD
745691703000,0.259984,-1.67994888973122,9.56045406446123,-0.323573786264073,-0.052534413,-0.05100725,0.548557,237.86455,-104.82936,-14.593227,STD
745697395000,0.265676,-1.66553110974679,9.5354270065125,-0.277600107527647,-0.05100725,-0.06841691,0.573297,237.98627,-104.727394,-14.471527,STD
745701691000,0.269972,-1.65464938402417,9.51653799721036,-0.242901772346395,-0.049480084,-0.058643065,0.61727935,238.10153,-104.61614,-14.339934,STD
745706716000,0.274997,-1.64192110847573,9.49444366021239,-0.202315381683967,-0.04520403,-0.044898596,0.64904433,238.21988,-104.50545,-14.208116,STD
745711703000,0.279984,-1.62928908655332,9.47251640476784,-0.162035912980777,-0.03634648,-0.043066,0.689056,238.33868,-104.38464,-14.06488,STD
745716697000,0.284978,-1.6166393336998,9.45055837114241,-0.121699906021938,-0.04550946,-0.04337143,0.7199047,238.45361,-104.26109,-13.918712,STD
745721711000,0.289992,-1.6039389210431,9.42851239985727,-0.0812023611898156,-0.061086524,-0.040317107,0.75869465,238.56706,-104.12893,-13.762691,STD
745726697000,0.294978,-1.59130943211085,9.40658954129571,-0.0409309693802898,-0.06383542,-0.036651913,0.79320854,238.68016,-103.994446,-13.603176,STD
745731699000,0.29998,-1.57863941533605,9.38459633260639,-0.000530347272137438,-0.06963864,-0.040927973,0.82863873,238.79465,-103.85282,-13.436775,STD
745736714000,0.304995,-1.5659364696892,9.36254596443828,0.039975274453649,-0.06841691,-0.03726278,0.8555168,238.9055,-103.70961,-13.267301,STD
745741641000,0.309922,-1.55345642717632,9.34088252197281,0.0797701295369889,-0.046120327,-0.058337633,0.8772025,239.02478,-103.56472,-13.094444,STD
745746687000,0.314968,-1.58049195231304,9.47775785941609,0.0717682035284197,-0.056505036,-0.07238753,0.8958339,239.14069,-103.41661,-12.919444,STD
745751810000,0.320091,-1.61550002561338,9.6469227412765,0.0543865713703613,-0.06566802,-0.09712757,0.9193522,239.26572,-103.26864,-12.74228,STD
745756797000,0.325078,-1.64957874151202,9.81159681229698,0.0374663684478087,-0.059253927,-0.12614368,0.9266826,239.37514,-103.08082,-12.564238,STD
745761703000,0.329984,-1.68310394307584,9.97359620921425,0.0208209873493441,-0.050701816,-0.12705997,0.9315695,239.48193,-102.89256,-12.385497,STD
745767561000,0.335842,-1.72313464645147,10.1670312820111,0.000945601602339266,-0.063224554,-0.111177474,0.93462384,239.59027,-102.70745,-12.210676,STD
745771724000,0.340005,-1.75158254985754,10.3044963226484,-0.0131788830109727,-0.07360926,-0.099265605,0.9272934,239.6979,-102.53036,-12.042663,STD
745776698000,0.344979,-1.7855724301222,10.4687411249857,-0.0300549787271902,-0.07849618,-0.09468412,0.9260717,239.80127,-102.35578,-11.876961,STD
745781695000,0.349976,-1.81971948112391,10.6337454026855,-0.0470091102700005,-0.07696902,-0.08277224,0.92149025,239.89706,-102.189125,-11.718776,STD
745786686000,0.354967,-1.85382553106379,10.7985515563778,-0.0639428846406563,-0.08032878,-0.06658431,0.93126404,239.98882,-102.02325,-11.561362,STD
745791710000,0.359991,-1.88815708684377,10.9644473921121,-0.0809886234581626,-0.08979719,-0.0720821,0.9324858,240.0816,-101.865585,-11.412364,STD
745796688000,0.364969,-1.92217430114966,11.1288242771211,-0.0978782906224832,-0.07666359,-0.065973446,0.93462384,240.16505,-101.71139,-11.264337,STD
745801851000,0.370132,-1.95745571486226,11.2993099856991,-0.115395637261573,-0.062002823,-0.076358154,0.9379836,240.2535,-101.56069,-11.120318,STD
745806712000,0.374993,-1.99067340846228,11.459823452559,-0.131888339568877,-0.054367006,-0.0870483,0.9440922,240.33899,-101.41376,-10.979043,STD
745811700000,0.379981,-2.02475895787123,11.6245305442475,-0.148811935353456,-0.060170226,-0.09743301,0.95417154,240.42621,-101.26937,-10.839927,STD
745816705000,0.384986,-2.0589606769554,11.7897989872909,-0.165793209792472,-0.0720821,-0.109650314,0.960891,240.51582,-101.12869,-10.704215,STD
745821719000,0.39,-2.09322389763232,11.9553646163457,-0.182805019989721,-0.07513642,-0.10415252,0.96577793,240.60208,-100.990295,-10.56998,STD
745826704000,0.394985,-2.12728894651035,12.1199726460303,-0.199718437188222,-0.057726767,-0.108123146,0.9718866,240.69333,-100.85462,-10.437673,STD
745831729000,0.40001,-2.16162733580065,12.2859015024326,-0.216767568867754,-0.058948494,-0.10293079,0.9819659,240.77905,-100.71899,-10.306393,STD
745836883000,0.405164,-2.19684724792048,12.4560900249991,-0.234254379748612,-0.058643065,-0.089491755,0.9868528,240.86227,-100.58862,-10.178492,STD
745841710000,0.409991,-2.22983260217008,12.6154807891491,-0.25063172474704,-0.06169739,-0.0693332,1.0097603,240.9412,-100.454124,-10.046022,STD
745846692000,0.414973,-2.2638771505172,12.7799897568299,-0.267534963359463,-0.08582657,-0.05375614,1.0186177,241.0163,-100.324425,-9.919651,STD
745851692000,0.419973,-2.29804470204983,12.9450930965336,-0.284499273488351,-0.090713486,-0.032986723,1.0296134,241.08344,-100.193085,-9.7894535,STD
745856706000,0.424987,-2.33230792272675,13.1106587255884,-0.3015110836856,-0.115453534,-0.0290161,1.0384709,241.15009,-100.060425,-9.661076,STD
745861713000,0.429994,-2.36652330883153,13.2759932099677,-0.318499143848668,-0.129198,-0.035124753,1.0445796,241.21294,-99.929955,-9.533894,STD
745866685000,0.434966,-2.40049952207558,13.4401719709691,-0.335368453840834,-0.13652839,-0.049785517,1.0445796,241.2763,-99.80129,-9.409706,STD
745871736000,0.440017,-2.43501558263384,13.6069593647378,-0.352505799933036,-0.15332718,-0.03573562,1.0467176,241.33232,-99.67249,-9.286506,STD
745876699000,0.44498,-2.46893029428513,13.7708409397277,-0.36934457416697,-0.16829337,-0.028405234,1.0525209,241.39359,-99.546104,-9.16608,STD
745881734000,0.450015,-2.50333701867849,13.9371000028093,-0.38642763446676,-0.17898351,-0.026572637,1.0512991,241.45135,-99.42388,-9.0504055,STD
745886713000,0.454994,-2.53736106649468,14.1015099084862,-0.403320694493107,-0.19303341,-0.005497787,1.0509937,241.50058,-99.302155,-8.935903,STD
745891705000,0.459986,-2.57147394994486,14.2663490828464,-0.420257861725788,-0.20158553,0.03481932,1.042747,241.54265,-99.18623,-8.8270855,STD
745896684000,0.464965,-2.60549799776106,14.4307589885234,-0.437150921752134,-0.24251351,0.07452556,1.03786,241.57797,-99.069466,-8.720415,STD
745901835000,0.470116,-2.64069740934997,14.6008484490861,-0.454627554046915,-0.23396139,0.118507855,1.0173961,241.59955,-98.965965,-8.62317,STD
745906894000,0.475175,-2.67526813799069,14.7679000081983,-0.471792043035323,-0.23579398,0.14294247,0.9950995,241.61472,-98.86381,-8.53072,STD
745911704000,0.479985,-2.70813732256508,14.9267294209933,-0.488111709379313,-0.20647246,0.17165314,0.9691377,241.61548,-98.77457,-8.4474745,STD
745916687000,0.484968,-2.7421887044225,15.091271409342,-0.505018340853763,-0.15974127,0.19364429,0.93737274,241.61078,-98.69719,-8.374713,STD
745921719000,0.49,-2.77657492828494,15.2574314104198,-0.522091222567475,-0.11362094,0.20005837,0.91538155,241.60234,-98.62895,-8.308736,STD
745926698000,0.494979,-2.81059897610113,15.4218413160967,-0.538984282593822,-0.077579886,0.19486602,0.8765916,241.59087,-98.57895,-8.258483,STD
745931702000,0.499983,-2.84479386167499,15.5870767384722,-0.555962164170812,-0.08124508,0.25228736,0.86345804,241.56015,-98.53003,-8.207997,STD
745936735000,0.505016,-2.87918691904774,15.753269760218,-0.573038438746551,-0.09773844,0.48197266,0.9275989,241.4823,-98.47342,-8.145699,STD
745941741000,0.510022,-2.91339547164221,15.9185712239293,-0.590023106047593,-0.10903945,0.77366084,1.0054842,241.37094,-98.417786,-8.08289,STD
745946685000,0.514966,-2.85852020284104,15.838408,-0.565862977001127,-0.08979719,0.93034774,0.99112886,241.23431,-98.37272,-8.028874,STD
745951782000,0.520063,-2.77572937823947,15.6837839646018,-0.528850607374565,-0.045814894,0.8268061,0.82650065,241.09186,-98.35112,-7.9980803,STD
745956683000,0.524964,-2.69612219138989,15.535105840708,-0.493261511133681,-0.007330383,0.50488013,0.59315014,241.01202,-98.39581,-8.033381,STD
745961699000,0.52998,-2.61464705381848,15.3829390442478,-0.456837331018547,-0.009162978,0.17959438,0.39828414,240.96576,-98.46942,-8.100404,STD
745966692000,0.534973,-2.53354550639144,15.2314699823009,-0.420580167678263,-0.061391957,-0.022296581,0.22479841,240.97607,-98.59204,-8.222463,STD
745971711000,0.539992,-2.45202163967076,15.0792121769911,-0.38413420276641,-0.09010262,-0.11301007,0.07666359,241.04556,-98.753555,-8.38592,STD
745976670000,0.544951,-2.37147235593539,14.9287745486726,-0.348123933788947,-0.08246681,-0.122783914,0.0012217305,241.14651,-98.93129,-8.568821,STD
745981718000,0.549999,-2.28947744077182,14.7756369911504,-0.311467382508805,-0.07696902,-0.10781772,-0.13072516,241.26093,-99.15221,-8.799493,STD
745986679000,0.55496,-2.20889567093694,14.6251386902655,-0.27544259033353,-0.025961773,-0.08979719,-0.19883664,241.37408,-99.36999,-9.022143,STD
745991704000,0.559985,-2.12727434591773,14.4726988672566,-0.238953055828237,0.04184427,-0.042760566,-0.14569137,241.47137,-99.58122,-9.235433,STD
745996690000,0.564971,-2.04628649983897,14.321442159292,-0.202746723680299,0.10751228,0.014049901,-0.07513642,241.55719,-99.79888,-9.451201,STD
746001699000,0.56998,-1.96492506361585,14.1694877168142,-0.16637337475751,0.16982053,0.06169739,-0.046120327,241.62996,-100.00799,-9.652868,STD
746006708000,0.574989,-1.88356362739272,14.0175332743363,-0.130000025834722,0.1826487,0.111177474,-0.027488936,241.68494,-100.1927,-9.827693,STD
746011700000,0.579981,-1.80247832301543,13.8660945486726,-0.0937501240933444,0.16493362,0.12583824,-0.004581489,241.73558,-100.362366,-9.984845,STD
746016687000,0.584968,-1.72147423388692,13.7148075044248,-0.0575365303464996,0.109650314,0.12308934,0.016493361,241.77654,-100.517975,-10.129543,STD
746022459000,0.59074,-1.62771935070068,13.5397064778761,-0.0156225814580319,0.029626964,0.08552113,0.009773844,241.82272,-100.66487,-10.269452,STD
746026702000,0.594983,-1.55880009058994,13.4109896283186,0.0151883827023575,-0.032986723,0.06291912,0.004581489,241.86499,-100.796585,-10.396898,STD
746031720000,0.600001,-1.47729246691902,13.258762159292,0.0516270860153046,-0.079107046,0.046731193,-0.0030543262,241.91504,-100.92045,-10.521925,STD
746036705000,0.604986,-1.39632086389001,13.1075357876106,0.0878261565643364,-0.089491755,0.040317107,-0.013133603,241.96729,-101.039375,-10.644136,STD
746041706000,0.609987,-1.31508937206493,12.9558240353982,0.124141412695873,-0.08674286,0.044898596,-0.008857546,242.01944,-101.149315,-10.75956,STD
746046699000,0.61498,-1.23398782463789,12.8043549734513,0.160398576036157,-0.06536258,0.05955936,-0.01160644,242.0686,-101.26018,-10.875071,STD
746051803000,0.620084,-1.15108329868803,12.6495185840708,0.197461776855065,-0.043676864,0.07269296,-0.008857546,242.1154,-101.36438,-10.983268,STD
746056711000,0.624992,-1.07136241049017,12.5006281061947,0.233101704288294,-0.016798794,0.06414085,-0.006414085,242.16278,-101.46731,-11.0882,STD
746061699000,0.62998,-0.990342078311899,12.3493107256637,0.269322559634046,0.0036651916,0.07422013,-0.006414085,242.181967306613,-101.516570248497,-11.1378670853707,STD
746066691000,0.634972,-0.909256773934611,12.197872,0.305572461375423,-0.002443461,0.0693332,-0.0027488936,242.20117,-101.56587,-11.187574,STD
746071729000,0.64001,-0.82742428926859,12.0450378053097,0.3421563966665,-0.010995574,0.076052725,-0.01160644,242.24026,-101.66373,-11.286103,STD
746076699000,0.64498,-0.746696331985913,11.8942664778761,0.378246543231934,-0.024129177,0.07880162,-0.01740966,242.27803,-101.75679,-11.379057,STD
746081720000,0.650001,-0.665139979165727,11.741948,0.414707031341601,-0.020463986,0.07666359,-0.016187929,242.31422,-101.84744,-11.468991,STD
746086710000,0.654991,-0.584087160887949,11.5905699469027,0.450942409885165,-0.016493361,0.07086037,-0.01985312,242.34947,-101.93677,-11.558598,STD
746092406000,0.660687,-0.491566749483094,11.4177744778761,0.492304477256737,-0.02076942,0.05375614,-0.016187929,242.38779,-102.02018,-11.64273,STD
746096685000,0.664966,-0.422062739581168,11.2879655221239,0.523376858977761,0.004581489,0.050396383,-0.015271631,242.4227,-102.10462,-11.725437,STD
746101808000,0.670089,-0.338849595685965,11.1325527433628,0.560578030175894,0.008246681,0.05589417,-0.008857546,242.45905,-102.181725,-11.802651,STD
746106784000,0.675065,-0.258024180104758,10.9815993982301,0.596711746334767,-0.0012217305,0.053450707,-0.017104227,242.49744,-102.26061,-11.881088,STD
746111700000,0.679981,-0.178173347508855,10.8324662300885,0.632409766559248,-0.004276057,0.042760566,-0.0061086523,242.5361,-102.33035,-11.94953,STD
746116686000,0.684967,-0.0971855014300967,10.6812095221239,0.668616098707186,0.0125227375,0.01160644,0.0061086523,242.5804,-102.4001,-12.017672,STD
746121694000,0.689975,-0.0158403082567271,10.5292854159292,0.704982186031068,0.023823744,-0.010995574,0.0125227375,242.62437,-102.46534,-12.081897,STD
746126698000,0.694979,0.0654399127176222,10.3774826548673,0.741319226959324,0.05009095,-0.01160644,0.0061086523,242.66986,-102.53067,-12.144132,STD
746131712000,0.699993,0.146882564189522,10.2253765309735,0.777728883876645,0.044898596,-0.025961773,0.0012217305,242.7249,-102.59019,-12.202464,STD
746136716000,0.704997,0.228162785163871,10.0735737699115,0.814065924804901,0.055588737,-0.02687807,0.014660766,242.7752,-102.6471,-12.254987,STD
746141640000,0.709921,0.308143562157816,9.92419791150442,0.849822037820634,0.058643065,-0.028710667,0.014660766,242.82849,-102.70602,-12.310826,STD
746146684000,0.714965,0.324781726148914,9.87271238663109,0.855083325603576,0.04734206,-0.03176499,0.011911872,242.88141,-102.7597,-12.361668,STD
746151852000,0.720133,0.308865519110615,9.87122023809883,0.844638315221592,0.029626964,-0.032375857,0.010995574,242.93304,-102.810684,-12.41007,STD
746156797000,0.725078,0.293636098869828,9.86979247600671,0.834644008654467,0.02107485,-0.03268129,0.007330383,242.98065,-102.71618,-12.327162,STD
746161985000,0.730266,0.277658296603053,9.86829455290583,0.82415857640568,0.014049901,-0.032375857,0.013133603,243.02844,-102.617584,-12.241235,STD
746166696000,0.734977,0.26314954053544,9.8669343532666,0.814637205680153,0.00030543262,-0.04153884,0.01160644,243.07889,-102.5206,-12.158141,STD
746171758000,0.740039,0.247559788208066,9.86547280994804,0.804406431192228,-0.0018325958,-0.03848451,0.0061086523,243.12567,-102.42321,-12.074033,STD
746176663000,0.744944,0.232453558424231,9.86405659699318,0.794492968358708,-0.0061086523,-0.04520403,0.009162978,243.17795,-102.3228,-11.988023,STD
746181713000,0.749994,0.216900763233943,9.86259851841579,0.784286446990865,0.0012217305,-0.065973446,0.005192355,243.2331,-102.22658,-11.905623,STD
746186675000,0.754956,0.201618987048951,9.86116584794035,0.774257781836956,0.028710667,-0.077579886,0.00580322,243.2874,-102.12946,-11.82101,STD
746191669000,0.75995,0.186238658498397,9.8597239381551,0.764164441696162,0.030848695,-0.04886922,0.0033597588,243.33557,-102.03347,-11.738219,STD
746196703000,0.764984,0.17073513949089,9.85827047923262,0.753990257821761,0.04550946,-0.0106901415,-0.011911872,243.38388,-101.94379,-11.659147,STD
746201750000,0.770031,0.155191583584873,9.85681326684052,0.743789799733938,0.062308256,-0.00061086525,-0.0143553335,243.43182,-101.8519,-11.57737,STD
746206654000,0.774935,0.140088433562463,9.85539734261409,0.733878357993759,0.06811147,-0.03390302,-0.030848695,243.48073,-101.768875,-11.504344,STD
746211664000,0.779945,0.124658828829128,9.85395081317395,0.723752680359522,0.06261369,-0.08307768,-0.027488936,243.5314,-101.68179,-11.426767,STD
746216655000,0.784936,0.109287739562845,9.852509769574,0.713665403498749,0.04428773,-0.10934488,-0.03176499,243.58453,-101.60155,-11.35655,STD
746221630000,0.789911,0.0939659264793432,9.85107334562895,0.703610464131418,0.026267206,-0.11759156,-0.028710667,243.64642,-101.51859,-11.284015,STD
746226638000,0.794919,0.0785424812688554,9.84962739364567,0.693488828683861,0.028405234,-0.1255328,-0.025961773,243.71524,-101.4377,-11.213483,STD
746231654000,0.799935,0.0630943979669772,9.84817913183495,0.683351024489584,0.03604105,-0.11728613,-0.021380283,243.78113,-101.355515,-11.141936,STD
746236674000,0.804955,0.0476339956194037,9.8467297151105,0.673205135921945,0.056199603,-0.1020145,-0.012217305,243.84668,-101.272934,-11.068836,STD
746241638000,0.809919,0.032346059911564,9.84529646717819,0.663172428581356,0.052839845,-0.08552113,-0.00061086525,243.90881,-101.188446,-10.9942465,STD
746246621000,0.814902,0.0169996087366718,9.84385773340569,0.653101320467304,0.044898596,-0.06841691,0.009468411,243.96579,-101.103645,-10.918039,STD
746251678000,0.819959,0.0014252552164169,9.84239763372928,0.642880651446079,0.034208454,-0.06627888,0.0143553335,244.02179,-101.01784,-10.840842,STD
746256657000,0.824938,-0.01390887691278,9.84096005487051,0.632817627705388,0.029626964,-0.07544186,0.017104227,244.07559,-100.93094,-10.762293,STD
746261679000,0.82996,-0.0293754387832012,9.8395100606892,0.622667696951069,0.03390302,-0.07788532,0.014049901,244.12624,-100.84552,-10.684956,STD
746266734000,0.835015,-0.0449436327806084,9.83805053846966,0.612451070116524,0.038179077,-0.087964594,0.010995574,244.18118,-100.760475,-10.608082,STD
746271680000,0.839961,-0.0601761327828193,9.83662248764911,0.602454742456058,0.03023783,-0.10598512,0.012217305,244.23853,-100.6761,-10.532037,STD
746276677000,0.844958,-0.075565700617645,9.83517971167857,0.592355339035244,0.03176499,-0.10842858,0.0143553335,244.29355,-100.59434,-10.457622,STD
746281685000,0.849966,-0.0909891458281327,9.8337337596953,0.582233703587687,0.048563786,-0.122783914,0.0070249503,244.3565,-100.516624,-10.386926,STD
746286718000,0.854999,-0.106489585074216,9.83228058950124,0.572061540806627,0.061086524,-0.13439035,0.0033597588,244.41867,-100.43856,-10.315676,STD
746291664000,0.859945,-0.121722085076427,9.83085253868069,0.562065213146161,0.06811147,-0.13500121,0.002443461,244.48096,-100.36361,-10.246832,STD
746296681000,0.864962,-0.137173248139729,9.82940398814154,0.551925387858543,0.07086037,-0.13713925,0.0009162979,244.54626,-100.291504,-10.180351,STD
746301696000,0.869977,-0.152618251680183,9.82795601505924,0.541789604757605,0.08093964,-0.11636983,0.0106901415,244.60431,-100.218315,-10.111781,STD
746306663000,0.874944,-0.167915426672294,9.82652190094164,0.531750834136995,0.09101892,-0.11056661,0.010995574,244.66649,-100.14958,-10.04752,STD
746311659000,0.87994,-0.183301914745696,9.82507941369954,0.521653451809521,0.08674286,-0.10751228,0.003970624,244.72273,-100.081276,-9.98355,STD
746316675000,0.884956,-0.198749998047575,9.82363115188881,0.511515647615243,0.077579886,-0.11453723,0.004886922,244.7796,-100.012115,-9.918378,STD
746321649000,0.88993,-0.214068731369652,9.82219501667219,0.501462729341252,0.08124508,-0.11484267,0.004276057,244.8329,-99.946945,-9.856665,STD
746326664000,0.894945,-0.229513734910107,9.8207470435899,0.491326946240315,0.08399397,-0.124005646,-0.0061086523,244.89008,-99.88514,-9.79868,STD
746331633000,0.899914,-0.244817069425066,9.81931235201544,0.481284133433025,0.076052725,-0.12767084,-0.0036651916,244.9451,-99.82083,-9.738237,STD
746336658000,0.904939,-0.260292870579758,9.81786149164883,0.471128139398685,0.07391469,-0.13836098,-0.01160644,245.00398,-99.7639,-9.684845,STD
746341581000,0.909862,-0.275454536069221,9.8164400815822,0.461178296885043,0.061391957,-0.13927728,-0.015577064,245.0604,-99.70565,-9.630575,STD
746346631000,0.914912,-0.281768813348992,9.80006143100411,0.463728139128988,0.056199603,-0.14569137,-0.016187929,245.12073,-99.649994,-9.578649,STD
746351614000,0.919895,-0.286439120101781,9.78138030152672,0.468398441005089,0.059253927,-0.13775012,-0.030848695,245.17621,-99.60042,-9.532718,STD
746356659000,0.92494,-0.275333429509754,9.7898905913272,0.445321987352674,0.057421334,-0.1328632,-0.022296581,245.25381,-99.60533,-9.539288,STD
746361579000,0.92986,-0.261045173611645,9.80417863337714,0.416745485502881,0.052839845,-0.13958271,-0.029626964,245.3308,-99.61845,-9.554011,STD
746366689000,0.93497,-0.303008765706763,9.83627353926464,0.341447278830685,0.04917465,-0.12950343,-0.03359759,245.41708,-99.61897,-9.557621,STD
746371770000,0.940051,-0.356019851216523,9.87161451202905,0.257513070485701,0.048563786,-0.11209377,-0.026267206,245.50125,-99.61816,-9.559693,STD
746376735000,0.945016,-0.39291468584489,9.88973786800205,0.21042413415511,0.046731193,-0.106901415,-0.03573562,245.60455,-99.608665,-9.554313,STD
746381704000,0.949985,-0.422244209620955,9.89951406286595,0.181094610379045,0.05100725,-0.089186326,-0.04062254,245.69699,-99.59624,-9.545339,STD
746386765000,0.955046,-0.453211136119085,9.90559732632651,0.146948421957589,0.062002823,-0.06963864,-0.04153884,245.80734,-99.58661,-9.538892,WAL
746391694000,0.959975,-0.483809207871099,9.90996856745995,0.11197919761978,0.06383542,-0.06627888,-0.044898596,245.91447,-99.57905,-9.5343485,WAL
746396723000,0.965004,-0.516345038547486,9.90150872625698,0.0800385611340782,0.071776666,-0.06078109,-0.049785517,246.043,-99.55941,-9.518814,WAL
746401808000,0.970089,-0.550352066704908,9.88207625468875,0.050889682827514,0.08124508,-0.06719518,-0.050396383,246.17029,-99.54021,-9.5032015,WAL
746406829000,0.97511,-0.582031631991206,9.86802120728643,0.0439739052179648,0.08674286,-0.076052725,-0.0580322,246.32455,-99.51456,-9.482223,WAL
746411741000,0.980022,-0.611580166011307,9.85817149539363,0.0538234181007119,0.10720685,-0.06688975,-0.06291912,246.4707,-99.48978,-9.460921,WAL
746417640000,0.985921,-0.642302681767268,9.84264803180069,0.0851951726159611,0.122783914,-0.077579886,-0.07147124,246.6529,-99.44843,-9.424473,WAL
746421742000,0.990023,-0.662195375218756,9.83071259935183,0.113044923507191,0.13805555,-0.08857546,-0.076052725,246.82648,-99.409424,-9.389191,WAL
746426733000,0.995014,-0.695715236496496,9.8131346978979,0.121331144630631,0.15668693,-0.10293079,-0.09132435,247.03543,-99.34442,-9.329316,WAL
746431715000,0.999996,-0.733922738078078,9.79403104684685,0.116555201945946,0.16187929,-0.1020145,-0.109650314,247.2355,-99.28478,-9.273708,WAL
746436711000,1.004992,-0.762466489872374,9.77821146573729,0.105636333186727,0.17898351,-0.09865474,-0.10781772,247.43286,-99.22995,-9.221998,WAL
746441746000,1.010027,-0.786135868671706,9.76400956263499,0.0914347167818575,0.18936823,-0.1151481,-0.1328632,247.62866,-99.190125,-9.184636,WAL
746446724000,1.015005,-0.800584072370986,9.76732983686927,0.0605002680332569,0.19914207,-0.12675454,-0.14874569,247.89542,-99.09098,-9.088988,WAL
746451785000,1.020066,-0.809847864323395,9.78122582224771,0.0188131534633027,0.19792034,-0.13164146,-0.15851954,248.1543,-99.00265,-9.002349,WAL
746456779000,1.02506,-0.83587465268612,9.79477892106248,-0.0267007692480359,0.20341812,-0.1469131,-0.17470746,248.4049,-81.10399,-8.895926,WAL
746461703000,1.029984,-0.875568438806584,9.80800998353909,-0.0752153772839506,0.20677789,-0.14630222,-0.18600847,248.6436,-81.20378,-8.795074,WAL
746466676000,1.034957,-0.925963787502429,9.82810885023216,-0.119206998626498,0.20677789,-0.13652839,-0.19914207,248.83777,-81.31979,-8.677498,WAL
746471763000,1.040044,-0.994349875860058,9.85967175996113,-0.156030287113703,0.21197024,-0.13316862,-0.21471913,249.02911,-81.42776,-8.567551,WAL
746476738000,1.045019,-1.06854627274259,9.86208651541283,-0.164648173610863,0.21074851,-0.13591751,-0.21746802,249.21115,-81.52346,-8.469952,WAL
746481728000,1.050009,-1.14906968363564,9.84077156398057,-0.150438163124195,0.22357668,-0.1572978,-0.24404067,249.3942,-81.60536,-8.386235,WAL
746487481000,1.055762,-1.24190559202597,9.81619743259986,-0.134055359450887,0.23732115,-0.1966986,-0.2669481,249.55307,-81.69056,-8.2998905,WAL
746491706000,1.059987,-1.31008423150956,9.79815020418277,-0.122023837545842,0.27275133,-0.22174409,-0.2733622,249.71234,-81.7718,-8.218021,WAL
746496719000,1.065,-1.39212462604693,9.76361425650926,-0.122086508034848,0.27152961,-0.28863382,-0.30543262,249.88713,-81.83658,-8.152417,WAL
746501809000,1.07009,-1.47657705343035,9.71535575537076,-0.136564068454608,0.28344148,-0.3662137,-0.32925636,250.07065,-81.90148,-8.087419,WAL
746506826000,1.075107,-1.55981827704188,9.66778937026037,-0.150833993921394,0.3051272,-0.44959682,-0.3643811,250.2615,-81.9219,-8.067117,WAL
746511742000,1.080023,-1.64138372557173,9.62118057033957,-0.164816643631324,0.33841935,-0.52839845,-0.40500367,250.47174,-81.934784,-8.054637,WAL
746516713000,1.084994,-1.68120377294347,9.57870395662768,-0.189639439488304,0.36987892,-0.5946773,-0.44593164,250.70056,-81.938614,-8.051448,WAL
746521743000,1.090024,-1.67181365520468,9.54114319152047,-0.22719993495614,0.38362336,-0.6450737,-0.47861293,250.94531,-81.9345,-8.05637,WAL
746526679000,1.09496,-1.65693438343097,9.54574995186487,-0.262198975472564,0.41172317,-0.6768387,-0.5216789,251.19302,-81.887726,-8.104896,WAL
746531696000,1.099977,-1.6334785613552,9.61142601855106,-0.295037082292521,0.42363504,-0.7119634,-0.56230146,251.45413,-81.83437,-8.159739,WAL
746536669000,1.10495,-1.62336557514451,9.67947583477842,-0.293236654022158,0.45540005,-0.73975784,-0.59956425,251.72165,-81.7732,-8.222866,WAL
746541717000,1.109998,-1.63733773884393,9.75399413843931,-0.228033179656069,0.4709771,-0.8014552,-0.6444628,252.00682,-81.7005,-8.297045,WAL
746546694000,1.114975,-1.65932853158839,9.84838917738558,-0.155030827340712,0.49632803,-0.88300574,-0.68386364,252.30624,-81.62768,-8.371252,WAL
746551872000,1.120153,-1.70382933440024,10.0016696458271,-0.0561401984259647,0.4896085,-0.9932669,-0.7312057,252.62918,-81.54208,-8.45759,WAL
746557054000,1.125335,-1.73021522461774,10.1353987538226,0.00160986288742355,0.4990769,-1.1123856,-0.7825184,252.9727,-81.446556,-8.553425,WAL
746561749000,1.13003,-1.72162136452599,10.2213373547401,-0.0198748025970948,0.49693888,-1.169807,-0.82894415,253.3268,-98.65792,-8.657854,WAL
746566716000,1.134997,-1.71601512204322,10.2871167692534,-0.0754084150890963,0.49174652,-1.2675453,-0.8509353,253.72275,-98.77582,-8.775582,WAL
746571757000,1.140038,-1.72549972888016,10.2444361375246,-0.274585293850688,0.48655418,-1.3182472,-0.8918633,254.11737,-98.908134,-8.907616,WAL
746576709000,1.14499,-1.72922141547988,10.1893665619195,-0.472584269814242,0.4718934,-1.2980887,-0.9306532,254.51695,-99.037155,-9.036254,WAL
746581735000,1.150016,-1.70128043436533,10.0589750249613,-0.686798604237616,0.44929138,-1.2049317,-0.96974856,254.90509,-99.173485,-9.1721115,WAL
746586684000,1.154965,-1.6777854320725,9.93408577994484,-0.891762753723404,0.4098906,-1.1151345,-0.9969321,255.29933,-99.32409,-9.321615,WAL
746591709000,1.15999,-1.70148688006304,9.84876076516942,-1.02923125106383,0.3744604,-1.0228939,-1.0128145,255.66116,-99.4779,-9.474024,WAL
746596743000,1.165024,-1.72928746465196,9.7686304933011,-1.16828068681374,0.3417791,-0.9398162,-1.0302242,256.0039,-99.63875,-9.63208,WAL
746601802000,1.170083,-1.82201765550519,9.77351112622141,-1.32933831161479,0.34697145,-0.8622363,-1.0635164,256.31747,-99.80456,-9.7941885,WAL
746606762000,1.175043,-1.9102318538202,9.78310845505061,-1.47779303974995,0.35521814,-0.8078693,-1.0983357,256.61212,-99.98247,-9.966627,WAL
746611739000,1.18002,-1.96698565449494,9.84932112373487,-1.51562895625124,0.38423425,-0.7519751,-1.1377366,256.88043,-100.16761,-10.144575,WAL
746616825000,1.185106,-2.02693407436053,9.92009123471777,-1.55237688017862,0.42088616,-0.72021013,-1.1814134,257.14014,-100.38126,-10.347406,WAL
746621739000,1.19002,-2.10854413998092,10.0261842944594,-1.56461837723923,0.4456262,-0.6774496,-1.2223413,257.37744,-100.60178,-10.554739,WAL
746626657000,1.194938,-2.19022063626116,10.132363714038,-1.57686983888841,0.44715336,-0.59528816,-1.2760975,257.59833,-100.84799,-10.785001,WAL
746631705000,1.199986,-2.3365890668195,10.2746804955646,-1.6583339128775,0.4343252,-0.5513059,-1.3460416,257.81494,-101.10607,-11.025219,WAL
746636647000,1.204928,-2.5016941789694,10.4256338929533,-1.76211433663909,0.45753807,-0.5491679,-1.3881912,258.01727,-101.3679,-11.266093,WAL
746641741000,1.210022,-2.60453685567784,10.61378491996,-1.9907349957979,0.5360342,-0.55924714,-1.3967434,258.21332,-101.65356,-11.527507,WAL
746646668000,1.214949,-2.68007055082541,10.8073398597299,-2.25510273163582,0.6618725,-0.5323691,-1.3524556,258.39578,-101.933495,-11.778047,WAL
746651716000,1.219997,-2.64265993375,10.9726861125,-2.28622318,0.7791586,-0.42852196,-1.3136657,258.55655,-102.24162,-12.048283,WAL
746656717000,1.224998,-2.56437226011538,11.1246559234615,-2.23096136061538,0.8368854,-0.37293324,-1.248914,258.72235,-102.52868,-12.2913065,WAL
746661696000,1.229977,-2.39701179474453,11.1547007328467,-1.95505266846715,0.8723156,-0.26053402,-1.2156218,258.85355,-102.8324,-12.532376,WAL
746666890000,1.235171,-2.17432294972263,11.1208136109002,-1.5484032116691,0.88178396,-0.16584991,-1.0995574,258.97476,-103.095055,-12.724159,WAL
746671693000,1.239974,-2.05087794111481,11.1061932644895,-1.32941824761617,0.8854492,-0.10445796,-1.0607675,259.07837,-103.35704,-12.910312,WAL
746676735000,1.245016,-1.9730046805564,11.1013260904143,-1.19800724112489,0.8512407,-0.076358154,-0.98868537,259.16687,-103.57495,-13.048111,WAL
746681714000,1.249995,-1.96734404089607,11.1201875506642,-1.17505265019536,0.806953,-0.020463986,-0.9306532,259.23038,-103.735214,-13.14087,WAL
746686666000,1.254947,-2.00440393691065,11.1531295084657,-1.2162303554311,0.75686204,0.055588737,-0.8894198,259.28125,-103.87655,-13.2145605,WAL
746691706000,1.259987,-2.05554050379925,11.1615102229534,-1.18117649367728,0.72173727,0.12736541,-0.84849185,259.31833,-103.97788,-13.253404,WAL
746696730000,1.265011,-2.13575143874704,11.1150722761253,-0.978538419489339,0.6826419,0.19822577,-0.7996226,259.3351,-104.06147,-13.276018,WAL
746701815000,1.270096,-2.21678447603513,11.0627132233375,-0.770914935633626,0.6432411,0.28893927,-0.7696902,259.35,-104.159195,-13.313302,WAL
746707164000,1.275445,-2.29942245124574,10.9158017254884,-0.509228130784191,0.5742133,0.3313944,-0.7483099,259.35995,-104.23962,-13.338325,WAL
746711697000,1.279978,-2.36945384807313,10.7913018526618,-0.287462139686324,0.52534413,0.34697145,-0.7357872,259.347,-104.32871,-13.385672,WAL
746716737000,1.285018,-2.48699884255319,10.6225826342452,-0.211857989090172,0.47769663,0.35613444,-0.729984,259.3245,-104.405914,-13.427139,WAL
746721698000,1.289979,-2.61215326170213,10.4492919387031,-0.17816256545694,0.44012842,0.36835176,-0.74220127,259.29694,-104.479546,-13.469046,WAL
746726743000,1.295024,-2.7246275857551,10.2850357342134,-0.354393741089548,0.42149702,0.3735441,-0.74189585,259.25888,-104.5631,-13.539776,WAL
746731665000,1.299946,-2.83143003999606,10.1271535291104,-0.567998707756871,0.38515055,0.43585235,-0.7476991,259.2,-104.64356,-13.611983,WAL
746736715000,1.304996,-2.90206390075175,9.99760334222302,-0.678296587731341,0.3830125,0.52381694,-0.7348709,259.12872,-104.75701,-13.717044,WAL
746742456000,1.310737,-2.97094932434222,9.85983270055486,-0.771784015110077,0.39461896,0.54336464,-0.74006325,259.0592,-104.87091,-13.825775,WAL
746746970000,1.315251,-2.98187253254126,9.79534816270629,-0.886242551844826,0.39614612,0.45051312,-0.7623598,258.99884,-105.03273,-13.972076,WAL
746751922000,1.320203,-2.97212981249743,9.74663456248716,-1.032383464408,0.30970868,0.48808134,-0.7452556,258.89728,-105.172585,-14.100208,WAL
746757847000,1.326128,-2.96047278175033,9.68834940875163,-1.20723905950832,0.2574797,0.5873469,-0.7324274,258.80185,-105.339966,-14.248069,WAL
746761738000,1.330019,-2.93534352831325,9.46714333763626,-1.23478997607573,0.28130344,0.6270532,-0.73364913,258.71448,-105.50055,-14.39117,WAL
746766696000,1.334977,-2.89902169819277,9.14024577615223,-1.24841068014917,0.2779437,0.655153,-0.73731434,258.6036,-105.64549,-14.524723,WAL
746771707000,1.339988,-2.86873754758419,8.90377987847731,-1.40448147306003,0.27000242,0.6976081,-0.7257079,258.49384,-105.817474,-14.669399,WAL
746776696000,1.344977,-2.8437539378791,8.74388508941644,-1.67430461440075,0.258396,0.7657196,-0.6957755,258.37094,-105.97946,-14.803486,WAL
746781689000,1.34997,-2.79408048868092,8.62442925465471,-1.72503182082553,0.2770274,0.8503244,-0.6771441,258.2298,-106.15047,-14.939758,WAL
746786730000,1.355011,-2.72987641864348,8.52693400049256,-1.65131607257413,0.2764165,0.9230174,-0.6591236,258.076,-106.305565,-15.061721,WAL
746791703000,1.359984,-2.66653842215545,8.43075389754704,-1.57859470458083,0.2864958,0.9434814,-0.63346726,257.93536,-106.49727,-15.199843,WAL
746796732000,1.365013,-2.60248718862674,8.33349072889371,-1.5050544351985,0.31948254,0.9560041,-0.61269784,257.77997,-106.68267,-15.3273,WAL
746801755000,1.370036,-2.55985087184559,8.26633038102554,-1.46667314269253,0.30848694,0.956615,-0.61208695,257.62338,-106.86939,-15.459387,WAL
746806791000,1.375072,-2.53206389316305,8.22001891108124,-1.45277975006722,0.2996294,0.97005403,-0.6047566,257.46442,-107.0475,-15.578072,WAL
746811701000,1.379982,-2.5044309643178,8.22390613174968,-1.50317446756163,0.29657507,0.9660834,-0.59406644,257.31018,-107.21745,-15.697406,WAL
746816683000,1.384964,-2.47585828185448,8.27628948238347,-1.61746524714043,0.2779437,0.9651671,-0.5739079,257.1557,-107.374855,-15.806865,WAL
746821704000,1.389985,-2.45157255863618,8.32967484156799,-1.73877506933442,0.28069258,0.9767735,-0.56505036,257.00006,-107.539024,-15.921225,WAL
746826697000,1.394978,-2.43204746169865,8.38336946978358,-1.86568830136791,0.27152961,1.0082331,-0.56321776,256.8429,-107.69106,-16.02688,WAL
746831685000,1.399966,-2.41799411732001,8.43806489607995,-1.952097246536,0.26511553,1.0302242,-0.55863625,256.69604,-107.85745,-16.138206,WAL
746836707000,1.404988,-2.40866082826509,8.49406463040947,-2.00343060434698,0.25625798,1.0461067,-0.54825157,256.54562,-108.01482,-16.24162,WAL
746841699000,1.40998,-2.41501437969045,8.52560520756027,-2.05949613513245,0.26633725,1.040609,-0.535118,256.38715,-108.18106,-16.341118,WAL
746846723000,1.415004,-2.43888269138803,8.53037897956147,-2.12155397483877,0.2706133,1.0415252,-0.52473325,256.22684,-108.338196,-16.433132,WAL
746851717000,1.419998,-2.4516625,8.54600669668246,-2.1536922957346,0.28588495,1.042747,-0.50885075,256.05374,-108.51039,-16.530329,WAL
746856709000,1.42499,-2.4516625,8.57432870616114,-2.15133213649289,0.28710666,1.0384709,-0.50671273,255.88672,-108.67666,-16.62411,WAL
746861659000,1.42994,-2.4516625,8.60241242950237,-2.14899183436019,0.27947086,1.0106765,-0.49632803,255.73433,-108.838455,-16.70948,WAL
746866692000,1.434973,-2.4516625,8.63096705163902,-2.14661229079779,0.28405234,1.0036516,-0.48197266,255.58191,-108.99528,-16.78828,WAL
746871646000,1.439927,-2.47256212335572,8.62521561254714,-2.14694643679514,0.29657507,0.9831876,-0.45814893,255.44669,-109.14226,-16.859484,WAL
746876698000,1.444979,-2.52596874813725,8.56735810652194,-2.15139699273296,0.29901853,0.97035944,-0.43799037,255.3157,-109.28126,-16.924158,WAL
746881808000,1.450089,-2.57517288390421,8.51967712296656,-2.14741974343741,0.29871312,0.9468411,-0.42271876,255.14012,-109.44576,-17.00401,WAL
746886691000,1.454972,-2.60824821521673,8.50550226290795,-2.11906962861473,0.3100141,0.91324353,-0.3912592,254.97845,-109.59787,-17.070862,WAL
746891680000,1.459961,-2.6452401557681,8.47836260618778,-2.09267351342963,0.33292156,0.890947,-0.3594942,254.81548,-109.76323,-17.148169,WAL
746896703000,1.464984,-2.6921894690611,8.41263366562561,-2.07389369006442,0.3277292,0.86590147,-0.34025195,254.66904,-109.916336,-17.218119,WAL
746901711000,1.469992,-2.73916748574834,8.34881987416824,-2.06292441471844,0.3231477,0.8390234,-0.31795537,254.51515,-110.07307,-17.28847,WAL
746906709000,1.47499,-2.78670432793723,8.29177496861655,-2.081939250869,0.32711834,0.8213083,-0.2846632,254.37231,-110.21782,-17.347597,WAL
746911719000,1.48,-2.82789788101578,8.22736419013807,-2.10280054295858,0.3200934,0.8323039,-0.26511553,254.20663,-110.37018,-17.413696,WAL
746916684000,1.484965,-2.84196562583826,8.13357955108481,-2.13093593467456,0.3182608,0.838718,-0.23335053,254.05493,-110.507904,-17.464926,WAL
746921691000,1.489972,-2.84715992076209,8.0361512000977,-2.16151015581827,0.31031954,0.86284715,-0.19333886,253.88086,-110.653206,-17.518084,WAL
746926700000,1.494981,-2.80497787645335,7.92366623800684,-2.20369205330728,0.29046643,0.8897252,-0.16462818,253.71063,-110.78681,-17.561987,WAL
746931705000,1.499986,-2.76501590419452,7.81138172893539,-2.24847987945365,0.26236662,0.89949906,-0.11881329,253.54854,-110.90749,-17.590914,WAL
746936763000,1.505044,-2.74155399660951,7.6987644745326,-2.31417331868643,0.24984388,0.9242391,-0.06261369,253.3819,-111.0143,-17.604395,WAL
746941825000,1.510106,-2.71885498270496,7.59153353811133,-2.37696424125911,0.22418754,0.94897914,-0.03145956,253.17833,-111.13481,-17.620228,WAL
746946763000,1.515044,-2.7062398109639,7.5536878911613,-2.40219467255913,0.19333886,0.9621128,0.009468411,252.98169,-111.233406,-17.61535,WAL
746952079000,1.52036,-2.69265895778944,7.51294518982749,-2.42935647344834,0.16982053,0.9728029,0.05131268,252.77185,-111.33487,-17.60134,WAL
746956826000,1.525107,-2.70322764769703,7.500119824565,-2.4365572877175,0.15454891,0.9599747,0.079107046,252.57391,-111.42385,-17.579756,WAL
746961684000,1.529965,-2.71751339973388,7.49059605617196,-2.44131917191402,0.15699236,0.93584555,0.12797627,252.38715,-111.495026,-17.540485,WAL
746966742000,1.535023,-2.83295659797384,7.51546306653159,-2.53260056262663,0.13133603,0.8958339,0.16890424,252.21817,-111.55629,-17.496923,WAL
746971741000,1.540022,-2.96523088381838,7.54632694225456,-2.63841997288635,0.1160644,0.8374963,0.2049453,252.07063,-111.608116,-17.444387,WAL
746976742000,1.545023,-3.10589457209189,7.597523179597,-2.69104730852721,0.112704635,0.816116,0.24098633,251.90147,-111.66514,-17.3898,WAL
746981722000,1.550003,-3.24981230615205,7.65787585437555,-2.7189023929232,0.09285152,0.7837401,0.28038713,251.76093,-111.70678,-17.329569,WAL
746986720000,1.555001,-3.399562,7.76691460621521,-2.76021699072356,0.07941248,0.745561,0.31612277,251.62129,-111.769005,-17.2776,WAL
746991706000,1.559987,-3.5521336,7.9047210783859,-2.80943356957328,0.06291912,0.70066243,0.32803464,251.49944,-111.82269,-17.224703,WAL
746996750000,1.565031,-3.69954430090524,8.04741423473613,-2.87289904892142,0.045814894,0.65179324,0.3408628,251.39197,-111.87271,-17.174881,WAL
747001739000,1.57002,-3.84218098320493,8.19005067681048,-2.94191675192604,0.019547688,0.6209445,0.33322698,251.29567,-111.9194,-17.130255,WAL
747006700000,1.574981,-3.97092995412277,8.35099456867909,-2.98344391693679,-0.0030543262,0.5873469,0.3371976,251.19035,-111.9701,-17.089012,WAL
747011704000,1.579985,-4.09228906875,8.525752375,-3.00771575,-0.017104227,0.56138515,0.34147367,251.09473,-112.018265,-17.052237,WAL
747016683000,1.584964,-4.21649427572301,8.68801285295316,-3.02279509710794,-0.04917465,0.5158757,0.33108896,251.00706,-112.07255,-17.031143,WAL
747021692000,1.589973,-4.34350313262729,8.8443308889002,-3.03256504449084,-0.070554934,0.48349985,0.32345316,250.92642,-112.123405,-17.009676,WAL
747026677000,1.594958,-4.46218573699549,8.96652734952429,-3.0105116210015,-0.11178834,0.44715336,0.31703907,250.84485,-112.171,-17.000177,WAL
747031682000,1.599963,-4.5773950725989,9.07213610766149,-2.9721085091337,-0.15271631,0.4092797,0.301462,250.77399,-112.21687,-16.997948,WAL
747036701000,1.604982,-4.64543166518981,9.15165930958728,-2.95629221269418,-0.20952678,0.37720928,0.29810223,250.70384,-112.24835,-16.999643,WAL
747041718000,1.609999,-4.68959652970861,9.21790639884181,-2.95187574007721,-0.26450464,0.34574974,0.2874121,250.6441,-112.27639,-17.010317,WAL
747046708000,1.614989,-4.72424035292259,9.26613667551343,-2.96957866467615,-0.31673363,0.3454443,0.2932153,250.56595,-112.29224,-17.025166,WAL
747051787000,1.620068,-4.74985413238547,9.2968733178515,-3.01056071181675,-0.37018433,0.33841935,0.2947425,250.4985,-112.300186,-17.04664,WAL
747056714000,1.624995,-4.7385622467699,9.34665533524016,-3.02204875817142,-0.4007276,0.3277292,0.28955013,250.41138,-112.306854,-17.070381,WAL
747061693000,1.629974,-4.70329028692672,9.4101448285827,-3.014994380935,-0.43310347,0.321926,0.2855795,250.32591,-112.30234,-17.09336,WAL
747067467000,1.635748,-4.66238643150705,9.48377172847421,-3.0068136269356,-0.4615087,0.30818152,0.27550024,250.23575,-112.29562,-17.114494,WAL
747071701000,1.639982,-4.6323921599714,9.53776138800671,-3.00081478515633,-0.48624873,0.30695978,0.269697,250.14444,-112.28344,-17.135056,WAL
747076735000,1.645016,-4.65044147697228,9.58046871783938,-2.94723328926795,-0.505491,0.29138273,0.2678644,250.0582,-112.263504,-17.153513,WAL
747081724000,1.650005,-4.71350620569601,9.60472430480252,-2.85506190684333,-0.48930305,0.27580565,0.25900686,249.97192,-112.24855,-17.17571,WAL
747086725000,1.655006,-4.77024437755665,9.6475412520197,-2.79936745864039,-0.48624873,0.25625798,0.22968534,249.88898,-112.2233,-17.196768,WAL
747091709000,1.65999,-4.82197230693596,9.70397191684729,-2.77115227353695,-0.48838675,0.18906279,0.20861048,249.82495,-112.20046,-17.222462,WAL
747096757000,1.665038,-4.87172768788356,9.79210807690795,-2.81243346856806,-0.47952923,0.12705997,0.19211712,249.74472,-112.173584,-17.253614,WAL
747101715000,1.669996,-4.91842494830842,9.90418140440598,-2.9104978129819,-0.47800204,0.06994407,0.1704314,249.68094,-112.15156,-17.296087,WAL
747106692000,1.674973,-4.9372369939275,10.0609713150397,-2.99439579447539,-0.47067168,0.014660766,0.15974127,249.63171,-112.13209,-17.34845,WAL
747111701000,1.679982,-4.92847611524975,10.2624720735093,-3.06448291537759,-0.45631635,-0.05497787,0.15241088,249.60147,-112.11876,-17.409695,WAL
747116672000,1.684953,-4.88333688066158,10.5742027105598,-3.10463388708651,-0.43279803,-0.12461651,0.15118915,249.5772,-112.10565,-17.459274,WAL
747121749000,1.69003,-4.75446332892282,11.1464013879347,-3.07885901525657,-0.41050145,-0.18600847,0.16523905,249.57048,-112.09323,-17.50962,WAL
747126728000,1.695009,-4.57047024206453,11.8241376323249,-3.09168265214594,-0.39614612,-0.24465153,0.18845193,249.58076,-112.07097,-17.543297,WAL
747131677000,1.699958,-4.3132217294502,12.6482846685094,-3.15361290305558,-0.39584067,-0.2843578,0.22266038,249.60382,-112.04468,-17.57183,WAL
747137478000,1.705759,-3.94219746920579,13.5257055100384,-3.4323648892235,-0.40653083,-0.2837469,0.2837469,249.62036,-111.97709,-17.558788,WAL
747141701000,1.709982,-3.62378123272316,14.102835336089,-3.77864261861037,-0.4092797,-0.19456059,0.32925636,249.62227,-111.90838,-17.537554,WAL
747146676000,1.714957,-3.2780294733387,14.605478927507,-4.04158208550141,-0.38423425,-0.1386664,0.3539964,249.63356,-111.78276,-17.449692,WAL
747151778000,1.720059,-2.96809843550141,14.8514554809706,-4.09077739619412,-0.37659842,-0.03970624,0.35308012,249.60693,-111.65411,-17.351593,WAL
747156742000,1.725023,-2.68737716416806,14.8261462515041,-3.95445124896933,-0.29046643,0.019242255,0.33292156,249.59897,-111.523125,-17.185024,WAL
747161743000,1.730024,-2.43229730939935,14.4482508828287,-3.57183159012723,-0.18081611,0.004581489,0.29077184,249.58247,-111.40889,-17.030695,WAL
747166650000,1.734931,-2.15376129744723,13.8970033278351,-3.10919954346588,-0.08002335,-0.04917465,0.22388211,249.56006,-111.28895,-16.846766,WAL
747171711000,1.739992,-1.82064637682867,13.0356628680412,-2.49055756222877,0.016187929,-0.17806722,0.18875736,249.56409,-111.195435,-16.679785,WAL
747176637000,1.744918,-1.50813082513683,12.1042600162236,-1.83179276515442,0.071776666,-0.3231477,0.16279559,249.58694,-111.08879,-16.52467,WAL
747181718000,1.749999,-1.20852523064894,10.9629051340891,-1.04235569958952,0.06688975,-0.52503866,0.14996742,249.66188,-110.99761,-16.393156,WAL
747186651000,1.754932,-0.961637978654362,9.8397252488836,-0.266682261708842,0.03573562,-0.7696902,0.14630222,249.78894,-110.87558,-16.280083,WAL
747191681000,1.759962,-0.813447899265655,8.65898503552645,0.545973033934703,-0.008552114,-1.061073,0.16768251,249.98677,-110.75084,-16.181896,WAL
747196672000,1.764953,-0.65132199302112,7.55809270089323,1.15031449040821,-0.09743301,-1.3497068,0.1957823,250.25179,-110.575,-16.117846,WAL
747201741000,1.770022,-0.448697259449036,6.61791401227148,1.25567936168295,-0.22602014,-1.6154331,0.23701571,250.59343,-110.3793,-16.05969,WAL
747206666000,1.774947,-0.251828683232323,5.70444389164371,1.35805103085399,-0.37048978,-1.7690657,0.26847526,250.98285,-110.129326,-16.037104,WAL
747211633000,1.779914,0.203527427351893,4.87229634185969,0.639347850071269,-0.5122105,-1.781894,0.30085114,251.40741,-109.85246,-16.005907,WAL
747216597000,1.784878,0.680563362668322,4.10665728344953,-0.163700196218126,-0.6239988,-1.6740762,0.36560285,251.84068,-109.54718,-15.954102,WAL
747221631000,1.789912,1.04889226309808,3.96392999438449,-0.77604695592398,-0.73364913,-1.5088371,0.44226643,252.27911,-109.22275,-15.889486,WAL
747226891000,1.795172,1.41915274947467,3.84056062269843,-1.38551280701134,-0.80909103,-1.357648,0.54367006,252.72366,-108.91107,-15.741016,WAL
747231606000,1.799887,1.45673065694372,4.24922109601581,-1.31975133405805,-0.8491027,-1.2498302,0.63255095,253.13165,-108.57422,-15.564278,WAL
747236650000,1.804931,1.48102661561265,4.72470616798419,-1.23600426956522,-0.8738427,-1.1453724,0.7648033,253.53314,-108.20904,-15.276367,WAL
747241623000,1.809904,1.30690193464427,5.67062678794466,-0.986582373478261,-0.8897252,-1.0922271,0.8729264,253.91772,-107.824974,-14.964607,WAL
747246775000,1.815056,1.09661376695652,6.66705339130435,-0.729988599275362,-0.874759,-0.96577793,0.9370673,254.24994,-107.39886,-14.60192,WAL
747251695000,1.819976,0.532109589426087,7.81882396521739,-0.506918413768116,-0.83260936,-0.8249735,0.95264435,254.5616,-106.96324,-14.218304,WAL
747256965000,1.825246,-0.0825654716707819,9.05027911111111,-0.273392219958848,-0.79259765,-0.6960809,0.95447695,254.82288,-106.48463,-13.817418,WAL
747261661000,1.829942,-0.840072637689348,10.1004600310078,-0.178703822408843,-0.6994407,-0.5742133,0.94225967,255.04083,-106.02616,-13.4124565,WAL
747266671000,1.834952,-1.64823083652943,11.2208617364341,-0.077684045635946,-0.57696223,-0.3707952,0.926988,255.14883,-105.599144,-13.0656,WAL
747271673000,1.839954,-2.48363490149498,12.304151670899,-0.233756064919107,-0.44135013,-0.14905111,0.9059132,255.21072,-105.20234,-12.724738,WAL
747276623000,1.844904,-3.31368694941634,13.372054614786,-0.418212067120623,-0.3036,0.09590584,0.89888823,255.2034,-104.83408,-12.381972,WAL
747281655000,1.849936,-3.92430783967022,13.8074241726479,-0.413530416217265,-0.20341812,0.28619036,0.88239485,255.07748,-104.567,-12.156819,WAL
747286633000,1.854914,-4.51155458122211,14.1912154190107,-0.395034456841901,-0.1881465,0.35705075,0.8268061,254.91446,-104.32715,-11.947582,WAL
747291658000,1.859939,-4.6714258022249,13.6770045216476,-0.346374615273602,-0.19761491,0.37934732,0.7654142,254.64072,-104.20932,-11.843748,WAL
747296611000,1.864892,-4.76650295087192,13.0399880625376,-0.294082253012628,-0.22693644,0.38423425,0.68600166,254.35818,-104.108765,-11.761338,WAL
747301713000,1.869994,-4.37737713959272,12.1879742457411,-0.312394795887997,-0.24251351,0.41172317,0.6407976,254.07806,-104.0391,-11.741021,WAL
747306592000,1.874873,-3.93821292317407,11.3462430896808,-0.339842557622871,-0.27977628,0.42119157,0.6252206,253.80714,-103.97159,-11.7325,WAL
747311671000,1.879952,-2.83878674447398,10.1822661004558,-0.230083416680593,-0.3210097,0.41386122,0.63163465,253.55254,-103.91057,-11.741977,WAL
747316638000,1.884919,-1.63287563966958,8.98538817275921,-0.094587787987087,-0.36957347,0.41508293,0.6563747,253.29832,-103.84139,-11.747451,WAL
747321676000,1.889957,-1.14907040168904,8.44342128036465,-0.235804308565206,-0.41905355,0.44348818,0.71593404,253.0672,-103.731415,-11.696908,WAL
747326623000,1.894904,-0.942720634094708,8.15549132373259,-0.475745874785515,-0.49510628,0.5112942,0.8002335,252.82999,-103.60036,-11.632453,WAL
747331646000,1.899927,-0.733200746763738,7.86313794346923,-0.719373626377311,-0.5714644,0.59986967,0.8720101,252.62674,-103.34444,-11.422013,WAL
747336622000,1.904903,-0.52564132821727,7.57352010150418,-0.960721763331476,-0.63438356,0.71593404,0.92485,252.40009,-103.07026,-11.19728,WAL
747341673000,1.909954,-0.572328897937786,7.56430972790698,-1.02636015777181,-0.65270954,0.77457714,0.9639453,252.17542,-102.77045,-10.950603,WAL
747346659000,1.91494,-0.690968220925263,7.6354935744186,-1.04059691716359,-0.65240407,0.87109387,0.9795224,251.90948,-102.46567,-10.6999445,WAL
747351771000,1.920052,-0.854887437977872,7.79532695853198,-0.982389854726995,-0.6078109,0.93767816,0.9807441,251.67612,-102.16167,-10.387705,WAL
747356703000,1.924984,-1.02483549803004,7.9737720156517,-0.905913198866601,-0.5207626,0.9492846,0.97066486,251.43486,-101.871735,-10.082344,WAL
747361739000,1.93002,-1.22401965162928,8.17963421159543,-0.797306637884046,-0.4092797,0.91538155,0.9392053,251.186,-101.62456,-9.811941,WAL
747366747000,1.935028,-1.44220706390182,8.40289606517139,-0.665379339348286,-0.3155119,0.90041536,0.87995136,250.93256,-101.40533,-9.560498,WAL
747371741000,1.940022,-1.70285074818953,8.56550854024938,-0.49708737081197,-0.2666427,0.8903361,0.8032878,250.68939,-101.22241,-9.35829,WAL
747376739000,1.94502,-1.98454929550125,8.69919619092269,-0.310879858684289,-0.23945917,0.91782504,0.71868294,250.44357,-101.072845,-9.182267,WAL
747381714000,1.949995,-2.20348798738401,8.76555595932873,-0.0704145752458046,-0.24281894,0.94134337,0.6206391,250.19626,-100.937775,-9.047342,WAL
747386807000,1.955088,-2.39608297493583,8.79925975409674,0.204033263161895,-0.25717425,0.93676186,0.5354234,249.95221,-100.82609,-8.938651,WAL
747391770000,1.960051,-2.54511783303965,8.85415449098919,0.470851366736083,-0.267559,0.8765916,0.43890667,249.70296,-100.74925,-8.903873,WAL
747396749000,1.96503,-2.6740163564978,8.92099063686424,0.738196538464157,-0.3173445,0.752586,0.34513888,249.47534,-100.68558,-8.897216,WAL
747401750000,1.970031,-2.69849607752853,8.98737116292798,0.930631197402597,-0.38148534,0.63438356,0.2687807,249.24455,-100.59993,-8.912893,WAL
747406749000,1.97503,-2.6655247608717,9.05331428807556,1.08135753961039,-0.47342056,0.49296826,0.20372356,249.05585,-100.527214,-8.957367,WAL
747411733000,1.980014,-2.55023322809515,9.11299353918893,1.05988493267694,-0.56596667,0.31856623,0.15699236,248.895,-100.43408,-9.023552,WAL
747416739000,1.98502,-2.38198458399298,9.16907606268278,0.929024930376292,-0.6209445,0.13225232,0.13103059,248.77669,-100.35497,-9.105876,WAL
747421740000,1.990021,-2.18204253988006,9.20177465967016,0.716039786406796,-0.6731735,0.016798794,0.13713925,248.66992,-100.255974,-9.180487,WAL
747427270000,1.995551,-1.93325621364318,9.21765496251874,0.40902679956022,-0.73364913,0.021380283,0.15271631,248.57907,-100.16883,-9.260377,WAL
747431724000,2.000005,-1.74010495757844,9.23031792318285,0.261063354114291,-0.7816021,0.08307768,0.15485434,248.50607,-100.06623,-9.299762,WAL
747436759000,2.00504,-1.52668266319465,9.24454587144684,0.161466260291138,-0.82436264,0.15454891,0.14996742,248.42603,-99.97074,-9.337056,WAL
747441737000,2.010018,-1.40690513474492,9.1835628009167,0.104902103649861,-0.8671232,0.18478674,0.16646078,248.35036,-99.8513,-9.318423,WAL
747446737000,2.015018,-1.36873529616381,9.05473956456756,0.0858171963162615,-0.88697636,0.22113322,0.16584991,248.25021,-99.74827,-9.307114,WAL
747451773000,2.020054,-1.41329260343897,8.90059857923129,0.0717711598327714,-0.91599244,0.23487769,0.15607607,248.15808,-99.6306,-9.267461,WAL
747456749000,2.02503,-1.53264609292939,8.7261591256141,0.0625901191561507,-0.93126404,0.21227567,0.13072516,248.06494,-99.52864,-9.235704,WAL
747461694000,2.029975,-1.62292357789264,8.59920692830046,0.0712256837262898,-0.9236283,0.19272798,0.09590584,247.94766,-99.43029,-9.196171,WAL
747466743000,2.035024,-1.67795389497344,8.53041909180577,0.103326698033005,-0.9080512,0.17470746,0.046120327,247.83582,-99.3535,-9.171814,WAL
747471687000,2.039968,-1.72845517677696,8.49767933026961,0.146597908088235,-0.8927795,0.16187929,0.0070249503,247.71762,-99.3026,-9.166243,WAL
747476740000,2.045021,-1.77293277470384,8.53721523662173,0.215785243651961,-0.8753699,0.1695151,-0.014660766,247.59814,-99.270706,-9.171985,WAL
747481642000,2.049923,-1.79875658521412,8.58354642191673,0.285503625906439,-0.88086766,0.1957823,-0.032070424,247.47089,-99.24961,-9.183683,WAL
747486752000,2.055033,-1.79391656464247,8.64646648719217,0.362944010645831,-0.9016371,0.22479841,-0.056199603,247.34024,-99.24528,-9.205078,WAL
747491685000,2.059966,-1.76525230234719,8.71657651158924,0.424607973812225,-0.93034774,0.25411993,-0.061391957,247.20087,-99.241135,-9.221552,WAL
747497438000,2.065719,-1.67903944787286,8.81895403012225,0.467714384170171,-0.93370754,0.2779437,-0.05589417,247.05444,-99.24993,-9.243358,WAL
747501729000,2.07001,-1.56375470050487,8.91825523079697,0.485778604504147,-0.9459248,0.28863382,-0.040927973,246.89777,-99.25333,-9.253034,WAL
747506742000,2.075023,-1.32137483985756,9.08272700631085,0.477122172193473,-0.95905846,0.30085114,-0.02687807,246.73389,-80.73447,-9.263471,WAL
747511740000,2.080021,-1.06957340025576,9.24750286265131,0.458398462835806,-0.96974856,0.31612277,0.032070424,246.5705,-80.748795,-9.239169,WAL
747516733000,2.085014,-0.71482019461148,9.42021221436939,0.337035531245607,-0.9877691,0.3494149,0.10934488,246.39839,-80.76113,-9.208629,WAL
747521908000,2.090189,-0.355757090939591,9.59951036155766,0.206430622325512,-0.9932669,0.4120286,0.2003638,246.22552,-80.83559,-9.108817,WAL
747526741000,2.095022,-0.124680169999001,9.77050687209186,0.0261906265012481,-0.98715824,0.48655418,0.27366763,246.03989,-80.91378,-8.997965,WAL
747531934000,2.100215,0.106818679782455,9.94256724876624,-0.155439610058415,-0.9618073,0.5626069,0.3200934,245.8528,-81.06162,-8.81678,WAL
747536762000,2.105043,0.125445657137678,9.96585095830396,-0.183380080953772,-0.95081174,0.5934556,0.35613444,245.65887,-81.21284,-8.626485,WAL
747541915000,2.110196,0.134492793260899,9.98621965057009,-0.204318058236083,-0.9294315,0.6017023,0.40011674,245.47202,-81.418526,-8.386648,WAL
747546755000,2.115036,0.0323475291658523,9.95957344955447,-0.133260481882725,-0.9089675,0.5839872,0.42302418,245.2864,-81.61578,-8.152172,WAL
747552135000,2.120416,-0.0844062987145535,9.92725306314751,-0.0500790922269364,-0.8863655,0.5497787,0.47525316,245.10727,-81.83105,-7.8979135,WAL
747556744000,2.125025,-0.24990220788219,9.84450480069068,0.106706509091268,-0.81245077,0.473726,0.4914411,244.94836,-82.034874,-7.6566486,WAL
747561654000,2.129935,-0.426206159718402,9.75635249679329,0.273731308933399,-0.79198676,0.40530908,0.5158757,244.79199,-82.23049,-7.4099226,WAL
747567071000,2.135352,-0.61108033198541,9.67812770899054,0.415214622752366,-0.73884153,0.3659083,0.5332854,244.65155,-82.42406,-7.1698976,WAL
747571656000,2.139937,-0.766911152761238,9.61319825118296,0.532087737204259,-0.689056,0.3494149,0.5235115,244.5264,-82.60579,-6.939711,WAL
747576696000,2.144977,-0.905303112243112,9.57982203531284,0.6273099,-0.6609562,0.3622431,0.49846604,244.388,-82.73745,-6.747882,WAL
747581649000,2.14993,-1.0374179108495,9.55151213975928,0.7169592,-0.65301496,0.36163223,0.47067168,244.2602,-82.85749,-6.567187,WAL
747586702000,2.154983,-0.9722374512,9.690196712,0.8983810816,-0.6407976,0.30940324,0.47861293,244.1307,-82.95023,-6.398476,WAL
747591643000,2.159924,-0.882105987942857,9.847926608,1.08765709797143,-0.6310238,0.24678956,0.50885075,244.00592,-83.03128,-6.2379737,WAL
747596725000,2.165006,-0.714828041408236,10.0574439628876,1.19586422236909,-0.6282749,0.20708331,0.537256,243.88309,-83.082726,-6.0909824,WAL
747601664000,2.169945,-0.532073164707677,10.2738640629385,1.27762302726995,-0.643852,0.16126843,0.5714644,243.78004,-83.13097,-5.9390078,WAL
747606710000,2.174991,-0.374694715392982,10.4898290346165,1.26671459609382,-0.67256266,0.14263703,0.61850107,243.67159,-83.17419,-5.763764,WAL
747611636000,2.179917,-0.227453011229547,10.6995369566821,1.23548148248368,-0.70432764,0.1572978,0.6719518,243.56593,-83.210236,-5.58401,WAL
747616683000,2.184964,-0.153480374368871,10.8070491825372,1.1190351931509,-0.74189585,0.14905111,0.70921457,243.48332,-83.25335,-5.3651237,WAL
747621676000,2.189957,-0.113141246577033,10.8675575188232,0.967763431023938,-0.75319684,0.13775012,0.74036866,243.396,-83.28818,-5.142006,WAL
747626734000,2.195015,-0.205575470001967,10.8676871012982,0.834441452168568,-0.7602218,0.08979719,0.75502944,243.33185,-83.337585,-4.882504,WAL
747631706000,2.199987,-0.32733127100118,10.8536385607789,0.708002753801141,-0.75502944,0.015271631,0.77091193,243.27734,-83.37374,-4.6232677,WAL
747636754000,2.205035,-0.482411364566301,10.8279214371884,0.570717540089731,-0.72692966,-0.016187929,0.7987063,243.22986,-83.43135,-4.349063,WAL
747641730000,2.210011,-0.643950998209372,10.7994143648056,0.432933727335992,-0.7098254,-0.06352998,0.81397796,243.20749,-83.47016,-4.0819573,WAL
747646748000,2.215029,-1.2215645571716,10.6675220623742,0.298207831948836,-0.6795876,-0.08735373,0.8344419,243.18979,-83.51699,-3.8141918,WAL
747651819000,2.2201,-1.92417665364568,10.5046650778001,0.163269095272588,-0.6426302,-0.07819075,0.8445212,243.17546,-83.554726,-3.5544026,WAL
747656721000,2.225002,-2.43640628328221,10.4308857576687,0.0941376616733129,-0.6224717,-0.08552113,0.84665924,243.17426,-83.591255,-3.3059893,WAL
747661763000,2.230044,-2.8906327941411,10.3913880288344,0.0497024522616564,-0.5815437,-0.12217305,0.8228355,243.17911,-83.62743,-3.0704112,WAL
747666671000,2.234952,-3.27409362229613,10.3578984476576,-0.0551344899852516,-0.5366451,-0.18020524,0.8054258,243.1737,-83.61449,-2.9233763,WAL
747671715000,2.239996,-3.64660498319838,10.3253035303644,-0.185513472135628,-0.48075095,-0.22907446,0.7644979,243.1771,-83.60463,-2.7940173,WAL
747676703000,2.244984,-3.9874303589386,10.2878164309247,-0.282652044758517,-0.41355577,-0.23548855,0.7134906,243.17216,-83.57096,-2.7102342,WAL
747681671000,2.249952,-4.31251114134219,10.2477376349682,-0.36280894847997,-0.35216382,-0.20738874,0.6585127,243.1719,-83.54419,-2.642114,WAL
747686678000,2.254959,-4.63473738392412,10.1614845143631,-0.370284504659079,-0.27977628,-0.13744467,0.60231316,243.15918,-83.519615,-2.6360443,WAL
747691705000,2.259986,-4.95307879347425,10.0310168352304,-0.307659975080759,-0.20799962,-0.052839845,0.535118,243.13577,-83.50383,-2.651683,WAL
747696758000,2.265039,-5.15163044614088,9.91806858654927,-0.176892840711877,-0.13775012,0.0067195175,0.45081854,243.09402,-83.4816,-2.716547,WAL
747701848000,2.270129,-5.29317449728363,9.81305229393031,-0.0125191002098164,-0.07971791,0.05100725,0.36835176,243.03445,-83.46641,-2.802603,WAL
747706743000,2.275024,-5.32882188914477,9.7355253284832,0.147709185374228,-0.039095376,0.07880162,0.2773328,242.95078,-83.41186,-2.9508994,WAL
747711742000,2.280023,-5.28371890484665,9.67538766722496,0.313087293338218,-0.039095376,0.09254608,0.18570304,242.909017891459,-83.3805020972717,-3.04828679881376,WAL
747716859000,2.28514,-5.13773360316995,9.65958828441444,0.503005837511007,0.009162978,0.08399397,0.09590584,242.86627,-83.348404,-3.147973,WAL
747721740000,2.290021,-4.94565209392427,9.66873520487232,0.695087318103904,0.02107485,0.061086524,0.032986723,242.76274,-83.2397,-3.353108,WAL
747726719000,2.295,-4.78601524183007,9.70079020764203,0.651574386204123,0.003970624,-0.04642576,-0.050396383,242.67722,-83.080414,-3.606133,WAL
747731726000,2.300007,-4.65100950457516,9.74900643448969,0.439422816894922,-0.025045475,-0.093462385,-0.08674286,242.5818,-82.91553,-3.8610492,WAL
747736703000,2.304984,-4.59137687241746,9.78755866151767,0.167676410036687,-0.048258353,-0.18112154,-0.109650314,242.52225,-82.72539,-4.096849,WAL
747741742000,2.310023,-4.58205900347557,9.82017156767716,-0.1491330215447,-0.049785517,-0.26206118,-0.16279559,242.47609,-82.52285,-4.345957,WAL
747746765000,2.315046,-4.6189894902852,9.85085924045148,-0.40007080176358,-0.046120327,-0.3463606,-0.20525073,242.47781,-82.363884,-4.5644913,WAL
747752518000,2.320799,-4.70782629242165,9.88417249047667,-0.622162389674494,-0.015271631,-0.4437936,-0.2593123,242.50758,-82.19952,-4.794329,WAL
747756735000,2.325016,-4.89253800579489,9.91849103791049,-0.686365809477623,0.089491755,-0.52870387,-0.30573806,242.58525,-82.09741,-5.015756,WAL
747761736000,2.330017,-5.18964761030968,9.96565127305401,-0.698155868263503,0.2406809,-0.627664,-0.3463606,242.69478,-82.000465,-5.2433043,WAL
747766721000,2.335002,-5.48580665420216,10.0126606256216,-0.709908206405396,0.453262,-0.6640105,-0.38820487,242.82327,-81.945885,-5.482734,WAL
747771728000,2.340009,-5.78327271895032,10.0598774417311,-0.72171241043277,0.68752885,-0.61941737,-0.45875978,242.9571,-81.904854,-5.7368274,WAL
747776732000,2.345013,-6.2028268710707,10.2626674410485,-0.770181261713899,0.8378017,-0.5180137,-0.56291234,243.08582,-81.863556,-6.0042915,WAL
747781723000,2.350004,-6.75297129896508,10.6325126577038,-0.858019463257568,0.8958339,-0.37384954,-0.68936145,243.1903,-81.81435,-6.2954774,WAL
747786828000,2.355109,-7.21449355311005,10.9038904624586,-0.993661579490247,0.86193085,-0.21899518,-0.8249735,243.24112,-81.660034,-6.6979384,WAL
747791703000,2.359984,-7.52379247655502,11.0241730581524,-1.18267752147589,0.8142834,-0.074830994,-0.9639453,243.25555,-81.46109,-7.1322174,WAL
747796680000,2.364961,-7.7713024515917,11.0803195850277,-1.41126516286712,0.82436264,0.042760566,-1.1157454,243.22533,-81.15325,-7.669014,WAL
747801796000,2.370077,-7.79142769652906,10.9092551081331,-1.76848847065106,0.9138544,0.15760323,-1.2522738,243.15604,-80.796486,-8.231532,WAL
747806666000,2.374947,-7.71033082275449,10.7684462860433,-2.11943423136803,1.0418307,0.2415972,-1.3869696,243.06479,-80.36242,-8.865117,WAL
747811737000,2.380018,-7.36584169916168,10.6789687129433,-2.51313588001842,1.2104294,0.28313604,-1.5103643,242.95331,-79.88722,-9.520187,WAL
747816693000,2.384974,-6.99080695792622,10.620473314656,-2.88961962459621,1.3716979,0.3118467,-1.6465873,242.84091,-79.37664,-10.204254,WAL
747822369000,2.39065,-6.22123303409771,10.8101569724826,-3.24730897769691,1.505172,0.3173445,-1.7528778,242.72144,-78.82561,-10.898897,WAL
747826693000,2.394974,-5.61555056070182,10.9711109837146,-3.51138218670027,1.6172657,0.28191432,-1.8512272,242.64238,-78.29065,-11.559115,WAL
747831726000,2.400007,-4.75116384005428,11.2935040042652,-3.7496725868166,1.750129,0.25992316,-1.9123137,242.55327,-77.71351,-12.223687,WAL
747836844000,2.405125,-3.85704045121806,11.6292649940582,-3.97508039904932,1.813048,0.21930063,-1.9382755,242.50958,-77.206955,-12.781261,WAL
747841721000,2.410002,-2.82097753560111,12.0455404645474,-3.98433095432759,1.9926424,0.20647246,-1.9425515,242.45757,-103.337585,-13.336115,WAL
747846964000,2.415245,-1.687060851879,12.4950481035428,-3.92190115980104,2.2519548,0.2687807,-1.9633209,242.43301,-103.770546,-13.732993,WAL
747851757000,2.420038,-0.424311571056746,12.9283900890265,-3.05055760073089,2.5283713,0.3930918,-1.9758437,242.38747,-104.24067,-14.1168375,WAL
747856879000,2.42516,0.907205166583284,13.4188615183641,-2.07074066402621,2.7678304,0.4990769,-1.9999728,242.36407,-104.53276,-14.269786,WAL
747861738000,2.430019,1.9973335565138,14.1486930614453,-0.671126550714711,2.928488,0.5681047,-1.9730947,242.31387,-104.86496,-14.405759,WAL
747866873000,2.435154,3.09425817095508,14.9102502129961,0.778359260296555,2.9568932,0.52564955,-1.9184223,242.2745,-104.889305,-14.229793,WAL
747871748000,2.440029,3.47703815351068,15.5169970075883,1.80046311332752,2.840829,0.3390302,-1.8454239,242.26505,-104.94561,-14.057799,WAL
747876637000,2.444918,3.86091740165722,16.1254862545137,2.82550223896206,2.6251934,0.007330383,-1.7492126,242.28552,-104.91766,-13.839957,WAL
747881726000,2.450007,4.0222912035668,16.5812079832619,3.41909851358972,2.398257,-0.44898596,-1.6010778,242.39758,-104.87239,-13.612971,WAL
747886661000,2.454942,4.09763081047126,16.9626155821461,3.83346686782903,2.1847596,-0.8933904,-1.4236214,242.60374,-104.79652,-13.376421,WAL
747892130000,2.460411,3.59717218384452,16.7373305965179,3.36068458132402,1.9932534,-1.2208142,-1.2864822,242.85849,-104.72236,-13.208358,WAL
747896670000,2.464951,3.02502616319466,16.3764380507136,2.71812044467051,1.8319849,-1.4804319,-1.2321151,243.22011,-104.61371,-13.0350685,WAL
747901762000,2.470043,2.3491857353655,15.7494893632657,1.79958057034269,1.7073684,-1.6985108,-1.2327261,243.64584,-104.47726,-12.874032,WAL
747906644000,2.474925,1.69106265663528,15.0822890157266,0.860053201174643,1.6310102,-1.8616118,-1.2657127,244.12622,-104.33233,-12.721314,WAL
747911723000,2.480004,1.17867908490347,14.5534671938582,-0.0905806322296689,1.6194037,-1.9318613,-1.2721269,244.63599,-104.239235,-12.603377,WAL
747916679000,2.48496,0.751387027594278,14.1071842769831,-1.00688469960988,1.6331482,-1.8729129,-1.2455542,245.14787,-104.14826,-12.491153,WAL
747921743000,2.490024,0.608854688243392,13.7134437677805,-1.83221167620948,1.6233743,-1.6783522,-1.187522,245.60889,-104.09915,-12.375053,WAL
747926715000,2.494996,0.589855850469825,13.3524656566584,-2.59691569137157,1.6157386,-1.5436565,-1.1175779,246.06291,-104.052864,-12.253854,WAL
747931726000,2.500007,0.409769900155279,13.0111320420931,-2.40780706556017,1.6044376,-1.2455542,-1.0940597,246.39378,-104.125984,-12.1831875,WAL
747936731000,2.505012,0.162265285490456,12.6796526688797,-1.81556396182573,1.5891659,-1.0396926,-1.0980303,246.71118,-104.19501,-12.102629,WAL
747941736000,2.510017,0.00960118451760713,12.4280217598642,-1.39967254985151,1.5183055,-0.90285885,-1.106277,246.95721,-104.344406,-12.044059,WAL
747946791000,2.515072,-0.0622858117764107,12.2431692352036,-1.13266367522274,1.4184291,-0.77213365,-1.0629056,247.151,-104.48249,-11.966851,WAL
747951763000,2.520044,-0.569251315048721,11.7882120502436,-0.643987804424482,1.2968669,-0.5815437,-0.9896017,247.27132,-104.6323,-11.947436,WAL
747956747000,2.525028,-1.30081354973812,11.1923038236906,-0.038389861322574,1.1746938,-0.376293,-0.88697636,247.3552,-104.74921,-11.90077,WAL
747961835000,2.530116,-2.41444018701975,10.6634455051587,0.447279313723101,1.0454959,-0.11728613,-0.8371908,247.36191,-104.85963,-11.872905,WAL
747966741000,2.535022,-3.64709006554977,10.1879289122531,0.85816261781468,0.7809912,-0.03573562,-0.98990715,247.36,-104.94834,-11.872623,WAL
747971742000,2.540023,-4.71086895180831,9.75757822536615,0.411823671515393,0.4905248,-0.12308934,-1.1936307,247.31021,-105.073135,-11.988743,WAL
747976740000,2.545021,-5.66940647533127,9.35699527269104,-0.50379424282156,0.25350907,-0.21288654,-1.4214834,247.23218,-105.19775,-12.148333,WAL
747981695000,2.549976,-5.72581533766183,9.32472410269639,-1.27169702910542,0.08857546,-0.18967366,-1.666135,247.11092,-105.447556,-12.535101,WAL
747986788000,2.555069,-5.26052588761803,9.50514262377105,-1.9791268753626,0.12644911,-0.07941248,-1.8020525,246.9823,-105.71715,-12.945175,WAL
747991705000,2.559986,-4.70195652579078,9.57405877610312,-2.37280131278136,0.26206118,0.13683382,-1.8185458,246.83243,-106.22768,-13.552745,WAL
747996739000,2.56502,-4.0518314736936,9.56927834794249,-2.56879492402578,0.39858958,0.43676865,-1.7571539,246.62137,-106.75331,-14.1557045,WAL
748001754000,2.570035,-3.51608925978907,9.27594280441035,-2.55043128724832,0.5222898,0.7501425,-1.6691893,246.34982,-107.294975,-14.68198,WAL
748006727000,2.575008,-3.06860184115053,8.76909493048898,-2.37234949228188,0.61300325,1.0384709,-1.5741998,246.00168,-107.82318,-15.163517,WAL
748011732000,2.580013,-2.5794613928863,8.27356289387755,-1.99937479836735,0.6759224,1.2519683,-1.5241088,245.58754,-108.29131,-15.530481,WAL
748016708000,2.584989,-2.05151398266278,7.79655744081633,-1.42048523755102,0.68203104,1.4410311,-1.5134187,245.10687,-108.73704,-15.857272,WAL
748021743000,2.590024,-1.58913108049932,7.24428596790098,-0.96465661542012,0.6591236,1.5140295,-1.4682146,244.59906,-109.1186,-16.106106,WAL
748026735000,2.595016,-1.22805547365992,6.60237383614812,-0.688834921850414,0.61300325,1.5525141,-1.4193454,244.0621,-109.4808,-16.333115,WAL
748031741000,2.600022,-0.913138200574823,6.12549178087756,-0.522160761141981,0.5705481,1.6310102,-1.4101825,243.51265,-109.77891,-16.52371,WAL
748036793000,2.605074,-0.639662448917417,5.80102899268059,-0.457268213182602,0.47586402,1.6862935,-1.4144585,242.9762,-110.04274,-16.69695,WAL
748041634000,2.609915,-0.418220908158328,5.58933313504307,-0.356874844092519,0.38453966,1.7424932,-1.4068227,242.4208,-110.28914,-16.859753,WAL
748046791000,2.615072,-0.241375759561599,5.50808011580374,-0.194368488198587,0.30970868,1.8344283,-1.3839152,241.85464,-110.511375,-17.00909,WAL
748051683000,2.619964,-0.120888607333789,5.4933950755638,-0.0496146441433174,0.2312125,1.8658879,-1.3359623,241.2869,-110.73361,-17.16218,WAL
748056834000,2.625115,-0.0823607264922386,5.59453078414527,0.0852329257272284,0.17623462,1.8542814,-1.2812898,240.7191,-110.93265,-17.299433,WAL
748061631000,2.629912,-0.0422412482180888,5.72907297315225,0.206972500797166,0.12858713,1.8029687,-1.2241739,240.151,-111.11683,-17.43418,WAL
748066735000,2.635016,0.0106748256612538,5.96960061822655,0.327236303241807,0.087659165,1.7180585,-1.1609493,239.6087,-111.2726,-17.550861,WAL
748071676000,2.639957,0.071046540878553,6.19406600878553,0.406655456640827,0.07849618,1.6190983,-1.0855075,239.08745,-111.40709,-17.658516,WAL
748077413000,2.645694,0.169333015313655,6.42886125775194,0.384814021425164,0.064446285,1.5036448,-1.0231993,238.60617,-111.51745,-17.755558,WAL
748081693000,2.649974,0.250123342641284,6.59991424393578,0.375792137187156,0.06169739,1.4187346,-0.95264435,238.14609,-111.59605,-17.829628,WAL
748086784000,2.655065,0.366420918262385,6.79225255088073,0.384738107776147,0.03848451,1.3426818,-0.87781334,237.72725,-111.649345,-17.889502,WAL
748091695000,2.659976,0.487870384002418,6.97045776711004,0.400091825883572,0.04428773,1.2843442,-0.79809546,237.32922,-111.67764,-17.916939,WAL
748096737000,2.665018,0.717248888403869,7.07055030737606,0.491843231128001,0.034208454,1.1985176,-0.6963864,236.97282,-111.6735,-17.922243,WAL
748102194000,2.670475,0.965507218137848,7.17888132527207,0.591146566792192,0.021991149,1.0699304,-0.58459806,236.64612,-111.63302,-17.88937,WAL
748106740000,2.675021,1.13604110947781,7.12869119740417,0.571593440651977,-0.0027488936,0.93431836,-0.4636467,236.35797,-111.560135,-17.83041,WAL
748111652000,2.679933,1.31352856173659,7.04823020092565,0.531362944883791,-0.022296581,0.850019,-0.34116822,236.10349,-111.457344,-17.744186,WAL
748116739000,2.68502,1.49733936581648,6.96490261764262,0.489699155801388,-0.046120327,0.8155051,-0.22724187,235.87479,-111.28683,-17.595304,WAL
748121635000,2.689916,1.67424868305161,6.88470370910051,0.44959970399336,-0.09010262,0.79504114,-0.12858713,235.676,-111.083466,-17.420906,WAL
748126738000,2.695019,1.67034103665742,6.68362312090066,0.31246998429869,-0.11636983,0.7834347,-0.077579886,235.49109,-110.86297,-17.230303,WAL
748131703000,2.699984,1.61578646733913,6.45631237584855,0.153352524474615,-0.16829337,0.79198676,0.00580322,235.31628,-110.60048,-17.00441,WAL
748136784000,2.705065,1.5484664752668,6.25210272224308,0.003624426993083,-0.23732115,0.7788532,0.07941248,235.13943,-110.30674,-16.726526,WAL
748141734000,2.710015,1.47820186113636,6.06473040159091,-0.136904806159091,-0.32986724,0.75716746,0.16523905,234.96979,-109.978165,-16.422676,WAL
748147475000,2.715756,1.22934013256211,5.91035185571781,-0.223453981050635,-0.42210788,0.7486154,0.27275133,234.80042,-109.652145,-16.109257,WAL
748151844000,2.720125,0.991291194614072,5.81116499157026,-0.267096284960175,-0.56138515,0.7290677,0.30757064,234.64264,-109.301445,-15.79558,WAL
748156838000,2.725119,0.689988314627492,5.77419464533054,-0.347016046972718,-0.6096435,0.66248333,0.38362336,234.50992,-108.9487,-15.462013,WAL
748161741000,2.730022,0.374655136579224,5.7889756726128,-0.445557677974816,-0.6795876,0.5729916,0.45662177,234.39238,-108.56463,-15.124214,WAL
748166732000,2.735013,-0.00957679999999994,5.912082,-0.651222866666667,-0.71929383,0.49296826,0.54061574,234.28479,-108.21817,-14.8248005,WAL
748171717000,2.739998,-0.42471055982009,6.0886332113943,-0.908892085732134,-0.7305948,0.4288274,0.6041457,234.20221,-107.85649,-14.517962,WAL
748176713000,2.744994,-0.924896684456725,6.34232420921741,-1.34020665512681,-0.713796,0.3827071,0.6618725,234.13625,-107.544945,-14.259062,WAL
748181787000,2.750068,-1.47637824245534,6.63964468568045,-1.86771072142505,-0.6960809,0.40653083,0.7287622,234.07272,-107.22022,-13.984039,WAL
748186797000,2.755078,-2.08475109787234,6.98835640824468,-2.45001971210106,-0.655153,0.46731192,0.788627,234.00598,-107.027824,-13.807259,WAL
748191699000,2.75998,-2.71348549179331,7.3584625300152,-3.05199960649696,-0.5870415,0.53878313,0.83291477,233.93289,-106.83628,-13.619041,WAL
748196734000,2.765015,-3.35797447507738,7.76628751574341,-3.62898123064361,-0.5213735,0.6209445,0.86132,233.82114,-106.895805,-13.5996685,WAL
748201728000,2.770009,-3.99607057861031,8.19508816554595,-4.164981829683,-0.46028697,0.7247916,0.8921687,233.6908,-106.946724,-13.557016,WAL
748206693000,2.774974,-4.52177649145994,8.60492930845872,-4.59552551275925,-0.40744713,0.820392,0.9138544,233.53918,-107.11096,-13.5731945,WAL
748211627000,2.779908,-4.98776259353396,9.00365931211875,-4.97023597573201,-0.36835176,0.9114109,0.906524,233.36807,-107.268524,-13.573931,WAL
748216817000,2.785098,-5.46026574818566,9.37023582554823,-5.19178845131281,-0.34147367,0.9816604,0.88331115,233.148527308076,-107.464029178465,-13.5712154346959,WAL
748221657000,2.789938,-5.89328925374176,9.68930600747369,-5.3239746627397,-0.32467487,0.98868537,0.8604037,232.94379,-107.64635,-13.568683,WAL
748226641000,2.794922,-6.26713698510638,9.9487059929078,-5.37561106524823,-0.31520647,1.0088439,0.8014552,232.70868,-107.873634,-13.591191,WAL
748231635000,2.799916,-6.60162164609929,10.1701253526399,-5.38032211126872,-0.31887165,0.9868528,0.7266242,232.49094,-108.09708,-13.619109,WAL
748236633000,2.804914,-6.85816220915288,10.2976750219549,-5.28864578576441,-0.34330627,0.9279043,0.65148777,232.2403,-108.34346,-13.685665,WAL
748241645000,2.809926,-7.06507500438095,10.3650423314286,-5.13466408190476,-0.36254853,0.83016586,0.5500842,232.00891,-108.59762,-13.776414,WAL
748246629000,2.81491,-7.17353103655014,10.2943666436112,-4.63721160754905,-0.40744713,0.6713409,0.4437936,231.79248,-108.850334,-13.916246,WAL
748251672000,2.819953,-7.22162963469774,10.1356407172592,-3.91573223354248,-0.45814893,0.4447099,0.321926,231.62111,-109.108795,-14.090586,WAL
748256640000,2.824921,-7.09472375125012,10.0463020315227,-3.44254701871752,-0.5308419,0.25900686,0.21563543,231.46143,-109.352905,-14.312651,WAL
748261634000,2.829915,-6.8555675106383,9.99940867021277,-3.11898258085106,-0.59437186,0.08124508,0.12889257,231.35898,-109.59881,-14.567453,WAL
748266640000,2.834921,-6.52194442166734,10.0309895219493,-2.95924487084172,-0.6774496,-0.06261369,0.052839845,231.25728,-109.78935,-14.883814,WAL
748271643000,2.839924,-6.11672157068063,10.1226471315445,-2.92547633350785,-0.74220127,-0.16768251,-0.0067195175,231.18925,-109.98113,-15.217748,WAL
748276641000,2.844922,-5.76617518490823,10.2555558579198,-3.11938930781781,-0.79779,-0.25228736,-0.045814894,231.13649,-110.12552,-15.542251,WAL
748281632000,2.849913,-5.45516662066621,10.4180234017675,-3.47681708028552,-0.7965683,-0.30451632,-0.0720821,231.09834,-110.27694,-15.873829,WAL
748286615000,2.854896,-5.24277213610237,10.5388703988017,-3.87476708977354,-0.7816021,-0.29352075,-0.06872234,231.06972,-110.39209,-16.149723,WAL
748291632000,2.859913,-5.12078857290545,10.6218187774957,-4.31390748930639,-0.7339546,-0.26725355,-0.070554934,231.04576,-110.51781,-16.427118,WAL
748296737000,2.865018,-4.9979185675712,10.8505047169431,-4.50280534715697,-0.6612616,-0.25992316,-0.064751714,231.0369,-110.60395,-16.603622,WAL
748301752000,2.870033,-4.8781834108927,11.1866847538594,-4.48898969297152,-0.5873469,-0.29016098,-0.054367006,231.02928,-110.69435,-16.774336,WAL
748306695000,2.874976,-4.65120641442356,11.8604213561126,-4.2796503661892,-0.56138515,-0.40194935,-0.03726278,231.06236,-110.79262,-16.90392,WAL
748311704000,2.879985,-4.30286975216353,12.9149740534169,-3.85496623992838,-0.5849035,-0.63163465,-0.020158553,231.13802,-110.887535,-17.035398,WAL
748316681000,2.884962,-3.86405274849966,14.1626844071938,-3.95304676606392,-0.61422503,-0.7626653,-0.024740042,231.21222,-110.960884,-17.13872,WAL
748321710000,2.889991,-3.31328301926498,15.6549407421562,-4.65445448591536,-0.6221663,-1.0033462,-0.01863139,231.38419,-111.02325,-17.25073,WAL
748326671000,2.894952,-2.88327111336501,16.8216996754777,-5.27721204930205,-0.61636305,-1.1389582,-0.0021380284,231.56053,-110.93815,-17.256426,WAL
748331676000,2.899957,-2.60804576201366,17.5714517475497,-5.80868150876151,-0.5748242,-1.1362094,0.027183503,231.76189,-110.8568,-17.262606,WAL
748336621000,2.904902,-2.37034984546995,18.0051562059205,-5.85692773238314,-0.43799037,-1.0421361,0.0036651916,232.01419,-110.7249,-17.131159,WAL
748341708000,2.909989,-2.18097761298714,17.9565992622346,-5.13828466161667,-0.16126843,-0.9092729,-0.06414085,232.24567,-110.6335,-17.010252,WAL
748346616000,2.914897,-1.75658969741302,17.3491299505665,-4.24560217290685,0.19975294,-0.8029824,-0.1301143,232.47757,-110.54567,-16.813349,WAL
748351816000,2.920097,-0.897721188438785,15.7562285969117,-2.96229274946355,0.53023106,-0.77518797,-0.1695151,232.68523,-110.51724,-16.638697,WAL
748356664000,2.924945,-0.00710363130710784,14.0170933828027,-1.78742896630182,0.7696902,-0.80756384,-0.14874569,232.87155,-110.48032,-16.46383,WAL
748361709000,2.92999,1.05706223302876,11.8190567082812,-0.597793733609695,0.84574294,-0.9260717,-0.07880162,233.07175,-110.476166,-16.30025,WAL
748366631000,2.934912,2.02775837924341,9.69264514824718,0.334956834121608,0.77304995,-1.0894781,0.022907447,233.34637,-110.417534,-16.13583,WAL
748371708000,2.939989,2.87519102788671,7.54035839052288,0.777933007821351,0.5757405,-1.2745703,0.11911872,233.66046,-110.338684,-15.965797,WAL
748376654000,2.944935,3.56143602856892,5.71884249136615,0.928930960645784,0.2968805,-1.4025466,0.21319197,234.0582,-110.14255,-15.758151,WAL
748381722000,2.950003,3.92341707256296,4.52643480681758,0.39660602778275,0.015271631,-1.427592,0.30909783,234.48187,-109.88722,-15.525409,WAL
748386832000,2.955113,4.26143562970498,3.35816634211597,-0.122170046225839,-0.20952678,-1.416902,0.4147775,234.96684,-109.552475,-15.243888,WAL
748391706000,2.959987,4.06200027629705,2.90231416242116,-0.269372283662258,-0.344528,-1.4413365,0.5842926,235.47668,-109.14273,-14.913807,WAL
748396883000,2.965164,3.78428835188463,2.4687035937643,-0.342867766874192,-0.4034765,-1.4929546,0.7703011,236.01077,-108.72863,-14.515026,WAL
748401736000,2.970017,2.89220327964197,2.54728107237195,0.382817988873197,-0.39278635,-1.543351,0.9016371,236.55582,-108.27437,-14.076926,WAL
748406856000,2.975137,1.95106081063735,2.66884213622602,1.14530245094012,-0.35216382,-1.6013832,1.0192287,237.1188,-107.81893,-13.620831,WAL
748411737000,2.980018,1.05412375132581,3.24576649986501,1.83490727162279,-0.29443705,-1.5723672,1.1145236,237.6749,-107.34469,-13.124486,WAL
748417046000,2.985327,0.092968732492359,3.89097231319811,2.56736909277577,-0.23273966,-1.395827,1.2012665,238.17068,-106.872696,-12.73103,WAL
748421731000,2.990012,-0.426473485049551,4.8633680371029,2.81254585618227,-0.2144137,-1.2788464,1.2379184,238.67422,-106.39173,-12.321572,WAL
748426640000,2.994921,-0.970751360377883,5.88225610725201,3.06944505181995,-0.23151793,-1.0057896,1.2834278,239.03665,-105.89875,-12.004327,WAL
748431717000,2.999998,-1.38561105998227,7.30457652014183,2.91847080435339,-0.30726522,-0.7476991,1.3203852,239.36557,-105.39248,-11.673062,WAL
748436724000,3.005005,-1.75871600176303,8.7969963858958,2.66815991152369,-0.45998153,-0.47525316,1.3017539,239.60567,-104.871864,-11.330151,WAL
748441742000,3.010023,-2.08936325918367,10.195529819242,2.2309492516035,-0.66889745,-0.22815818,1.2443326,239.73367,-104.33472,-11.049272,WAL
748446648000,3.014929,-2.40110865932442,11.5369797617372,1.75388422842063,-0.8775079,-0.032375857,1.174083,239.78975,-103.7858,-10.771086,WAL
748451776000,3.020057,-2.81247867319588,12.5127492425598,1.23045757519354,-1.0329732,0.09010262,1.099252,239.74792,-103.26374,-10.522342,WAL
748456642000,3.024923,-3.22491481340206,13.3285571900408,0.727376278912663,-1.1255192,0.16462818,1.01312,239.65373,-102.7539,-10.298235,WAL
748461740000,3.030021,-3.63168747167527,13.6948625662961,0.330093801377531,-1.1429288,0.19608775,0.95630956,239.49152,-102.31706,-10.099517,WAL
748466656000,3.034937,-4.01482800212386,13.8724152546645,-0.00632244216355692,-1.0977248,0.17073683,0.9245446,239.31882,-101.911545,-9.926417,WAL
748472183000,3.040464,-4.27129849652122,13.6178687861048,-0.245156171521718,-0.9627236,0.11789699,0.91415983,239.09059,-101.64811,-9.821959,WAL
748476707000,3.044988,-4.43063088972269,13.2776726195209,-0.400182221238445,-0.79198676,0.06261369,0.90377516,238.87259,-101.41767,-9.7327795,WAL
748481717000,3.049998,-4.37732177291212,12.685489172684,-0.500734403996231,-0.6423248,-0.016493361,0.8900307,238.6937,-101.262115,-9.689206,WAL
748486758000,3.055039,-4.22888152291212,12.000747672684,-0.572560458996231,-0.5494733,-0.06841691,0.86376345,238.52576,-101.133415,-9.653254,WAL
748491703000,3.059984,-3.92178833349901,11.1897989879225,-0.495033343326044,-0.52320606,-0.105068825,0.7993172,238.39873,-101.05711,-9.657491,WAL
748496719000,3.065,-3.53978203926441,10.3064098376243,-0.351781060272366,-0.537256,-0.14263703,0.7165449,238.28802,-101.000114,-9.673808,WAL
748501777000,3.070058,-3.09631744761298,9.57071103705519,-0.176113357393001,-0.5852089,-0.20433442,0.6209445,238.21027,-100.94975,-9.69319,WAL
748506830000,3.075111,-2.62668025452407,8.90657787535536,0.0136390394820116,-0.59803706,-0.28771752,0.52626044,238.14825,-100.92412,-9.735891,WAL
748511732000,3.080013,-2.10511102849986,8.51737685863922,0.0850538040182166,-0.5907067,-0.34147367,0.47647488,238.108,-100.87607,-9.760557,WAL
748516719000,3.085,-1.53960058150105,8.25637175043264,0.0981040485270061,-0.57879484,-0.34483343,0.48258355,238.07478,-100.83963,-9.796198,WAL
748521735000,3.090016,-0.982448514949836,8.14794870799451,0.0666765872256838,-0.59528816,-0.27366763,0.56016344,238.05246,-100.749115,-9.779161,WAL
748526738000,3.095019,-0.441032741892491,8.22890812155455,-0.0193427408089555,-0.6542367,-0.18081611,0.657291,238.02303,-100.65293,-9.755354,WAL
748531711000,3.099992,-0.106171648009592,8.39928426278977,-0.0943824526338929,-0.7467828,-0.10476339,0.72509706,238.00102,-100.47719,-9.639683,WAL
748536801000,3.105082,0.0691734812470024,8.64769004566347,-0.162572223427258,-0.8200866,0.025350908,0.75777835,237.9371,-100.288216,-9.508388,WAL
748542322000,3.110603,-0.326601712971445,8.95070831030114,0.162721729780723,-0.88056225,0.21655174,0.7602218,237.88266,-100.00051,-9.274207,WAL
748546732000,3.115013,-0.94399359007894,9.21001317288763,0.627823593916772,-0.95447695,0.35918877,0.7131852,237.80353,-99.71676,-9.049907,WAL
748551756000,3.120037,-1.46854815363227,9.45862467573918,1.04495582726845,-1.0412198,0.36102137,0.6365216,237.74173,-99.387245,-8.785296,WAL
748556745000,3.125026,-1.81470269449775,9.65976822165655,1.34901048599765,-1.119716,0.18936823,0.57360244,237.68839,-99.071075,-8.5386305,WAL
748561721000,3.130002,-2.06056432079237,9.80838660873337,1.48152198993638,-1.1844677,-0.04550946,0.5332854,237.60571,-98.84775,-8.429273,WAL
748566731000,3.135012,-2.19006441766917,9.89626154511278,1.41214696390977,-1.2592987,-0.20616703,0.49235737,237.54794,-98.65533,-8.345418,WAL
748571716000,3.139997,-2.15915850731607,10.0046374097822,1.24207604266338,-1.4071281,-0.29626966,0.4392121,237.5068,-98.524475,-8.331813,WAL
748576737000,3.145018,-1.86764359142006,10.1479242230785,0.906092670191122,-1.5198327,-0.32345316,0.3921755,237.48807,-98.43404,-8.33223,WAL
748581697000,3.149978,-1.52351869008885,10.2422770566634,0.56967440665765,-1.57084,-0.33261612,0.37720928,237.49036,-98.37277,-8.335578,WAL
748586812000,3.155093,-1.09314380193485,10.2761269451135,0.216670288011056,-1.5378532,-0.29443705,0.3979787,237.47972,-98.34857,-8.343947,WAL
748591639000,3.15992,-0.732941203162518,10.2509829106881,-0.0671778629165447,-1.4422529,-0.21777347,0.4538729,237.47798,-81.718994,-8.279483,WAL
748596734000,3.165015,-0.423365899912152,10.136678363592,-0.291024618585652,-1.3478742,-0.09101892,0.52564955,237.44514,-81.77157,-8.20871,WAL
748601687000,3.169968,-0.186065849058075,10.0046089920446,-0.444426300986476,-1.2864822,0.07880162,0.5879578,237.40399,-81.89388,-8.058765,WAL
748606744000,3.175025,-0.0608492920256563,9.83123224134845,-0.482954465572792,-1.2586879,0.21227567,0.6218608,237.3346,-82.01261,-7.9040036,WAL
748611920000,3.180201,-0.0463551117778806,9.6135763447478,-0.502399003900972,-1.2162327,0.29626966,0.6554584,237.26486,-82.21531,-7.662722,WAL
748616735000,3.185016,-0.208527098729292,9.34897995141138,-0.489595965691809,-1.1679744,0.32345316,0.64934975,237.17361,-82.40103,-7.433812,WAL
748621701000,3.189982,-0.407623076465222,9.10574433751425,-0.45788767263683,-1.1215485,0.3491095,0.6337727,237.07666,-82.608475,-7.177356,WAL
748626736000,3.195017,-0.751260659095401,8.99119856594451,-0.343341819733942,-1.0256428,0.29810223,0.6068946,236.99551,-82.801445,-6.936049,WAL
748631705000,3.199986,-1.07707455213565,8.89525069112122,-0.198032732111924,-0.89827734,0.20433442,0.5900958,236.91295,-82.965385,-6.7194667,WAL
748636784000,3.205065,-1.25501626758948,8.99624415048448,0.326173870939292,-0.7791586,0.07696902,0.5626069,236.8565,-83.114,-6.5212703,WAL
748641792000,3.210073,-1.43042789182024,9.09156588065438,0.814335305812555,-0.6774496,-0.16310102,0.49021935,236.84476,-83.19039,-6.3886714,WAL
748646749000,3.21503,-1.60353046468907,9.13367229082487,0.945331927718537,-0.6246097,-0.3979787,0.44043383,236.86845,-83.26419,-6.261564,WAL
748651864000,3.220145,-1.7764291997619,9.17222098095238,1.07365128761905,-0.61819565,-0.52595496,0.40622538,236.90015,-83.260185,-6.178582,WAL
748656730000,3.225011,-1.85324364404762,9.13381344688645,1.09072114432234,-0.64660084,-0.548557,0.3924809,236.96619,-83.24302,-6.105308,WAL
748661680000,3.229961,-1.93138410833333,9.0947428974359,1.10808567179487,-0.68783426,-0.5186246,0.38087448,237.0364,-83.17273,-6.07092,WAL
748666736000,3.235017,-1.86110126145653,9.15270687697483,0.978124744829783,-0.77182823,-0.4908302,0.38423425,237.1095,-83.0881,-6.0370994,WAL
748671706000,3.239987,-1.76407397927326,9.22790326572215,0.822881100935175,-0.86620694,-0.49663344,0.43004912,237.17908,-82.99846,-5.995608,WAL
748676737000,3.245018,-1.6658558189787,9.30402258801345,0.665732052155743,-0.9370673,-0.5015204,0.50518554,237.2386,-82.897514,-5.9357395,WAL
748681740000,3.250021,-1.56818429125981,9.37971826867801,0.509457615454592,-0.99082345,-0.5131268,0.5708536,237.29633,-82.78506,-5.867515,WAL
748686768000,3.255049,-1.56945041222967,9.45271838587213,0.181834521300406,-1.0112875,-0.5149594,0.63255095,237.35187,-82.68019,-5.764734,WAL
748691640000,3.259921,-1.57826298557937,9.52321906468977,-0.14863720936349,-1.0213667,-0.5036584,0.68477994,237.4008,-82.569595,-5.650135,WAL
748696754000,3.265035,-1.65659566334863,9.6076440792209,-0.504121712009551,-1.0122037,-0.44684792,0.72601336,237.46881,-82.53113,-5.469277,WAL
748701695000,3.269976,-1.74964738476449,9.69183355567001,-0.849742302322315,-0.9825767,-0.34697145,0.76052725,237.51598,-82.492516,-5.283474,WAL
748706848000,3.275129,-1.82115451642194,9.77361695794626,-1.09018522137649,-0.92057395,-0.23732115,0.79290307,237.56233,-82.51606,-5.065723,WAL
748711738000,3.280019,-1.87728943041654,9.84846360763161,-1.26326801939866,-0.8491027,-0.18142697,0.820392,237.59268,-82.54321,-4.8483586,WAL
748716725000,3.285006,-1.90891211743147,9.88321615554231,-1.31524720786651,-0.80664754,-0.05589417,0.82711154,237.60092,-82.61149,-4.627813,WAL
748721739000,3.29002,-1.92798967029201,9.89752408363131,-1.30570845633691,-0.745561,0.08155051,0.84757555,237.58841,-82.69867,-4.4043813,WAL
748726719000,3.295,-1.97523294811179,9.84290721817089,-1.16776324504658,-0.68539083,0.18936823,0.86009824,237.56287,-82.80815,-4.1821237,WAL
748731729000,3.30001,-2.03771286236602,9.75159052078534,-0.961098742652509,-0.6450737,0.2489276,0.8717047,237.51251,-82.92242,-3.9636066,WAL
748736733000,3.305014,-2.13396774023944,9.60802747333531,-0.762596016707233,-0.6081163,0.22602014,0.88086766,237.45514,-83.04025,-3.752523,WAL
748741708000,3.309989,-2.24710422163847,9.43832272662511,-0.569321125814782,-0.59437186,0.12858713,0.8854492,237.4039,-83.15544,-3.5455048,WAL
748746740000,3.315021,-2.35643585461265,9.27285594259384,-0.52443797062398,-0.57604593,0.003970624,0.87689704,237.36575,-83.221245,-3.348642,WAL
748751782000,3.320063,-2.46304852593837,9.11061893213017,-0.56615597812902,-0.5503896,-0.12339478,0.8677341,237.35715,-83.28573,-3.1538165,WAL
748756743000,3.325024,-2.54912334207787,8.99517184916425,-0.720185293960565,-0.49113566,-0.21655174,0.8399397,237.35938,-83.30161,-2.989246,WAL
748761768000,3.330049,-2.62137359780803,8.9132886417776,-0.965836002498249,-0.38728857,-0.25320363,0.79717916,237.38235,-83.32825,-2.8345132,WAL
748766724000,3.335005,-2.65032855653977,8.90951016277998,-1.1655863025901,-0.24098633,-0.22999077,0.7623598,237.41132,-83.367455,-2.6959686,WAL
748771728000,3.340009,-2.64591134691677,8.9669337033828,-1.33344036051249,-0.06963864,-0.1600467,0.72021013,237.43878,-83.43251,-2.5759037,WAL
748776736000,3.345017,-2.66544735618861,9.05074048035364,-1.36370717387033,0.10415252,-0.09468412,0.6951646,237.48181,-83.56117,-2.46016,WAL
748781711000,3.349992,-2.72264997352107,9.17554608229644,-1.17649849945427,0.25442538,-0.03848451,0.6563747,237.51025,-83.72067,-2.3652453,WAL
748786751000,3.355032,-2.81350734599513,9.26842107610706,-0.886470266191727,0.34697145,-0.03940081,0.6261369,237.55093,-83.941,-2.263816,WAL
748791705000,3.359986,-2.92894166918735,9.33306486987835,-0.521697839618491,0.398895,-0.051618114,0.60231316,237.58188,-84.18304,-2.1756663,WAL
748797392000,3.365673,-3.11905769713948,9.35419977904912,-0.144506061211284,0.40866885,-0.08460484,0.5720753,237.60919,-84.393906,-2.1039097,WAL
748801780000,3.370061,-3.30144211674887,9.33761925922273,0.120780368885382,0.40286562,-0.09712757,0.52931476,237.63693,-84.606384,-2.0448701,WAL
748806735000,3.375016,-3.5497908171864,9.30062650476286,0.368338806367191,0.3885103,-0.093462385,0.48716503,237.63675,-84.73213,-2.0178826,WAL
748811738000,3.380019,-3.84765407652662,9.24297537009927,0.560508736869548,0.39400807,-0.047036625,0.4550946,237.62988,-84.85543,-2.0017278,WAL
748816695000,3.384976,-4.15205392834162,9.15374647674759,0.726512436267915,0.39064834,0.04153884,0.3885103,237.57779,-84.88468,-2.0476348,WAL
748821747000,3.390028,-4.47280839806961,9.02638800467973,0.868021704650483,0.37782016,0.12705997,0.28160888,237.51593,-84.90295,-2.1144829,WAL
748826733000,3.395014,-4.70927174605395,8.94210425504495,1.13328447538961,0.36468655,0.17470746,0.16371189,237.41483,-84.84119,-2.2501385,WAL
748831776000,3.400057,-4.83954034565435,8.91315562137862,1.57233755194805,0.2938262,0.15882497,0.06536258,237.31082,-84.74849,-2.4084277,WAL
748836715000,3.404996,-4.75684781707909,8.99243632707424,2.00490754292091,0.1740966,0.094989546,-0.005192355,237.17982,-84.56479,-2.638781,WAL
748841723000,3.410004,-4.38451844687045,9.22048840043668,2.44704843312955,0.044898596,0.023518313,-0.057726767,237.05882,-84.34856,-2.8864377,WAL
748846684000,3.414965,-4.09334878593878,9.40057434556122,2.62429627473469,-0.09712757,-0.028710667,-0.11178834,236.91388,-83.99855,-3.1705368,WAL
748851783000,3.420064,-3.93887999212245,9.50023143887755,2.32034113853061,-0.22571471,-0.047036625,-0.15882497,236.78175,-83.61919,-3.460168,WAL
748856665000,3.424946,-3.80524393874738,9.60042585465987,1.99457025783638,-0.3726278,-0.048258353,-0.21227567,236.65471,-83.167206,-3.6911228,WAL
748861717000,3.429998,-3.68925464129458,9.71158247078214,1.60310641678154,-0.49449542,-0.059253927,-0.26358834,236.53659,-82.695114,-3.9281418,WAL
748866654000,3.434935,-3.60667305977137,9.79628990473598,1.19413451320269,-0.5842926,-0.124311075,-0.31031954,236.46045,-82.27042,-4.140145,WAL
748871746000,3.440027,-3.57127825454545,9.84495772727273,0.729578565454545,-0.6542367,-0.25534168,-0.3436117,236.40704,-81.82574,-4.3550687,WAL
748876628000,3.444909,-3.54785833112667,9.87704908529599,0.246704882524931,-0.689056,-0.44990227,-0.37873647,236.42857,-81.451195,-4.551786,WAL
748881720000,3.450001,-3.57372575595162,9.8408346257161,-0.43619277754721,-0.6808093,-0.677755,-0.41691554,236.49712,-81.07383,-4.7475004,WAL
748886727000,3.455008,-3.61890515759953,9.80751037252402,-1.12830432467739,-0.6160576,-0.9431759,-0.44257188,236.67241,-80.79599,-4.923045,WAL
748891703000,3.459984,-3.70769011339478,9.7794729204746,-1.86194898934105,-0.4810564,-1.217149,-0.4642576,236.91397,-80.539185,-5.0936747,WAL
748896696000,3.464977,-3.83607736104606,9.82527651385636,-2.69075942870804,-0.25411993,-1.493871,-0.4868596,237.27509,-80.422005,-5.246315,WAL
748901761000,3.470042,-4.07747403532397,10.0808726843286,-3.79361064070062,0.03940081,-1.765706,-0.52290064,237.7107,-80.35044,-5.393757,WAL
748906696000,3.474977,-4.36580030171026,10.4532284698189,-4.8640349637827,0.35094208,-1.8765781,-0.5516113,238.22746,-80.44297,-5.5339665,WAL
748911723000,3.480004,-4.85497580049296,11.2862797471831,-5.93925230661972,0.51068336,-1.9758437,-0.6160576,238.81693,-80.54991,-5.6818743,WAL
748916691000,3.484972,-5.32187963753099,11.9968374357957,-6.79861651680714,0.79779,-1.8762726,-0.66950834,239.44562,-80.8924,-5.8317924,WAL
748921744000,3.490025,-5.73933800494794,12.3279254278632,-6.96655944776401,1.1029172,-1.5607607,-0.7076874,240.03764,-81.23197,-5.9984174,WAL
748926741000,3.495022,-6.07066575824941,12.5069990773766,-6.98957337614018,1.4288138,-1.0873401,-0.78038037,240.60678,-81.68284,-6.208623,WAL
748931816000,3.500097,-6.11046147899779,12.1488394605748,-6.49212921459101,1.7938058,-0.52564955,-0.91690874,241.05661,-82.08102,-6.4562635,WAL
748936766000,3.505047,-6.14927700957996,11.7995015092115,-6.00693737229182,2.1316142,0.01863139,-1.0812315,241.36127,-82.339005,-6.793607,WAL
748941662000,3.509943,-6.02721296577462,11.4233283579441,-5.32861425325904,2.408947,0.47036624,-1.2195925,241.52684,-82.43882,-7.162492,WAL
748946838000,3.515119,-5.84912744677762,11.0162755587653,-4.55085313869052,2.6254988,0.7837401,-1.3454307,241.5717,-82.32974,-7.569001,WAL
748951921000,3.520202,-5.65966911480991,10.6296353545912,-3.681447254353,2.8075366,0.97310835,-1.4504995,241.47202,-81.9593,-8.040017,WAL
748956759000,3.52504,-5.32454750775337,10.400771965864,-1.73202092267796,2.8787024,1.0338894,-1.5473217,241.3155,-98.59327,-8.5295925,WAL
748961773000,3.530054,-4.97723462272206,10.1635828317015,0.288322944006351,2.871372,0.9080512,-1.649947,241.09439,-99.28263,-9.0535755,WAL
748966768000,3.535049,-4.16375458363135,10.5180309520505,0.989324752860066,2.7818804,0.5225952,-1.7675385,240.92857,-100.06166,-9.5967455,WAL
748971794000,3.540075,-3.21745088896006,11.0361426518993,1.33616002141269,2.7278187,0.057421334,-1.890628,240.81912,-100.91014,-10.15996,WAL
748976699000,3.54498,-2.45714772121566,11.728600720826,1.46711713154101,2.683531,-0.33933565,-2.0100522,240.68698,-101.62387,-10.715506,WAL
748981733000,3.550014,-1.82318103091759,12.6067620633158,1.41546062236509,2.6367998,-0.5852089,-2.0986276,240.6478,-102.34211,-11.287927,WAL
748986711000,3.554992,-1.00221501099212,13.4904867856133,1.54645981818549,2.6294694,-0.6826419,-2.1606305,240.73581,-102.81308,-11.641006,WAL
748991716000,3.559997,0.0389409868862395,14.3960504666599,1.88059822978379,2.6273315,-0.6844745,-2.1783454,240.86551,-103.27974,-11.999022,WAL
748996715000,3.564996,1.03589547616553,15.250143902043,2.15104406746988,2.5665503,-0.7144069,-2.1600194,241.07367,-103.54065,-12.161655,WAL
749001825000,3.570106,2.01003086369827,16.0704683431116,2.36125222891566,2.4312437,-0.74464476,-2.0744984,241.27884,-103.779335,-12.30902,WAL
749006626000,3.574907,2.5032037538566,16.5255758614534,2.26026483402542,2.225382,-0.8332202,-2.0164661,241.5401,-103.7831,-12.252503,WAL
749011619000,3.5799,2.71197093227903,16.7714579800136,1.94015496667313,2.1001546,-0.9819659,-1.9089539,241.82268,-103.76451,-12.175787,WAL
749016645000,3.584926,2.72594424265323,16.8653163942066,1.55079140728379,1.8875736,-1.2076806,-1.7913623,242.15445,-103.66594,-12.041767,WAL
749021629000,3.58991,2.55061080520571,16.8102114949622,1.09993365669605,1.7479908,-1.4367551,-1.6841555,242.5247,-103.557526,-11.902556,WAL
749026620000,3.594901,2.1903634761171,16.47049158099,0.405606913044106,1.6557503,-1.6575829,-1.5308284,242.95184,-103.45261,-11.754312,WAL
749031611000,3.599892,1.70704549491525,15.9411432563559,-0.450556287605932,1.5867225,-1.8808541,-1.3515394,243.44217,-103.31626,-11.589089,WAL
749036623000,3.604904,1.43379766494571,15.3354856687154,-1.23888088180701,1.5418239,-2.010663,-1.237613,243.97879,-103.196304,-11.4254675,WAL
749041622000,3.609903,1.35533108317968,14.663614845421,-1.95979306266134,1.5610662,-2.0011945,-1.1575897,244.53305,-103.058395,-11.2362795,WAL
749046638000,3.614919,1.21403919428148,14.0940812379132,-2.41399116180011,1.5586227,-1.8005253,-1.0619892,245.06561,-103.00179,-11.077714,WAL
749051720000,3.620001,1.02337963186031,13.5965065316262,-2.66975395568508,1.4706581,-1.4941764,-0.9822713,245.55731,-102.934105,-10.905783,WAL
749056699000,3.62498,0.85418730625838,13.1663657257655,-2.56145823931872,1.4321736,-1.1963795,-0.93645644,245.99866,-102.96484,-10.760804,WAL
749061695000,3.629976,0.702475012621852,12.793586863834,-2.08464815549918,1.4278975,-0.9239337,-0.8915578,246.35797,-102.98201,-10.590285,WAL
749066669000,3.63495,0.494306763832865,12.4082702254373,-1.57145449593608,1.3906348,-0.8356637,-0.8206975,246.66888,-103.069145,-10.465171,WAL
749071708000,3.639989,0.134798057515655,11.9810278219067,-0.951432280600302,1.3631458,-0.81581056,-0.745561,246.92462,-103.15609,-10.322952,WAL
749076639000,3.64492,-0.46884682110018,11.5735858288714,-0.666181026190521,1.2932017,-0.75319684,-0.7357872,247.1175,-103.25231,-10.231198,WAL
749081678000,3.649959,-1.43208012898496,11.1718582154952,-0.816828874056381,1.1389582,-0.41630468,-0.86559606,247.22353,-103.34713,-10.147815,WAL
749086832000,3.655113,-2.38882022673187,10.8008507131214,-0.922737427832111,0.9245446,-0.09590584,-1.0195341,247.30106,-103.44827,-10.144134,WAL
749091700000,3.659981,-3.2389588994295,10.5253871768541,-0.932236177302364,0.7602218,-0.033292156,-1.1551461,247.3515,-103.552246,-10.167948,WAL
749096687000,3.664968,-3.92423182733588,10.280180247872,-0.9154006693846,0.63163465,-0.05497787,-1.2684617,247.31647,-103.769295,-10.351855,WAL
749101725000,3.670006,-4.2735467648958,10.1008018660112,-0.849314052515409,0.5513059,-0.16462818,-1.3255776,247.28679,-103.974266,-10.553047,WAL
749106633000,3.674914,-4.51755222003474,9.89514265865663,-0.893842697996526,0.50823987,-0.29229903,-1.3298537,247.25513,-104.31203,-10.930231,WAL
749111698000,3.679979,-4.54095817062343,9.60959020811619,-1.19812031960432,0.4196644,-0.25961772,-1.3585643,247.20447,-104.63772,-11.318421,WAL
749116663000,3.684944,-4.45503293187425,9.39044261878233,-1.5007348551532,0.37232238,-0.09743301,-1.3613132,247.141,-105.00821,-11.758253,WAL
749122300000,3.690581,-3.95020414033028,9.36896066902109,-1.86055956051532,0.3622431,0.11881329,-1.3338243,247.05113,-105.36358,-12.1833,WAL
749126667000,3.694948,-3.5734938125937,9.33638990754623,-2.13328558354823,0.3915646,0.34208453,-1.2742649,246.92368,-105.75843,-12.610388,WAL
749131690000,3.699971,-3.18885175127436,9.24503707596202,-2.42657521492254,0.48502702,0.59498274,-1.1969905,246.7273,-106.14476,-13.003762,WAL
749136774000,3.705055,-2.8858275513464,9.04721769444953,-2.65702093982414,0.59589905,0.9071349,-1.1078042,246.46599,-106.49141,-13.29564,WAL
749141701000,3.709982,-2.85989708158088,8.52860694531966,-2.6743079497527,0.65668017,1.2696834,-1.0763446,246.12117,-106.83173,-13.558928,WAL
749146908000,3.715189,-2.82640671778788,7.98826531743528,-2.6634479649717,0.66523224,1.599856,-1.0873401,245.7182,-107.17554,-13.766564,WAL
749151723000,3.720004,-2.73227366884105,7.56894570112276,-2.35109761482787,0.64873886,1.8698585,-1.0900891,245.24069,-107.50583,-13.939296,WAL
749157204000,3.725485,-2.62512034770344,7.09162673601188,-1.99554366485107,0.63346726,2.0503693,-1.07665,244.70567,-107.87545,-14.129167,WAL
749161704000,3.729985,-2.49459079442473,6.80203740157121,-1.52594014673087,0.5891795,2.104736,-1.063211,244.14304,-108.227425,-14.303753,WAL
749166724000,3.735005,-2.34839043132286,6.48039646026356,-0.999618666548403,0.5326745,2.1438315,-1.0488557,243.54848,-108.561005,-14.457349,WAL
749171678000,3.739959,-2.19964607913888,6.20550439287483,-0.712571727102305,0.45478916,2.1642957,-1.0558805,242.95546,-108.874565,-14.625623,WAL
749176643000,3.744924,-2.05017829651362,5.93374499017908,-0.445341588666413,0.39645153,2.1875083,-1.0424415,242.36713,-109.16399,-14.77524,WAL
749181696000,3.749977,-1.77402600671642,5.7547971670398,-0.170232504116915,0.34666604,2.2091942,-1.02717,241.79967,-109.38016,-14.911902,WAL
749186736000,3.755017,-1.46885463358209,5.59970986853234,0.104922022748756,0.3023783,2.1789563,-0.9773844,241.2573,-109.568054,-15.033378,WAL
749192260000,3.760541,-1.09510849761858,5.55956881563802,0.399618362909307,0.26816985,2.13925,-0.92149025,240.74545,-109.75852,-15.184226,WAL
749196694000,3.764975,-0.791737147807105,5.53850137606668,0.635573862095654,0.21655174,2.1065688,-0.86559606,240.25478,-109.919624,-15.319571,WAL
749201689000,3.76997,-0.367196156300572,5.6063447926915,0.879054920068266,0.18692477,2.019826,-0.82619524,239.78294,-110.04967,-15.43967,WAL
749206672000,3.774953,0.068767264075896,5.68778865354884,1.11859524884048,0.14202617,1.8924606,-0.73853606,239.3489,-110.13964,-15.534659,WAL
749211699000,3.77998,0.383169460518131,5.76541372543177,1.06469045776227,0.10354166,1.6823229,-0.6420194,238.86357,-110.204704,-15.603343,WAL
749216661000,3.784942,0.675544256807645,5.84138513900637,0.96915066045394,0.086132,1.4978416,-0.5332854,238.422,-110.23991,-15.650766,WAL
749246689000,3.81497,2.44487726426059,6.30113314521716,0.390982777831069,-0.1826487,0.31795537,0.18051068,236.91275,-109.18327,-14.894245,WAL
749251678000,3.819959,2.46282721335284,6.29630266432975,0.237002712078153,-0.2602286,0.21899518,0.28802297,236.86006,-108.79144,-14.561127,WAL
749256596000,3.824877,2.31273723728973,6.24217177831992,0.0500053272824156,-0.31612277,0.15515977,0.37934732,236.84174,-108.37092,-14.211322,WAL
749261693000,3.829974,2.1571844499791,6.18607069536099,-0.143798184369449,-0.36377025,0.1423316,0.44409904,236.84543,-107.9767,-13.849908,WAL
749266635000,3.834916,2.00636202994985,6.13167564886637,-0.331708122486679,-0.44776422,0.15393804,0.51068336,236.86581,-107.54543,-13.464249,WAL
749271627000,3.839908,1.58570043095507,6.05825316356533,-0.645630584151331,-0.52564955,0.19394971,0.5549711,236.87819,-107.100845,-13.066289,WAL
749276606000,3.844887,1.09058630609643,5.97981935074535,-0.993681132096227,-0.6230826,0.25870144,0.5934556,236.88301,-106.6253,-12.649643,WAL
749281610000,3.849891,0.469734527240456,5.9742303676351,-1.21892573051066,-0.72051555,0.3115413,0.6215554,236.88373,-106.21177,-12.270038,WAL
749286632000,3.854913,-0.178840822867625,5.98376813410015,-1.41922101733267,-0.81031275,0.35430184,0.6395759,236.87007,-105.77881,-11.881518,WAL
749291619000,3.8599,-1.51524677336135,6.30220474668068,-1.85807062085204,-0.9062186,0.37384954,0.6569856,236.85136,-105.44575,-11.581989,WAL
749296660000,3.864941,-3.02317256827777,6.69417343413889,-2.35610114899226,-0.9611965,0.39675698,0.6649268,236.82025,-105.107086,-11.281572,WAL
749301752000,3.870033,-4.01756680229496,7.12941217597818,-2.79628616305493,-0.9773844,0.4071417,0.68661255,236.79578,-104.94033,-11.155688,WAL
749306728000,3.875009,-4.8019425934161,7.5686625853085,-3.20416165680963,-0.98899084,0.41141775,0.7067711,236.76643,-104.767166,-11.030402,WAL
749311699000,3.87998,-5.55144677773246,8.0569261639478,-3.69820586484502,-0.9728029,0.408058,0.7165449,236.74796,-104.94657,-11.25885,WAL
749316677000,3.884958,-6.28054562948613,8.57701651916803,-4.24746025534258,-0.947452,0.41325033,0.72387534,236.7207,-105.104996,-11.464674,WAL
749321710000,3.889991,-6.85255548083265,9.03582668044106,-4.75202261507626,-0.8912524,0.4364632,0.7131852,236.63298,-105.28227,-11.671851,WAL
749326695000,3.894976,-7.32976238004946,9.45399800824402,-5.22431011450948,-0.80970186,0.4868596,0.70554936,236.5349,-105.45567,-11.86407,WAL
749331799000,3.90008,-7.51700769137232,9.81229905172747,-5.49085061262305,-0.7189884,0.5491679,0.6728681,236.41777,-105.711205,-12.105665,WAL
749336732000,3.905013,-7.58083676954256,10.1314425383131,-5.66410002912565,-0.61544675,0.61391956,0.63316184,236.28455,-105.97281,-12.3364725,WAL
749341703000,3.909984,-7.61304983490332,10.3348112098166,-5.7390172779177,-0.52290064,0.66889745,0.5907067,236.11884,-106.301056,-12.588112,WAL
749346721000,3.915002,-7.62734503966287,10.4730005111552,-5.75807791581557,-0.45265114,0.70554936,0.5299256,235.93845,-106.638565,-12.839713,WAL
749351712000,3.919993,-7.59348076181007,10.5158570856331,-5.69280542451299,-0.38759398,0.7153232,0.44318274,235.739,-107.00021,-13.086484,WAL
749356703000,3.924984,-7.53043566109984,10.5013084421672,-5.57641425121753,-0.3717115,0.65026605,0.3622431,235.55063,-107.358215,-13.33687,WAL
749361701000,3.929982,-7.42537214727203,10.4577174115796,-5.45846728657955,-0.3576616,0.5375614,0.2843578,235.366,-107.71859,-13.590126,WAL
749366670000,3.934951,-7.29827949774895,10.3987098256391,-5.34045282563907,-0.35735616,0.40744713,0.1994475,235.2027,-108.08021,-13.859606,WAL
749371704000,3.939985,-7.08360446616466,10.2947769975904,-5.1458472724498,-0.36041048,0.2724459,0.118202426,235.06445,-108.42213,-14.133669,WAL
749376697000,3.944978,-6.800351225251,10.1555505012048,-4.89139938044177,-0.37507126,0.15760323,0.047036625,234.95433,-108.76254,-14.423056,WAL
749381675000,3.949956,-6.46211479672445,10.0987931812044,-4.71107950216241,-0.40286562,0.03756821,-0.025961773,234.87979,-109.08674,-14.7221365,WAL
749386765000,3.955046,-6.07072393732664,10.1076886063869,-4.58654601101277,-0.4392121,-0.07788532,-0.08582657,234.8328,-109.40597,-15.032634,WAL
749391701000,3.959982,-5.67782855628971,10.1279943500635,-4.51253678404278,-0.50640726,-0.09560041,-0.10140363,234.79044,-109.64859,-15.298616,WAL
749396730000,3.965011,-5.2545516205845,10.1687918729352,-4.51763644777637,-0.5186246,-0.07788532,-0.105068825,234.76624,-109.89602,-15.573458,WAL
749401779000,3.97006,-4.92386585878782,10.1447366768436,-4.51811056625295,-0.52106804,-0.014966198,-0.09896017,234.74231,-110.085304,-15.791689,WAL
749406700000,3.974981,-4.6975789032977,10.0550757715166,-4.5138410481609,-0.51068336,0.079107046,-0.095294975,234.70204,-110.2686,-16.000824,WAL
749411678000,3.979959,-4.52620273794609,9.90519378834472,-4.43330529498861,-0.45540005,0.19394971,-0.08124508,234.65698,-110.397545,-16.12642,WAL
749416683000,3.984964,-4.51255465969058,9.59128917606302,-4.14214711560364,-0.43676865,0.28771752,-0.055283304,234.59155,-110.512794,-16.238312,WAL
749421670000,3.989951,-4.50748354074074,9.24835792592593,-3.83107744444444,-0.4147775,0.33017266,-0.042760566,234.5283,-110.607025,-16.307343,WAL
749426697000,3.994978,-4.54831698387522,8.74020833766846,-3.40459497933277,-0.43463063,0.29168814,-0.008246681,234.46619,-110.68211,-16.359655,WAL
749431878000,4.000159,-4.58042904356456,8.21766065126007,-2.95198933583268,-0.4596761,0.16462818,0.029321533,234.41098,-110.733246,-16.420298,WAL
749436722000,4.005003,-4.49365116843856,7.74279247032996,-2.37588009503248,-0.5030475,-0.025045475,0.08155051,234.3897,-110.76454,-16.472126,WAL
749441718000,4.009999,-4.40415028814757,7.25302338859444,-1.78169310761756,-0.5183192,-0.28527406,0.1554652,234.41605,-110.77109,-16.555817,WAL
749446730000,4.015011,-4.31436277573396,6.76168579098467,-1.18560319950637,-0.52564955,-0.6068946,0.20952678,234.51624,-110.76482,-16.644655,WAL
749451692000,4.019973,-4.10803602009369,6.37584621035583,-0.642347632808133,-0.5729916,-0.94714653,0.28130344,234.70044,-110.720436,-16.715696,WAL
749456703000,4.024984,-3.4001292082129,6.41411146097877,-0.2931774303938,-0.64873886,-1.2275337,0.3472769,234.95946,-110.66105,-16.787024,WAL
749461697000,4.029978,-2.62206427612903,6.57152487703985,-0.11831990926186,-0.7360926,-1.3435981,0.43066,235.22943,-110.5193,-16.890562,WAL
749466685000,4.034966,-1.52570984466974,7.25350905309479,-0.705344361731725,-0.8546005,-1.2498302,0.52778757,235.51257,-110.35124,-16.972864,WAL
749472058000,4.040339,-0.352802453678865,8.01425779961478,-1.34803078912625,-0.9941832,-0.990518,0.6236934,235.79565,-110.03649,-16.915474,WAL
749476705000,4.044986,0.49658870464367,9.20652238085274,-2.11559984816144,-1.1545353,-0.70829827,0.74006325,236.03543,-109.68905,-16.820858,WAL
749481861000,4.050142,1.43901625194537,10.5293793166958,-2.96724307355104,-1.244638,-0.5021312,0.8512407,236.3176,-109.21169,-16.476013,WAL
749486717000,4.054998,1.24124558613766,11.5367450728029,-3.1421790461147,-1.2076806,-0.38728857,0.91354895,236.53967,-108.726074,-16.10934,WAL
749491666000,4.059947,0.5911443533143,12.4648309322244,-3.06128409031778,-1.0332786,-0.3491095,0.91782504,236.72002,-108.24816,-15.729772,WAL
749496679000,4.06496,-0.0673639271753973,13.404918710216,-2.97934300860228,-0.91813046,-0.258396,0.86467975,236.96149,-107.67289,-15.121503,WAL
749501663000,4.069944,-0.722062764191286,14.3395681188555,-2.89787595269364,-0.68111473,-0.15210545,0.75808376,237.17801,-107.17047,-14.539199,WAL
749506685000,4.074966,-1.38175328575906,15.281343666646,-2.81578775952085,-0.5149594,-0.013439035,0.6133087,237.34813,-106.714615,-13.991323,WAL
749511687000,4.079968,-2.03881660493111,16.2193686148833,-2.73402648069762,-0.45662177,0.0888809,0.46700647,237.48775,-106.3213,-13.484655,WAL
749516680000,4.084961,-2.68864384621011,16.6327489408245,-2.51353609527925,-0.44440445,-0.04642576,0.26816985,237.64255,-106.00929,-13.051476,WAL
749521754000,4.090035,-3.32943882265071,15.3619284179965,-1.84043215394504,-0.39736784,-0.46975538,0.04550946,237.83931,-105.76629,-12.687347,WAL
749526694000,4.094975,-3.47048680063419,14.1189793819545,-1.28590919901989,-0.19822577,-1.0647382,-0.12064589,238.00468,-105.67951,-12.625687,WAL
749531699000,4.09998,-2.99609576042087,12.8524012989334,-0.852969821773806,0.11148291,-1.6777414,-0.21868975,238.2865,-105.66042,-12.632349,WAL
749536702000,4.104983,-2.32387054993863,11.5309434948854,-0.805427469404665,0.3979787,-2.125811,-0.25473082,238.65085,-105.72807,-12.799165,WAL
749541706000,4.109987,-1.29444220321195,10.109351934329,-1.45249672615589,0.5476407,-2.2495112,-0.23609942,239.08662,-105.83169,-12.980717,WAL
749546637000,4.114918,-0.33515446844684,8.85759459127878,-1.80226023926507,0.56107974,-2.0189097,-0.16432275,239.54996,-105.91531,-13.133346,WAL
749551782000,4.120063,0.577391821852033,7.79054327035767,-1.70569446278295,0.46731192,-1.5961909,-0.0693332,239.98184,-105.992294,-13.261518,WAL
749556634000,4.124915,1.21904387680751,6.94604279008451,-1.4583219110047,0.4120286,-1.3109168,0.05131268,240.45026,-106.0384,-13.240241,WAL
749561701000,4.129982,1.47875879004695,6.36737968602817,-0.906997317779343,0.40591997,-1.1505647,0.23640485,240.83179,-106.04056,-13.159231,WAL
749566641000,4.134922,1.64591161853484,5.85082452902664,-0.335051852710041,0.43127087,-1.0503827,0.45753807,241.22037,-105.94956,-12.946265,WAL
749571715000,4.139996,1.5065062238832,5.49235375929303,0.376911110189549,0.48197266,-0.94989544,0.66767573,241.5669,-105.827446,-12.677699,WAL
749576647000,4.144928,1.32089466267183,5.25589264413359,0.998996285314618,0.5332854,-0.84788096,0.82802784,241.90201,-105.62877,-12.358126,WAL
749581682000,4.149963,0.994142951732817,5.32124289858664,1.44244511246854,0.5494733,-0.6936375,0.95081174,242.1986,-105.400276,-11.983249,WAL
749587300000,4.155581,0.56148832866783,5.47906994601513,1.87265292687609,0.5299256,-0.49449542,1.0500773,242.4356,-105.11766,-11.612641,WAL
749591699000,4.15998,0.0958460494318402,5.76090595150281,2.08913567550902,0.46853364,-0.36285394,1.0885619,242.64807,-104.82082,-11.2210455,WAL
