timestamp,rel_time,acc_x,acc_y,acc_z,gyro_x,gyro_y,gyro_z,azimuth,pitch,roll,label
613815086000,0,-0.441596147371532,9.87186430864859,-0.77660199360472,0.08093964,0.092240654,-0.1001819,310.5298,-86.42166,-3.0886881,STD
613818823000,0.003737,-0.429058439581454,9.87723760792341,-0.764601616621141,0.08002335,0.108123146,-0.109650314,310.5266,-86.42154,-3.1617737,STD
613823606000,0.00852,-0.413011381417165,9.88411491336399,-0.749242290125968,0.086437434,0.10720685,-0.101098195,310.5246,-86.41942,-3.2299004,STD
613828575000,0.013489,-0.396340289629929,9.89125966158358,-0.733285674329498,0.09010262,0.10445796,-0.08827003,310.5201,-86.40995,-3.2976475,STD
613833568000,0.018482,-0.379588677375216,9.89843891854884,-0.717251988945764,0.09590584,0.07880162,-0.07452556,310.5238,-86.398735,-3.3606942,STD
613838634000,0.023548,-0.362592148698593,9.90572313961554,-0.700983883567436,0.10995574,0.051618114,-0.062308256,310.53006,-86.38679,-3.4188457,STD
613843643000,0.028557,-0.345786856132229,9.91292540241126,-0.684898818458859,0.11362094,0.028405234,-0.04520403,310.54364,-86.374794,-3.470136,STD
613848580000,0.033494,-0.329223124968295,9.92002413896994,-0.669044962112075,0.13041973,0.014966198,-0.027794369,310.56323,-86.363945,-3.5165756,STD
613853577000,0.038491,-0.312458092635669,9.92720914739281,-0.65299843179713,0.14508049,0.019547688,-0.013439035,310.5852,-86.352554,-3.5580404,STD
613858586000,0.0435,-0.295652800069305,9.93441141018853,-0.636913366688554,0.16371189,0.015882496,-0.008857546,310.61423,-86.34006,-3.5965335,STD
613863584000,0.048498,-0.278884412717201,9.94159785647581,-0.620863625140807,0.1704314,0.030848695,-0.00030543262,310.63736,-86.32835,-3.6293204,STD
613868559000,0.053473,-0.262193190813095,9.94875123188181,-0.604887741947521,0.1872302,0.076358154,0.011301007,310.65363,-86.315544,-3.659514,STD
613873597000,0.058511,-0.245290602681863,9.95599519274522,-0.588709551087667,0.19333886,0.116675265,0.01160644,310.66797,-86.29741,-3.69007,STD
613878577000,0.063491,-0.228582605680366,9.96315575747324,-0.572717611730368,0.1881465,0.14813483,0.0125227375,310.67282,-86.278755,-3.7168083,STD
613883576000,0.06849,-0.211810863308784,9.97034364162492,-0.556664658949818,0.17287487,0.17348573,-0.00061086525,310.6691,-86.252426,-3.747045,STD
613888732000,0.073646,-0.194512382879122,9.97775727048791,-0.540107542619249,0.16676621,0.18875736,-0.004581489,310.66046,-93.77427,-3.773887,STD
613893609000,0.078523,-0.178149952883881,9.9847697351824,-0.524446360240625,0.14294247,0.17562376,-0.005192355,310.65405,-93.806114,-3.8028316,STD
613898573000,0.083487,-0.161495636194036,9.99190729407997,-0.508505800608169,0.12614368,0.16126843,-0.002443461,310.64493,-93.83998,-3.8311956,STD
613903571000,0.088485,-0.144727248841932,9.99909374036724,-0.492456059060422,0.12675454,0.13103059,0.009773844,310.6453,-93.87271,-3.8563237,STD
613908583000,0.093497,-0.127911891217133,10.0063003167562,-0.476361360253437,0.10476339,0.0842994,0.009162978,310.65552,-93.90835,-3.8837333,STD
613913586000,0.0985,-0.111126728767638,10.0134939523655,-0.460295562541676,0.08246681,0.039095376,0.013133603,310.67477,-93.939995,-3.9059224,STD
613918555000,0.103469,-0.0944556369804017,10.020638700585,-0.444338946745207,0.062308256,-0.008246681,0.015882496,310.7086,-93.97206,-3.9283628,STD
613923668000,0.108582,-0.077301422388303,10.0279905012787,-0.427919913425152,0.052534413,-0.043982297,0.018325957,310.75226,-94.003075,-3.949562,STD
613928579000,0.113493,-0.0608249217308033,10.0350518533629,-0.412149549131238,0.031154128,-0.067500606,0.021685716,310.80594,-94.03192,-3.969611,STD
613933577000,0.118491,-0.044056534378699,10.0422382996502,-0.396099807583491,0.021991149,-0.06872234,0.029932396,310.86322,-94.05912,-3.9874854,STD
613938654000,0.123568,-0.0270231004878161,10.0495383372253,-0.379796378644332,0.0012217305,-0.036651913,0.027794369,310.9172,-94.086754,-4.007232,STD
613943617000,0.128531,-0.0103721388174493,10.0566744582585,-0.363859030244679,-0.010995574,0.002443461,0.022602014,310.96906,-94.11309,-4.025439,STD
613948511000,0.133425,0.00604732650892084,10.0637113666478,-0.348143256908409,-0.016187929,0.057726767,0.027794369,311.00665,-94.13635,-4.04093,STD
613953624000,0.138538,0.00532207311406651,10.062079191208,-0.334405688166736,-0.028405234,0.07360926,0.032070424,311.04407,-94.159996,-4.0578957,STD
613958600000,0.143514,0.000108688278704508,10.0582258130871,-0.321712229727355,-0.02107485,0.1020145,0.03359759,311.06204,-94.183624,-4.073529,STD
613963620000,0.148534,-0.00515079561870651,10.0543383616871,-0.308906530095987,-0.027183503,0.1282817,0.03634648,311.00763,-94.13598,-4.0233808,STD
613968553000,0.153467,-0.0103191290979751,10.0505182824527,-0.296322761912413,-0.01740966,0.14508049,0.03390302,310.9484,-94.09203,-3.9754648,STD
613973691000,0.158605,-0.015702242298154,10.0465394527129,-0.283216051811622,-0.013133603,0.14508049,0.02565634,310.88718,-94.04922,-3.9295845,STD
613978615000,0.163529,-0.0208611464238217,10.0427263430129,-0.270655242053682,0.00061086525,0.124005646,0.03268129,310.82806,-94.005135,-3.8811724,STD
613983646000,0.16856,-0.026132155086745,10.038830373293,-0.257821482124317,0.0106901415,0.11484267,0.03023783,310.76627,-93.966896,-3.8387945,STD
613988650000,0.173564,-0.0313748756888654,10.0349553121763,-0.245056597471853,0.026267206,0.1337795,0.046120327,310.70334,-93.92397,-3.7901852,STD
613993697000,0.178611,-0.0366626476470793,10.031046952173,-0.232182022563583,0.05497787,0.14844026,0.038789943,310.64484,-93.89083,-3.750029,STD
613998596000,0.18351,-0.0417953591238555,10.0272532022907,-0.219684986210182,0.070554934,0.1740966,0.026572637,310.5786,-93.855896,-3.7077036,STD
614004361000,0.189275,-0.0478353839582328,10.0227888283223,-0.204978839123561,0.0693332,0.19120082,0.029321533,310.51157,-93.82069,-3.6641765,STD
614008590000,0.193504,-0.0522661324447172,10.0195139215552,-0.194190930011796,0.069027774,0.21533,0.022296581,310.4361,-93.79357,-3.627619,STD
614015093000,0.200007,-0.0590793642743713,10.0144780457674,-0.177602192023193,0.053145275,0.25809056,0.022602014,310.35156,-93.76294,-3.5887911,STD
614018599000,0.203513,-0.0627526213549137,10.011763024929,-0.168658609770687,0.044898596,0.2938262,0.027794369,310.26334,-93.73401,-3.5511692,STD
614023690000,0.208604,-0.0680864923751766,10.0078205916466,-0.155671793670429,0.04337143,0.2968805,0.029626964,310.17352,-93.70547,-3.5149536,STD
614028602000,0.213516,-0.0732328240293764,10.0040167746591,-0.143141595146668,0.03359759,0.28588495,0.028099801,310.07892,-93.67522,-3.4786584,STD
614033618000,0.218532,-0.0784881171029648,10.0001324208298,-0.130346099260026,0.024740042,0.2489276,0.0290161,309.99237,-93.64398,-3.4418344,STD
614038735000,0.223649,-0.0838492284780747,9.99616985333695,-0.117292958819047,0.027794369,0.21533,0.019242255,309.90924,-93.61653,-3.409116,STD
614043711000,0.228625,-0.0890626133134367,9.99231647521607,-0.104599500379667,0.010995574,0.16340645,0.009773844,309.8431,-93.58632,-3.3769886,STD
614048618000,0.233532,-0.0942037064378582,9.98851653019212,-0.0920820565368132,-0.023518313,0.12950343,0.01985312,309.78247,-93.55233,-3.3427107,STD
614053618000,0.238532,-0.0994422362161561,9.98464456664621,-0.0793273756290757,-0.06414085,0.10629055,0.008552114,309.73416,-93.52478,-3.3180525,STD
614058618000,0.243532,-0.104680765994454,9.98077260310031,-0.0665726947213383,-0.08093964,0.087964594,0.005192355,309.69473,-93.491905,-3.2890408,STD
614063609000,0.248523,-0.109909866419151,9.97690760908879,-0.0538409722392347,-0.12034045,0.07360926,-0.00030543262,309.661,-93.45727,-3.264511,STD
614068552000,0.253466,-0.115088676957976,9.97307978592731,-0.0412316946938455,-0.15699236,0.047647487,-0.020158553,309.63593,-93.426956,-3.245705,STD
614074369000,0.259283,-0.121183182502048,9.96857514353801,-0.0263928989257838,-0.17898351,0.013133603,-0.04184427,309.61734,-93.39737,-3.2295275,STD
614078617000,0.263531,-0.12563383740169,9.96528552330941,-0.01555652202657,-0.19181168,-0.0012217305,-0.04917465,309.60025,-93.367935,-3.2151592,STD
614083628000,0.268542,-0.1308838919455,9.9614050414437,-0.00277378082083553,-0.19608775,-0.04428773,-0.05955936,309.6009,-93.345314,-3.2082329,STD
614088694000,0.273608,-0.136191570316871,9.957481967979,0.010149261874884,-0.19456059,-0.10262536,-0.0693332,309.60962,-93.32519,-3.2033281,STD
614093709000,0.278623,-0.141445815684504,9.95359838854246,0.0229422068253447,-0.18997909,-0.12064589,-0.064446285,309.61862,-93.305,-3.1971455,STD
614098620000,0.283534,-0.146591099632748,9.94979534594767,0.0354698544129244,-0.17898351,-0.08399397,-0.07238753,309.62784,-93.29285,-3.1974125,STD
614103604000,0.288518,-0.151812866115755,9.94593577268511,0.0481837203417571,-0.16065755,0.010995574,-0.07391469,309.6247,-93.27948,-3.1943357,STD
614108586000,0.2935,-0.157032537186851,9.94207774820798,0.0608924843982268,-0.1328632,0.14294247,-0.08674286,309.59982,-93.27358,-3.1964326,STD
614113614000,0.298528,-0.162300402731907,9.93818410166622,0.0737185915190475,-0.099571034,0.3115413,-0.10445796,309.53705,-93.27127,-3.199699,STD
614118600000,0.303514,-0.167524264626826,9.93432297961824,0.0864375593202434,-0.076052725,0.4456262,-0.12370021,309.4469,-93.27384,-3.2062523,STD
614123682000,0.308596,-0.172848706293488,9.93038751587018,0.0994014169948677,-0.06047566,0.50579643,-0.12583824,309.331,-93.27718,-3.2117593,STD
614128615000,0.313529,-0.178017039772756,9.9265674366358,0.111985185178442,-0.040011674,0.45875978,-0.12705997,309.20944,-93.28593,-3.2211792,WAL
614133633000,0.318547,-0.183274428258256,9.92268153402113,0.124785782937447,-0.0033597588,0.3118467,-0.10720685,309.1017,-93.28965,-3.223986,WAL
614138714000,0.323628,-0.188597822218962,9.91874684466578,0.13774708967589,0.044898596,0.07422013,-0.07666359,309.0357,-93.291214,-3.2233737,WAL
614143942000,0.328856,-0.194075228955151,9.91469831958219,0.15108338403302,0.10934488,-0.19639318,-0.043066,309.0229,-93.28867,-3.216136,WAL
614148514000,0.333428,-0.198865340584426,9.91115779611581,0.162746264255055,0.18661933,-0.32589662,-0.004581489,309.03833,-93.28015,-3.1991975,WAL
614153615000,0.338529,-0.204209688664246,9.90720761890628,0.175758589717129,0.2134974,-0.52595496,0.0125227375,309.15103,-93.27035,-3.1808937,WAL
614158519000,0.343433,-0.2093476386708,9.90340999706046,0.188268380751438,0.2574797,-0.6249151,0.0421497,309.2709,-93.25498,-3.1497684,WAL
614163634000,0.348548,-0.306487805742016,9.74147762742643,-0.187824137608015,0.29901853,-0.6093381,0.064751714,309.3805,-93.24797,-3.115695,WAL
614168575000,0.353489,-0.429945863494051,9.53406855572949,-0.676718003609894,0.30604348,-0.51251596,0.09101892,309.4939,-93.23786,-3.0747278,WAL
614173678000,0.358592,-0.546951004316919,9.40722531108182,-0.973491754684116,0.31887165,-0.3735441,0.086132,309.53873,-93.24487,-3.0424912,WAL
614178615000,0.363529,-0.658241596473025,9.30038604660578,-1.22278273652198,0.30909783,-0.20861048,0.07941248,309.54834,-93.248985,-3.0047464,WAL
614183577000,0.368491,-0.761939287402502,9.28609028062914,-1.30861011626196,0.29779682,-0.04886922,0.054061573,309.52325,-93.332794,-2.999108,WAL
614188639000,0.373553,-0.864495332906549,9.3083852897351,-1.33090489256806,0.2932153,0.10293079,0.041233405,309.45563,-93.424576,-2.9916468,WAL
614193609000,0.378523,-0.883440881653059,9.43537000385863,-1.1943320567498,0.28069258,0.21288654,0.0125227375,309.35153,-93.589424,-3.0213559,WAL
614198570000,0.383484,-0.835616808361481,9.64792091667599,-0.92864284699698,0.25961772,0.25350907,-0.0070249503,309.2279,-93.76028,-3.0505314,WAL
614203555000,0.388469,-0.728004916151488,9.87480192049837,-0.596355790991793,0.23732115,0.23945917,-0.009468411,309.1009,-93.95114,-3.0960312,WAL
614208590000,0.393504,-0.599267757879956,10.108435778404,-0.238752545911203,0.20677789,0.19486602,-0.004886922,308.9752,-94.14026,-3.1431024,WAL
614215458000,0.400372,-0.403930898360978,10.3888340793994,0.0798101758170576,0.1966986,0.121256754,0.018020526,308.8504,-94.286545,-3.1698735,WAL
614218587000,0.403501,-0.312759964118167,10.5123563370301,0.206273091539896,0.21471913,0.09682214,0.025961773,308.7272,-94.43291,-3.1980934,WAL
614223612000,0.408526,-0.281463254334593,10.5994201557589,0.414589825482395,0.2125811,0.025350908,0.034208454,308.5419,-94.544365,-3.1842134,WAL
614228612000,0.413526,-0.300513990360056,10.6375214089914,0.624147961547643,0.17867808,-0.043066,0.038789943,308.36404,-94.65181,-3.168895,WAL
614233617000,0.418531,-0.405131733545586,10.6334938644477,0.679981018668596,0.16065755,-0.0693332,0.03970624,308.1448,-94.732635,-3.1213999,WAL
614238626000,0.42354,-0.548602744561505,10.6103533959479,0.666096737568741,0.116980694,-0.087964594,0.04917465,307.94415,-94.7986,-3.0715399,WAL
614243585000,0.428499,-0.721326334793856,10.5543302805174,0.622453759417947,0.094989546,-0.08857546,0.044593163,307.7383,-94.83822,-3.0226707,WAL
614248572000,0.433486,-0.914372147305982,10.4771124110752,0.55971386254042,0.07788532,-0.09468412,0.042455133,307.5401,-94.86675,-2.9714274,WAL
614253567000,0.438481,-1.12991372280559,10.3345776118178,0.406336539470997,0.06078109,-0.09743301,0.038179077,307.3182,-94.93006,-2.935484,WAL
614258617000,0.443531,-1.36114800652233,10.1513348197564,0.196916776972125,0.04795292,-0.08307768,0.029932396,307.09286,-94.99049,-2.9011095,WAL
614263620000,0.448534,-1.48267314520198,10.0131721595424,0.0385762242309382,0.03268129,-0.08277224,0.026267206,306.88324,-95.076324,-2.8912356,WAL
614268553000,0.453467,-1.45613385209131,9.9359670943772,-0.0506923711309943,0.014049901,-0.08032878,0.0076358155,306.6676,-95.16015,-2.887075,WAL
614273635000,0.458549,-1.42879294643787,9.85643007001685,-0.142657301524131,-0.0067195175,-0.09682214,-0.005192355,306.48364,-95.29875,-2.922469,WAL
614278596000,0.46351,-1.40210301472856,9.77878678433175,-0.23243259071743,-0.02321288,-0.11575896,-0.009162978,306.29813,-95.43243,-2.9592328,WAL
614283627000,0.468541,-1.30826981746828,9.72353942549425,-0.322375829766893,-0.0290161,-0.13836098,-0.003970624,306.11707,-95.56117,-2.9960153,WAL
614288597000,0.473511,-1.15026946257008,9.69193908321039,-0.410153794933609,-0.030543262,-0.15882497,0.008246681,305.93964,-95.68344,-3.03085,WAL
614293521000,0.478435,-0.993731485202125,9.66063121894364,-0.497119328229566,-0.022296581,-0.18448131,0.01160644,305.74512,-95.850426,-3.052592,WAL
614298576000,0.48349,-0.903434826180687,9.63255721913546,-0.600602733172575,-0.0061086523,-0.1872302,0.023518313,305.54987,-96.01292,-3.0672398,WAL
614303920000,0.488834,-0.831951260739309,9.60410091704921,-0.713607460256101,-0.007330383,-0.18845193,0.040927973,305.36124,-96.16886,-3.0789206,WAL
614308562000,0.493476,-0.81046998236289,9.57903964991544,-0.799532629838125,0.005192355,-0.17654006,0.046731193,305.13953,-96.34723,-3.0620084,WAL
614313578000,0.498492,-0.787257984875574,9.55195922855762,-0.892380680381735,0.024740042,-0.14630222,0.055283304,304.9043,-96.54035,-3.0322535,WAL
614318563000,0.503477,-0.752605954498493,9.52308966724064,-0.971916028325441,0.023518313,-0.12858713,0.056505036,304.67065,-96.728935,-3.0028245,WAL
614323641000,0.508555,-0.705503132565648,9.49168771308653,-1.03995344082006,0.03390302,-0.11209377,0.0580322,304.43063,-96.92134,-2.96993,WAL
614329352000,0.514266,-0.674535750004906,9.49603327171033,-1.05927701250123,0.050701816,-0.09468412,0.049480084,304.18948,-97.13166,-2.9368892,WAL
614333599000,0.518513,-0.658571597478167,9.51199734088902,-1.05528597436954,0.06658431,-0.081855945,0.05009095,303.94745,-97.3396,-2.9004285,WAL
614338639000,0.523553,-0.628451508760056,9.55065669174816,-1.05487201055928,0.08307768,-0.0693332,0.03940081,303.69858,-97.5619,-2.8635244,WAL
614343602000,0.528516,-0.591817986969507,9.60102783053134,-1.05716160342984,0.06688975,-0.06078109,0.04062254,303.45032,-97.773964,-2.8228486,WAL
614348602000,0.533516,-0.554911356110603,9.65177449462884,-1.05946826560046,0.089186326,-0.061086524,0.03176499,303.19885,-97.99762,-2.784608,WAL
614353624000,0.538538,-0.517842336075919,9.70274444404837,-1.06178507708464,0.10048734,-0.0571159,0.03604105,302.9471,-98.20767,-2.741935,WAL
614358615000,0.543529,-0.475165111112147,9.73688455130993,-1.07900577554106,0.1151481,-0.07147124,0.043676864,302.71167,-98.41614,-2.6958334,WAL
614363599000,0.548513,-0.425738989036968,9.75171217065341,-1.11360403570467,0.13500121,-0.071776666,0.052839845,302.47385,-98.62371,-2.6476588,WAL
614368576000,0.55349,-0.390844472108719,9.76787107497264,-1.13916834627873,0.14844026,-0.07696902,0.059253927,302.22955,-98.82959,-2.5857167,WAL
614373623000,0.558537,-0.368802275014593,9.7855047332178,-1.15680214262131,0.17287487,-0.07941248,0.07360926,301.98828,-99.0373,-2.519699,WAL
614378575000,0.563489,-0.367537105176322,9.81191778085642,-1.1617728636335,0.18753563,-0.05222898,0.082161374,301.7324,-99.25346,-2.439437,WAL
614383629000,0.568543,-0.408176208845508,9.85763717296389,-1.14145326936398,0.2012801,-0.043676864,0.096516706,301.487,-99.46899,-2.3558404,WAL
614388586000,0.5735,-0.465102581402192,9.90335092574306,-1.12403739081663,0.20586158,-0.04428773,0.10873401,301.23633,-99.68552,-2.2646058,WAL
614393616000,0.57853,-0.545966891879135,9.95091787795003,-1.10976723065074,0.22052236,-0.03726278,0.11728613,300.9854,-99.90216,-2.1714902,WAL
614398542000,0.583456,-0.620873798134905,9.98445486823541,-1.0868731828276,0.24801129,-0.03604105,0.13408493,300.7454,-100.11037,-2.0805466,WAL
614403583000,0.588497,-0.690853507688442,9.99845085301508,-1.0495506379397,0.26175576,-0.04337143,0.15485434,300.50983,-100.31242,-1.9879771,WAL
614408514000,0.593428,-0.759383558125284,9.99677833975816,-0.991764128583507,0.2678644,-0.03726278,0.16829337,300.28754,-100.50564,-1.9036778,WAL
614415084000,0.599998,-0.850911357670697,9.95101472670243,-0.854472494971361,0.2706133,-0.04550946,0.17806722,300.07504,-100.69533,-1.817345,WAL
614418575000,0.603489,-0.900538289172309,9.92496448741789,-0.78065058008287,0.269697,-0.058643065,0.18325958,299.87714,-100.86772,-1.7397215,WAL
614423703000,0.608617,-0.979947890417383,9.87533353198585,-0.666499294488125,0.26389378,-0.06291912,0.19456059,299.68216,-101.03375,-1.6591326,WAL
614428564000,0.613478,-1.05270415813622,9.82360479734944,-0.550467167965945,0.25686884,-0.073303826,0.18753563,299.49588,-101.17453,-1.5955352,WAL
614433596000,0.61851,-1.11333638152156,9.74276188911256,-0.384739092119611,0.24953845,-0.07513642,0.1872302,299.311,-101.30848,-1.5278912,WAL
614438695000,0.623609,-1.174775909948,9.66084257490354,-0.216804382513001,0.23579398,-0.092240654,0.18203785,299.13962,-101.41285,-1.4783262,WAL
614443663000,0.628577,-1.16827792082648,9.66309113898026,-0.135768564292763,0.21135938,-0.10140363,0.17348573,298.96732,-101.50867,-1.4302638,WAL
614448540000,0.633454,-1.14427188097245,9.68709712870066,-0.0781541488569079,0.18845193,-0.118507855,0.16157386,298.8025,-101.59787,-1.3867832,WAL
614453573000,0.638487,-1.12886214917492,9.70609939273927,-0.0885933666556656,0.18112154,-0.15760323,0.13652839,298.63947,-101.65156,-1.3604366,WAL
614458583000,0.643497,-1.11566639339934,9.72369364191419,-0.114984896578658,0.16126843,-0.19547687,0.1142318,298.4808,-101.693,-1.3378243,WAL
614463576000,0.64849,-1.11398386083803,9.71312753328969,-0.149092594359891,0.15363261,-0.22143865,0.10262536,298.32202,-101.72289,-1.3176067,WAL
614468953000,0.653867,-1.11917065108783,9.68460013275584,-0.190586946146253,0.13927728,-0.2519819,0.099265605,298.1745,-101.74377,-1.3036745,WAL
614473710000,0.658624,-1.12375937365028,9.65936211074738,-0.227296752999093,0.11759156,-0.25992316,0.1001819,298.02823,-101.76316,-1.2899508,WAL
614478596000,0.66351,-1.12847253287671,9.63343968578767,-0.265002053878425,0.10751228,-0.24953845,0.08124508,297.8841,-101.78082,-1.2832983,WAL
614483599000,0.668513,-1.11789285342427,9.59730778374538,-0.280769986643933,0.09560041,-0.23823744,0.048563786,297.7458,-101.78832,-1.279322,WAL
614488612000,0.673526,-1.09970264847968,9.55637991759023,-0.28531753788008,0.07941248,-0.2144137,0.03604105,297.6011,-101.79035,-1.273426,WAL
614493632000,0.678546,-1.04132558846342,9.53584571442562,-0.327117679874645,0.06994407,-0.19761491,0.025961773,297.46295,-101.80458,-1.2787807,WAL
614498579000,0.683493,-0.953170377908138,9.53120587317599,-0.396713893634316,0.06291912,-0.17989981,0.0076358155,297.3168,-101.81411,-1.2879303,WAL
614503610000,0.688524,-0.826575239102451,9.5362659593544,-0.448090123152249,0.058337633,-0.16157386,0.0067195175,297.16068,-101.825485,-1.2910919,WAL
614508585000,0.693499,-0.66715029918512,9.55033266046649,-0.480912907204015,0.071776666,-0.14508049,0.0070249503,296.99948,-101.83894,-1.2973635,WAL
614513609000,0.698523,-0.474472636197792,9.56884815506481,-0.489037821272204,0.08857546,-0.11484267,0.024740042,296.83243,-101.86169,-1.2806373,WAL
614518562000,0.703476,-0.251307738196832,9.59162006596256,-0.470820283042727,0.089491755,-0.115453534,0.03573562,296.66974,-101.88203,-1.2662717,WAL
614523574000,0.708488,-0.0300205209326963,9.63120489727877,-0.477456741523681,0.109650314,-0.12675454,0.065973446,296.48834,-101.9184,-1.2137029,WAL
614528592000,0.713506,0.184606187480266,9.69609230712505,-0.522378614483797,0.1301143,-0.14508049,0.09865474,296.3112,-101.95248,-1.158566,WAL
614533576000,0.71849,0.372083420253574,9.77648455756804,-0.590114700597219,0.15424347,-0.18509217,0.12767084,296.1129,-101.99488,-1.0580357,WAL
614538622000,0.723536,0.532944510410221,9.87583997150969,-0.684738859653417,0.19394971,-0.20219639,0.15607607,295.91748,-102.044266,-0.9509014,WAL
614543555000,0.728469,0.650629558098014,9.9733545022231,-0.765551234393835,0.23701571,-0.20891592,0.17470746,295.70807,-102.11317,-0.8072201,WAL
614548574000,0.733488,0.717117432826796,10.0730858655271,-0.832039123999605,0.24404067,-0.21777347,0.1881465,295.5087,-102.17972,-0.6627874,WAL
614553522000,0.738436,0.727207836378616,10.1374422586964,-0.885305810335042,0.27366763,-0.22693644,0.21533,295.30237,-102.28158,-0.487304,WAL
614558589000,0.743503,0.651691882586964,10.1507688768766,-0.920842739861772,0.30573806,-0.22357668,0.23701571,295.0998,-102.38254,-0.31552556,WAL
614563522000,0.748436,0.536307300227722,10.1418403677111,-0.950231807291556,0.3203988,-0.22632557,0.23823744,294.89978,-102.49553,-0.13810484,WAL
614568553000,0.753467,0.259964283215932,10.0497257768455,-0.960466752926182,0.33383787,-0.22052236,0.25595254,294.70355,-102.61299,0.043854937,WAL
614573517000,0.758431,-0.0450288929795313,9.93779605784634,-0.974956440373776,0.33964106,-0.21380283,0.25778514,294.53244,-102.72819,0.20583843,WAL
614578592000,0.763506,-0.424696780999901,9.77920092781568,-0.998986035943835,0.344528,-0.19730948,0.2611449,294.36185,-102.843056,0.36834267,WAL
614583558000,0.768472,-0.784530440558195,9.60923950296912,-1.0121956672209,0.35002577,-0.17134771,0.24373524,294.22626,-102.94649,0.4791792,WAL
614588606000,0.77352,-1.12423790872922,9.4035010287015,-1.00262644980206,0.3359759,-0.13683382,0.22204952,294.08563,-103.042305,0.58798367,WAL
614593570000,0.778484,-1.40892237363989,9.21043142113729,-1.01320966241839,0.31123585,-0.108123146,0.17867808,293.98373,-103.132095,0.628583,WAL
614598609000,0.783523,-1.57786251274482,9.03692514419529,-1.07256702276469,0.2782491,-0.0888809,0.1282817,293.8739,-103.21211,0.66167736,WAL
614603595000,0.788509,-1.69239202136038,8.87849373031026,-1.14409127834129,0.23640485,-0.061391957,0.061086524,293.781624028056,-103.274804703407,0.626521183911824,WAL
614608589000,0.793503,-1.57349141686555,8.77861770326173,-1.27250387358791,0.21471913,-0.019242255,0.0009162979,293.6892,-103.3376,0.5913086,WAL
614614732000,0.799646,-1.36744817784951,8.70992313175998,-1.40945067550005,0.17867808,0.0067195175,-0.035124753,293.60803,-103.39552,0.5116768,WAL
614618510000,0.803424,-1.16450584484072,8.73672658037888,-1.46688719087734,0.1591304,0.021991149,-0.052534413,293.51572,-103.450294,0.424273,WAL
614623508000,0.808422,-0.89083389816101,8.80662757458564,-1.52521791614049,0.14202617,0.044898596,-0.064446285,293.4174,-103.524506,0.35159642,WAL
614628515000,0.813429,-0.602256994384373,8.97220436187845,-1.53467954563931,0.16126843,0.04062254,-0.0580322,293.32306,-103.60192,0.28014472,WAL
614633545000,0.818459,-0.344644505915172,9.15386095084729,-1.52789226836785,0.18387043,0.021380283,-0.030543262,293.2129,-103.68842,0.25229773,WAL
614638549000,0.823463,-0.187926917129125,9.38181395332474,-1.47090404254286,0.20708331,0.008552114,-0.004581489,293.10364,-103.77802,0.22704971,WAL
614643512000,0.828426,-0.0659882538714485,9.59333251877608,-1.39651181117624,0.23671028,-0.032070424,0.0125227375,292.9789,-103.874176,0.2532847,WAL
614648517000,0.833431,-0.0612264881204053,9.75523278303199,-1.2584205994238,0.25534168,-0.0711658,0.047036625,292.86227,-103.97053,0.29019204,WAL
614653484000,0.838398,-0.0789155131383338,9.88886178926537,-1.1352246222898,0.29779682,-0.13744467,0.06872234,292.7388,-104.0629,0.35146323,WAL
614658560000,0.843474,-0.186848041235641,9.91701768848344,-1.06483384522637,0.3203988,-0.19181168,0.07422013,292.62625,-104.15154,0.41398475,WAL
614663534000,0.848448,-0.286016246870839,9.93944983355526,-1.00301428721704,0.32895094,-0.19486602,0.07696902,292.5021,-104.21329,0.4825705,WAL
614668553000,0.853467,-0.345447278934754,9.93030689014647,-0.984727827563249,0.33658674,-0.17134771,0.0711658,292.387,-104.27852,0.54643357,WAL
614673623000,0.858537,-0.398936812960336,9.92117730397642,-0.967652187780997,0.3173445,-0.13408493,0.06872234,292.27307,-104.31932,0.59433264,WAL
614678587000,0.863501,-0.33956616283345,9.91405268193626,-0.974776661035068,0.310625,-0.0888809,0.050701816,292.15012,-104.36348,0.6373944,WAL
614683645000,0.868559,-0.279071249791188,9.90679314561894,-0.982036045748826,0.28680122,-0.048563786,0.039095376,292.02353,-104.391045,0.6730998,WAL
614688610000,0.873524,-0.219688639420522,9.89966708832051,-0.989161954231192,0.26419923,-0.0036651916,0.022907447,291.88278,-104.414856,0.7053868,WAL
614693772000,0.878686,-0.147408497782398,9.89707524116424,-0.992908455717256,0.24770586,0.020463986,0.015271631,291.73767,-104.431816,0.73759544,WAL
614698579000,0.883493,0.0348930963063063,9.94720823938224,-0.956448138803089,0.21746802,0.02443461,0.019242255,291.5868,-104.43672,0.7697018,WAL
614703855000,0.888769,0.233553086180435,10.0070436910241,-0.912219161506372,0.20463985,0.0076358155,0.022602014,291.41562,-104.45669,0.8284044,WAL
614708576000,0.89349,0.395217357592372,10.114819874851,-0.825169171871275,0.18936823,-0.039095376,0.034513887,291.25424,-104.465744,0.88721216,WAL
614713561000,0.898475,0.565921952590997,10.2286229412304,-0.733251315838452,0.19822577,-0.07819075,0.053145275,291.0735,-104.47216,0.9768513,WAL
614718594000,0.903508,0.724176914704195,10.428315038365,-0.591468247149516,0.204029,-0.13255776,0.06811147,290.91257,-104.4722,1.0617794,WAL
614724235000,0.909149,0.898506371625134,10.6704396422553,-0.421981257024023,0.20861048,-0.19853121,0.09468412,290.76974,-104.47393,1.148896,WAL
614728612000,0.913526,0.89590947122731,10.7290678564356,-0.392204598535479,0.21074851,-0.24495697,0.11636983,290.6044,-104.46053,1.2675284,WAL
614733617000,0.918531,0.82670084638717,10.7340109133663,-0.407035018512789,0.2134974,-0.29626966,0.1441642,290.46304,-104.44906,1.3860453,WAL
614738634000,0.923548,0.696610779895044,10.7070539428571,-0.405459097026239,0.21960606,-0.31612277,0.16920967,290.2802,-104.41477,1.5452255,WAL
614743611000,0.928525,0.539121179548105,10.6653656428571,-0.396195008862974,0.2302962,-0.3210097,0.18081611,290.11075,-104.383835,1.699549,WAL
614748615000,0.933529,0.378604941977749,10.5698105370021,-0.419181984115427,0.23090707,-0.344528,0.19914207,289.96112,-104.352325,1.8370364,WAL
614753603000,0.938517,0.21727089382835,10.4416927140161,-0.461888058890434,0.22540927,-0.37140608,0.22327125,289.81696,-104.323524,1.9738523,WAL
614758621000,0.943535,0.0871940951336016,10.3007882758692,-0.472837183017642,0.22113322,-0.39278635,0.22327125,289.69388,-104.29037,2.0788145,WAL
614763591000,0.948505,-0.0208352102929949,10.1534751787888,-0.463016333806871,0.22510384,-0.41141775,0.2321288,289.58087,-104.2602,2.1877747,WAL
614768559000,0.953473,-0.110213617924398,10.050778128109,-0.534161244775957,0.22296582,-0.4364632,0.21868975,289.49985,-104.23239,2.26004,WAL
614773603000,0.958517,-0.191262966645282,9.96972863501777,-0.648583862055863,0.19730948,-0.45906523,0.20433442,289.42426,-104.19985,2.3311858,WAL
614778575000,0.963489,-0.280528314723823,9.8864895744089,-0.695556272382277,0.18997909,-0.45937067,0.19853121,289.36655,-104.169235,2.3823392,WAL
614783619000,0.968533,-0.376505688031989,9.80011019749652,-0.705154003198887,0.183565,-0.43401974,0.19792034,289.30725,-104.13184,2.4299579,WAL
614788586000,0.9735,-0.429038162802892,9.75110746920482,-0.725919170804819,0.17989981,-0.42088616,0.16768251,289.26605,-104.113266,2.4489346,WAL
614794066000,0.97898,-0.459388563111325,9.72075698438554,-0.756269549985542,0.14935656,-0.43066,0.13530666,289.22388,-104.0852,2.4665525,WAL
614798611000,0.983525,-0.429054363818958,9.70439665659785,-0.793382969376747,0.110872045,-0.44318274,0.113926366,289.1895,-104.05472,2.4652789,WAL
614803607000,0.988521,-0.356322667844849,9.69266574579513,-0.842652843745403,0.082161374,-0.44440445,0.093462385,289.15237,-104.01706,2.4554822,WAL
614808579000,0.993493,-0.283940363524739,9.68099118844702,-0.891686033369293,0.070554934,-0.44990227,0.083383106,289.12097,-103.98373,2.4428003,WAL
614815108000,1.000022,-0.188891275651449,9.66566070073064,-0.956074145809837,0.05589417,-0.4596761,0.07086037,289.0892,-103.94086,2.423809,WAL
614818620000,1.003534,-0.133292052965065,9.68369289075121,-0.997150213348142,0.06261369,-0.48197266,0.06414085,289.06772,-103.900185,2.407407,WAL
614823587000,1.008501,-0.0516426207688813,9.72691893043215,-1.05958802125404,0.04642576,-0.50426924,0.06169739,289.04794,-103.84938,2.3885772,WAL
614828581000,1.013495,0.0289491328343051,9.75372155490768,-1.08269107949465,0.03481932,-0.52015173,0.06414085,289.0319,-103.82579,2.388842,WAL
614833607000,1.018521,0.108469204130904,9.76307704606414,-1.06398048793003,0.039095376,-0.52564955,0.06627888,289.01865,-103.80247,2.3875897,WAL
614838574000,1.023488,0.18229827112159,9.77457205790488,-1.0409904890579,0.036651913,-0.52870387,0.0571159,289.0069,-103.786316,2.3941708,WAL
614843592000,1.028506,0.250525611677315,9.78919198894635,-1.01175016898895,0.03145956,-0.52595496,0.06414085,288.9961,-103.77179,2.4055393,WAL
614848609000,1.033523,0.298248041486754,9.81020564452353,-0.98942160059312,0.016493361,-0.52656585,0.06414085,288.9887,-103.74986,2.4316318,WAL
614853578000,1.038492,0.321768780391459,9.83843060587188,-0.975309169039146,0.014660766,-0.5235115,0.055588737,288.97913,-103.73058,2.4568257,WAL
614858588000,1.043502,0.337265585168046,9.86492072584023,-0.963102798818191,0.02076942,-0.52198434,0.047647487,288.95984,-103.70772,2.4923005,WAL
614863563000,1.048477,0.342017213770819,9.88867886885409,-0.953599516804627,0.014966198,-0.5332854,0.043066,288.9428,-103.68133,2.524534,WAL
614868558000,1.053472,0.336854862369114,9.91428330155016,-0.942171219874232,0.010079277,-0.52503866,0.03176499,288.91946,-103.64955,2.5535753,WAL
614873582000,1.058496,0.318091532615775,9.94242837944818,-0.928098729906405,-0.021685716,-0.5109888,0.018936822,288.89703,-103.609085,2.5795798,WAL
614878507000,1.063421,0.301738083187511,9.94886622272645,-0.924093183526956,-0.021380283,-0.4908302,0.009773844,288.8678,-103.5743,2.6044161,WAL
614883611000,1.068525,0.288428946894173,9.9178114076965,-0.937402310555455,-0.044593163,-0.45204028,-0.0021380284,288.82828,-103.5242,2.6263402,WAL
614888571000,1.073485,0.275086088854044,9.89548236354849,-0.970995212345613,-0.053450707,-0.41416663,-0.01160644,288.77893,-103.47803,2.6477633,WAL
614893588000,1.078502,0.259605413597895,9.91096334593492,-1.10516105917732,-0.07086037,-0.35277468,-0.004886922,288.71252,-103.4243,2.6739223,WAL
614898550000,1.083464,0.237011982317518,9.91091860036496,-1.20242755810219,-0.0729984,-0.30085114,-0.0061086523,288.6412,-103.37545,2.6941597,WAL
614903579000,1.088493,0.197463095798358,9.87576377965329,-1.22000483080292,-0.063224554,-0.24801129,-0.018325957,288.5525,-103.32572,2.7166364,WAL
614908561000,1.093475,0.156402622193649,9.84347938372093,-1.22161681243292,-0.06169739,-0.20616703,-0.030848695,288.4688,-103.293274,2.7362218,WAL
614913581000,1.098495,0.10050079438864,9.83057915116279,-1.10121287576029,-0.055283304,-0.17898351,-0.03145956,288.3751,-103.26515,2.7577047,WAL
614918539000,1.103453,0.0452893875644902,9.81783824418605,-0.982295999660107,-0.064751714,-0.21197024,-0.03848451,288.29318,-103.23454,2.765526,WAL
614923594000,1.108508,-0.019484921069609,9.7584350779956,-0.691633397565783,-0.05100725,-0.2950479,-0.040317107,288.21875,-103.21249,2.7728636,WAL
614928916000,1.11383,-0.085790405833168,9.68992514044832,-0.366881365096211,-0.056505036,-0.419359,-0.050396383,288.16476,-103.181595,2.7710323,WAL
614933727000,1.118641,-0.0766505508728427,9.64879543285063,-0.216073732005554,-0.05100725,-0.528093,-0.050396383,288.11993,-103.13346,2.7600527,WAL
614938996000,1.12391,-0.0620632464635493,9.60830055559646,-0.0644618525128866,-0.032070424,-0.5891795,-0.05222898,288.06885,-103.038345,2.7406938,WAL
614943617000,1.128531,0.0479210537371134,9.66940290206185,-0.219254574149485,-0.014049901,-0.5858198,-0.052534413,288.0298,-102.94687,2.7198994,WAL
614948510000,1.133424,0.16437921882732,9.73410183762886,-0.383158661353093,-0.0106901415,-0.5195409,-0.030543262,287.98047,-102.831406,2.7104137,WAL
614953614000,1.138528,0.278862694390756,9.77956367436975,-0.603626237905162,0.01740966,-0.42363504,-0.01038471,287.92126,-102.73041,2.703285,WAL
614958520000,1.143434,0.38696870622549,9.81716603431373,-0.829238777941176,0.074830994,-0.310625,-0.004581489,287.83868,-102.64136,2.7040248,WAL
614963607000,1.148521,0.460630464411211,9.85209562325443,-0.911114077587402,0.11148291,-0.19181168,0.010995574,287.74042,-102.591736,2.7360473,WAL
614968528000,1.153442,0.521307617716153,9.88476761265723,-0.948453876983262,0.1255328,-0.12064589,0.015882496,287.62396,-102.55207,2.770123,WAL
614973602000,1.158516,0.526165673785662,9.78810773006584,-0.721185405833943,0.13347405,-0.10354166,0.0125227375,287.5206,-102.556305,2.8192475,WAL
614978510000,1.163424,0.513271645102414,9.6548700709583,-0.420325140471836,0.13469578,-0.12889257,0.02076942,287.4115,-102.56264,2.8732748,WAL
614983632000,1.168546,0.478861716613635,9.56533792207704,-0.34376528195789,0.16249016,-0.16615535,0.03634648,287.296,-102.58569,2.9303803,WAL
614988628000,1.173542,0.430274223104732,9.513511059847,-0.439320690312098,0.18112154,-0.22235495,0.0421497,287.19437,-102.60515,2.9827657,WAL
614993578000,1.178492,0.382134092426376,9.46216138650058,-0.533996285058561,0.1994475,-0.25228736,0.034513887,287.05756,-102.577866,3.0309181,WAL
614998574000,1.183488,0.333546598917473,9.41033452427053,-0.629551693412768,0.2144137,-0.26908615,0.029321533,286.93457,-102.555145,3.0775661,WAL
615003563000,1.188477,0.285027182361045,9.35858027774017,-0.724973217087536,0.23457226,-0.24953845,0.022602014,286.81042,-102.53801,3.120954,WAL
615008594000,1.193508,0.23609930408977,9.30639033701171,-0.821198048838941,0.26511553,-0.20708331,0.007330383,286.6849,-102.52652,3.159876,WAL
615015076000,1.19999,0.19244461794813,9.23849505436409,-0.768869999002494,0.29657507,-0.13133603,-0.007330383,286.55267,-102.51125,3.1905,WAL
615018550000,1.203464,0.172532505886284,9.20198946533666,-0.709133659351621,0.301462,-0.040927973,-0.021685716,286.405,-102.49543,3.2198033,WAL
615023582000,1.208496,0.165957661971775,9.16839729014112,-0.51290025042929,0.3182608,0.031154128,-0.046120327,286.29218,-102.53448,3.2203343,WAL
615028582000,1.213496,0.170683212154347,9.14476953922826,-0.262445903246817,0.30298916,0.060170226,-0.0693332,286.16705,-102.56319,3.220167,WAL
615033628000,1.218542,0.1813242988578,9.16011791376006,-0.0471976159908011,0.29016098,0.064446285,-0.09254608,286.01953,-102.5821,3.2161343,WAL
615038601000,1.223515,0.19501502122844,9.19662676724799,0.14447249719816,0.27122417,0.056199603,-0.10262536,285.86877,-102.59276,3.2107165,WAL
615043577000,1.228491,0.217051191118143,9.24742102581877,0.248437993238899,0.25320363,0.015577064,-0.13255776,285.69287,-102.554474,3.1976433,WAL
615049286000,1.2342,0.25000717649789,9.3188259676512,0.28688665718706,0.22999077,-0.034208454,-0.1423316,285.52435,-102.509766,3.1869853,WAL
615053555000,1.238469,0.269259436190905,9.38547232351763,0.232767059117588,0.23304509,-0.069027774,-0.15363261,285.34222,-102.42549,3.169955,WAL
615058593000,1.243507,0.288589556934095,9.47245755148237,0.116786400257412,0.23701571,-0.103847094,-0.16768251,285.1749,-102.33512,3.1474776,WAL
615063610000,1.248524,0.291540520271405,9.54715268212438,-0.00505907124182368,0.267559,-0.124005646,-0.17165314,285.00345,-102.24749,3.1258476,WAL
615068555000,1.253469,0.282293751658694,9.61188038104071,-0.129890404064239,0.30024028,-0.129198,-0.1685988,284.8387,-102.162315,3.1023293,WAL
615073662000,1.258576,0.268597661017707,9.65982189187981,-0.239467270381864,0.32895094,-0.12980886,-0.16157386,284.69287,-102.10029,3.0762904,WAL
615078626000,1.26354,0.251592023378644,9.68958147585405,-0.328746887963692,0.3567453,-0.11759156,-0.15790866,284.54648,-102.04773,3.0518577,WAL
615083659000,1.268573,0.222568642775616,9.70322221616948,-0.398776910263727,0.38820487,-0.09987647,-0.16035213,284.42416,-102.021095,3.0288339,WAL
615088650000,1.273564,0.165740249338521,9.67739114785992,-0.419441775700389,0.4175264,-0.080634214,-0.15790866,284.29996,-102.00219,3.0099988,WAL
615093614000,1.278528,0.0964027545559115,9.67346258824707,-0.407934192744018,0.43860126,-0.065973446,-0.16249016,284.18634,-102.00374,2.9854043,WAL
615098625000,1.283539,0.00992674666753429,9.69748368385224,-0.355087752313545,0.45112398,-0.05131268,-0.17745635,284.06848,-102.00971,2.9606524,WAL
615103589000,1.288503,-0.0849815267036929,9.73726323593201,-0.313435535158265,0.4605924,-0.053145275,-0.18570304,283.96252,-102.0214,2.931607,WAL
615108589000,1.293503,-0.192575578579426,9.79807751885502,-0.285367520308714,0.4550946,-0.04428773,-0.19120082,283.85034,-102.03064,2.9017498,WAL
615113552000,1.298466,-0.289454089673469,9.85236503265306,-0.257342487469388,0.43982297,-0.045814894,-0.21991149,283.73846,-102.02465,2.8516965,WAL
615118601000,1.303515,-0.371687599183673,9.89759308163265,-0.228560757423469,0.42852196,-0.057726767,-0.23854288,283.62878,-102.01811,2.804333,WAL
615123679000,1.308593,-0.452333212093126,9.94405993170032,-0.198611748189341,0.42638394,-0.056199603,-0.258396,283.51578,-101.99796,2.7350953,WAL
615128594000,1.313508,-0.493882381247931,10.0063838454154,-0.15186894305859,0.4370741,-0.053450707,-0.27672195,283.40616,-101.977486,2.6625807,WAL
615133621000,1.318535,-0.517521850953627,10.067916987098,-0.104696630320494,0.41813725,-0.06047566,-0.28496864,283.30133,-101.93783,2.5773106,WAL
615138617000,1.323531,-0.477262713444278,10.1215954945774,-0.059964276381077,0.42088616,-0.083383106,-0.29229903,283.20056,-101.90692,2.4889455,WAL
615143646000,1.32856,-0.431351997086302,10.1806672734582,-0.0159402279562386,0.42149702,-0.119729586,-0.30268374,283.1013,-101.86044,2.393865,WAL
615148605000,1.333519,-0.334687263861185,10.2869991143904,0.0178924289248931,0.4089743,-0.17195857,-0.31306845,283.0138,-101.811905,2.2972305,WAL
615153585000,1.338499,-0.234323266203673,10.3953892349626,0.0419058563855796,0.40286562,-0.22937989,-0.31123585,282.92865,-101.758255,2.2091317,WAL
615158614000,1.343528,-0.107963580601399,10.5170689466524,-0.00957401547216014,0.38759398,-0.29077184,-0.3005457,282.86032,-101.7,2.1201358,WAL
615163668000,1.348582,0.0141706023497357,10.638787300893,-0.0617265072352834,0.35918877,-0.33841935,-0.28893927,282.79465,-101.630424,2.0476348,WAL
615168551000,1.353465,0.0738288541921815,10.7495807643521,-0.117123456995626,0.3472769,-0.38912117,-0.27030787,282.74896,-101.56403,1.9787914,WAL
615173592000,1.358506,0.135417477484782,10.8639591893567,-0.174312894583561,0.33750305,-0.4156938,-0.2611449,282.6978,-101.50444,1.9313248,WAL
615178612000,1.363526,0.189278944516553,10.9476922096032,-0.332527895941679,0.32162055,-0.41355577,-0.24801129,282.65475,-101.44271,1.8904713,WAL
615183812000,1.368726,0.240597496911182,11.0260435341645,-0.505450291393641,0.28680122,-0.3643811,-0.2452624,282.60638,-101.3747,1.8518362,WAL
615188933000,1.373847,0.254816930642698,11.0639622946748,-0.595506716574853,0.27030787,-0.29993483,-0.24190263,282.55554,-101.31752,1.8287365,WAL
615193950000,1.378864,0.268618047525427,11.0983971225027,-0.673035074436978,0.2406809,-0.22113322,-0.24007004,282.5027,-101.27282,1.8131442,WAL
615198611000,1.383525,0.278751875041773,11.0740758619688,-0.523054379789321,0.2098322,-0.1459968,-0.22876903,282.43414,-101.22498,1.8049045,WAL
615203577000,1.388491,0.289548825791863,11.0481631007991,-0.363259458180167,0.1740966,-0.103847094,-0.21960606,282.35883,-101.18246,1.7926859,WAL
615208585000,1.393499,0.300437091872503,11.0220311821649,-0.202113069251725,0.13500121,-0.100792766,-0.20708331,282.2754,-101.13184,1.7868055,WAL
615215093000,1.400007,0.314586619758445,10.9880722112241,0.00730000965128948,0.106595986,-0.13103059,-0.18661933,282.19162,-101.076,1.7863066,WAL
615218597000,1.403511,0.286265750048193,10.9607820457831,0.201389870072289,0.07727446,-0.183565,-0.17654006,282.11188,-101.011635,1.7860079,WAL
615223667000,1.408581,0.233084576455641,10.9182373601314,0.509840684683461,0.048563786,-0.25350907,-0.17470746,282.04718,-100.94144,1.7863975,WAL
615228605000,1.413519,0.174895110455332,10.8626116585921,0.652242397624989,0.031154128,-0.28313604,-0.172264,281.94632,-100.8132,1.7990512,WAL
615233644000,1.418558,0.113370168618523,10.8010868498315,0.744529808085785,0.00061086525,-0.32742378,-0.18112154,281.86923,-100.67609,1.8042587,WAL
615238712000,1.423626,0.027903894127851,10.7651647189207,0.756154487063925,-0.01160644,-0.33383787,-0.19883664,281.75394,-100.50095,1.8055964,WAL
615243622000,1.428536,-0.0727966570446515,10.7500593318342,0.705804211477674,-0.043982297,-0.3118467,-0.21380283,281.64304,-100.31569,1.8044449,WAL
615248604000,1.433518,-0.173835042634166,10.8234513489818,0.643869989306851,-0.08246681,-0.26358834,-0.24220806,281.51276,-100.11358,1.7833633,WAL
615253609000,1.438523,-0.274805076208246,10.9388454923262,0.576556630243756,-0.13988814,-0.21135938,-0.27458394,281.3746,-99.90062,1.7589098,WAL
615258798000,1.443712,-0.323803984795357,11.1068513219253,0.51382400304213,-0.183565,-0.13805555,-0.2947425,281.22675,-99.68961,1.7161161,WAL
615263599000,1.448513,-0.346809216061243,11.2816917021915,0.458611446082258,-0.23945917,-0.071776666,-0.3277292,281.06454,-99.4613,1.6640902,WAL
615268560000,1.453474,-0.306178326087258,11.4384776256431,0.469431231747131,-0.3210097,-0.022296581,-0.36041048,280.8977,-99.22053,1.5884395,WAL
615273657000,1.458571,-0.233741166939058,11.5881805698457,0.512893544380689,-0.40225476,0.021685716,-0.38759398,280.71338,-98.96782,1.5098771,WAL
615278595000,1.463509,-0.0960558402829268,11.7163735660488,0.548411894072195,-0.51007247,0.041233405,-0.42332962,280.52994,-98.68981,1.4154359,WAL
615283680000,1.468594,0.0797322872536585,11.839900370439,0.581669103769756,-0.6282749,0.06658431,-0.45234573,280.33273,-98.39125,1.319803,WAL
615288637000,1.473551,0.537083571198569,12.0238494973166,0.380776593445438,-0.75991637,0.06841691,-0.47800204,280.12518,-98.05571,1.2285718,WAL
615293619000,1.478533,1.16773852277877,12.2467130435301,0.0393694201073345,-0.8888089,0.083383106,-0.4999932,279.90707,-97.69436,1.1340101,WAL
615298609000,1.483523,1.55046754106352,12.3851542697889,-0.17613036208741,-1.0250319,0.0852157,-0.50671273,279.67407,-97.298096,1.0557302,WAL
615303598000,1.488512,1.77049275805022,12.46818238774,-0.308975791231905,-1.1594223,0.06872234,-0.49327368,279.4434,-96.87554,0.97867364,WAL
615308764000,1.493678,1.94756932711383,12.5334269782609,-0.457933309809919,-1.2745703,0.06352998,-0.47067168,279.2262,-96.487144,0.9741514,WAL
615313609000,1.498523,2.01346344422111,12.55370225,-0.620134329899498,-1.4056009,0.026572637,-0.43249258,279.02646,-96.06841,0.9751692,WAL
615318582000,1.503496,1.95253138652573,12.5251278483651,-0.798981744532253,-1.5036448,0.010079277,-0.40469822,278.8545,-95.65419,1.0011005,WAL
615323656000,1.50857,1.74132131214067,12.4387234878001,-0.995791142279957,-1.5992452,0.0021380284,-0.35369098,278.69513,-95.22029,1.0416151,WAL
615328624000,1.513538,1.40517036357045,12.2536095123119,-1.17913288057456,-1.6777414,0.027488936,-0.3213151,278.55447,-94.798416,1.0852896,WAL
615333639000,1.518553,0.907717322540551,11.9438747033418,-1.35277213472738,-1.7443258,0.0693332,-0.30176744,278.4142,-94.37127,1.1375608,WAL
615338571000,1.523485,0.388979986226964,11.6237727769156,-1.48662505315228,-1.7705929,0.16126843,-0.2874121,278.265,-93.98259,1.1757647,WAL
615343603000,1.528517,-0.185940528969932,11.2732112490786,-1.5660856043065,-1.831374,0.26511553,-0.30268374,278.10062,-93.58151,1.2097625,WAL
615348512000,1.533426,-0.726210721631241,10.9531836232328,-1.59287240393475,-1.892766,0.36987892,-0.3118467,277.92657,-93.204155,1.1941229,WAL
615353620000,1.538534,-1.24368586512111,10.6678471577855,-1.51065673259516,-1.9688187,0.46028697,-0.31123585,277.72604,-92.82048,1.1779201,WAL
615358538000,1.543452,-1.70544185640949,10.4413194891272,-1.41568233994638,-2.0476203,0.50701815,-0.32925636,277.55948,-92.38948,1.0703511,WAL
615363609000,1.548523,-2.09603700351504,10.3207650366399,-1.28066186675603,-2.1267273,0.52839845,-0.3567453,277.37277,-91.951195,0.96304375,WAL
615368560000,1.553474,-2.42255896390676,10.2466882999534,-1.15638540907226,-2.176513,0.52412236,-0.37843102,277.18988,-91.461235,0.78757286,WAL
615374430000,1.559344,-2.65318800735664,10.2833800416783,-1.0305876693986,-2.204002,0.50793445,-0.38820487,277.002,-90.97331,0.61048704,WAL
615378565000,1.563479,-2.80008771537316,10.3213654167328,-0.920756387335252,-2.189341,0.46792278,-0.3866777,276.83276,-90.45901,0.38010448,WAL
615383643000,1.568557,-2.89178971273323,10.437199354208,-0.664956033022033,-2.1658227,0.38362336,-0.37843102,276.67825,-89.71699,0.15219045,WAL
615388651000,1.573565,-2.95333734974341,10.5511984235018,-0.431542736120727,-2.1239784,0.26053402,-0.37140608,276.54227,-89.25215,-0.10280804,WAL
615393620000,1.578534,-2.84986009654693,10.6629535976342,-0.307369941523006,-2.0754147,0.093767814,-0.3652974,276.44025,-88.72614,-0.35111317,WAL
615398586000,1.5835,-2.74644531703923,10.7746413003392,-0.183272115406628,-2.0015,-0.0720821,-0.33964106,276.35938,-88.171875,-0.60113764,WAL
615403575000,1.588489,-2.66460927089775,10.7626950629594,-0.148634937543468,-1.9248364,-0.23732115,-0.3277292,276.32343,-87.638565,-0.84717226,WAL
615408541000,1.593455,-2.58746272396208,10.7265326544837,-0.131759132824251,-1.8139644,-0.38759398,-0.33200526,276.3277,-87.1441,-1.0839761,WAL
615415076000,1.59999,-2.48594184514118,10.6789447891215,-0.10955144377067,-1.7376062,-0.5131268,-0.344528,276.36316,-86.6533,-1.3019152,WAL
615418602000,1.603516,-2.43116562192427,10.6532684596239,-0.097569146662341,-1.6948457,-0.625526,-0.35521814,276.43494,-86.1927,-1.5132198,WAL
615423609000,1.608523,-2.23412617536856,10.567319523454,-0.10808149662512,-1.6835446,-0.7107417,-0.35430184,276.53186,-85.75357,-1.7176841,WAL
615428523000,1.613437,-2.02689090316868,10.4772172925522,-0.121596843491289,-1.6814066,-0.7449502,-0.35063666,276.64328,-85.3319,-1.9178449,WAL
615433578000,1.618492,-1.83189351824135,10.4077046183349,-0.500762179429373,-1.68385,-0.7715228,-0.3371976,276.80032,-84.91823,-2.0865152,WAL
615438593000,1.623507,-1.64319727048644,10.3448060098223,-0.97250278005145,-1.6829338,-0.70280045,-0.30909783,276.93582,-84.51821,-2.2463381,WAL
615443993000,1.628907,-1.44817436387567,10.1088286004863,-1.45817438458611,-1.6759088,-0.52473325,-0.25534168,277.04608,-84.15271,-2.3608074,WAL
615448612000,1.633526,-1.28449593108151,9.84226654508933,-1.86503225347288,-1.6447546,-0.35216382,-0.2443461,277.13495,-83.80122,-2.4776993,WAL
615453616000,1.63853,-1.23443314576447,9.6372299435263,-1.98083165705921,-1.6297885,-0.22266038,-0.24556783,277.21942,-83.55854,-2.5449486,WAL
615458611000,1.643525,-1.22088055836245,9.45652877816602,-2.00341930272925,-1.6462818,-0.14202617,-0.26328292,277.2665,-83.32148,-2.6152227,WAL
615463607000,1.648521,-1.29434810204419,9.4306409377452,-1.93954362644022,-1.6450601,-0.041233405,-0.29657507,277.3531,-83.160225,-2.6527562,WAL
615468592000,1.653506,-1.41263938317159,9.48485783068346,-1.8311099949618,-1.6743816,0.059864793,-0.30695978,277.41455,-82.992195,-2.690242,WAL
615473662000,1.658576,-1.51939249535316,9.61094915799256,-1.72714508763941,-1.7046194,0.16982053,-0.30818152,277.4687,-82.82149,-2.7308633,WAL
615478616000,1.66353,-1.61860053507435,9.76086336747212,-1.62793702489777,-1.7098118,0.30818152,-0.30879238,277.48477,-82.653824,-2.77711,WAL
615483569000,1.668483,-1.71778854894981,9.91074731570632,-1.52874898800651,-1.690875,0.45570546,-0.28160888,277.4727,-82.45722,-2.8401563,WAL
615488741000,1.673655,-1.82136222303903,10.0672584766729,-1.42517528988383,-1.6771306,0.5714644,-0.2565634,277.4295,-82.26325,-2.90558,WAL
615493622000,1.678536,-1.91570901190603,10.1750374773091,-1.22345370539242,-1.6511687,0.6462954,-0.26328292,277.38354,-82.07093,-2.9737496,WAL
615498617000,1.683531,-2.00765248093967,10.2312252269087,-0.876111646075814,-1.6514742,0.6762278,-0.2611449,277.3161,-81.8839,-3.0330553,WAL
615503612000,1.688526,-2.08188399506142,10.2333978039986,-0.630003561309494,-1.6417004,0.71868294,-0.23945917,277.20197,-81.66319,-3.1301422,WAL
615508585000,1.693499,-2.1410990026359,10.1907628679564,-0.468938696682747,-1.6236799,0.7626653,-0.20433442,277.07874,-81.451706,-3.2212615,WAL
615513615000,1.698529,-2.20099272636395,10.1476392547869,-0.306027723613667,-1.5888605,0.77366084,-0.18784106,276.95993,-81.18086,-3.3255956,WAL
615518605000,1.703519,-2.26041015805441,10.1048585729348,-0.144412265240961,-1.5442673,0.79443026,-0.18600847,276.82544,-80.925896,-3.423813,WAL
615523622000,1.708536,-2.28137668926095,10.1068170582524,-0.0495842178422825,-1.5296066,0.8179486,-0.15057829,276.70737,-80.67624,-3.5035994,WAL
615528639000,1.713553,-2.26709692751139,10.1496563932039,-0.0162646329354072,-1.525636,0.8167268,-0.11453723,276.5906,-80.4415,-3.580377,WAL
615533576000,1.71849,-2.24407041725067,10.1430436018483,-0.0137622805082788,-1.5103643,0.8344419,-0.055588737,276.42163,-80.15838,-3.671409,WAL
615538590000,1.723504,-2.21171322371968,10.0875744168271,-0.0414970371274548,-1.4941764,0.88056225,-0.004581489,276.24432,-79.885765,-3.7537994,WAL
615543584000,1.728498,-2.18693708002031,10.0146355334688,-0.0123481946978162,-1.4978416,0.8918633,0.045814894,276.09738,-79.611694,-3.8110461,WAL
615548575000,1.733489,-2.17237197830371,9.91753485535805,0.0944626272676486,-1.4953982,0.91782504,0.090713486,275.9314,-79.3537,-3.8573253,WAL
615553557000,1.738471,-2.06410479306704,9.8193168304612,0.279079157558522,-1.4935656,0.9437868,0.14202617,275.78528,-79.10462,-3.8778763,WAL
615558549000,1.743463,-1.84028278689112,9.71931124265365,0.56004715210778,-1.4740179,0.981355,0.19853121,275.62585,-78.87044,-3.8862662,WAL
615563554000,1.748468,-1.76427105677555,9.51292994610037,0.742271376087992,-1.4315627,1.0228939,0.25534168,275.44357,-78.63182,-3.8848903,WAL
615568585000,1.753499,-1.87897661112275,9.16881309141986,0.797330044091039,-1.3884968,1.0100657,0.29626966,275.2638,-78.40623,-3.8720028,WAL
615573606000,1.75852,-1.90069750132924,8.9173972392638,0.790463572269939,-1.3548992,0.9611965,0.29077184,275.10712,-78.14751,-3.819218,WAL
615578630000,1.763544,-1.74818930664622,8.83868379631902,0.667473093349693,-1.3423764,0.9639453,0.23854288,274.93842,-77.89639,-3.7729344,WAL
615583567000,1.768481,-1.61985904265421,8.77568243607589,0.5902450306912,-1.3228287,0.9978484,0.2098322,274.7545,-77.623795,-3.7561505,WAL
615588620000,1.773534,-1.52297430731242,8.7341603034131,0.581017902945943,-1.3274102,1.0836749,0.21105394,274.5558,-77.34985,-3.7502549,WAL
615593566000,1.77848,-1.46169732260664,8.69447656157484,0.621585667776123,-1.3515394,1.1618657,0.2125811,274.3905,-77.096886,-3.72549,WAL
615598575000,1.783489,-1.48270555208899,8.6566616168871,0.785449967421389,-1.3399329,1.1814134,0.21471913,274.2166,-76.85584,-3.7035072,WAL
615603905000,1.788819,-1.51066878602934,8.61305631552858,0.948450688983308,-1.3381003,1.1468995,0.21166481,274.041673736816,-76.5826971762933,-3.67134928347564,WAL
615618485000,1.803399,-1.80024004945878,8.36586078593829,0.962576142549317,-1.3002267,0.98532563,0.18845193,273.56317,-75.835526,-3.5833826,WAL
615623684000,1.808598,-1.90582569324668,8.275006044957,0.960387508922987,-1.2702943,0.9224065,0.17379116,273.4208,-75.56095,-3.5696478,WAL
615628499000,1.813413,-2.03201271636044,8.1578328881939,0.870253974765442,-1.2379184,0.9089675,0.16371189,273.2737,-75.29426,-3.5620794,WAL
615633778000,1.818692,-2.17099698276536,8.02980144931159,0.777006286554047,-1.2281445,0.8924741,0.16065755,273.1347,-75.032425,-3.5816603,WAL
615638529000,1.823443,-2.30872583306318,7.92317260511669,0.803663474406796,-1.2000448,0.88422745,0.16462818,272.99707,-74.789085,-3.6019228,WAL
615643479000,1.828393,-2.45222358279465,7.81207751381701,0.831437223064154,-1.1621711,0.8866709,0.1518,272.8758,-74.5446,-3.661969,WAL
615648492000,1.833406,-2.69232266997928,7.57845813741242,1.21535851410244,-1.138042,0.8894198,0.14660765,272.75604,-74.309746,-3.7176824,WAL
615653500000,1.838414,-2.93844464293891,7.33706927551564,1.6224063620448,-1.1301007,0.8313876,0.12339478,272.65515,-74.08342,-3.7768283,WAL
615658525000,1.843439,-2.9846743372715,7.32516076051568,1.27517109785838,-1.1282681,0.7831292,0.08246681,272.53336,-73.84706,-3.8723636,WAL
615663463000,1.848377,-3.01197286878969,7.3342602868578,0.865692113161439,-1.1291844,0.9211848,0.098043874,272.37427,-73.61916,-3.9673479,WAL
615668506000,1.85342,-3.06894054921859,7.29162552992386,1.09629682346323,-1.0305296,1.0140363,0.122783914,272.18387,-73.31628,-4.125575,WAL
615673500000,1.858414,-3.13122731617912,7.23892151952515,1.45564290515227,-0.95264435,0.9468411,0.13439035,272.00092,-73.01302,-4.2790847,WAL
615678522000,1.863436,-3.10322170116421,7.17353280174632,1.63464246146841,-0.9272934,0.8213083,0.13255776,271.86047,-72.80008,-4.4261084,WAL
615683490000,1.868404,-3.05855205346916,7.10652833020374,1.77758517550465,-0.89919364,0.71929383,0.11728613,271.73416,-72.613014,-4.5673423,WAL
615688578000,1.873492,-2.97120762421233,6.96808995999146,1.87154515179964,-0.84513205,0.6411031,0.11942416,271.5905,-72.374435,-4.7145486,WAL
615693490000,1.878404,-2.87072435688348,6.80731667980348,1.94188349139165,-0.77274454,0.58551437,0.118202426,271.4717,-72.151596,-4.8577876,WAL
615698516000,1.88343,-2.81077183479404,6.678467171078,2.00854433339176,-0.6951646,0.5174029,0.108123146,271.37296,-71.91282,-4.994063,WAL
615703575000,1.888489,-2.7588738549518,6.55579920528776,2.07459628086474,-0.6169739,0.44898596,0.07971791,271.29242,-71.69677,-5.1285615,WAL
615708583000,1.893497,-2.68484461426755,6.48267109658713,2.13270794695873,-0.5421429,0.3717115,0.050701816,271.23676,-71.48253,-5.24764,WAL
615713605000,1.898519,-2.6048906517211,6.42152984266575,2.18914607283395,-0.46944994,0.29810223,0.04184427,271.20044,-71.29228,-5.3611627,WAL
615718561000,1.903475,-2.5194955295179,6.35458710666408,2.19569271603453,-0.40011674,0.258396,0.017104227,271.1718,-71.10414,-5.4762263,WAL
615723601000,1.908515,-2.43053681616064,6.28435666957028,2.18632865123678,-0.31764993,0.21594086,0.013439035,271.16364,-70.94386,-5.579196,WAL
615728577000,1.913491,-2.32838438649981,6.28522172700038,2.19293626848692,-0.27977628,0.18661933,0.0015271631,271.17075,-70.774734,-5.67922,WAL
615734354000,1.919268,-2.20250219823663,6.32193727852674,2.20867152832765,-0.20189096,0.16493362,0.0027488936,271.18704,-70.64279,-5.771665,WAL
615738554000,1.923468,-2.11643254159825,6.37627134866466,2.24386879907513,-0.12370021,0.14569137,0.00030543262,271.21622,-70.52465,-5.8493524,WAL
615743579000,1.928493,-2.01641493742076,6.45628529623818,2.2988783717136,-0.059864793,0.13439035,0.010079277,271.24817,-70.4273,-5.9206276,WAL
615748566000,1.93348,-1.93541321035721,6.52108663825584,2.35204338716823,-0.0015271631,0.12705997,0.03940081,271.2995,-70.35328,-5.9664307,WAL
615753613000,1.938527,-1.86307114802435,6.57896029819397,2.40509429666733,0.073303826,0.10567969,0.04184427,271.3593,-70.30123,-6.013576,WAL
615758620000,1.943534,-1.78180218193613,6.61740142684631,2.47354966387226,0.15424347,0.102319926,0.076358154,271.4162,-70.27244,-6.0272894,WAL
615763615000,1.948529,-1.69586898957086,6.64604605693613,2.54993477914172,0.24098633,0.105068825,0.11911872,271.47595,-70.26744,-6.0363965,WAL
615768672000,1.953586,-1.61589216286221,6.68111705269072,2.62347872761679,0.31245756,0.12370021,0.15302174,271.5328,-70.27846,-6.028996,WAL
615773658000,1.958572,-1.54059157208752,6.71876724979302,2.69407289018332,0.376293,0.15241088,0.17715092,271.58273,-70.31372,-6.014387,WAL
615778596000,1.96351,-1.47757498107706,6.79768937557275,2.81760415977388,0.44715336,0.17898351,0.22388211,271.62378,-70.36607,-5.969038,WAL
615783614000,1.968528,-1.420381973976,6.90254318045225,2.97488494174353,0.50946164,0.20586158,0.2510656,271.656,-70.43264,-5.9264164,WAL
615788640000,1.973554,-1.37487720387543,7.03361410143351,3.13502805982205,0.57848936,0.23548855,0.28893927,271.68124,-70.51116,-5.8609567,WAL
615793624000,1.978538,-1.33712676678201,7.17989733465151,3.2954678239743,0.6395759,0.2687807,0.31245756,271.69632,-70.60348,-5.79684,WAL
615798612000,1.983526,-1.30221198365981,7.33423325248548,3.45562663924599,0.698219,0.3036,0.35094208,271.69836,-70.69272,-5.706771,WAL
615804154000,1.989068,-1.26564116631558,7.51186256265381,3.63325611307215,0.75502944,0.33505958,0.38515055,271.68958,-70.79685,-5.616996,WAL
615808561000,1.993475,-1.27268646170466,7.64594384432111,3.80358677847374,0.80878556,0.37751472,0.42271876,271.65863,-70.89558,-5.5113406,WAL
615814791000,1.999705,-1.31407842116947,7.82925119040634,4.06967761127849,0.86376345,0.4098906,0.44532076,271.61923,-71.00816,-5.4058237,WAL
615818577000,2.003491,-1.35609797780794,7.99624061414998,4.31854988613845,0.9095783,0.4166101,0.4709771,271.56573,-71.11178,-5.2834706,WAL
615823585000,2.008499,-1.42119552025789,8.24849401598236,4.69692973398371,0.95630956,0.42485678,0.4868596,271.5012,-71.227646,-5.164578,WAL
615828512000,2.013426,-1.48271533223319,8.49260178685996,5.04337337029611,0.9737192,0.41783184,0.50518554,271.42377,-71.308266,-5.049363,WAL
615833569000,2.018483,-1.53250962399753,8.72165539378984,5.26246818126671,0.9923506,0.41325033,0.5222898,271.34177,-71.39974,-4.9347024,WAL
615838618000,2.023532,-1.58222514290561,8.95034664579478,5.48121639178491,0.98349303,0.4034765,0.5479461,271.22064,-71.41823,-4.8243337,WAL
615843589000,2.028503,-1.63117262646514,9.17550493728151,5.69658524789225,0.95814216,0.38820487,0.559858,271.10193,-71.436325,-4.715404,WAL
615848557000,2.033471,-1.69405901968883,9.4292826873173,5.90178288265912,0.90133166,0.37018433,0.5739079,270.9842,-71.44399,-4.601179,WAL
615853567000,2.038481,-1.79359276763791,9.75955341433286,6.0827534365488,0.8237518,0.35521814,0.59040123,270.86844,-71.4387,-4.4853888,WAL
615858545000,2.043459,-1.89693191225727,10.0968909591082,6.24826293776842,0.7431176,0.32162055,0.61117065,270.7287,-71.36547,-4.3699927,WAL
615863581000,2.048495,-2.02576674176513,10.4883505756704,6.33745612206925,0.6618725,0.30207285,0.63163465,270.58765,-71.274124,-4.25365,WAL
615868571000,2.053485,-2.14460744356137,10.8683169849095,6.42131635301811,0.5757405,0.28160888,0.6374379,270.43826,-71.152596,-4.144319,WAL
615874149000,2.059063,-2.24134270205231,11.2606327641851,6.49655498716298,0.47739118,0.2947425,0.63346726,270.28424,-71.01031,-4.036957,WAL
615878594000,2.063508,-2.31275524855832,11.5472515598124,6.53214561892647,0.35643986,0.2733622,0.6264423,270.14743,-70.85183,-3.9422727,WAL
615883572000,2.068486,-2.37458843530879,11.7850711268083,6.49409443854135,0.2565634,0.21838433,0.6062838,270.01855,-70.67707,-3.853043,WAL
615888562000,2.073476,-2.43170380614515,11.9788051331912,6.41561274830846,0.14080444,0.1255328,0.5684101,269.90936,-70.48304,-3.774767,WAL
615893576000,2.07849,-2.47175966644731,12.0144106211882,6.19307995870794,0.040927973,0.049480084,0.54183745,269.81198,-70.27299,-3.6974435,WAL
615898615000,2.083529,-2.5153823308325,12.0281504862588,5.95351343911735,-0.043676864,-0.006414085,0.5122105,269.748,-70.06538,-3.6316538,WAL
615903569000,2.088483,-2.60103768647944,11.7616675219659,5.51571996228686,-0.11911872,-0.0143553335,0.46609017,269.6954,-69.838806,-3.5764582,WAL
615908592000,2.093506,-2.69000166039267,11.4716755872984,5.06833142577382,-0.19333886,0.03604105,0.44440445,269.66446,-69.642654,-3.5320132,WAL
615913579000,2.098493,-2.80481970477812,10.9358580801362,4.58035449984974,-0.26633725,0.1554652,0.40653083,269.62216,-69.43005,-3.5111914,WAL
615918593000,2.103507,-2.91970263612335,10.3813856784141,4.10140440088106,-0.31031954,0.24007004,0.38881573,269.60596,-69.26999,-3.506725,WAL
615923621000,2.108535,-3.02823125118328,9.63648394990267,3.76101920612642,-0.31764993,0.45875978,0.38728857,269.52286,-69.10385,-3.532927,WAL
615928572000,2.113486,-3.1277316350953,8.90495437197878,3.45257240631755,-0.3268129,0.70249504,0.37384954,269.43832,-68.9756,-3.6022785,WAL
615933575000,2.118489,-3.17480643407349,8.18000207447436,3.33488535971704,-0.3042109,0.9651671,0.39614612,269.28638,-68.85869,-3.684879,WAL
615938592000,2.123506,-3.21906742681323,7.4778794623123,3.23074503378153,-0.23945917,1.208597,0.408058,269.0725,-68.76342,-3.8131454,WAL
615943652000,2.128566,-3.23333534554912,7.02606178736873,3.26879276741584,-0.15393804,1.412015,0.42119157,268.79794,-68.682434,-3.955613,WAL
615948705000,2.133619,-3.24085886162222,6.59309033073619,3.31251602053741,-0.044898596,1.5497651,0.44012842,268.45447,-68.59946,-4.1248674,WAL
615953566000,2.13848,-3.16645623344321,6.39778335286185,3.42412013275397,0.07269296,1.6200147,0.4801401,268.0739,-68.5442,-4.29642,WAL
615958729000,2.143643,-3.07982535424462,6.20749963175708,3.54352195227978,0.2012801,1.6032158,0.50946164,267.6528,-68.48709,-4.47288,WAL
615963577000,2.148491,-2.90959811408292,6.22932360769014,3.66573639981198,0.31642818,1.5125023,0.5555819,267.2307,-68.4607,-4.63139,WAL
615968584000,2.153498,-2.73378792606938,6.25186334521012,3.79195911821002,0.44959682,1.3246613,0.57940567,266.8176,-68.44303,-4.760896,WAL
615973647000,2.158561,-2.57216147511267,6.51763816950426,3.6588149768653,0.57360244,1.0351112,0.5900958,266.4569,-68.45423,-4.8599615,WAL
615978513000,2.163427,-2.41814811603405,6.79299553345018,3.50946849434151,0.7476991,0.70005155,0.58032197,266.1625,-68.51352,-4.9326305,WAL
615983612000,2.168526,-2.47370934560755,7.50976813098761,3.31042320358794,0.95722586,0.28802297,0.5183192,265.9591,-68.59322,-4.945502,WAL
615988552000,2.173466,-2.54808133340115,8.24473976867949,3.11355575250601,1.2257011,-0.22296582,0.43493605,265.87833,-68.7318,-4.922559,WAL
615993623000,2.178537,-2.76569038500852,9.41943392844975,2.86547180749574,1.5247196,-0.8875872,0.29352075,265.9936,-68.97438,-4.8490076,WAL
615998613000,2.183527,-3.02429029682333,10.7076435075659,2.60687214570598,1.7996091,-1.6487253,0.14446963,266.28348,-69.27392,-4.741766,WAL
616003613000,2.188527,-3.38540999558893,12.2771131059987,1.83182211741801,2.0308216,-2.3829854,0.0021380284,266.8064,-69.72831,-4.6156917,WAL
616008610000,2.193524,-3.77665965662135,13.9285510617929,0.903741378315429,2.151162,-3.0115657,-0.10781772,267.51834,-70.21403,-4.465154,WAL
616015112000,2.200026,-4.29415597916625,15.6958486027261,-0.502224472120187,2.1817052,-3.4767396,-0.17715092,268.4728,-70.85608,-4.32998,WAL
616018561000,2.203475,-4.57020356231221,16.5634270349219,-1.28435927044473,2.132836,-3.6166277,-0.1863139,269.51166,-71.495514,-4.19341,WAL
616023615000,2.208529,-4.7858802812308,17.1372640072701,-2.18160759302683,2.0567832,-3.7067304,-0.14660765,270.85388,-72.39078,-4.0887227,WAL
616028616000,2.21353,-4.898674953205,17.3334280530412,-2.93684170405488,1.8658879,-3.503923,-0.058337633,272.14047,-73.21763,-4.002166,WAL
616033607000,2.218521,-4.66426383007964,16.9440730014569,-3.21912983813131,1.6178766,-3.085175,0.08124508,273.5361,-74.23173,-3.9576106,WAL
616038710000,2.223624,-4.27504682876845,16.2937958677156,-3.30456771767677,1.3429873,-2.4556782,0.23426682,274.78775,-75.149765,-3.9266968,WAL
616043611000,2.228525,-3.77927409058584,15.2848156272033,-3.01549997564952,1.0925325,-1.6475036,0.35888332,275.93335,-76.09077,-3.9220448,WAL
616048610000,2.233524,-3.20858534744778,14.050762436271,-2.52285400086602,0.86742866,-0.713796,0.42913285,276.83835,-76.92707,-3.9428327,WAL
616053566000,2.23848,-2.8608644261474,12.5997635947439,-1.83249498069891,0.6640105,0.2770274,0.45478916,277.47217,-77.67267,-3.9568677,WAL
616059284000,2.244198,-2.57929425124738,10.8008433353647,-0.925213299971434,0.4392121,1.1435398,0.42149702,277.8641,-78.318436,-4.0126724,WAL
616063575000,2.248489,-2.3270253579815,9.30960413226779,-0.356983465410133,0.25167647,1.6615535,0.36010507,277.9956,-78.808846,-4.0356536,WAL
616068578000,2.253492,-2.00914817587455,7.4890343090772,0.240240380805187,0.19517145,1.7229455,0.23304509,278.0167,-79.243515,-4.1048613,WAL
616073600000,2.258514,-1.63771914719976,5.85493366755964,0.246232946565912,0.30970868,1.3976597,0.0720821,277.87924,-79.49547,-4.1889625,WAL
616078581000,2.263495,-1.23264697598059,4.36966880477153,-0.163661554727052,0.5821546,0.8933904,-0.13561209,277.78864,-79.74416,-4.313475,WAL
616083577000,2.268491,-0.660101200072484,3.64621398896439,-0.924657730847151,0.926988,0.46211955,-0.30268374,277.6463,-79.90957,-4.4345593,WAL
616088599000,2.273513,0.0240404862009604,3.41961927409622,-1.91818827002628,1.2794572,0.04337143,-0.33964106,277.6506,-80.12987,-4.5528264,WAL
616093569000,2.278483,0.620921929524098,3.49591758848136,-2.78927467553804,1.4932601,-0.39614612,-0.355829,277.82492,-80.410126,-4.6473308,WAL
616098572000,2.283486,1.10019477093059,4.02844313632414,-3.49608119687784,1.5784758,-0.76052725,-0.38331795,278.10233,-80.728004,-4.74122,WAL
616103555000,2.288469,1.45322468546512,4.89040762151163,-4.19987529069767,1.6050484,-0.9663888,-0.37904188,278.4523,-81.27176,-4.783047,WAL
616108587000,2.293501,1.63333867873754,6.23125595946844,-4.91032493953488,1.5992452,-1.0506883,-0.34147367,278.86795,-81.80871,-4.816636,WAL
616113574000,2.298488,1.68707238444206,7.68817193016972,-5.37520542118611,1.5479325,-1.0549643,-0.25350907,279.3585,-82.4639,-4.778906,WAL
616118569000,2.303483,1.61241589248927,9.27928810735466,-5.59450891806477,1.4309518,-0.9266826,-0.19333886,279.82687,-83.072014,-4.7426696,WAL
616123602000,2.308516,1.59852224816339,10.6775316772381,-5.56268711009635,1.350623,-0.6722572,-0.060170226,280.31158,-83.78042,-4.638614,WAL
616129224000,2.314138,1.66876819025492,11.9527664841429,-5.17363240985548,1.1655309,-0.09590584,0.11911872,280.65204,-84.40865,-4.514456,WAL
616133550000,2.318464,1.76695785466667,12.6442317635749,-4.55968693021256,0.85154617,0.12217305,0.18203785,281.04044,-84.96602,-4.377749,WAL
616138601000,2.323515,1.93053617333333,13.1302926657005,-3.49409102714976,0.7632761,0.5503896,0.31978795,281.18692,-85.50174,-4.1799283,WAL
616143550000,2.328464,2.08102899114025,13.3997243267476,-2.31623653148224,0.6817256,0.8552113,0.45875978,281.27502,-85.936325,-3.9346406,WAL
616148572000,2.333486,2.21738338787986,13.3272864149907,-0.897299401307699,0.7305948,0.93737274,0.61575216,281.29755,-86.332115,-3.648775,WAL
616153552000,2.338466,2.26634826566707,13.1255409467002,0.552882670101784,0.81122905,0.79412484,0.766025,281.23392,-93.28133,-3.2811625,WAL
616158604000,2.343518,1.65740289948561,11.9288306842508,2.3532427168042,0.9434814,0.40591997,0.8784242,281.2192,-92.92464,-2.8893187,WAL
616163565000,2.348479,1.04972233346614,10.9403597493834,3.41254097882755,1.0708468,-0.13072516,0.9443977,281.21338,-92.50016,-2.4284203,WAL
616168559000,2.353473,0.414575266294821,10.3959479017264,2.76832037928287,1.1713341,-0.61361414,1.0064005,281.30548,-92.09604,-1.9533669,WAL
616173659000,2.358573,-0.265732718127144,9.8564164827447,2.02190648387165,1.2455542,-0.9786061,1.0503827,281.47955,-91.67391,-1.5402585,WAL
616178580000,2.363494,-1.04564235392129,9.39988423925328,0.956664051393744,1.3225232,-1.2547172,1.0277808,281.75778,-91.283775,-1.1435025,WAL
616183569000,2.368483,-1.80130782803015,8.95886775575474,-0.0878397478525158,1.3539828,-1.3747523,0.9602802,282.23526,-91.060875,-0.8785352,WAL
616188631000,2.373545,-2.42838872831534,8.59841912100224,-1.00624166840334,1.312444,-1.3255776,0.87995136,282.72784,-90.883255,-0.63556564,WAL
616193589000,2.378503,-2.95593231628977,8.28629493039648,-1.7651887971023,1.2220359,-1.1200215,0.7651087,283.24188,-91.02823,-0.54832053,WAL
616199072000,2.383986,-3.24379711622124,8.08067759955947,-2.12501991778757,1.0910053,-0.82344633,0.63499445,283.7113,-91.2073,-0.4940593,WAL
616203835000,2.388749,-3.42492415237715,7.94755861745905,-2.27729627768678,0.9425651,-0.47647488,0.5006041,284.18524,-91.58154,-0.5746488,WAL
616208591000,2.393505,-3.4112763514982,7.9430093504994,-1.977044373332,0.7657196,-0.1432479,0.37934732,284.57654,-91.92368,-0.6882076,WAL
616215133000,2.400047,-3.26038111450121,7.99371466368864,-1.41273342150763,0.6114761,0.005192355,0.3231477,284.9566,-92.3116,-0.8621885,WAL
616218582000,2.403496,-3.07044043900325,8.06803913336945,-0.988807880606717,0.53786683,0.23762658,0.21013765,285.21558,-92.689224,-1.0796658,WAL
616223569000,2.408483,-2.79580021032586,8.17550684293691,-0.375842768263189,0.41386122,0.38087448,0.11759156,285.4124,-92.972694,-1.2902431,WAL
616228580000,2.413494,-2.32025654093032,8.45595070982511,0.145288435863016,0.32406402,0.40103304,0.038789943,285.5774,-93.257645,-1.5235695,WAL
616233515000,2.418429,-1.80094650448677,8.77619203754235,0.63430539437872,0.2779437,0.34116822,0.00030543262,285.72437,-93.52899,-1.7658254,WAL
616238581000,2.423495,-1.32223647351845,9.062024843552,0.988776730013045,0.26633725,0.21197024,0.0021380284,285.7853,-93.65514,-1.9435923,WAL
616243587000,2.428501,-0.884455429724189,9.31665308376817,1.24340445712821,0.3210097,0.032375857,0.034208454,285.87842,-93.789314,-2.1215584,WAL
616248576000,2.43349,-0.472341358034503,9.49756797111843,1.34026654186858,0.42546764,-0.2003638,0.07727446,285.97433,-93.769775,-2.1884055,WAL
616253564000,2.438478,-0.0880773049234348,9.59479094611359,1.25693223180849,0.51343226,-0.43371433,0.116980694,286.12122,-93.75714,-2.247857,WAL
616258583000,2.443497,0.272631436610857,9.63778723500761,1.01516293611365,0.5891795,-0.63041294,0.1441642,286.30902,-93.650986,-2.2210336,WAL
616263575000,2.448489,0.592802917645865,9.59897880395738,0.539756819096905,0.6585127,-0.7657196,0.15851954,286.5419,-93.5638,-2.1899092,WAL
616268769000,2.453683,0.863964773207945,9.5423705430381,-0.00518861139046156,0.691194,-0.82833326,0.17104226,286.82312,-93.43467,-2.0857089,WAL
616273607000,2.458521,1.04625403007389,9.47123323356684,-0.569840662930621,0.6966918,-0.81581056,0.18081611,287.113,-93.322296,-1.9839793,WAL
616278531000,2.463445,1.16224846164657,9.41592547203494,-1.05983083020606,0.6918049,-0.7467828,0.17959438,287.383,-93.28813,-1.8539871,WAL
616283592000,2.468506,1.14383869568892,9.39291332466052,-1.39580839813408,0.6731735,-0.63346726,0.19883664,287.63367,-93.25689,-1.7198986,WAL
616288723000,2.473637,1.10547520720458,9.36515619885382,-1.65423584778495,0.6618725,-0.49571714,0.1872302,287.87167,-93.3349,-1.5743314,WAL
616293908000,2.478822,1.01061751178477,9.32450255380697,-1.68133807342855,0.63499445,-0.3726278,0.19028452,288.08072,-93.41338,-1.4228265,WAL
616298838000,2.483752,0.923913754797374,9.28812843069663,-1.68452561727711,0.61941737,-0.27214047,0.17928895,288.27832,-93.57275,-1.2926682,WAL
616303714000,2.488628,0.871214289973325,9.27375606176259,-1.47372773797066,0.59742624,-0.20341812,0.17867808,288.44952,-93.73106,-1.1613721,WAL
616308612000,2.493526,0.818217910209543,9.26371064310166,-1.26468081274378,0.5928447,-0.1777618,0.16646078,288.61392,-93.90741,-1.0467302,WAL
616313586000,2.4985,0.763862585143154,9.29335934652489,-1.07690790115664,0.6078109,-0.16646078,0.15699236,288.7627,-94.08718,-0.93456334,WAL
616318584000,2.503498,0.721411705504038,9.30405298474424,-0.884710164777146,0.6178902,-0.1554652,0.14019357,288.89645,-94.22846,-0.82552165,WAL
616323603000,2.508517,0.740582493897697,9.21778388647921,-0.673831342312294,0.6579019,-0.17256944,0.1282817,289.03467,-94.38468,-0.72246176,WAL
616328593000,2.513507,0.762047457663261,9.14105526121724,-0.480869716779209,0.7086037,-0.20922135,0.1151481,289.16772,-94.5142,-0.6308404,WAL
616333609000,2.518523,0.796192133984896,9.11117897583296,-0.374167662325189,0.74067414,-0.23762658,0.096516706,289.30225,-94.65097,-0.548517,WAL
616338617000,2.523531,0.830282353087517,9.08135034002665,-0.267635786586406,0.75625116,-0.2602286,0.08093964,289.4309,-94.75784,-0.46629187,WAL
616343631000,2.528545,0.851857519689725,9.06947514514929,-0.239898440559983,0.77549344,-0.27397305,0.064751714,289.56354,-94.87549,-0.3937618,WAL
616348891000,2.533805,0.869371452076923,9.05881180384615,-0.223655266942308,0.77671516,-0.269697,0.059253927,289.69617,-94.99212,-0.32617912,WAL
616353575000,2.538489,0.8466701521417,9.04973110182186,-0.259977349683198,0.77732605,-0.25289822,0.042455133,289.80692,-95.09925,-0.2567699,WAL
616358703000,2.543617,0.81860982610687,9.03983894995759,-0.296214948396947,0.7657196,-0.23793201,0.038789943,289.911,-95.20109,-0.18272495,WAL
616363580000,2.548494,0.752584842917727,9.03103589831307,-0.287411611789652,0.7470882,-0.20799962,0.02443461,290.0044,-95.30059,-0.11891368,WAL
616368565000,2.553479,0.685097752247667,9.02203790519273,-0.278413327396098,0.73945236,-0.19761491,0.009468411,290.10306,-95.40601,-0.063932285,WAL
616373633000,2.558547,0.621034567110842,9.05307739874823,-0.273195186319402,0.7339546,-0.17989981,-0.006414085,290.18994,-95.505455,-0.0149325,WAL
616378895000,2.563809,0.554901808479709,9.08868726398143,-0.268108047158288,0.7284568,-0.160963,-0.0143553335,290.27255,-95.6013,0.030037465,WAL
616383591000,2.568505,0.495882531677771,9.12046680163537,-0.263568099324652,0.72692966,-0.1600467,-0.02687807,290.3612,-95.69185,0.05602122,WAL
616388966000,2.57388,0.430367319344777,9.15935355546837,-0.259555404767043,0.7284568,-0.1469131,-0.034513887,290.4401,-95.78025,0.080364026,WAL
616393617000,2.578531,0.417260386199117,9.24673350514958,-0.281400300946542,0.7244862,-0.14905111,-0.03634648,290.5221,-95.86521,0.10097415,WAL
616398556000,2.58347,0.403341843346739,9.33952421069151,-0.304597880441393,0.7290677,-0.13897185,-0.04184427,290.60922,-95.94452,0.09814645,WAL
616403612000,2.588526,0.349416982573711,9.46578366078296,-0.3812704185603,0.743423,-0.1301143,-0.043982297,290.69614,-96.02466,0.09509675,WAL
616408522000,2.593436,0.293774989791934,9.5909777668869,-0.460096568545508,0.7510588,-0.13347405,-0.042455133,290.78256,-96.10325,0.09097644,WAL
616415083000,2.599997,0.179443108777833,9.78152088817417,-0.440879029173676,0.7443393,-0.13439035,-0.047036625,290.85364,-96.19173,0.07525162,WAL
616418572000,2.603486,0.116617174341415,9.88402636160317,-0.42434589253043,0.7473936,-0.13072516,-0.053145275,290.92386,-96.28368,0.059501193,WAL
616423742000,2.608656,0.0410403608188356,9.99244434932519,-0.352788019200079,0.7483099,-0.14294247,-0.056199603,291.00912,-96.38305,0.032060914,WAL
616428564000,2.613478,-0.0271982816749089,10.0879784726628,-0.280000140587134,0.75441855,-0.17287487,-0.07513642,291.09714,-96.48324,-0.0017058396,WAL
616433615000,2.618529,-0.104579094524618,10.1503108650763,-0.260353902902672,0.74372846,-0.2284636,-0.08552113,291.17758,-96.58977,-0.034758836,WAL
616438633000,2.623547,-0.182533204050763,10.2053369698473,-0.251182823194657,0.73761976,-0.28008172,-0.105068825,291.26428,-96.697525,-0.07604051,WAL
616443618000,2.628532,-0.274369710780619,10.2393825642184,-0.357137925842146,0.72601336,-0.32528573,-0.12644911,291.36005,-96.78634,-0.12912482,WAL
616448621000,2.633535,-0.371098035989233,10.2670193055182,-0.499927369515478,0.7058548,-0.35735616,-0.14110987,291.46558,-96.870316,-0.18586342,WAL
616454318000,2.639232,-0.510615909071308,10.2642999538127,-0.712334100771437,0.6722572,-0.35430184,-0.14721853,291.56116,-96.956665,-0.25853723,WAL
616458626000,2.64354,-0.62486700895856,10.2520589450104,-0.887791130897043,0.65148777,-0.32895094,-0.13194689,291.65887,-97.04033,-0.3274666,WAL
616463611000,2.648525,-0.740017008523761,10.149053173003,-0.840557996224469,0.66156703,-0.27763826,-0.129198,291.76306,-97.153534,-0.4091506,WAL
616468572000,2.653486,-0.845702711425683,10.000132380182,-0.66281381346815,0.66798115,-0.26083946,-0.13958271,291.8692,-97.25881,-0.4883883,WAL
616473666000,2.65858,-0.85822591269372,9.85241511280881,-0.525029268919536,0.68203104,-0.27091873,-0.14966199,291.99228,-97.4086,-0.587217,WAL
616478615000,2.663529,-0.825309028046433,9.71134283420974,-0.412171357656514,0.675617,-0.27122417,-0.16737708,292.1068,-97.55276,-0.68762016,WAL
616483608000,2.668522,-0.703935361317992,9.67558000627615,-0.272838815292887,0.65026605,-0.2855795,-0.18692477,292.21436,-97.67568,-0.7989001,WAL
616488736000,2.67365,-0.532701535767085,9.69514947190675,-0.116282165593744,0.625526,-0.34697145,-0.22815818,292.33362,-97.79686,-0.92045355,WAL
616493593000,2.678507,-0.34103905249914,9.79129773576537,-0.100784905356205,0.59895337,-0.41630468,-0.24617869,292.44833,-97.892334,-1.0321931,WAL
616498576000,2.68349,-0.129367084112338,9.92953257001901,-0.152622936626233,0.54641896,-0.48380527,-0.27000242,292.57764,-97.97484,-1.15659,WAL
616503561000,2.688475,0.0755078489454644,10.1533026700864,-0.240175144260259,0.51343226,-0.5164866,-0.27366763,292.6775,-98.0317,-1.2551697,WAL
616508587000,2.693501,0.273030010969438,10.4911698210583,-0.375321879813175,0.46914452,-0.52839845,-0.26358834,292.7891,-98.07156,-1.3553315,WAL
616513609000,2.698523,0.393557819921751,10.7759150064382,-0.456166554726624,0.46853364,-0.5491679,-0.24251351,292.90305,-98.10784,-1.4212468,WAL
616518597000,2.703511,0.459798662485143,11.0219519600832,-0.498749944694929,0.46792278,-0.54367006,-0.21502456,293.0121,-98.1318,-1.4800258,WAL
616524340000,2.709254,0.498624560567383,11.1758835281711,-0.537562389557382,0.45937067,-0.5439755,-0.17104226,293.11087,-98.16509,-1.5106986,WAL
616528614000,2.713528,0.510783555206456,11.2326254382612,-0.561880412692346,0.44623706,-0.54428095,-0.15577064,293.20703,-98.197426,-1.5410199,WAL
616533608000,2.718522,0.46347200075121,11.2393202645692,-0.589944267212972,0.43982297,-0.5479461,-0.13988814,293.30164,-98.22501,-1.549436,WAL
616538670000,2.723584,0.364920829304937,11.1970841714424,-0.618101742668925,0.419359,-0.5558874,-0.12186762,293.3973,-98.24484,-1.5536453,WAL
616543620000,2.728534,0.235283523326156,11.1438326320624,-0.666676859655275,0.38789943,-0.57940567,-0.108123146,293.48093,-98.272865,-1.5673447,WAL
616548617000,2.733531,0.0698414445728961,11.0776559454761,-0.737580642101936,0.355829,-0.5684101,-0.08827003,293.55734,-98.294075,-1.5734619,WAL
616553597000,2.738511,-0.1414813364351,11.0398338147735,-0.733462726059378,0.31978795,-0.54550266,-0.0888809,293.63712,-98.321266,-1.5997989,WAL
616558597000,2.743511,-0.408339369670483,11.0349817527612,-0.641275391982977,0.30390546,-0.51007247,-0.10170906,293.70966,-98.34508,-1.6228838,WAL
616563579000,2.748493,-0.62603388557721,11.0313358928607,-0.402533005014418,0.27488935,-0.46639562,-0.110872045,293.7883,-98.37666,-1.6670743,WAL
616568556000,2.75347,-0.791911574773789,11.028966163866,-0.00679624529581391,0.23915374,-0.41722095,-0.118507855,293.85397,-98.402565,-1.7116386,WAL
616573582000,2.758496,-0.95942237764741,11.026573104206,0.392836656923536,0.20280726,-0.39584067,-0.14996742,293.90594,-98.42905,-1.8043679,WAL
616578597000,2.763511,-1.12656656316496,11.0241852820424,0.791594914908024,0.15424347,-0.37965274,-0.18784106,293.94424,-98.44348,-1.8963349,WAL
616583562000,2.768476,-1.1688273959414,11.0379945179172,1.15215754048703,0.09712757,-0.38240165,-0.24984388,293.98108,-98.4483,-2.0030518,WAL
616588598000,2.773512,-1.06379533963572,11.0714139762423,1.47680201924371,0.025350908,-0.37415496,-0.29168814,294.00885,-98.43816,-2.1100986,WAL
616593811000,2.778725,-0.899945861962464,11.1554259032434,1.6800237298105,-0.042760566,-0.38087448,-0.34208453,293.9907,-98.31503,-2.2661352,WAL
616598625000,2.783539,-0.689929717264942,11.2856363576895,1.72622725269679,-0.13744467,-0.36102137,-0.3817908,293.9602,-98.17501,-2.4232621,WAL
616603614000,2.788528,-0.449100338855422,11.4385732409639,1.74750757620482,-0.22785273,-0.3484986,-0.40683624,293.89868,-97.97265,-2.563819,WAL
616608567000,2.793481,-0.141029846187877,11.6439530410392,1.6894653067677,-0.3182608,-0.34208453,-0.42088616,293.8311,-97.75814,-2.7057743,WAL
616614701000,2.799615,0.21837869001715,11.8717261727593,1.60361676755122,-0.37415496,-0.33658674,-0.4279111,293.73468,-97.519165,-2.818749,WAL
616618498000,2.803412,0.405462250446791,11.9701911324127,1.52812696515028,-0.4877759,-0.33169982,-0.42577308,293.63574,-97.25408,-2.9277675,WAL
616623504000,2.808418,0.652114950871017,12.1000082480368,1.42860050983843,-0.59956425,-0.3313944,-0.42424592,293.5141,-96.97674,-3.0040777,WAL
616628516000,2.81343,0.86824456170619,12.2173646089228,1.30182508306873,-0.73456544,-0.32436943,-0.4147775,293.3896,-96.67705,-3.0737543,WAL
616633442000,2.818356,1.07681725232114,12.3311318460611,1.17383723827371,-0.8738427,-0.31337386,-0.398895,293.26385,-96.36277,-3.1377676,WAL
616638540000,2.823454,1.21249832489627,12.5240791130211,0.949289375884213,-1.0348058,-0.29901853,-0.38026363,293.12994,-96.0196,-3.1721754,WAL
616643445000,2.828359,1.33315928962656,12.7189930163999,0.721889902706975,-1.1795808,-0.2648101,-0.37293324,292.98737,-95.66593,-3.2028477,WAL
616648515000,2.833429,1.44385268414101,13.112689370302,0.429292438126445,-1.3530666,-0.22418754,-0.37873647,292.84268,-95.28934,-3.216223,WAL
616653482000,2.838396,1.55010340818685,13.5284533667088,0.133638168564242,-1.505172,-0.19303341,-0.37995818,292.6914,-94.910675,-3.2251525,WAL
616658515000,2.843429,1.4003176594622,13.6165626829021,-0.0897042185570776,-1.6982054,-0.14019357,-0.3454443,292.53894,-94.53072,-3.222962,WAL
616663445000,2.848359,1.19431184403856,13.6261440416032,-0.290919201552511,-1.8796324,-0.06291912,-0.32436943,292.37082,-94.167465,-3.2240078,WAL
616668478000,2.853392,0.882815861760759,13.459342020399,-0.479728871044108,-2.058005,0.0033597588,-0.3222314,292.21487,-93.83169,-3.2088661,WAL
616673590000,2.858504,0.545546390596761,13.2534761959381,-0.668074151344726,-2.2204952,0.076358154,-0.3231477,292.03613,-93.531334,-3.1889405,WAL
616678612000,2.863526,0.0813087680756396,12.9602639940675,-0.829400469855395,-2.3652701,0.15149458,-0.32620203,291.85657,-93.33843,-3.2038772,WAL
616683613000,2.868527,-0.460313439043382,12.6139813661476,-0.975904876112347,-2.5066855,0.22479841,-0.3191771,291.656,-93.23266,-3.215649,WAL
616688677000,2.873591,-1.05849743030624,12.1903206502066,-1.12212740551023,-2.6429086,0.2779437,-0.3295618,291.45374,-86.70454,-3.2847228,WAL
616693621000,2.878535,-1.6956874534068,11.6986302367278,-1.26261024607396,-2.7617218,0.31306845,-0.33322698,291.23395,-86.53826,-3.3474727,WAL
616698605000,2.883519,-2.3030738472619,11.2075962551587,-1.35475336952381,-2.8619037,0.3371976,-0.31703907,291.02182,-86.22473,-3.4693024,WAL
616703569000,2.888483,-2.88316614857143,10.7218279809524,-1.41134769714286,-2.9352076,0.3475823,-0.31123585,290.8006,-85.837105,-3.5905418,WAL
616708566000,2.89348,-3.35726541891813,10.4042287013645,-1.42350457933723,-2.9596422,0.3463606,-0.312763,290.6099,-85.346085,-3.7784064,WAL
616713582000,2.898496,-3.7458709255848,10.2216306569201,-1.40009462378168,-3.0002646,0.30176744,-0.31642818,290.42444,-84.82184,-3.9579504,WAL
616718561000,2.903475,-3.9261965052782,10.3173442837162,-1.3911047479122,-3.018896,0.22571471,-0.32253686,290.26483,-84.232185,-4.2029495,WAL
616723619000,2.908533,-3.90641520690148,10.6882441446656,-1.39605002086779,-3.0017917,0.14630222,-0.3118467,290.1139,-83.64732,-4.434403,WAL
616728612000,2.913526,-3.93461682796401,11.0163760907743,-1.27974655513695,-2.937651,0.05100725,-0.267559,290.00476,-83.03045,-4.698744,WAL
616733613000,2.918527,-4.00091862517552,11.3147344749333,-1.06663353662612,-2.8322768,-0.12461651,-0.26908615,289.93655,-82.43006,-4.9598045,WAL
616738703000,2.923617,-4.05535078981106,11.5818882385003,-0.792199647247008,-2.692694,-0.37690386,-0.29993483,289.91525,-81.868126,-5.2018514,WAL
616743651000,2.928565,-4.09753830220595,11.8115759745771,-0.478136465440696,-2.5540276,-0.68233645,-0.3491095,289.95508,-81.33914,-5.4327617,WAL
616748609000,2.933523,-3.97593441232193,11.9919499645223,-0.336712399177933,-2.479502,-1.0005972,-0.40408736,290.06873,-80.79771,-5.6665177,WAL
616753571000,2.938485,-3.69998062310135,12.125615105798,-0.35827128741312,-2.4388795,-1.2687671,-0.4373795,290.25006,-80.28942,-5.8891444,WAL
616758536000,2.94345,-3.39808705111348,12.2023934994191,-0.424975430278854,-2.391232,-1.4495832,-0.4392121,290.4859,-79.76269,-6.1085668,WAL
616763589000,2.948503,-3.0279343992835,12.1414825395043,-0.603023541037955,-2.3448062,-1.5421293,-0.419359,290.76517,-79.25861,-6.3141828,WAL
616768558000,2.953472,-2.63695498273353,12.0772665372975,-0.872607886351731,-2.2779164,-1.5555683,-0.3930918,291.07785,-78.803764,-6.4754033,WAL
616773681000,2.958595,-2.14200435593171,11.9963610044621,-1.47225963308759,-2.2204952,-1.4566082,-0.34208453,291.3735,-78.37954,-6.6170964,WAL
616779332000,2.964246,-1.65173799088591,11.9071775715226,-2.07553756326396,-2.1273382,-1.1939361,-0.2501493,291.64548,-78.027626,-6.71156,WAL
616783611000,2.968525,-1.38544259002221,11.8397610588961,-2.42273288487291,-2.017077,-0.80573124,-0.14844026,291.84195,-77.71483,-6.7955947,WAL
616788635000,2.973549,-1.07278353558444,11.7606069202106,-2.83037702971128,-1.9260582,-0.3839288,-0.05955936,292.00507,-77.52179,-6.8257027,WAL
616793623000,2.978537,-0.790273863116937,11.658879678943,-3.01652884696213,-1.8909334,0.0061086523,0.0125227375,292.0579,-77.36086,-6.8494587,WAL
616798555000,2.983469,-0.520007046412817,11.550773338119,-3.12954948553891,-1.8735237,0.22296582,0.07666359,292.0341,-77.23424,-6.8625593,WAL
616803609000,2.988523,-0.351593940049608,11.369660522274,-3.09193466702054,-1.8616118,0.6606508,0.10995574,291.88776,-77.19249,-6.8560348,WAL
616808561000,2.993475,-0.21043605247346,11.1767442805834,-3.02135567164401,-1.8542814,1.0742066,0.12095132,291.6844,-77.16074,-6.8487654,WAL
616815094000,3.000008,-0.161973263174319,10.8929969774677,-2.45750052751013,-1.8377881,1.59558,0.13713925,291.41077,-77.124596,-6.8347964,WAL
616818610000,3.003524,-0.149275212766098,10.7374460480815,-2.10830418271896,-1.7644843,1.9233092,0.12461651,291.075,-77.10207,-6.8373795,WAL
616823684000,3.008598,-0.181023282952391,10.4749121341033,-1.1518868147327,-1.7895297,1.9248364,0.069027774,290.7038,-77.035866,-6.847168,WAL
616828590000,3.013504,-0.233153798609038,10.2047810143736,-0.0334502385253178,-1.9162843,1.7889189,0.020463986,290.2804,-76.96271,-6.8669877,WAL
616833610000,3.018524,-0.179103747303346,10.0178447039387,0.852895763468697,-2.028378,1.5503759,0.004886922,289.86377,-76.81028,-6.8900943,WAL
616838707000,3.023621,-0.0781556724705772,9.8664226465501,1.64212619641286,-2.1038198,1.2907583,0.03359759,289.49454,-76.63775,-6.9041376,WAL
616843615000,3.028529,0.107042805958766,9.82310476673588,1.78089403609216,-2.1270328,1.1682798,0.11209377,289.07358,-76.300224,-6.929738,WAL
616849211000,3.034125,0.387905645888757,9.85490064886779,1.44703821439731,-2.0576997,1.1792754,0.2125811,288.68814,-75.978874,-6.933018,WAL
616853612000,3.038526,0.433519868817515,9.66339660776619,1.10012421588351,-1.9431623,1.2257011,0.27763826,288.30188,-75.55495,-6.9156446,WAL
616858617000,3.043531,0.36916843926056,9.30203850232366,0.649664162465145,-1.813048,1.2889256,0.31337386,287.90375,-75.16541,-6.8812017,WAL
616863613000,3.048527,0.323413892809705,8.87523828539118,-0.152543627290017,-1.7153096,1.4434745,0.31581733,287.51172,-74.83564,-6.825015,WAL
616868559000,3.053473,0.28932648996813,8.41262330009253,-1.16055691059422,-1.6371188,1.7831156,0.3295618,287.0481,-74.54104,-6.775007,WAL
616873661000,3.058575,0.168754662528583,8.19431058055991,-1.45548242654659,-1.5537357,2.012801,0.34880406,286.60193,-74.305916,-6.741842,WAL
616878703000,3.063617,0.00805254426859829,8.10450661834377,-1.38458448371182,-1.5546521,2.0864103,0.3494149,286.1082,-74.07007,-6.723558,WAL
616883612000,3.068526,-0.165620334209316,7.80834141315533,-0.780055287000585,-1.5980235,2.081218,0.34574974,285.62833,-73.957466,-6.71749,WAL
616888635000,3.073549,-0.353124914424089,7.38645625598324,0.143404809764179,-1.6151277,2.0372355,0.33108896,285.14212,-73.85225,-6.716206,WAL
616893601000,3.078515,-0.621500370294002,7.25216651332873,0.692769936819258,-1.6136005,1.9456058,0.3051272,284.67017,-73.7127,-6.74134,WAL
616898610000,3.083524,-0.952786468212313,7.3231562890884,0.981462090213102,-1.5949692,1.8982637,0.3042109,284.2006,-73.57682,-6.7631383,WAL
616903561000,3.088475,-1.19487237828485,7.36018418445336,1.10571296128385,-1.5500705,1.8106046,0.31123585,283.74084,-73.262505,-6.8261704,WAL
616908563000,3.093477,-1.36784279254764,7.36979354320963,1.09610350218656,-1.5265522,1.704925,0.30848694,283.3048,-72.95033,-6.886052,WAL
616913574000,3.098488,-1.52619103893579,7.36897375641076,0.998744563243668,-1.461495,1.632232,0.32895094,282.8866,-72.58627,-6.992622,WAL
616918652000,3.103566,-1.67419429931278,7.35942526188887,0.826869717592774,-1.3921618,1.5940529,0.33353242,282.49368,-72.234825,-7.0951624,WAL
616923641000,3.108555,-1.79035600937103,7.35024988400997,0.735146610024933,-1.3115277,1.5842791,0.34300083,282.11734,-71.89027,-7.2228847,WAL
616928637000,3.113551,-1.88038892607612,7.3412466017406,0.712638404351508,-1.2342533,1.5943583,0.3594942,281.74924,-71.57197,-7.3415895,WAL
616933572000,3.118486,-1.96932256177259,7.33235324745731,0.69040501864327,-1.1578951,1.6157386,0.38637227,281.38538,-71.29106,-7.4863925,WAL
616938618000,3.123532,-2.06025652848473,7.32325986028132,0.667671550703298,-1.0845913,1.6316211,0.398895,281.0255,-71.03639,-7.625704,WAL
616943613000,3.128527,-2.15548234146341,7.29846112195122,0.691865926829268,-1.0140363,1.6258179,0.42119157,280.6682,-70.81081,-7.7500305,WAL
616948605000,3.133519,-2.2647980097561,7.23078951777003,0.84282574076655,-0.94134337,1.5827519,0.45051312,280.32086,-70.611984,-7.8624716,WAL
616953559000,3.138473,-2.3862637124243,7.1271723225044,1.00577986792342,-0.8915578,1.4880677,0.47586402,279.9879,-70.42123,-8.000868,WAL
616958619000,3.143533,-2.52826017247509,6.97097623127564,1.19037524621996,-0.8304713,1.3698653,0.48441613,279.67856,-70.25791,-8.124602,WAL
616963529000,3.148443,-2.68210049280081,6.78359796006067,1.35228003852376,-0.7620544,1.2278391,0.4654793,279.39023,-70.08207,-8.258622,WAL
616968574000,3.153488,-2.86773945508595,6.52956563144591,1.48906661814965,-0.7031059,1.0980303,0.45845437,279.13452,-69.92599,-8.37279,WAL
616973551000,3.158465,-3.02502796589332,6.30639781545117,1.59212294723781,-0.6374379,0.95722586,0.43860126,278.89493,-69.752464,-8.507462,WAL
616978616000,3.16353,-3.14494522414187,6.12190972954265,1.64746937782638,-0.5815437,0.82863873,0.42363504,278.69202,-69.59528,-8.627516,WAL
616983536000,3.16845,-3.23564674866,5.9468809656,1.6924037192,-0.516792,0.71837753,0.41233405,278.49768,-69.43258,-8.755565,WAL
616988659000,3.173573,-3.26508386527,5.7751641532,1.7169346924,-0.462425,0.62888575,0.40439278,278.33685,-69.28306,-8.874068,WAL
616993548000,3.178462,-3.26990720365734,5.62458636495208,1.74019174623509,-0.40958515,0.5311473,0.39278635,278.18887,-69.13356,-9.004814,WAL
616998603000,3.183517,-3.21783234951105,5.501500130354,1.76386220638568,-0.34972036,0.48349985,0.38362336,278.0545,-69.00136,-9.131206,WAL
617003567000,3.188481,-3.15838732025815,5.39916680264065,1.79184237762341,-0.32162055,0.4166101,0.37782016,277.94678,-68.86493,-9.250271,WAL
617008586000,3.1935,-3.07313869779289,5.35180651177456,1.8344666394029,-0.25381452,0.32406402,0.35735616,277.86328,-68.75268,-9.367177,WAL
617015109000,3.200023,-2.94089943347906,5.31954249908193,1.89396446735158,-0.18692477,0.24373524,0.376293,277.77274,-68.65,-9.472378,WAL
617018614000,3.203528,-2.8528517771225,5.32541230912827,1.92918355747574,-0.12064589,0.16187929,0.36743546,277.71405,-68.559616,-9.580105,WAL
617023568000,3.208482,-2.72840439064877,5.33370875391274,1.97896255104923,-0.043066,0.08827003,0.3659083,277.66135,-68.49194,-9.665884,WAL
617028612000,3.213526,-2.60169615137274,5.34215592135175,2.02964588645187,0.03481932,0.0021380284,0.3567453,277.63727,-68.43991,-9.745949,WAL
617033508000,3.218422,-2.47870575892717,5.35035523375885,2.07884208195768,0.11911872,-0.06261369,0.36377025,277.62726,-68.41175,-9.8160305,WAL
617038660000,3.223574,-2.36700689923319,5.40022216830515,2.13475053464412,0.23609942,-0.12217305,0.3481932,277.63135,-68.41151,-9.89279,WAL
617043608000,3.228522,-2.26917882963036,5.47009929138812,2.1906522331105,0.3277292,-0.18020524,0.3549127,277.65112,-68.42998,-9.954796,WAL
617048608000,3.233522,-2.18509605076788,5.52313062701751,2.26143609228211,0.42821655,-0.22815818,0.36682457,277.6812,-68.46936,-9.984738,WAL
617053562000,3.238476,-2.11084226362125,5.564898230852,2.34033073506798,0.5543602,-0.25167647,0.3594942,277.72263,-68.53607,-10.014375,WAL
617058590000,3.243504,-2.05288140692213,5.59732555170993,2.49304769303667,0.675617,-0.27580565,0.35033122,277.76563,-68.62727,-10.032128,WAL
617063579000,3.248493,-2.00858722719407,5.62193342933663,2.69975396788216,0.8011498,-0.312763,0.33750305,277.8211,-68.74804,-10.049095,WAL
617068688000,3.253602,-1.98585224581359,5.69239773368878,2.92117761929305,0.9260717,-0.3622431,0.3173445,277.87262,-68.89006,-10.065338,WAL
617073641000,3.258555,-1.97648536382306,5.78606684701817,3.14129949278239,1.0497719,-0.41508293,0.2855795,277.9397,-69.056694,-10.084047,WAL
617078615000,3.263529,-1.94130176046305,5.97170426249261,3.32767620217734,1.1670581,-0.43249258,0.25289822,277.99255,-69.221115,-10.101626,WAL
617083610000,3.268524,-1.8894596150936,6.21677613741872,3.49262847395074,1.2721269,-0.43127087,0.21991149,278.0599,-69.40488,-10.124277,WAL
617088636000,3.27355,-1.78843724527305,6.51965528156195,3.64161225472695,1.3466524,-0.40225476,0.19150625,278.0993,-69.58388,-10.146049,WAL
617093627000,3.278541,-1.65278081021726,6.86113507618908,3.77726868978274,1.4208726,-0.34574974,0.18173242,278.13464,-69.781944,-10.173163,WAL
617098609000,3.283523,-1.50130859424911,7.25564257606204,3.94348116613043,1.4740179,-0.30787608,0.18081611,278.15457,-69.98333,-10.189707,WAL
617104208000,3.289122,-1.31535933743377,7.75150745866487,4.16042205564011,1.5042557,-0.22296582,0.1881465,278.14917,-70.191246,-10.214429,WAL
617108584000,3.293498,-1.17573426248999,8.15341693359031,4.35722194260112,1.5250251,-0.1386664,0.19914207,278.13074,-70.40945,-10.215503,WAL
617113607000,3.298521,-1.02161554197036,8.63022188942731,4.61248101609932,1.5442673,-0.03023783,0.22235495,278.08395,-70.63104,-10.2197695,WAL
617118592000,3.303506,-0.90552707157385,9.10067683353511,4.89309619579298,1.5525141,0.098043874,0.26419923,277.9898,-70.866135,-10.186474,WAL
617123653000,3.308567,-0.832179293438257,9.57499240556901,5.2109365438862,1.5265522,0.23273966,0.30726522,277.86624,-71.09406,-10.156184,WAL
617128556000,3.31347,-0.761125180787781,10.2655209228296,5.75438288713826,1.4825699,0.37384954,0.36957347,277.6807,-71.331245,-10.076479,WAL
617133600000,3.318514,-0.68803203489408,11.2385731112162,6.5812486597125,1.409877,0.5375614,0.42241332,277.4539,-71.55326,-10.001627,WAL
617138707000,3.323621,-0.639849321796348,12.0698920973965,7.29104871367685,1.2883148,0.68844515,0.47739118,277.16553,-71.74874,-9.890839,WAL
617143596000,3.32851,-0.635240738513214,12.6183145114425,7.76573396843349,1.1468995,0.84513205,0.5348125,276.83215,-71.924324,-9.780658,WAL
617148539000,3.333453,-0.630581252489788,13.1727943626655,8.24566221843595,0.9550878,0.9737192,0.59803706,276.40656,-72.00932,-9.61531,WAL
617153573000,3.338487,-0.625835985922536,13.7374821172794,8.73442588635267,0.732122,1.026559,0.64843345,275.9649,-72.05702,-9.449964,WAL
617158520000,3.343434,-0.682087754161287,14.1552313614139,9.18523315028045,0.48747048,0.9630291,0.6942484,275.51794,-72.065956,-9.271589,WAL
617163587000,3.348501,-0.897780259536459,14.2271297801884,9.57039807990263,0.24678956,0.7623598,0.7189884,275.10193,-72.02297,-9.085795,WAL
617168519000,3.353433,-1.09572503003802,14.0910156235741,9.71696292395437,0.038179077,0.43554693,0.7079928,274.6988,-71.8625,-8.850136,WAL
617174285000,3.359199,-1.3056864687043,13.5634195966657,9.48008359140099,-0.13927728,0.04795292,0.6762278,274.37952,-71.65356,-8.604504,WAL
617178518000,3.363432,-1.49987675921924,13.1205290425235,9.14130423004531,-0.29138273,-0.3200934,0.61727935,274.1334,-71.35001,-8.374304,WAL
617183582000,3.368496,-1.80414492227257,12.4908632690833,8.43979725897525,-0.41874814,-0.569021,0.55741453,273.971,-71.01102,-8.141857,WAL
617188725000,3.373639,-2.12155316289593,11.831057241629,7.68655320633484,-0.50823987,-0.66889745,0.50854534,273.87506,-70.64399,-7.9438286,WAL
617193593000,3.378507,-2.51063828104575,10.9919457150327,6.54273669673203,-0.5696318,-0.65240407,0.4642576,273.82,-70.25411,-7.757601,WAL
617198610000,3.383524,-2.90123059302103,10.1239166936902,5.38406240707457,-0.59864795,-0.49113566,0.45478916,273.77963,-69.91607,-7.6427374,WAL
617203560000,3.388474,-3.15502504330784,9.22657160764818,4.49578159445507,-0.6114761,-0.18478674,0.44837508,273.69296,-69.57041,-7.5582175,WAL
617208917000,3.393831,-3.42406513323782,8.26017355587393,3.54806977722063,-0.5833763,0.20861048,0.45081854,273.57794,-69.34268,-7.556628,WAL
617215080000,3.399994,-3.57506254345068,7.28171090278346,2.84140192012894,-0.50976706,0.6414085,0.45937067,273.36502,-69.12801,-7.588529,WAL
617218929000,3.403843,-3.64317635587614,6.70188783128079,2.43422408559113,-0.398895,1.0329732,0.46822822,273.09464,-69.00757,-7.682926,WAL
617223649000,3.408563,-3.48412447973258,6.28040055049261,2.25131449445813,-0.2556471,1.3414601,0.48502702,272.72827,-68.91722,-7.8050866,WAL
617228524000,3.413438,-3.31984950172414,5.84507205603448,2.06239833836207,-0.06811147,1.5338826,0.5235115,272.31097,-68.90246,-7.9566765,WAL
617233605000,3.418519,-3.05931506480447,5.47374450589696,1.988789477964,0.160963,1.5647314,0.57818395,271.85382,-68.93755,-8.111171,WAL
617238569000,3.423483,-2.77405977541899,5.13930710006207,1.95928033134699,0.43585235,1.4132367,0.6282749,271.39545,-69.033905,-8.254479,WAL
617243992000,3.428906,-2.54520845294437,5.24255170985075,1.88770688762551,0.75747293,1.1270463,0.63346726,270.96436,-69.21323,-8.36635,WAL
617248556000,3.43347,-2.36729035677069,5.41256229930348,1.82049339013116,1.0989466,0.7141015,0.5864306,270.61615,-69.46261,-8.450702,WAL
617253570000,3.438484,-2.27415408490335,6.12560525764549,1.55562038294978,1.4471397,0.19730948,0.50579643,270.3706,-69.78799,-8.474272,WAL
617258561000,3.443475,-2.249710130224,7.18647582090621,1.16451598501585,1.7989981,-0.41996986,0.40469822,270.27957,-70.1859,-8.469891,WAL
617263598000,3.448512,-2.40279221431425,8.73575585196284,0.697967533487364,2.1077905,-1.1960741,0.28527406,270.38318,-70.68034,-8.406743,WAL
617268603000,3.453517,-2.65176429197882,10.5360155058436,0.195235413476376,2.3545802,-2.1389446,0.13072516,270.72266,-71.22079,-8.318339,WAL
617273644000,3.458558,-3.12193970408733,12.3657011707706,-0.608670929956934,2.529593,-3.1471777,-0.062308256,271.35297,-71.900154,-8.204157,WAL
617278582000,3.463496,-3.6970980660652,14.1666071480411,-1.55155341111853,2.5806003,-4.009414,-0.24678956,272.221,-72.57574,-8.080253,WAL
617283558000,3.468472,-4.22876489497015,15.4018187685906,-2.5418103624118,2.5024095,-4.5937066,-0.35979962,273.34344,-73.394226,-7.9559336,WAL
617288670000,3.473584,-4.746941614203,16.3318799735842,-3.58259270559978,2.2812762,-4.7632217,-0.3857614,274.5939,-74.15146,-7.8464417,WAL
617293569000,3.478483,-5.10162586412841,16.7622243275913,-4.42999886121171,1.953547,-4.699692,-0.37659842,276.0285,-75.00661,-7.804098,WAL
617298592000,3.483506,-5.27583158655183,16.5880181135363,-5.09857210785945,1.7821994,-4.2742243,-0.29626966,277.39188,-75.806656,-7.781373,WAL
617303491000,3.488405,-5.18720528684092,16.2473382195423,-5.44167732303119,1.4660766,-3.5054502,-0.17195857,278.70477,-76.6017,-7.827909,WAL
617308499000,3.493413,-4.65454830555306,15.6070743523671,-5.26412507084362,1.2370021,-2.3802364,-0.04184427,279.77173,-77.3255,-7.9021993,WAL
617313520000,3.498434,-3.9107233373102,14.7324115639913,-4.46408010477223,1.0995574,-0.8268061,0.030848695,280.50983,-78.00431,-8.048317,WAL
617318498000,3.503412,-3.02701323762571,13.7029830550187,-3.23722702151449,0.9459248,1.0115929,0.092240654,280.82516,-78.57804,-8.217292,WAL
617323547000,3.508461,-2.44035341545099,12.1477208547206,-2.10311076913715,0.6200282,2.5668557,0.11484267,280.75446,-79.03062,-8.378255,WAL
617328511000,3.513425,-2.10170701456807,10.2255452058794,-1.07286274061503,0.3100141,3.4633005,0.12889257,280.3458,-79.40472,-8.551733,WAL
617333515000,3.518429,-1.67935900747719,8.34129642380532,-0.24431805005495,0.2180789,3.5414913,0.06719518,279.64954,-79.66527,-8.65361,WAL
617338550000,3.523464,-1.19200939620253,6.48652860759494,0.427561979240506,0.42424592,2.8469374,-0.05955936,278.9357,-79.876656,-8.763039,WAL
617343507000,3.528421,-0.539710415857605,5.20601696440129,0.622120510194175,0.88056225,1.7730364,-0.24801129,278.2595,-79.987114,-8.870403,WAL
617348515000,3.533429,0.272872429449838,4.39799937871692,0.402997057538549,1.3381003,0.70402217,-0.40591997,277.8002,-80.08122,-8.982278,WAL
617353560000,3.538474,1.10251173420022,4.21303824398032,-0.255231194035546,1.5992452,-0.20066923,-0.52290064,277.55835,-80.135925,-9.076114,WAL
617358609000,3.543523,1.94732289601366,4.85392952787428,-1.48846123128828,1.6676621,-0.8527679,-0.537256,277.5613,-80.19245,-9.165552,WAL
617363608000,3.548522,2.56865529685101,5.82166453400719,-2.74664668882301,1.597718,-1.1795808,-0.44806966,277.71902,-80.30098,-9.195046,WAL
617368574000,3.553488,2.92919148203907,7.18060843100398,-4.04087919921275,1.4410311,-1.3252722,-0.31429017,278.0124,-80.401794,-9.207003,WAL
617373558000,3.558472,3.09914865842965,8.54858797688322,-5.24372354567557,1.2140946,-1.3158038,-0.13408493,278.40332,-80.635056,-9.102068,WAL
617378617000,3.563531,2.9639779350837,9.94374332991232,-6.31060706279394,1.0390818,-1.1435398,0.087964594,278.7838,-80.889305,-8.94605,WAL
617383510000,3.568424,2.76205842833449,11.1259460041465,-7.01915737159641,0.9456194,-0.8542951,0.2773328,279.18738,-81.23625,-8.69783,WAL
617388634000,3.573548,2.42777684326192,12.0754997429164,-7.20325446102281,0.93737274,-0.44318274,0.4541783,279.499,-81.59664,-8.391923,WAL
617393514000,3.578428,2.20395589024702,12.7855822360988,-7.02761933205393,0.981355,-0.17531833,0.54000485,279.80493,-98.07116,-8.063538,WAL
617398614000,3.583528,2.15108132278319,13.1557044091133,-6.17201199222517,1.0366384,0.47708577,0.70463306,279.87512,-97.75074,-7.663849,WAL
617403535000,3.588449,2.13843491337518,13.3598879267021,-4.81703747770546,1.1866057,1.0793989,0.87995136,279.88843,-97.53696,-7.2629194,WAL
617408589000,3.593503,2.20854763264124,13.2383586276195,-2.27895532225592,1.3405437,1.3881912,1.0732902,279.7991,-97.39258,-6.810209,WAL
617415170000,3.600084,1.45733058039618,12.4521890104964,1.05962892381501,1.4401149,1.287704,1.1847731,279.6211,-97.28749,-6.327132,WAL
617418625000,3.603539,0.488535764912004,11.611348460816,2.83531742929208,1.4422529,0.8032878,1.2046263,279.4729,-97.26908,-5.826427,WAL
617423610000,3.608524,-0.909276725735932,10.3981530512193,5.3973455623755,1.3338243,0.0033597588,1.1548407,279.3578,-97.05151,-5.300976,WAL
617429242000,3.614156,-2.06590061808214,9.60056003641254,4.9810083705286,1.1890492,-0.8249735,1.1068878,279.39426,-96.873116,-4.7972846,WAL
617433511000,3.618425,-2.83983869913106,9.13535120419986,3.86027840347574,1.1065824,-1.428203,1.067487,279.596,-96.7408,-4.3347898,WAL
617438633000,3.623547,-3.39669463647013,8.77513011472553,2.35716103427244,1.104139,-1.777007,0.9969321,279.87805,-96.420074,-4.1488166,WAL
617443520000,3.628434,-3.82715029267112,8.48513925355794,0.88001851498693,1.1038336,-1.8710803,0.88422745,280.2398,-96.111786,-3.9991236,WAL
617448618000,3.633532,-3.94501714760234,8.23219352670565,-0.161506417660819,1.0629056,-1.7687603,0.7538077,280.6948,-96.063156,-4.0045447,WAL
617453585000,3.638499,-3.93110838573099,8.00501669551657,-0.982123949005848,0.97341377,-1.5864171,0.61269784,281.13898,-96.03237,-4.044223,WAL
617458615000,3.643529,-3.72244073670101,7.8486238063419,-1.61407844276283,0.81000733,-1.3368785,0.47494772,281.59537,-96.22877,-4.160154,WAL
617463775000,3.648689,-3.41102449102731,7.7250460130039,-2.16276415487646,0.6383542,-1.026559,0.355829,281.9765,-96.42668,-4.305251,WAL
617468595000,3.653509,-2.97907777543577,7.69342204816121,-2.3143411196272,0.50701815,-0.67347896,0.22785273,282.30475,-96.737946,-4.4970846,WAL
617473672000,3.658586,-2.45979571892191,7.69832103345088,-2.30944223664484,0.40500367,-0.32834008,0.1151481,282.5429,-97.03483,-4.7078753,WAL
617478613000,3.663527,-1.86884578355944,7.86610310350718,-1.91875084935182,0.33964106,-0.056199603,0.024129177,282.71655,-97.37266,-4.911746,WAL
617483602000,3.668516,-1.23506164340267,8.10617272063109,-1.35698764446789,0.29901853,0.09712757,-0.032986723,282.8254,-97.70139,-5.1254935,WAL
617488637000,3.673551,-0.631189607594557,8.35110770982589,-0.744397926545928,0.28985557,0.12583824,-0.054367006,282.86792,-97.98553,-5.27721,WAL
617493628000,3.678542,-0.0477058057544527,8.59502298369021,-0.117870240509306,0.33261612,0.07422013,-0.050396383,282.8927,-98.27022,-5.4301257,WAL
617499248000,3.684162,0.50434857465625,8.708379859375,0.300212955052083,0.36132678,-0.18295415,-0.01740966,282.92694,-98.40787,-5.495748,WAL
617503608000,3.688522,0.903708682951704,8.75187457528409,0.545364710544508,0.51007247,-0.30787608,-0.0106901415,282.93976,-98.580826,-5.562911,WAL
617508588000,3.693502,1.21121173464297,8.87724296954579,0.515121936462946,0.56107974,-0.54367006,-0.0125227375,282.9868,-98.60543,-5.54711,WAL
617513610000,3.698524,1.41616790115373,9.05720449433531,0.265175326116828,0.63316184,-0.73456544,0.020463986,283.05823,-98.65915,-5.5233426,WAL
617518588000,3.703502,1.46929528309631,9.17151485463396,-0.108147433346378,0.67103547,-0.86926126,0.081855945,283.16138,-98.61959,-5.425594,WAL
617523653000,3.708567,1.44614624615825,9.25485119423499,-0.552609247124177,0.71685034,-0.9098838,0.122478485,283.29126,-98.598274,-5.3299356,WAL
617528614000,3.713528,1.34825051785714,9.2674345090799,-0.883612105851493,0.7519751,-0.87995136,0.15821409,283.44803,-98.585945,-5.195011,WAL
617533583000,3.718497,1.19461968571429,9.22902702663438,-1.13806320605327,0.7840455,-0.81092364,0.17837265,283.60474,-98.58407,-5.056472,WAL
617538589000,3.723503,1.09428727572997,9.18261603092225,-1.15004111114383,0.80939645,-0.68233645,0.18661933,283.75833,-98.6538,-4.912913,WAL
617543570000,3.728484,1.03321809177212,9.13094204943621,-0.987972909535674,0.7996226,-0.5561928,0.18387043,283.89255,-98.72756,-4.7686987,WAL
617548546000,3.73346,0.972210209946329,9.0793199390418,-0.826067394337486,0.7809912,-0.44440445,0.17440203,284.00726,-98.86097,-4.6397104,WAL
617553608000,3.738522,0.910147931449111,9.02680564587129,-0.661363672887882,0.78954333,-0.36987892,0.15485434,284.09662,-99.005226,-4.515651,WAL
617558600000,3.743514,0.873538082388239,8.98965113731373,-0.436132148678868,0.79137594,-0.34147367,0.1432479,284.16794,-99.147156,-4.3938885,WAL
617563563000,3.748477,0.859277758835884,8.96588393139314,-0.155678907370937,0.80481493,-0.3631594,0.122478485,284.23212,-99.3007,-4.2834525,WAL
617569202000,3.754116,0.827502080522235,8.97689008718549,0.0305138117542422,0.8014552,-0.4156938,0.09621128,284.2768,-99.41796,-4.189799,WAL
617573652000,3.758566,0.793214133989175,9.00806091808075,0.0990896865933294,0.80756384,-0.46181414,0.073303826,284.326,-99.54373,-4.1055293,WAL
617578550000,3.763464,0.755474277333236,9.04236984610884,0.174569379843183,0.80939645,-0.49663344,0.04550946,284.36288,-99.63327,-4.026489,WAL
617583575000,3.768489,0.754450823215881,9.07992192655087,0.0311476718044665,0.8268061,-0.48502702,0.01160644,284.39868,-99.7319,-3.9589028,WAL
617588568000,3.773482,0.763943024188586,9.11789102779156,-0.17293478787196,0.8240572,-0.47891834,-0.00580322,284.4455,-99.82668,-3.8990867,WAL
617593584000,3.778498,0.788091237736858,9.07914555539056,-0.282448950671221,0.8219192,-0.44165558,-0.034208454,284.4709,-99.91747,-3.8582938,WAL
617598563000,3.783477,0.816414930632611,9.01777732244332,-0.362699384300564,0.83291477,-0.39370266,-0.059253927,284.49097,-100.0114,-3.8226717,WAL
617603533000,3.788447,0.834541577198028,8.92928998685292,-0.386717668270337,0.84421575,-0.35430184,-0.09010262,284.50354,-100.14445,-3.790908,WAL
617608495000,3.793409,0.849184186409203,8.83167272801972,-0.391598541405094,0.8512407,-0.31978795,-0.12064589,284.50378,-100.27932,-3.765904,WAL
617614642000,3.799556,0.857175657432836,8.78162300701493,-0.34909033278209,0.86406887,-0.32162055,-0.14019357,284.5017,-100.43468,-3.7368164,WAL
617618495000,3.803409,0.860847240557214,8.75959362328358,-0.316046061659701,0.8906415,-0.3494149,-0.16768251,284.49686,-100.59606,-3.7196832,WAL
617623542000,3.808456,0.835068852724215,8.81839338845291,-0.298788173344884,0.9053023,-0.40683624,-0.1908954,284.5035,-100.757706,-3.7085671,WAL
617628465000,3.813379,0.801433890179372,8.90007821076233,-0.289178178312271,0.926988,-0.4841107,-0.21288654,284.52362,-100.92709,-3.708162,WAL
617633480000,3.818394,0.708082535703042,9.05562966154893,-0.41937963218832,0.93218035,-0.5723807,-0.22999077,284.56082,-101.08758,-3.7160366,WAL
617638547000,3.823461,0.599629449492761,9.23009773209601,-0.584416923161986,0.9279043,-0.62888575,-0.2312125,284.61124,-101.24819,-3.728335,WAL
617643479000,3.828393,0.440666824756404,9.38981054746359,-0.640592656560522,0.91324353,-0.6374379,-0.22968534,284.66284,-101.41035,-3.7507548,WAL
617648483000,3.833397,0.262552649226519,9.54866932596685,-0.664662157944751,0.9071349,-0.6087272,-0.22999077,284.72006,-101.57036,-3.7749891,WAL
617653494000,3.838408,0.037504634779687,9.71994054353461,-0.526275750331189,0.8903361,-0.5742133,-0.22082779,284.78232,-101.75183,-3.8096397,WAL
617658479000,3.843393,-0.200807723936834,9.8940915687818,-0.338375609839685,0.86132,-0.5320636,-0.22602014,284.83426,-101.92534,-3.8460612,WAL
617663467000,3.848381,-0.370697568872598,10.1009781510799,-0.16552202423618,0.8390234,-0.51159966,-0.22632557,284.88257,-102.10254,-3.8952582,WAL
617668495000,3.853409,-0.509038500832178,10.3251864042996,0.00144116882108182,0.8188649,-0.50823987,-0.23060162,284.92413,-102.26883,-3.9446228,WAL
617673524000,3.858438,-0.596266373025993,10.4569211553703,0.0982724097479157,0.7870999,-0.49541172,-0.21502456,284.9454,-102.40081,-4.0142126,WAL
617678475000,3.863389,-0.656726605836194,10.5406350623835,0.158732637701815,0.7800749,-0.5030475,-0.20219639,284.97168,-102.53109,-4.084447,WAL
617683477000,3.868391,-0.657652377370892,10.5950957887324,0.170808868685446,0.7874053,-0.5131268,-0.20555615,284.9776,-102.63348,-4.167725,WAL
617688550000,3.873464,-0.621157996565258,10.6315899504225,0.152561678282629,0.7867944,-0.5375614,-0.20891592,284.9908,-102.72816,-4.246027,WAL
617693468000,3.878382,-0.491724582480637,10.6543697335809,0.0965260822592043,0.7861836,-0.55833083,-0.23060162,284.99316,-102.82096,-4.331633,WAL
617698489000,3.883403,-0.262140319062069,10.6645736841379,-0.000409491307586204,0.77182823,-0.5742133,-0.2565634,285.0009,-102.90843,-4.417796,WAL
617703487000,3.888401,0.0298431619848921,10.6830076814432,-0.0874191779944339,0.7449502,-0.5699373,-0.28924468,284.99948,-102.998795,-4.5093083,WAL
617708491000,3.893405,0.363265670272339,10.706823558195,-0.168393215152967,0.7257079,-0.5479461,-0.3203988,284.9964,-103.08759,-4.6044884,WAL
617713480000,3.898394,0.667939791430532,10.8083847270321,-0.203898938163545,0.691194,-0.5158757,-0.33567044,284.9807,-103.17241,-4.6815906,WAL
617718465000,3.903379,0.953474007652711,10.9628537426218,-0.208579828236102,0.6432411,-0.47525316,-0.3436117,284.95575,-103.2486,-4.7608433,WAL
617723491000,3.908405,1.11152791950877,11.1392037936842,-0.117307482435088,0.5983425,-0.4279111,-0.3368922,284.90814,-103.31332,-4.8029575,WAL
617728481000,3.913395,1.16422677173935,11.3308363019549,0.0503706446426065,0.5375614,-0.398895,-0.31764993,284.85602,-103.35874,-4.841099,WAL
617733478000,3.918392,1.10866236378442,11.4786432813729,0.205988940325531,0.49113566,-0.37843102,-0.2846632,284.79233,-103.36603,-4.833578,WAL
617738513000,3.923427,0.966394774445319,11.5924571587333,0.352998763825728,0.4428773,-0.40042216,-0.2574797,284.73492,-103.3554,-4.823464,WAL
617743480000,3.928394,0.788404015264939,11.6502586563527,0.416517940098627,0.38820487,-0.4334089,-0.22907446,284.66278,-103.29468,-4.794248,WAL
617748477000,3.933391,0.575549243401663,11.6595133979888,0.407263382069232,0.33444872,-0.44929138,-0.21471913,284.59448,-103.222084,-4.7627263,WAL
617753464000,3.938378,0.31846121346825,11.6511009135777,0.357392384211668,0.28344148,-0.4456262,-0.2003638,284.51746,-103.123764,-4.738596,WAL
617758497000,3.943411,0.00492436975219412,11.621240179143,0.257856881652039,0.22968534,-0.4260785,-0.20005837,284.44147,-103.013664,-4.7153816,WAL
617763479000,3.948393,-0.285436660212306,11.648647615687,0.220467993595439,0.15760323,-0.36041048,-0.2012801,284.349,-102.90848,-4.718252,WAL
617768466000,3.95338,-0.557704508413603,11.7284503994496,0.2392450828563,0.08002335,-0.30787608,-0.22937989,284.25372,-102.79343,-4.72814,WAL
617773480000,3.958394,-0.74822011932702,11.8166703352811,0.351900856834576,-0.0033597588,-0.2519819,-0.25350907,284.1501,-102.69548,-4.7764845,WAL
617778484000,3.963398,-0.849607309719927,11.9132292353415,0.56433115787427,-0.089186326,-0.2180789,-0.27397305,284.0368,-102.58165,-4.8280206,WAL
617783476000,3.96839,-0.850480101745339,12.0632797674534,0.838544243970647,-0.183565,-0.15851954,-0.2846632,283.8996,-102.46269,-4.9113073,WAL
617788522000,3.973436,-0.749843846671956,12.2693448667196,1.1787906096787,-0.23457226,-0.116675265,-0.2929099,283.757,-102.338196,-4.995415,WAL
617793465000,3.978379,-0.560310561386036,12.4941858428411,1.49309172888582,-0.3408628,-0.09590584,-0.2919936,283.59442,-102.1517,-5.0825424,WAL
617798479000,3.983393,-0.270221006650557,12.7469776419263,1.7914695160611,-0.45356745,-0.1142318,-0.30115658,283.43018,-101.958405,-5.171232,WAL
617803517000,3.988431,0.0405147611525424,12.9767024915254,2.07842673728814,-0.55833083,-0.16218472,-0.3051272,283.2369,-101.69245,-5.2374926,WAL
617808565000,3.993479,0.445086143627119,13.0893680762712,2.30375763940678,-0.68844515,-0.24129178,-0.28955013,283.05823,-101.39973,-5.3008018,WAL
617814921000,3.999835,0.822182463922757,13.137344300568,2.49815700356683,-0.8155051,-0.33536503,-0.27458394,282.87082,-101.02036,-5.3295307,WAL
617818554000,4.003468,0.943383305694812,13.0978223228323,2.5455834593866,-0.9437868,-0.43860126,-0.25625798,282.7096,-100.621346,-5.356157,WAL
617824026000,4.00894,1.12593519288906,13.0382945875805,2.6170168660053,-1.0680978,-0.50854534,-0.2556471,282.57248,-100.143814,-5.343892,WAL
617828549000,4.013463,1.12105855404122,12.9860162175895,2.30835251819736,-1.2232577,-0.5216789,-0.25381452,282.45074,-99.64606,-5.3286614,WAL
617833532000,4.018446,1.04854073591984,12.9270957565771,1.80979274341343,-1.4031575,-0.49113566,-0.26725355,282.3366,-99.1391,-5.31908,WAL
617838581000,4.023495,0.976919396391479,12.9445513566494,1.3635811797291,-1.6194037,-0.37751472,-0.29077184,282.2086,-98.585625,-5.2852216,WAL
617843623000,4.028537,0.906942691092218,13.0261906675523,0.967046516691368,-1.8374827,-0.21380283,-0.33261612,282.05783,-98.02952,-5.2590265,WAL
617848553000,4.033467,0.838520406854741,13.106016491184,0.579320239663205,-2.0638082,-0.030543262,-0.36926803,281.89868,-97.52701,-5.2446275,WAL
617853541000,4.038455,0.769293154567412,13.1867814421526,0.187032477022946,-2.2996023,0.1301143,-0.39675698,281.69775,-97.0272,-5.236802,WAL
617858676000,4.04359,0.665199921717766,13.2308267060059,-0.285474115333053,-2.5262332,0.2733622,-0.3924809,281.44894,-96.541534,-5.2277365,WAL
617863577000,4.048491,0.522282886819614,13.2209704162642,-0.827573276606468,-2.7409523,0.40683624,-0.37598756,281.15625,-96.091415,-5.221788,WAL
617868571000,4.053485,0.313065125426488,13.156675184755,-1.33860440271324,-2.9385672,0.54183745,-0.35369098,280.83844,-95.7646,-5.2286644,WAL
617873606000,4.05852,0.0391387296235374,13.0381101987451,-1.81286502981177,-3.0818152,0.675617,-0.31398472,280.482,-95.493805,-5.2266784,WAL
617878565000,4.063479,-0.260753299454162,12.8967357273824,-2.21708759847205,-3.1658092,0.7333437,-0.267559,280.15448,-95.330315,-5.236847,WAL
617883573000,4.068487,-0.742866769031966,12.6074678480097,-2.25083551773221,-3.20521,0.782213,-0.23701571,279.7899,-95.249565,-5.2417545,WAL
617888569000,4.073483,-1.2218054169292,12.3148372928856,-2.24587639324044,-3.2262847,0.7370089,-0.17440203,279.45038,-84.7235,-5.2651877,WAL
617894126000,4.07904,-1.74228921599446,11.96477707426,-2.00636175741734,-3.2323935,0.3680463,-0.1142318,279.18866,-84.62934,-5.2808475,WAL
617898553000,4.083467,-2.15693412844037,11.6859005963303,-1.8155517353211,-3.1975741,0.17898351,-0.105374254,278.8837,-84.42412,-5.346294,WAL
617903565000,4.088479,-2.69647156883749,11.6278017133922,-1.52870199202819,-3.1697798,-0.22296582,-0.10323623,278.74246,-84.17812,-5.392225,WAL
617908554000,4.093468,-3.24668783939244,11.618315530825,-1.22987768217016,-3.1138856,-0.64751714,-0.12095132,278.65823,-83.89296,-5.437035,WAL
617913579000,4.098493,-3.68827959163614,11.88761034094,-0.990370966785303,-3.0130928,-0.9960158,-0.14660765,278.64383,-83.51238,-5.538075,WAL
617918577000,4.103491,-4.10414719875432,12.2132897103528,-0.764900424840364,-2.8835895,-1.2620476,-0.13897185,278.7194,-83.12791,-5.6250563,WAL
617923599000,4.108513,-4.41373126676737,12.4755654325277,-0.849582342598187,-2.7094927,-1.4407257,-0.15454891,278.92123,-82.640144,-5.775867,WAL
617928546000,4.11346,-4.70953616030211,12.7284308642497,-0.959316367794562,-2.5179865,-1.452943,-0.16646078,279.141,-82.176125,-5.915557,WAL
617933569000,4.118483,-4.65743847936821,12.6989523179911,-0.772471580120928,-2.3561072,-1.3863586,-0.20250183,279.39624,-81.66961,-6.0985775,WAL
617938580000,4.123494,-4.57848249874959,12.6476309965449,-0.56323851591642,-2.2568417,-1.3038919,-0.24373524,279.6419,-81.18987,-6.280213,WAL
617943585000,4.128499,-4.23560603027331,12.5182995336676,-0.294462008184924,-2.2504275,-1.3023647,-0.26908615,279.90964,-80.71142,-6.485629,WAL
617948575000,4.133489,-3.63522450713026,12.31290527149,0.0320613034417016,-2.2489004,-1.3542882,-0.2666427,280.16235,-80.25893,-6.6884236,WAL
617953568000,4.138482,-2.9846846591455,12.1354219585548,0.0660873230064973,-2.2296581,-1.3652838,-0.26389378,280.38513,-79.79664,-6.885067,WAL
617958585000,4.143499,-2.30830168830478,11.9698740468104,-0.0332416462935617,-2.207056,-1.2538009,-0.22785273,280.57947,-79.35245,-7.067571,WAL
617963803000,4.148717,-1.6182517646266,11.9068334486322,-0.537023997479034,-2.1890357,-0.97310835,-0.1459968,280.6874,-78.94958,-7.1831703,WAL
617968572000,4.153486,-0.993547760782748,11.8977137360224,-1.17540761785144,-2.1453588,-0.56169057,-0.064446285,280.7179,-78.57209,-7.2946596,WAL
