timestamp,rel_time,acc_x,acc_y,acc_z,gyro_x,gyro_y,gyro_z,azimuth,pitch,roll,label
119564560694000,0,-2.59214439601178,-9.67704317325756,-1.70117723531509,-1.1029172,-0.81581056,-0.069027774,240.58371,-79.109985,-7.208023,STD
119564565730000,0.005036,-2.55965334111216,-9.67866771049314,-1.7431835341602,-0.9486737,-1.063211,-0.09621128,240.703,-78.56607,-7.5686655,STD
119564571417000,0.010723,-2.52296219154621,-9.68050225045715,-1.79061995622774,-0.76174897,-1.3038919,-0.09712757,240.88731,-78.04476,-7.929248,STD
119564575706000,0.015012,-2.49529060011164,-9.68188581682001,-1.82639537635218,-0.55771995,-1.5005904,-0.074830994,241.1288,-77.551186,-8.287743,STD
119564580729000,0.020035,-2.46288341807018,-9.68350616045272,-1.86829323955691,-0.37415496,-1.6395624,-0.04917465,241.42166,-77.08583,-8.642531,STD
119564585731000,0.025037,-2.43061172295344,-9.68511972980386,-1.91001593749639,-0.19333886,-1.7275269,-0.018020526,241.75444,-76.661224,-8.987617,STD
119564590720000,0.030026,-2.39842390069486,-9.68672910555213,-1.95163019979549,-0.025350908,-1.7599027,0.020463986,242.10925,-76.27205,-9.324145,STD
119564595712000,0.035018,-2.36621672316132,-9.68833944905492,-1.99326948570391,0.10720685,-1.7568485,0.052534413,242.47795,-75.911446,-9.65576,STD
119564600717000,0.040023,-2.33392567276962,-9.68995398616057,-2.03501720725271,0.23457226,-1.756543,0.09040806,242.85487,-75.58685,-9.977728,STD
119564605721000,0.045027,-2.30164107413624,-9.69156820068138,-2.07675658759841,0.34238997,-1.7345519,0.10873401,243.22476,-75.28148,-10.302031,STD
119564610695000,0.050001,-2.26955002825246,-9.69317273765711,-2.1182457318509,0.38087448,-1.7101172,0.14660765,243.59167,-74.993225,-10.614825,STD
119564615734000,0.05504,-2.23703961807788,-9.6947982426472,-2.16027705430533,0.47678033,-1.675298,0.18112154,243.94958,-74.7348,-10.929844,STD
119564620725000,0.060031,-2.20483889230266,-9.69640826356515,-2.20190799901064,0.56169057,-1.6426166,0.21380283,244.3003,-74.48273,-11.240402,STD
119564625712000,0.065018,-2.17266397356072,-9.69801699414374,-2.24350557890353,0.636827,-1.59558,0.24037547,244.6366,-74.24699,-11.550184,STD
119564630796000,0.070102,-2.13986323426174,-9.69965701545146,-2.28591225549776,0.70096785,-1.5326608,0.26083946,244.95891,-74.02455,-11.859695,STD
119564635818000,0.075124,-2.1074625039786,-9.70127703649934,-2.32780177749937,0.7669413,-1.4413365,0.27366763,245.26003,-73.81403,-12.172547,STD
119564640951000,0.080257,-2.07434562852193,-9.70293286446404,-2.37061717304583,0.8268061,-1.3432927,0.28588495,245.54158,-73.6116,-12.488196,STD
119564645712000,0.085018,-2.04362880716032,-9.70446869086963,-2.41032964103661,0.8735373,-1.235475,0.29565877,245.79514,-73.41376,-12.81103,STD
119564650720000,0.090026,-2.01131840149366,-9.70608419572979,-2.45210238619473,0.91324353,-1.1160508,0.3032946,246.01825,-73.21985,-13.141633,STD
119564655661000,0.094967,-1.97944026363444,-9.70767808740592,-2.49331627074471,0.95203346,-0.9978484,0.29657507,246.21263,-73.02463,-13.483954,STD
119564660703000,0.100009,-1.9469104981849,-9.70930456015052,-2.53537261680846,0.9755518,-0.8912524,0.28038713,246.37772,-72.82435,-13.837277,WAL
119564665950000,0.105256,-1.92301876666099,-9.71031669216354,-2.57552726866269,0.9950995,-0.7684685,0.2602286,246.50623,-72.61801,-14.20546,WAL
119564670723000,0.110029,-2.02539582848983,-9.7027586689047,-2.56705310347229,1.0079277,-0.6762278,0.23426682,246.61557,-72.39922,-14.58869,WAL
119564675711000,0.115017,-2.13238446968033,-9.69486019414771,-2.55819721912917,1.024421,-0.589485,0.20005837,246.66603,-72.3434,-14.884773,WAL
119564680792000,0.120098,-2.24136788705983,-9.68681445432408,-2.54917621905953,1.0216721,-0.5152648,0.16615535,246.69504,-72.26773,-15.195907,WAL
119564685745000,0.125051,-2.34760580602866,-9.678971401904,-2.54038247504359,1.0192287,-0.44959682,0.12644911,246.70337,-72.17097,-15.526064,WAL
119564690724000,0.13003,-2.45440140436216,-9.67108717860507,-2.53154256964175,1.0073168,-0.3921755,0.0852157,246.69403,-72.04899,-15.873371,WAL
119564695735000,0.135041,-2.56188337729833,-9.66315228345525,-2.52264585022648,0.98471475,-0.33475417,0.05681047,246.6663,-71.90309,-16.235405,WAL
119564700725000,0.140031,-2.66891491690149,-9.65525064170759,-2.51378641500752,0.93859446,-0.30757064,0.031154128,246.63173,-71.72711,-16.613836,WAL
119564705721000,0.145027,-2.77607515174266,-9.64733949898787,-2.50491632716104,0.8918633,-0.23518312,0.01160644,246.56686,-71.52649,-17.007046,WAL
119564710942000,0.150248,-2.88806145800882,-9.63907206981662,-2.49564676578264,0.86009824,-0.18325958,-0.028405234,246.50075,-71.293976,-17.418062,WAL
119564715733000,0.155039,-2.99082460555166,-9.63148554364165,-2.48714064270969,0.8020661,-0.13591751,-0.04428773,246.41293,-71.03909,-17.834766,WAL
119564720755000,0.160061,-3.09854251975749,-9.62353323004309,-2.4782243934773,0.7312057,-0.08002335,-0.06811147,246.30716,-70.75125,-18.271809,WAL
119564725701000,0.165007,-3.20463029428199,-9.61570126209039,-2.46944307752681,0.64843345,-0.029321533,-0.08674286,246.18723,-70.438965,-18.717922,WAL
119564730785000,0.170091,-3.31367805928049,-9.60765077178074,-2.4604167511434,0.55771995,0.023823744,-0.11178834,246.04858,-70.0972,-19.179165,WAL
119564735775000,0.175081,-3.42070959888366,-9.59974913003307,-2.45155731592444,0.49693888,0.079107046,-0.12644911,245.89188,-69.73496,-19.649078,WAL
119564740716000,0.180022,-3.52669012737649,-9.59192507955707,-2.44278487716354,0.41172317,0.13194689,-0.13805555,245.71786,-69.34519,-20.131533,WAL
119564745716000,0.185022,-3.63393615904299,-9.584007602856,-2.43390768756539,0.34269542,0.1704314,-0.1591304,245.52924,-68.93311,-20.626867,WAL
119564750728000,0.190034,-3.74143958118549,-9.57607112421084,-2.4250091927122,0.2864958,0.20586158,-0.17989981,245.32263,-68.501366,-21.131624,WAL
119564755720000,0.195026,-3.84851401920132,-9.56816631547249,-2.4161462066174,0.22602014,0.21930063,-0.21410827,245.1085,-68.044334,-21.651772,WAL
119564760704000,0.20001,-3.95541686356649,-9.56027417469686,-2.40729742402595,0.16737708,0.204029,-0.24617869,244.88925,-67.56824,-22.182697,WAL
119564765705000,0.205011,-4.06268434443932,-9.55235511450045,-2.39841845898988,0.11728613,0.16065755,-0.25595254,244.67111,-67.075676,-22.722301,WAL
119564770721000,0.210027,-4.17027356340716,-9.54441230187394,-2.38951286238501,0.05131268,0.10445796,-0.27183503,244.45853,-66.559044,-23.278112,WAL
119564775700000,0.215006,-4.27706916174066,-9.53652807857501,-2.38067295698316,-0.0076358155,0.045814894,-0.2919936,244.25641,-66.02703,-23.843143,WAL
119564780747000,0.220053,-4.38532330610482,-9.52853617759294,-2.37171232180279,-0.094989546,-0.02321288,-0.29657507,244.0711,-65.48274,-24.413437,WAL
119564785726000,0.225032,-4.49211890443832,-9.52065195429402,-2.36287241640094,-0.18448131,-0.08155051,-0.30482176,243.89703,-64.921165,-24.996197,WAL
119564790724000,0.23003,-4.59932203769215,-9.51273764458363,-2.35399877767863,-0.27977628,-0.093462385,-0.3145956,243.72594,-64.34725,-25.586784,WAL
119564795706000,0.235012,-4.70618198364465,-9.50484867079868,-2.34515354596302,-0.39400807,-0.07086037,-0.31764993,243.55809,-63.762726,-26.183977,WAL
119564800729000,0.240035,-4.81392134705682,-9.49689477370478,-2.33623552129272,-0.52687126,-0.032375857,-0.3277292,243.38477,-63.16376,-26.792524,WAL
119564805730000,0.245036,-4.92118882792965,-9.48897571350837,-2.32735655625664,-0.6010914,0.07788532,-0.32559118,243.17657,-62.559105,-27.40573,WAL
119564810698000,0.250004,-5.02774848499349,-9.48110890865818,-2.31853618067191,-0.7635816,0.21960606,-0.321926,242.9412,-61.941692,-28.028505,WAL
119564815733000,0.255039,-5.13574523888165,-9.4731360096202,-2.30959685074657,-0.9074403,0.3885103,-0.3191771,242.65622,-61.31702,-28.658394,WAL
119564820722000,0.260028,-5.24275532927848,-9.46523595136787,-2.30073919096553,-1.0421361,0.5537493,-0.30207285,242.32092,-60.688847,-29.290575,WAL
119564826497000,0.265803,-5.36662449585329,-9.45609126577813,-2.29048603697966,-1.1575897,0.6948592,-0.28038713,241.93266,-60.05467,-29.928116,WAL
119564830726000,0.270032,-5.45733318943682,-9.44939466398437,-2.28297771001754,-1.2431108,0.8213083,-0.25045475,241.48894,-59.420013,-30.565792,WAL
119564835761000,0.275067,-5.56532994332498,-9.44142176494639,-2.27403838009219,-1.29198,0.93309665,-0.22113322,240.9972,-58.78405,-31.20457,WAL
119564840756000,0.280062,-5.67246872895982,-9.43351220572202,-2.26517006768364,-1.3075571,1.0656544,-0.17806722,240.44974,-58.153625,-31.837843,WAL
119564845771000,0.285077,-5.78003649872131,-9.42557097659084,-2.25626624651668,-1.3041973,1.2296717,-0.14966199,239.84723,-57.520786,-32.473526,WAL
119564850764000,0.29007,-5.88713238594348,-9.41766458435715,-2.24740148498397,-1.2678508,1.4737124,-0.109650314,239.16505,-56.89757,-33.099655,WAL
119564855687000,0.294993,-5.99272682872232,-9.40986903679727,-2.23866100410562,-1.217149,1.8209893,-0.080634214,238.38306,-56.273468,-33.726013,WAL
119564860745000,0.300051,-6.10121691435615,-9.40185971736647,-2.22968083910813,-1.1475104,2.208278,-0.047647487,237.49365,-124.34352,-34.343273,WAL
119564865735000,0.305041,-6.1930361485708,-9.39333654771027,-2.21512563573195,-1.0164797,2.5592198,0.01282817,236.48593,-124.94986,-34.945496,WAL
119564870756000,0.310062,-6.16482338695866,-9.37983298552745,-2.15532423681759,-0.78893244,2.794403,0.077579886,235.37213,-125.55187,-35.535378,WAL
119564875768000,0.315074,-6.13666119592101,-9.3663536280966,-2.09563003021358,-0.49235737,2.820365,0.16493362,234.37405,-126.451126,-36.417767,WAL
119564880756000,0.320062,-6.10863385974866,-9.35293881667101,-2.03622166977048,-0.10598512,2.5870142,0.26267207,233.37372,-127.33222,-37.271496,WAL
119564885773000,0.325079,-6.08044357394741,-9.33944601215574,-1.97646791188294,0.3368922,2.094657,0.37201694,232.4487,-128.1912,-38.091656,WAL
119564890757000,0.330063,-6.05243871358594,-9.32604195839769,-1.91710719246665,0.79320854,1.4147639,0.43890667,231.66939,-129.04387,-38.894684,WAL
119564896570000,0.335876,-6.01977574141877,-9.31040837804144,-1.84787287024216,1.1850786,0.63713247,0.4841107,231.10173,-129.88284,-39.677242,WAL
119564900732000,0.340038,-5.99638966019397,-9.29921502496339,-1.79830238183715,1.502423,0.24281894,0.49205196,230.63718,-130.72678,-40.452316,WAL
119564905723000,0.345029,-5.96834546716346,-9.28579214528714,-1.73885829062393,1.6111571,-0.46517387,0.47403142,230.57509,-131.5724,-41.245346,WAL
119564910687000,0.349993,-5.94045298585642,-9.27244187986681,-1.67973577634174,1.745242,-1.0219775,0.44623706,230.60016,-132.43259,-42.04505,WAL
119564915753000,0.355059,-5.91198737137183,-9.25881729392414,-1.61939841587567,1.7858646,-1.4477507,0.410196,230.8391,-133.30153,-42.86862,WAL
119564920765000,0.360071,-5.88382518033418,-9.24533793649329,-1.55970420927166,1.7525724,-1.7311921,0.36468655,231.23148,-134.18257,-43.715454,WAL
119564925756000,0.365062,-5.85578098730367,-9.23191505681704,-1.50026011805844,1.6872098,-1.8881844,0.3213151,231.73476,-135.07162,-44.58094,WAL
119564930791000,0.370097,-5.82748956035344,-9.21837384279783,-1.44029197555022,1.6349808,-1.9388863,0.28893927,232.30237,-135.96677,-45.46064,WAL
119564935863000,0.375169,-5.79899023215253,-9.20473312035384,-1.37988315354392,1.5824465,-1.9150625,0.24404067,232.89644,-136.87164,-46.35667,WAL
119564940765000,0.380071,-5.77144612591419,-9.19154959878041,-1.32149907517742,1.5580118,-1.8377881,0.20708331,233.48428,-137.7786,-47.25661,WAL
119564945764000,0.38507,-5.74335698126191,-9.17810520376908,-1.26195970191057,1.5607607,-1.7189748,0.16310102,234.03798,-138.69525,-48.165554,WAL
119564950777000,0.390083,-5.71518917127154,-9.16462315692135,-1.20225358504985,1.57084,-1.5641204,0.110872045,234.5362,-139.62013,-49.079556,WAL
119564955737000,0.395043,-5.68731916577538,-9.15128364916856,-1.14317871179448,1.5992452,-1.3903292,0.057421334,234.96622,-140.55486,-49.997543,WAL
119564960753000,0.400059,-5.65913449892684,-9.13779353407017,-1.08343686416364,1.6166549,-1.1896601,0.01863139,235.30634,-141.49675,-50.915268,WAL
119564966432000,0.405738,-5.62722446642429,-9.1225203355766,-1.01579851633758,1.6050484,-0.95905846,-0.02076942,235.54135,-142.45085,-51.83598,WAL
119564970762000,0.410068,-5.60289440114236,-9.11087516046176,-0.96422710480618,1.5812247,-0.71959925,-0.04917465,235.66565,-143.41026,-52.751263,WAL
119564975789000,0.415095,-5.57464792581389,-9.09735546177763,-0.904354244351594,1.5250251,-0.4822781,-0.06811147,235.66518,-144.37407,-53.659782,WAL
119564980767000,0.420073,-5.54667677916876,-9.08396754452089,-0.845064986475538,1.4737124,-0.25259277,-0.08277224,235.53287,-145.34186,-54.558346,WAL
119564985758000,0.425064,-5.51863258613825,-9.07054466484464,-0.785620895262321,1.4074335,-0.048563786,-0.105374254,235.27214,-146.3125,-55.4471,WAL
119564990771000,0.430077,-5.49046477614787,-9.05706261799691,-0.725914778401601,1.3435981,0.10629055,-0.13408493,234.893,-147.28519,-56.324368,WAL
119564995759000,0.435065,-5.46243743997553,-9.04364780657132,-0.666506417958498,1.2947289,0.15851954,-0.16768251,234.42946,-148.2616,-57.195415,WAL
119565000763000,0.440069,-5.43432020055964,-9.03018996447556,-0.60690749340812,1.2669345,0.23762658,-0.1863139,233.83691,-149.23816,-58.04934,WAL
119565005759000,0.445065,-5.40624791276553,-9.01675363771488,-0.54740385091138,1.2699889,0.21533,-0.22968534,233.22432,-150.22804,-58.91333,WAL
119565010735000,0.450041,-5.37828800402584,-9.00337109929192,-0.488138413548733,1.2681563,0.13316862,-0.27916542,232.55746,-151.22087,-59.77277,WAL
119565015762000,0.455068,-5.35004152869737,-8.98985140060779,-0.428265553094147,1.2858714,-0.03573562,-0.310625,231.90279,-152.2189,-60.637947,WAL
119565020763000,0.460069,-5.32194114613965,-8.97640162676268,-0.368702359313883,1.2986995,-0.25137106,-0.32528573,231.26917,-153.22229,-61.513317,WAL
119565025762000,0.465068,-5.29385200148737,-8.96295723175135,-0.309162986047028,1.2932017,-0.50518554,-0.3371976,230.70114,-154.22946,-62.405888,WAL
119565030856000,0.470162,-5.2652290563266,-8.94925734213588,-0.248492138393226,1.2718215,-0.7510588,-0.33322698,230.2072,-155.23114,-63.30905,WAL
119565035727000,0.475033,-5.23785913762261,-8.93615719248591,-0.190477277984575,1.2260065,-0.9828822,-0.33108896,229.80652,-156.2294,-64.231384,WAL
119565040771000,0.480077,-5.20951714009789,-8.92259177371472,-0.130401943166008,1.1695015,-1.1588113,-0.33017266,229.477,-157.21886,-65.16438,WAL
119565045749000,0.485055,-5.18154599345275,-8.90920385645799,-0.0711126852899525,1.07665,-1.2974777,-0.32711834,229.22684,-158.19594,-66.10889,WAL
119565050765000,0.490071,-5.15336132660422,-8.8957137413596,-0.0113708376591179,0.9963212,-1.3784174,-0.33444872,229.00737,-159.16615,-67.06051,WAL
119565055701000,0.495007,-5.12562617597336,-8.88243877961206,0.04741818943534,0.9089675,-1.4230106,-0.36346483,228.80751,-160.12903,-68.019905,WAL
119565060753000,0.500059,-5.09723922682687,-8.86885184550579,0.107588806307544,0.8368854,-1.4404203,-0.38453966,228.6008,-161.08084,-68.97642,WAL
119565065750000,0.505056,-5.01350161838972,-8.81110092912493,0.0973491191239841,0.7620544,-1.4535538,-0.4025602,228.3678,-162.02785,-69.93522,WAL
119565070759000,0.510065,-4.74604345522586,-8.60710748705349,-0.142909998900019,0.72326446,-1.4391985,-0.40286562,228.07513,-162.9662,-70.884056,WAL
119565075749000,0.515055,-4.49174830938338,-8.40417945308311,-0.389706720203753,0.6872234,-1.4080443,-0.38698313,228.94496,-163.8699,-72.01189,WAL
119565080746000,0.520052,-4.32923684888293,-8.20317858891868,-0.69334625016622,0.6945538,-1.3548992,-0.3555236,229.84988,-164.76532,-73.11889,WAL
119565085701000,0.525007,-4.16809130420018,-8.00386714566577,-0.994433676815013,0.7324274,-1.2788464,-0.31642818,230.5518,-165.60144,-74.11309,WAL
119565090721000,0.530027,-4.13025598845129,-7.82897003454743,-1.20755675507847,0.7959574,-1.1878275,-0.28405234,231.23979,-166.4291,-75.08597,WAL
119565095671000,0.534977,-4.11153921320699,-7.66051808015003,-1.40408406778206,0.8762862,-1.1447614,-0.27488935,231.94952,-167.25104,-76.04473,WAL
119565100727000,0.540033,-4.14459266420022,-7.52027159378771,-1.47266349646849,0.9071349,-1.07665,-0.2406809,232.21927,-168.0024,-76.86877,WAL
119565105670000,0.544976,-4.18673779020675,-7.38915393469186,-1.51480842688693,0.9660834,-1.022283,-0.2012801,-12.9315605,-168.75085,-77.682884,WAL
119565110716000,0.550022,-4.21725371762683,-7.32310885101748,-1.60939206294067,0.9831876,-0.956615,-0.17928895,-12.696099,-169.45287,-78.421104,WAL
119565115672000,0.554978,-4.24446072295787,-7.27322934124391,-1.71368567807395,0.9932669,-0.86070913,-0.15271631,-12.44021,-170.14188,-79.13508,WAL
119565120762000,0.560068,-4.27331738590256,-7.28397042919329,-1.77833726982827,0.97494096,-0.71868294,-0.113926366,-12.168229,-170.78665,-79.80395,WAL
119565125722000,0.565028,-4.30177231561502,-7.31716786369808,-1.82576236727236,0.94225967,-0.54428095,-0.09040806,-11.893065,-171.4258,-80.44989,WAL
119565130823000,0.570129,-4.29607954118864,-7.34311141151025,-1.70728238462479,0.89980453,-0.34880406,-0.06566802,-11.596808,-172.03343,-81.04557,WAL
119565135780000,0.575086,-4.27822287398909,-7.36543236204627,-1.53317883059996,0.79779,-0.17379116,-0.054061573,-11.322706,-172.6337,-81.61129,WAL
119565140756000,0.580062,-4.26255796289809,-7.38863772850319,-1.41596252308917,0.6747007,0.0030543262,-0.054367006,-11.0443125,-173.22571,-82.15733,WAL
119565145765000,0.585071,-4.24823565262739,-7.41250824562102,-1.33480276488854,0.514654,0.20097467,-0.04550946,-10.800779,-173.80603,-82.657,WAL
119565151552000,0.590858,-4.22235898281645,-7.46419147792706,-1.2749459597131,0.36254853,0.39645153,-0.040927973,-10.586154,-174.37436,-83.19881,WAL
119565155745000,0.595051,-4.2000479997424,-7.51084162092131,-1.24452199392868,0.24709499,0.5907067,-0.03848451,-10.400526,-174.93413,-83.691444,WAL
119565160745000,0.600051,-4.17344296388019,-7.56647021976967,-1.20824252125467,0.15974127,0.78038037,-0.028710667,-10.219384,-175.46672,-84.207214,WAL
119565165751000,0.605057,-4.14680600197495,-7.62216557293666,-1.17191951321346,0.09987647,0.9300423,-0.039095376,-10.055863,-175.9972,-84.67878,WAL
119565170754000,0.61006,-4.08302577396479,-7.7987384678863,-0.927132280495722,0.06719518,1.0259482,-0.06780604,-9.874268,-176.5331,-85.15967,WAL
119565175772000,0.615078,-3.99794518171535,-8.04452693872332,-0.563175955739156,0.050396383,1.040609,-0.09987647,-9.696642,-177.06604,-85.59869,WAL
119565180768000,0.620074,-3.78502597272003,-8.27656447555755,-0.0850318204301075,0.043066,0.98349303,-0.1282817,-9.521274,-177.6616,-86.0575,WAL
119565185775000,0.625081,-3.48903171405814,-8.5009475175229,0.468763915053763,0.049785517,0.8539896,-0.17348573,-9.338207,-178.26422,-86.479256,WAL
119565190753000,0.630059,-3.15510566757517,-8.68580689115527,0.847711619236856,0.043982297,0.6808093,-0.2452624,-9.173083,-178.95496,-87.03633,WAL
119565195766000,0.635072,-2.79210809666784,-8.8462008540531,1.11362843879902,0.063224554,0.5919284,-0.34025195,-8.987827,-179.65567,-87.487236,WAL
119565200760000,0.640066,-2.3544373105845,-9.05250356052977,1.3385779016528,0.062002823,0.46517387,-0.38698313,-8.823848,179.57426,-88.01846,WAL
119565205757000,0.645063,-1.75729367745184,-9.35631361252189,1.48000662088441,0.05955936,0.36743546,-0.51923543,-8.639944,178.76648,-88.14097,WAL
119565210705000,0.650011,-1.20719775932607,-9.66851793716551,1.3650850755005,0.042455133,0.26725355,-0.66645396,-8.477913,177.87671,-87.743355,WAL
119565215710000,0.655016,-0.694150487224975,-9.99629781774034,0.98029963382557,0.033292156,0.24251351,-0.8210029,-8.296189,176.96162,-86.95761,WAL
119565221262000,0.660568,-0.119454222074948,-10.4560246578765,0.638482623497571,0.07422013,0.31642818,-0.97066486,-8.127273,4.059792,-85.91871,WAL
119565225729000,0.665035,0.347062629011599,-10.8970951839001,0.426429488030138,0.12003502,0.41141775,-1.1233811,-7.939669,5.1126533,-84.79508,WAL
119565230765000,0.670071,0.765400790930946,-11.2561724968342,0.299066781535417,0.16676621,0.4886922,-1.2458596,-7.7438164,6.28334,-83.58023,WAL
119565235809000,0.675115,1.05691548245053,-11.4521090421448,0.303845707059755,0.20891592,0.52778757,-1.303281,-7.520424,7.468274,-82.35516,WAL
119565240653000,0.679959,0.9680661794307,-11.3721102077562,0.218637338441112,0.258396,0.6047566,-1.2651019,-7.2843475,8.770619,-81.04532,WAL
119565245731000,0.685037,0.364184870446079,-10.9168766509695,0.00495626256375968,0.31764993,0.7489208,-1.185384,-7.021871,10.066205,-79.74721,WAL
119565250657000,0.689963,-0.279526304672018,-10.4444053553833,-0.146973372469785,0.40042216,0.8863655,-1.0983357,-6.734125,11.385524,-78.428474,WAL
119565255719000,0.695025,-1.06221974993081,-9.89428378383615,-0.187226173235538,0.49266282,0.9990701,-1.0115929,73.6162,12.669947,-77.14834,WAL
119565260677000,0.699983,-1.8256608656745,-9.3560774846391,-0.230076491221431,0.5766568,1.1117748,-0.91965765,74.775696,13.802155,-76.03338,WAL
119565265705000,0.705011,-2.5832374881046,-8.81348856404805,-0.291501627536941,0.6423248,1.2205088,-0.8393288,75.92173,14.903575,-74.94996,WAL
119565270679000,0.709985,-3.30168355896646,-8.26251123218495,-0.318194833889393,0.6979135,1.3435981,-0.77579886,77.014824,15.808373,-74.06211,WAL
119565275743000,0.715049,-3.95241320603808,-7.66454350670898,-0.256639319909338,0.75228053,1.4688255,-0.72387534,78.14304,16.685766,-73.20252,WAL
119565280750000,0.720056,-4.54510514362913,-7.10614838762877,-0.174898313655341,0.8051204,1.565953,-0.68294734,79.246994,17.381113,-72.52342,WAL
119565285747000,0.725053,-4.60997330220495,-6.88992156867884,0.123494597151636,0.86254174,1.6120734,-0.6404922,80.37672,18.054747,-71.86562,WAL
119565291727000,0.731033,-4.68001121085968,-6.63208245236893,0.484405126252147,0.8765916,1.5909985,-0.61453044,81.25509,18.50186,-71.425446,WAL
119565295698000,0.735004,-4.64543526978483,-6.47072883624609,0.764852987730074,0.8762862,1.5650368,-0.593761,82.173706,18.933321,-71.0014,WAL
119565300672000,0.739978,-4.60212609554501,-6.26862032791191,1.11613671046772,0.84879726,1.4825699,-0.5555819,82.59832,19.248396,-70.67864,WAL
119565305719000,0.745025,-4.5233712840378,-6.09708638750254,1.349018058291,0.77304995,1.3762794,-0.5158757,83.02436,19.552628,-70.36656,WAL
119565310713000,0.750019,-4.44076097444625,-5.93186556535257,1.56283326079049,0.6609562,1.2699889,-0.4792238,83.421524,19.842709,-70.067726,WAL
119565315712000,0.755018,-4.33685274605805,-5.76381595940544,1.66854478257507,0.5546656,1.2009611,-0.44043383,83.37252,20.018545,-69.864914,WAL
119565320679000,0.759985,-4.23175133534197,-5.59660879096113,1.76409161482374,0.44226643,1.1585059,-0.4156938,83.32369,20.184465,-69.66962,WAL
119565325752000,0.765058,-4.12054848877133,-5.45810207924943,1.87453252450344,0.3481932,1.1377366,-0.37934732,83.025215,20.22666,-69.58224,WAL
119565330693000,0.769999,-4.01192095638287,-5.32586042339555,1.98315985962671,0.25289822,1.1139128,-0.33261612,82.75453,20.257437,-69.50338,WAL
119565335683000,0.774989,-3.97686229564092,-5.25826856364451,2.02696619426752,0.1563815,1.0864239,-0.2843578,82.37614,20.207422,-69.49394,WAL
119565340663000,0.779969,-3.94838361451035,-5.19656449019705,2.06493790127389,0.06566802,1.069625,-0.2507602,82.04205,20.149054,-69.49111,WAL
119565345690000,0.784996,-3.91345276186253,-5.18660554523282,2.08468610310421,-0.009468411,1.0348058,-0.22052236,81.56916,20.021711,-69.54217,WAL
119565350736000,0.790042,-3.87773618181818,-5.18214097272727,2.10254448636364,-0.06811147,1.0051788,-0.19242255,81.13278,19.887957,-69.597496,WAL
119565355616000,0.794922,-3.80344087355363,-5.21384726322318,2.04859614581466,-0.13958271,0.9398162,-0.15943582,80.60363,19.701159,-69.69393,WAL
119565360659000,0.799965,-3.71282006131554,-5.25915766934223,1.968044301032,-0.19394971,0.88147855,-0.12614368,80.094284,19.510048,-69.791306,WAL
119565365644000,0.80495,-3.57105749555912,-5.3509705446763,1.84063767726057,-0.24281894,0.8368854,-0.105374254,79.57913,19.317944,-69.88616,WAL
119565370593000,0.809899,-3.41890463458534,-5.45240571471375,1.7037000917924,-0.29626966,0.79290307,-0.07544186,79.04537,19.118557,-69.98311,WAL
119565375638000,0.814944,-3.25669481212121,-5.61142848163993,1.63672919304813,-0.35063666,0.7504479,-0.047036625,78.65032,18.97392,-70.040245,WAL
119565380610000,0.819916,-3.09637208619529,-5.7717513060408,1.57542927801545,-0.41905355,0.70463306,-0.014660766,78.23815,18.824099,-70.09963,WAL
119565385644000,0.82495,-2.91570812910284,-5.90819821247265,1.56617462647702,-0.4801401,0.68386364,-0.0033597588,78.06288,18.77149,-70.09125,WAL
119565390583000,0.829889,-2.73693391575492,-6.03992631389497,1.56147004967177,-0.54641896,0.6429357,0.0076358155,77.84753,18.713188,-70.084984,WAL
119565395660000,0.834966,-2.62280640290798,-6.20437826410943,1.69598522710924,-0.57848936,0.6114761,0.018020526,77.81498,18.75023,-70.005905,WAL
119565400648000,0.839954,-2.51770889936866,-6.36887886831835,1.84220786977234,-0.6411031,0.550695,0.025961773,77.74004,18.787964,-69.92331,WAL
119565405662000,0.844968,-2.4794500309815,-6.60229106792682,2.01619129664409,-0.70432764,0.49968776,0.032070424,77.76664,18.904388,-69.77407,WAL
119565410644000,0.84995,-2.45533620423532,-6.84825220145557,2.19463376564237,-0.7770206,0.4370741,0.029932396,77.74906,19.022394,-69.61933,WAL
119565415671000,0.854977,-2.50077484224492,-7.13537870912186,2.39371267563833,-0.8445212,0.3839288,0.028405234,77.68354,19.17831,-69.41986,WAL
119565420615000,0.859921,-2.55766599033744,-7.42457572924802,2.59283201574046,-0.9202685,0.33292156,0.021380283,77.58753,19.337517,-69.21482,WAL
119565425658000,0.864964,-2.62178699382597,-7.76958180686861,2.7699384824426,-0.9981538,0.27397305,0.008857546,77.42936,19.543957,-68.951096,WAL
119565430683000,0.869989,-2.68678114658499,-8.1224065150492,2.94170845591356,-1.0656544,0.2321288,-0.014966198,77.26762,19.755108,-68.68288,WAL
119565435721000,0.875027,-2.7201303296585,-8.57937450528151,3.20814281195775,-1.1420126,0.15699236,-0.036957346,77.01311,20.010927,-68.35198,WAL
119565440635000,0.879941,-2.74426139067788,-9.0523436036304,3.49288948317096,-1.2156218,0.064446285,-0.08460484,76.75187,20.278967,-68.00726,WAL
119565445675000,0.884981,-2.7906815,-9.6266058,3.81923064,-1.2794572,-0.057421334,-0.112399206,76.438576,20.601145,-67.59559,WAL
119565450872000,0.890178,-2.84322257149712,-10.2379924510557,4.16313568109405,-1.3228287,-0.2302962,-0.15577064,76.06979,20.936928,-67.15953,WAL
119565455728000,0.895034,-2.89042610240898,-10.9533500470846,4.4853906860115,-1.3295482,-0.39492437,-0.19028452,75.63909,21.355862,-66.61667,WAL
119565460694000,0.9,-2.93816241747422,-11.7258106900265,4.81520531709097,-1.3096951,-0.54275376,-0.21471913,75.14927,21.774727,-66.05933,WAL
119565465770000,0.905076,-2.88630468305872,-12.6151989995775,5.10080882999578,-1.2534955,-0.65393126,-0.2406809,74.618546,22.29067,-65.37779,WAL
119565470715000,0.910021,-2.76125890955851,-13.5555428736798,5.3408965187368,-1.1643091,-0.7257079,-0.2602286,74.06721,22.793324,-64.69656,WAL
119565475729000,0.915035,-2.51621167372047,-14.2553310344488,5.46501044202756,-1.0577132,-0.75228053,-0.29810223,73.58293,23.436914,-63.85771,WAL
119565480738000,0.920044,-2.2140371423622,-14.8313512440945,5.53111119779528,-0.95630956,-0.75686204,-0.3368922,73.11525,24.057802,-63.034737,WAL
119565485726000,0.925032,-1.8889196,-15.0069047117949,5.58322928820513,-0.85062987,-0.7648033,-0.36926803,72.79605,24.832146,-62.05949,WAL
119565490717000,0.930023,-1.55021219090909,-14.962337990303,5.62779600969697,-0.75747293,-0.8060367,-0.38240165,72.48586,25.574291,-61.1111,WAL
119565495693000,0.934999,-1.29449558204043,-14.6687141095354,5.51849472430945,-0.7199047,-0.8713993,-0.38087448,72.29303,26.424162,-60.065865,WAL
119565500738000,0.940044,-1.1206455440999,-14.1113713518362,5.24749295745582,-0.63591075,-0.9193522,-0.36132678,72.09609,27.22771,-59.05834,WAL
119565505722000,0.945028,-1.09915234724735,-13.5731650801219,4.93422261228864,-0.52320606,-0.90377516,-0.33444872,71.89702,28.026377,-58.04873,WAL
119565510690000,0.949996,-1.17398926970114,-13.0446291229847,4.59277922990562,-0.3998113,-0.8414669,-0.30024028,71.69871,28.7799,-57.079323,WAL
119565515703000,0.955009,-1.26929122484592,-12.6083947054549,4.22073420699108,-0.25137106,-0.7244862,-0.28099802,71.535324,29.445736,-56.20778,WAL
119565520722000,0.960028,-1.37982843244412,-12.2458327827247,3.82722184581915,-0.105068825,-0.5354234,-0.2565634,71.4296,30.069246,-55.387257,WAL
119565525737000,0.965043,-1.4890527846678,-11.8648311305366,3.39084632204003,0.032375857,-0.2938262,-0.22418754,71.41403,30.589895,-54.701565,WAL
119565530727000,0.970033,-1.59590466626917,-11.4577758121806,2.89220383598808,0.14905111,0.02076942,-0.19914207,71.51056,31.080648,-54.07096,WAL
119565535719000,0.975025,-1.71703955149331,-11.0598206879506,2.4060469545829,0.2302962,0.37843102,-0.14263703,71.77291,31.493008,-53.58239,WAL
119565540721000,0.980027,-1.85158651419343,-10.6696351845333,1.93064780813594,0.3100141,0.7629707,-0.086132,72.17072,31.879168,-53.155853,WAL
119565546175000,0.985481,-2.03771571918624,-10.2399417670166,1.4484326567536,0.3820962,1.1261301,-0.014660766,72.75672,32.190723,-52.87806,WAL
119565550729000,0.990035,-2.23593422410994,-9.87654133892436,1.08503220894925,0.45265114,1.4248432,0.07452556,73.45577,32.470863,-52.66489,WAL
119565555719000,0.995025,-2.46011235622849,-9.62374877426015,0.721457186620785,0.48624873,1.6597209,0.17104226,74.33999,32.69006,-52.589714,WAL
119565560688000,0.999994,-2.68936900136663,-9.49742351558352,0.389268808153574,0.5186246,1.8417587,0.26297748,75.30831,32.879704,-52.564274,WAL
119565565746000,1.005052,-2.88308340726712,-9.46687701511085,0.0709258714733075,0.5537493,1.9752327,0.34788775,76.38534,32.991173,-52.66046,WAL
119565570762000,1.010068,-3.03590111558803,-9.53373457550452,-0.225158256388309,0.5910121,2.0769417,0.4156938,77.51614,33.081524,-52.785957,WAL
119565575773000,1.015079,-3.09589682127807,-9.67372204550401,-0.41135933299634,0.6582073,2.1197023,0.453262,78.74916,33.13353,-52.978024,WAL
119565580810000,1.020116,-3.06249397247008,-9.88845400435256,-0.487708543677911,0.6936375,2.0760255,0.47861293,79.987076,33.173443,-53.174126,WAL
119565585734000,1.02504,-2.91617544894113,-10.1637863499641,-0.510568261764178,0.73364913,2.0152445,0.4636467,81.33722,33.22808,-53.3747,WAL
119565590764000,1.03007,-2.63952748007897,-10.5182415671213,-0.475987250987078,0.75686204,1.8161024,0.4437936,82.61161,33.27898,-53.54674,WAL
119565595687000,1.034993,-2.30938619942318,-10.8721325223516,-0.532602197901276,0.7641924,1.4966198,0.3839288,83.86981,33.388794,-53.64106,WAL
119565600695000,1.040001,-1.77737672117582,-11.2551798044371,-0.889048511662784,0.7703011,1.1383474,0.31215215,85.028755,33.50784,-53.691677,WAL
119565605658000,1.044964,-1.39765916456805,-11.5366793404134,-1.27889093408896,0.7837401,0.7834347,0.24190263,86.09247,33.742878,-53.589687,WAL
119565610715000,1.050021,-1.21314672382132,-11.6889018318888,-1.72633365829127,0.8051204,0.4801401,0.17623462,87.02192,33.994156,-53.435577,WAL
119565616607000,1.055913,-1.29454363983691,-11.8929158770764,-1.98113787940199,0.8176431,0.13194689,0.08002335,87.90957,34.40506,-53.109043,WAL
119565620720000,1.060026,-1.61971539915433,-12.0594673255814,-1.91768973023256,0.75777835,0.04428773,0.03573562,88.763664,34.818222,-52.77609,WAL
119565625691000,1.064997,-2.63106040389356,-12.2604056934064,-1.54593943600939,0.6988298,-0.06505715,-0.06566802,89.60145,35.340412,-52.33292,WAL
119565630804000,1.07011,-4.87770039911955,-12.4663877653101,-0.587884017254158,0.4972443,-0.03023783,-0.18906279,90.44965,35.887432,-51.88009,WAL
119565635686000,1.074992,-6.57484527795766,-12.3025540386052,0.0260277382967717,0.19272798,0.116980694,-0.3145956,91.28685,36.43537,-51.431984,WAL
119565640725000,1.080031,-7.27288985292653,-11.285535743462,-0.0479372475800364,-0.105374254,0.30451632,-0.3726278,92.13925,37.002075,-50.97952,WAL
119565645695000,1.085001,-7.84397727923682,-10.2364965165886,-0.162940259414168,-0.32742378,0.42394048,-0.3359759,92.801895,37.190212,-50.864735,WAL
119565650729000,1.090035,-7.98326971934841,-9.00207565776627,-0.436722261275281,-0.40530908,0.4166101,-0.25289822,93.48476,37.386192,-50.75348,WAL
119565655713000,1.095019,-8.04912574147176,-7.86275855385042,-0.714755458750116,-0.3747658,0.3032946,-0.16249016,94.12547,37.26997,-50.954624,WAL
119565660697000,1.100003,-7.84173499098641,-7.03760729268744,-1.01922302876028,-0.24740042,0.09621128,-0.06291912,94.70686,37.13174,-51.163776,WAL
119565665849000,1.105155,-7.62845135845824,-6.21492431877516,-1.31938463990578,-0.07880162,-0.16890424,0.008552114,95.200005,36.75441,-51.5967,WAL
119565670720000,1.110026,-7.44065814132762,-5.81936002561028,-1.41927460197002,0.11056661,-0.4474588,0.061391957,95.58184,36.3557,-52.022076,WAL
119565675699000,1.115005,-7.24870116573876,-5.41502526567024,-1.52137932812848,0.2687807,-0.7257079,0.089186326,95.85114,35.886044,-52.50123,WAL
119565680792000,1.120098,-7.10102260089425,-5.12716075333398,-1.44340202731337,0.40194935,-0.9569204,0.10323623,96.00698,35.40407,-52.963886,WAL
119565685683000,1.124989,-6.9780943899689,-4.89951612781882,-1.2977094631804,0.45906523,-1.0503827,0.1142318,96.09299,34.91847,-53.413616,WAL
119565690722000,1.130028,-6.91052789599789,-4.74129905286993,-1.06364081747235,0.45845437,-1.237613,0.12156218,96.01837,34.41023,-53.85893,WAL
119565695701000,1.135007,-6.87537468773038,-4.62579516735124,-0.787436416461295,0.40194935,-1.3970488,0.14721853,95.90517,33.900032,-54.29923,WAL
119565700726000,1.140032,-6.8442479393419,-4.58570575851928,-0.517357314223136,0.28619036,-1.5564847,0.17501289,95.65367,33.32169,-54.780323,WAL
119565705692000,1.144998,-6.8149060028072,-4.5710348413162,-0.253279701579434,0.115453534,-1.7311921,0.20647246,95.30765,32.749386,-55.24395,WAL
119565710696000,1.150002,-6.76004935489274,-4.65493592973847,-0.15960031034499,-0.08460484,-1.922393,0.22602014,94.80725,32.08427,-55.768196,WAL
119565715759000,1.155065,-6.69830624594965,-4.76417393624253,-0.107356103548242,-0.29352075,-2.1416936,0.25411993,94.18787,31.430248,-56.26768,WAL
119565720722000,1.160028,-6.58860270154634,-4.98042046555879,-0.173313374878602,-0.47067168,-2.36863,0.28252518,93.39934,30.685467,-56.819363,WAL
119565725746000,1.165052,-6.4629914519028,-5.23164266216488,-0.274768489944774,-0.6178902,-2.5686884,0.32467487,92.48576,29.95608,-57.33787,WAL
119565730835000,1.170141,-6.34256578307956,-5.46560171989368,-0.420945469961258,-0.73884153,-2.7302623,0.36957347,91.44963,29.26515,-57.79433,WAL
119565735844000,1.17515,-6.22587111143346,-5.6903473226597,-0.576538567070907,-0.82619524,-2.855184,0.40775254,90.30501,28.586185,-58.216286,WAL
119565740763000,1.180069,-6.071261645582,-5.93424486762308,-0.782684564982067,-0.8924741,-2.9562824,0.46089783,89.1178,28.039751,-58.50045,WAL
119565745775000,1.185081,-5.88345997376372,-6.20029714524508,-1.03308672144332,-0.9456194,-3.004846,0.5112942,87.87741,27.497875,-58.76509,WAL
119565750774000,1.19008,-5.73031666473323,-6.45914695419361,-1.27712370641673,-0.9767735,-3.0115657,0.5580254,86.67237,27.091703,-58.903553,WAL
119565755682000,1.194988,-5.5925755492118,-6.71088068454931,-1.51460836611762,-0.98624194,-2.9633074,0.6041457,85.457924,26.679398,-59.041992,WAL
119565760747000,1.200053,-5.43896361563486,-6.95900976539827,-1.76580875053233,-0.99173975,-2.8817568,0.6462954,84.35237,26.416954,-59.057858,WAL
119565765777000,1.205083,-5.28225486809937,-7.20119608371451,-2.01749266486593,-0.9841039,-2.765998,0.69058317,83.27951,26.143278,-59.09046,WAL
119565770758000,1.210064,-5.12568657609222,-7.47453956322774,-2.29348716322774,-0.93859446,-2.6105325,0.74067414,82.3622,25.969822,-59.06573,WAL
119565775766000,1.215072,-4.9677225741548,-7.762591495418,-2.581539095418,-0.88056225,-2.3979516,0.79076505,81.51962,25.783419,-59.075127,WAL
119565780763000,1.220069,-4.78403309182068,-8.08347662900118,-2.85946771268187,-0.79229224,-2.1539109,0.8246681,80.8705,25.696718,-59.03542,WAL
119565785772000,1.225078,-4.58596486197405,-8.42302232064491,-3.13299033275659,-0.68936145,-2.0320432,0.86376345,80.25131,25.588707,-59.023006,WAL
119565790754000,1.23006,-4.39135833606557,-8.76089463934426,-3.4278688,-0.61941737,-1.7537941,0.87995136,79.94326,25.578146,-59.008423,WAL
119565795702000,1.235008,-4.19955073335357,-9.09655750597045,-3.73476086419753,-0.46853364,-1.4306464,0.9101892,79.69869,25.536354,-59.034115,WAL
119565800713000,1.240019,-4.01292035988706,-9.4098741029439,-4.05127121896871,-0.31581733,-1.070236,0.9285152,79.72557,25.589418,-59.04335,WAL
119565805723000,1.245029,-3.83080862233846,-9.7074714423255,-4.37107725479541,-0.12858713,-0.65576386,0.9477574,79.91999,25.616358,-59.119522,WAL
119565810673000,1.249979,-3.63600239772085,-9.973160441517,-4.57777559401951,0.08124508,-0.2098322,0.9492846,80.42852,25.722881,-59.195065,WAL
119565815732000,1.255038,-3.41957386709819,-10.2116736817394,-4.66169702006564,0.30451632,0.22510384,0.9560041,81.123856,25.80399,-59.334675,WAL
119565820654000,1.25996,-3.21179788113055,-10.4313025711397,-4.66618964495905,0.5128214,0.6252206,0.9602802,82.155914,25.954615,-59.479076,WAL
119565825769000,1.265075,-3.00375010526848,-10.6244896401052,-4.45318809323491,0.68569624,0.9786061,0.9502009,83.38723,26.090601,-59.667553,WAL
119565830779000,1.270085,-2.81305788802505,-10.7849984501927,-4.1986667327553,0.82527894,1.2666291,0.93951076,84.85075,26.274864,-59.835953,WAL
119565835845000,1.275151,-2.64946791424855,-10.8831524442197,-3.83876891734104,0.90224797,1.5308284,0.9129381,86.499695,26.457329,-60.024628,WAL
119565840698000,1.280004,-2.50315998728393,-10.9642392829326,-3.47482063719452,0.9428705,1.7412714,0.872621,88.25005,26.684486,-60.15192,WAL
119565845756000,1.285062,-2.38766739608583,-11.0027365620902,-3.02728712894894,0.94714653,1.9178114,0.8216137,90.13953,26.919626,-60.275425,WAL
119565850713000,1.290019,-2.27503790755473,-11.0249944526316,-2.57107876183512,0.8958339,2.062892,0.76144356,92.042984,27.191889,-60.330112,WAL
119565855737000,1.295043,-2.16298885469958,-10.9891389578947,-2.04220703205403,0.79351395,2.1890357,0.70646566,94.04387,27.480532,-60.365334,WAL
119565860796000,1.300102,-2.0369705822756,-10.9436647267833,-1.49672927919557,0.627664,2.3377812,0.6966918,96.00406,27.785542,-60.34984,WAL
119565865730000,1.305036,-1.76301777962522,-10.7920122934051,-0.816739308794906,0.34880406,2.504853,0.70402217,98.046295,28.112762,-60.312458,WAL
119565871075000,1.310381,-1.45716342595904,-10.6496218950101,-0.0573310009518316,-0.0421497,2.7015514,0.7189884,99.99755,28.443546,-60.236652,WAL
119565875740000,1.315046,-1.15648984591866,-10.6066685520623,0.690057726982982,-0.5290093,2.862209,0.7147123,102.01382,28.793537,-60.141724,WAL
119565880759000,1.320065,-0.856209430989421,-10.563515977598,1.44639586826385,-1.0283916,2.92299,0.68783426,103.84571,29.144064,-60.003586,WAL
119565885728000,1.325034,-0.920369672277536,-10.5684514798797,1.45133121594068,-1.4789047,3.0127873,0.6563747,105.76933,29.510706,-59.848392,WAL
119565890686000,1.329992,-0.994908432319875,-10.5673179954052,1.44362518417245,-1.6771306,3.0534098,0.57604593,107.412895,29.898151,-59.615974,WAL
119565895706000,1.335012,-1.15000611479128,-10.5203187423013,1.34022677826767,-2.017077,3.0329459,0.46914452,109.05547,30.315039,-59.346252,WAL
119565900702000,1.340008,-1.29953453471133,-10.4709962516037,1.2335582611119,-2.2806654,2.9507847,0.35613444,110.66342,30.747972,-59.033928,WAL
119565905715000,1.345021,-1.38935799037776,-10.3897270534569,1.07957508706344,-2.4565945,2.8050933,0.24770586,112.19889,31.207523,-58.668903,WAL
119565910696000,1.350002,-1.47860806671418,-10.3089766293656,0.926574849693514,-2.5857925,2.5912905,0.13805555,113.656555,31.670012,-58.274406,WAL
119565915789000,1.355095,-1.46141187824734,-10.1566447369002,0.73736990264204,-2.6209173,2.3374758,0.027183503,114.97832,32.15503,-57.82895,WAL
119565920700000,1.360006,-1.42364307406143,-9.99612720819113,0.548525477474403,-2.5934284,2.0421226,-0.065973446,116.12651,32.65702,-57.342274,WAL
119565925720000,1.365026,-1.42138234515357,-9.82090656162744,0.625548468145193,-2.4825563,1.7690657,-0.118507855,117.170425,146.85063,-56.846024,WAL
119565930708000,1.370014,-1.42614591499801,-9.64465427842042,0.754164983270842,-2.3359487,1.4624114,-0.1469131,118.0101,146.34741,-56.325382,WAL
119565935769000,1.375075,-1.5016349830005,-9.48270750562175,1.05750915402752,-2.194228,1.138042,-0.16493362,118.731186,145.85379,-55.804558,WAL
119565941396000,1.380702,-1.60111059796946,-9.30636399228058,1.4328037556637,-2.080607,0.7693848,-0.18692477,119.251884,145.35742,-55.27888,WAL
119565945691000,1.384997,-1.71739959221892,-9.13839195417079,1.70197508862512,-2.0134118,0.3662137,-0.22113322,119.547676,144.89485,-54.791836,WAL
119565950729000,1.390035,-1.89768651792505,-8.90507978777888,1.99891826363337,-1.9917262,-0.057421334,-0.25717425,119.64468,144.42964,-54.30897,WAL
119565955719000,1.395025,-1.989516204903,-8.73850772888717,1.9988952801467,-1.981036,-0.44990227,-0.28496864,119.46043,144.02838,-53.906986,WAL
119565960689000,1.399995,-2.03086069520317,-8.60988061760448,1.8289232948171,-1.9764545,-0.8078693,-0.30818152,119.09694,143.6211,-53.50732,WAL
119565965741000,1.405047,-2.02233934094148,-8.52770152343671,1.47345363363445,-1.9193386,-1.1074986,-0.30848694,118.537186,143.31001,-53.215714,WAL
119565970721000,1.410027,-1.97446975949011,-8.48461900010037,0.980396594790726,-1.8161024,-1.3231341,-0.301462,117.86357,142.99623,-52.92436,WAL
119565975727000,1.415033,-1.89592142943389,-8.47114757334362,0.480033598292989,-1.6569719,-1.461495,-0.2770274,117.154236,142.71661,-52.665455,WAL
119565980740000,1.420046,-1.79406127248529,-8.4804072887453,-0.0246370386729675,-1.4602734,-1.5048665,-0.23365596,116.40595,142.44563,-52.413876,WAL
119565985813000,1.425119,-1.70176355030365,-8.48963056516864,-0.460906324731384,-1.3582588,-1.5503759,-0.21044308,115.72591,142.14053,-52.120605,WAL
119565990719000,1.430025,-1.62274752255442,-8.49841030206484,-0.812088741586471,-1.1459832,-1.5436565,-0.15882497,115.06567,141.85663,-51.847042,WAL
119565995695000,1.435001,-1.57577557965979,-8.51628987770978,-1.13364625287833,-0.9239337,-1.4969252,-0.09773844,114.540474,141.53336,-51.52863,WAL
119566000725000,1.440031,-1.59076509444041,-8.55126509915984,-1.39346471776787,-0.7098254,-1.4071281,-0.052534413,114.04888,141.22296,-51.221607,WAL
119566005727000,1.445033,-1.62798596844378,-8.58761884086345,-1.57257233614458,-0.51007247,-1.2846496,-0.01282817,113.695045,140.89677,-50.896572,WAL
119566010858000,1.450164,-1.69705628614458,-8.62708787349398,-1.64657619277108,-0.3436117,-1.1487321,0.020463986,113.395134,39.414906,-50.58502,WAL
119566015687000,1.454993,-1.78922834826083,-8.69541265500456,-1.67311213283643,-0.20891592,-0.9764681,0.045814894,113.23618,39.720196,-50.279236,WAL
119566020724000,1.46003,-1.92130787676706,-8.80792455460907,-1.64376109812392,-0.11789699,-0.78984874,0.07391469,113.14851,40.01134,-49.98729,WAL
119566025722000,1.465028,-2.05694572062901,-8.91016242730896,-1.60321564743545,-0.060170226,-0.573297,0.09560041,113.17403,40.28671,-49.711323,WAL
119566030770000,1.470076,-2.19935482151274,-9.00230963923064,-1.5487650818489,-0.057726767,-0.33567044,0.10903945,113.29327,40.55277,-49.445084,WAL
119566035665000,1.474971,-2.35010165423856,-9.09759918454614,-1.49055279037617,-0.08246681,-0.08032878,0.119729586,113.51764,40.79315,-49.20499,WAL
119566040721000,1.480027,-2.58361527104276,-9.23251814628657,-1.39714743035045,-0.13347405,0.16798794,0.12644911,113.8429,41.02758,-48.97136,WAL
119566045666000,1.484972,-2.79863610981767,-9.36076562813063,-1.31272103448207,-0.20922135,0.4334089,0.12705997,114.28153,41.230682,-48.769093,WAL
119566050730000,1.490036,-2.98325690757363,-9.48222654578241,-1.24470286986576,-0.29229903,0.6774496,0.11636983,114.81653,138.56761,-48.5675,WAL
119566055669000,1.494975,-3.13957407377271,-9.59563283629687,-1.17773535308272,-0.376293,0.91751957,0.12583824,115.45601,138.41284,-48.41107,WAL
119566060705000,1.500011,-3.23744854884036,-9.69816809335137,-1.10782503460572,-0.46731192,1.1319333,0.12980886,116.185715,138.25562,-48.248974,WAL
119566065730000,1.505036,-3.32763401549124,-9.80171162372605,-1.02208700228292,-0.54367006,1.325883,0.15424347,117.00332,138.14021,-48.1243,WAL
119566070722000,1.510028,-3.39097436543009,-9.90890276600082,-0.880789083326539,-0.63071835,1.4905112,0.17867808,117.89487,138.02777,-47.996136,WAL
119566075730000,1.515036,-3.45542755704698,-10.0210030805369,-0.724816489127517,-0.71929383,1.6236799,0.19394971,118.84311,137.93614,-47.88188,WAL
119566080740000,1.520046,-3.52251345581655,-10.1462301974273,-0.528031301263982,-0.8164214,1.6722436,0.20066923,119.818726,137.85054,-47.765434,WAL
119566085729000,1.525035,-3.58924366376582,-10.2669628599684,-0.321585430041535,-0.8732319,1.7803668,0.20799962,120.8463,137.77756,-47.65363,WAL
119566090718000,1.530024,-3.65539290949367,-10.3567372310127,-0.0333635092958861,-1.0033462,1.8286251,0.19853121,121.861,137.70453,-47.532013,WAL
119566095706000,1.535012,-3.71416267603208,-10.4354433264033,0.26179070046926,-1.1420126,1.8148806,0.18509217,122.86107,137.6536,-47.428455,WAL
119566100728000,1.540034,-3.69511715990496,-10.397351995842,0.633178533424413,-1.2873985,1.7437148,0.15515977,123.84888,137.59764,-47.31048,WAL
119566105733000,1.545039,-3.67238664219346,-10.3541250596779,1.00747722684108,-1.450805,1.5876387,0.1255328,124.74965,137.57005,-47.222687,WAL
119566110694000,1.55,-3.60161398890234,-10.2435427023089,1.43211286946281,-1.5897768,1.3313808,0.09315695,125.57127,137.53494,-47.12483,WAL
119566115690000,1.554996,-3.5303420324737,-10.1321801831766,1.85974432895447,-1.7272215,0.9954049,0.061086524,126.24569,137.53844,-47.07801,WAL
119566120720000,1.560026,-3.43558332014175,-9.98755086050187,2.43674283123264,-1.8396207,0.5549711,0.018020526,126.76451,137.53024,-47.027332,WAL
119566126923000,1.566229,-3.3269888192656,-9.80192612090755,3.1764521060006,-1.9339994,0.0033597588,-0.051618114,127.09185,137.50699,-46.97396,WAL
119566130771000,1.570077,-3.36732783711812,-9.65157152323614,3.7485330674495,-1.9996674,-0.61361414,-0.07880162,127.15642,137.53062,-47.001957,WAL
119566135654000,1.57496,-3.41851687666434,-9.46077591501642,4.47448715652304,-1.9853121,-1.2883148,-0.13072516,126.906235,137.59909,-47.119236,WAL
119566140716000,1.580022,-3.54968114544335,-9.45993319396552,4.36153362518473,-1.9004018,-1.9746219,-0.18081611,126.39482,137.65549,-47.243557,WAL
119566145705000,1.585011,-3.69678301878079,-9.50406362284483,4.05261975261699,-1.7269161,-2.5854871,-0.22632557,125.634125,137.69217,-47.36391,WAL
119566150730000,1.590036,-3.81028460028668,-9.56560043442203,3.35559163755503,-1.4779885,-3.0778446,-0.27183503,124.58857,137.86096,-47.643154,WAL
119566155649000,1.594955,-3.91639529202416,-9.62830244947271,2.61764015516535,-1.1957687,-3.4110715,-0.31123585,123.35168,138.01309,-47.89383,WAL
119566160689000,1.599995,-3.939135716134,-9.66377254023874,1.73394036723142,-0.86070913,-3.5341609,-0.34055737,122.04813,138.1582,-48.110424,WAL
119566165719000,1.605025,-3.95304733646515,-9.69623269715056,0.838958878205622,-0.52473325,-3.4535267,-0.3640757,120.69876,138.29468,-48.287575,WAL
119566170720000,1.610026,-3.83469123573761,-9.6523398912942,0.00605954649622087,-0.20311269,-3.1963525,-0.36041048,119.475235,41.63519,-48.36349,WAL
119566175741000,1.615047,-3.69111331152375,-9.59401158505179,-0.819513588009704,0.106901415,-3.0091221,-0.3475823,118.27618,41.56138,-48.412468,WAL
119566180751000,1.620057,-3.42112926978531,-9.45587616985898,-1.51118018824458,0.40653083,-2.5781567,-0.33017266,117.409546,41.60634,-48.32772,WAL
119566185660000,1.624966,-3.10447980953484,-9.28765586802778,-2.13458366619659,0.5458081,-2.1062634,-0.28099802,116.66149,41.627686,-48.251984,WAL
119566190719000,1.630025,-2.75486471303589,-9.13528975534747,-2.48746496440834,0.8167268,-1.6536123,-0.20005837,116.20512,41.742214,-48.08589,WAL
119566195707000,1.635013,-2.40404039789773,-8.99057502184889,-2.75935387045809,1.0668762,-1.2406673,-0.11453723,115.944855,41.830395,-47.94703,WAL
119566200726000,1.640032,-2.07571274223043,-8.9125286683679,-2.82143401023998,1.3096951,-0.88025683,-0.025045475,115.9271,41.973915,-47.765327,WAL
119566205720000,1.645026,-1.76410520067325,-8.87617425724834,-2.75391896969269,1.5201381,-0.57818395,0.06169739,116.062904,42.08231,-47.621456,WAL
119566210690000,1.649996,-1.53372607968285,-8.9121327728444,-2.66928472560951,1.7076738,-0.36743546,0.116675265,116.340996,42.2349,-47.440685,WAL
119566215738000,1.655044,-1.32291104340932,-8.9696279419227,-2.57825092469772,1.806634,-0.22937989,0.14752395,116.716415,42.362213,-47.288536,WAL
119566220724000,1.66003,-1.17587656486486,-9.12436781081081,-2.48815791081081,1.8432859,-0.13041973,0.16707164,117.14743,42.511204,-47.114323,WAL
119566225770000,1.665076,-1.04622996363275,-9.3116353799682,-2.39692523805644,1.8368717,-0.05222898,0.1695151,117.62992,42.65134,-46.951126,WAL
119566230765000,1.670071,-0.955192129973733,-9.55754736686448,-2.34683663861271,1.8081611,0.03390302,0.15515977,118.14058,42.82715,-46.752373,WAL
119566235759000,1.675065,-0.876093806615429,-9.82275893783442,-2.30961377531861,1.7574593,0.13988814,0.12583824,118.69461,43.00455,-46.55661,WAL
119566240750000,1.680056,-0.778857469150849,-10.1128332296703,-2.29175369295704,1.7024814,0.26297748,0.07574729,119.28447,43.22802,-46.316822,WAL
119566245764000,1.68507,-0.673323137762238,-10.4150451923077,-2.28215972202797,1.6300939,0.41996986,0.021380283,119.93396,43.460556,-46.0758,WAL
119566250761000,1.690067,-0.562601990403782,-10.7264215491432,-2.21341002639354,1.5354098,0.6020077,-0.047647487,120.64795,43.754303,-45.78058,WAL
119566255741000,1.695047,-0.44987599733701,-11.0411149783337,-2.11947174788261,1.4220943,0.79901177,-0.12858713,121.43261,44.067013,-45.476086,WAL
119566260753000,1.700059,-0.361531520364532,-11.3107842827586,-1.99348554492611,1.323745,0.9868528,-0.19608775,122.2891,44.44836,-45.11079,WAL
119566266514000,1.70582,-0.274560904550739,-11.5934388082759,-1.83041558706404,1.2104294,1.1682798,-0.2452624,123.21794,44.84837,-44.737183,WAL
119566270755000,1.710061,-0.398109547390006,-11.8789680262791,-1.72460503183357,1.0961977,1.3322971,-0.30024028,124.199554,45.320293,-44.29578,WAL
119566275808000,1.715114,-0.619691660259805,-12.2498776415489,-1.60417996010352,0.99173975,1.409877,-0.35888332,125.20982,45.805862,-43.845123,WAL
119566280831000,1.720137,-0.965261142187966,-12.627551066733,-1.5243085920736,0.906524,1.5460999,-0.39584067,126.27792,46.334633,-43.353973,WAL
119566285869000,1.725175,-1.38272224808553,-13.0114226166087,-1.4667277844356,0.8720101,1.641395,-0.47158796,127.350044,46.886738,-42.838966,WAL
119566290758000,1.730064,-1.76221162384706,-13.3468634367363,-1.31512928178952,0.84329945,1.6893479,-0.5571091,128.44142,47.44995,-42.31147,WAL
119566295770000,1.735076,-2.13587316428853,-13.6684967327552,-1.10228404363421,0.8481864,1.6563611,-0.63713247,129.52588,48.025536,-41.76857,WAL
119566301402000,1.740708,-2.55269268201079,-13.9509425818509,-0.723894024005597,0.88789266,1.525636,-0.68875057,130.59258,48.58223,-41.239372,WAL
119566305762000,1.745068,-2.8740124813312,-14.134554094943,-0.369190394023586,0.9483683,1.3090842,-0.6945538,131.60178,49.138557,-40.70488,WAL
119566310765000,1.750071,-3.23111333941541,-14.3101392784175,0.0812374641511663,1.0097603,1.0085385,-0.6927212,132.51047,49.66444,-40.190414,WAL
119566315794000,1.7551,-3.58186329781518,-14.4618145321327,0.564703648174392,1.0815369,0.65668017,-0.68844515,133.31215,50.17852,-39.680515,WAL
119566320727000,1.760033,-3.89121423015209,-14.518687122832,0.929648749977764,1.1328496,0.2602286,-0.6899723,133.95708,50.625786,-39.223537,WAL
119566326549000,1.765855,-4.22347995942364,-14.4988504818998,1.25695518955795,1.2235631,-0.14905111,-0.70249504,134.47078,51.060047,-38.769646,WAL
119566330772000,1.770078,-4.42630145029895,-14.3678620035873,1.44787171621915,1.3460416,-0.52778757,-0.71929383,134.83926,51.407135,-38.38395,WAL
119566335770000,1.775076,-4.58760297626916,-13.9724131152299,1.57795348158496,1.4963144,-0.8402451,-0.7324274,135.09564,51.739532,-37.99841,WAL
119566340706000,1.780012,-4.70281936895258,-13.558604552948,1.60110902956622,1.681712,-1.0891727,-0.7330383,135.25839,51.97209,-37.688465,WAL
119566345781000,1.785087,-4.76826426892373,-13.1051640172165,1.49826684167548,1.8820758,-1.2357804,-0.72387534,135.36385,52.18465,-37.37816,WAL
119566350773000,1.790079,-4.81535640317178,-12.671083684497,1.26688430982937,2.0839667,-1.2657127,-0.7189884,135.43504,52.313835,-37.124313,WAL
119566355640000,1.794946,-4.83487295599288,-12.2661159649325,0.84240010877002,2.2858577,-1.1682798,-0.6957755,135.5183,52.40993,-36.881176,WAL
119566360622000,1.799928,-4.86658912989233,-11.9188780576988,0.360858037028632,2.4740043,-0.956615,-0.6737844,135.67125,52.422115,-36.706768,WAL
119566375693000,1.814999,-5.00596615412583,-11.1174590222587,-1.26985511851866,2.9749138,-0.03940081,-0.61666846,136.7152,52.263897,-36.33931,WAL
119566380631000,1.819937,-5.05597004427215,-10.8824321508044,-1.76619403679008,3.0390546,0.3735441,-0.56199604,137.37207,52.167072,-36.299606,WAL
119566385640000,1.824946,-5.11640951792983,-10.7057636819151,-2.18462010903276,3.1410692,0.7684685,-0.5039638,138.09933,52.043922,-36.28089,WAL
119566390625000,1.829931,-5.19579536413862,-10.5248723731793,-2.57318355524862,3.2323935,1.1136073,-0.41874814,138.96432,51.91,-36.31282,WAL
119566395651000,1.834957,-5.33601192887996,-10.3266344123556,-2.87779247679558,3.2919528,1.4068227,-0.31887165,139.94704,51.749557,-36.387726,WAL
119566400675000,1.839981,-5.45596145145089,-10.1346391917783,-3.14722452855283,3.3224962,1.6490307,-0.20066923,141.03986,51.568233,-36.518307,WAL
119566405653000,1.844959,-5.51803616696429,-9.96171712053571,-3.31571283705357,3.3041701,1.8643607,-0.06688975,142.2193,51.35805,-36.696743,WAL
119566410624000,1.84993,-5.58504710685077,-9.82315283653744,-3.43689263166224,3.2458324,2.0308216,0.051923547,143.47685,51.11296,-36.941444,WAL
119566415660000,1.854966,-5.69774331927775,-9.98707450281466,-3.13978483886352,3.0818152,2.1157317,0.11301007,144.77884,50.86515,-37.210445,WAL
119566420650000,1.859956,-5.78849836678174,-10.1151614190641,-2.67006483003452,2.7864618,1.9388863,0.09101892,146.04364,50.624695,-37.48702,WAL
119566425632000,1.864938,-5.80679971607211,-10.1243118070579,-1.59485979482163,2.3768766,1.4086553,0.07238753,147.21202,50.39766,-37.75658,WAL
119566430679000,1.869985,-5.8172108636581,-10.0917890644551,-0.548301315576808,1.9712621,0.6389651,0.09896017,148.22733,50.17614,-38.006187,WAL
119566435653000,1.874959,-5.77924702420801,-9.8118065785017,0.229955936329946,1.6154331,-0.26511553,0.1563815,149.00537,49.985954,-38.210293,WAL
119566440643000,1.879949,-5.75240386494782,-9.53626260896255,0.924964345113567,1.3096951,-1.1582005,0.19272798,149.49236,49.72938,-38.41312,WAL
119566445678000,1.884984,-5.80173800450174,-9.29452491303458,1.04336635216288,1.0650436,-1.9443841,0.16310102,149.6949,49.50421,-38.55581,WAL
119566450828000,1.890134,-5.80682524166594,-8.97449665858516,0.969760103212399,0.8741482,-2.5329528,0.03940081,149.67673,49.20413,-38.711132,WAL
119566455744000,1.89505,-5.64376506745173,-8.39970945934713,0.178917704909516,0.7079928,-2.860682,-0.13316862,149.47948,48.94966,-38.799744,WAL
119566460683000,1.899989,-5.47994199982683,-7.82223306043813,-0.615624729024158,0.5384777,-2.9226847,-0.32162055,149.2075,48.698933,-38.87013,WAL
119566465753000,1.905059,-4.88501234373758,-7.42682067052667,-0.648339001214206,0.3295618,-2.840218,-0.4896085,148.88951,48.51226,-38.877556,WAL
119566470947000,1.910253,-4.21259600650225,-7.05084593783613,-0.566395800696739,0.071776666,-2.7769935,-0.6041457,148.56145,48.385803,-38.835705,WAL
119566475794000,1.9151,-3.58510236257086,-6.69998927065265,-0.489927049655507,-0.23457226,-2.7546968,-0.636827,148.19846,48.375175,-38.73546,WAL
119566480783000,1.920089,-2.93922536864189,-6.33885374092737,-0.411218033987112,-0.40653083,-2.6978865,-0.66339964,147.87665,48.40717,-38.60844,WAL
119566485763000,1.925069,-2.43452633040033,-6.4260690165689,-0.501344909809612,-0.72326446,-2.5363126,-0.6435465,147.6005,48.47657,-38.499386,WAL
119566490657000,1.929963,-1.98112757551713,-6.64794495585057,-0.641223266656375,-0.9443977,-2.307238,-0.6072,147.37065,48.553783,-38.4014,WAL
119566495710000,1.935016,-1.65129715889956,-6.93308740158789,-0.706033104874446,-1.0403035,-2.0726657,-0.58184916,147.06569,48.760548,-38.161415,WAL
119566500735000,1.940041,-1.35807820302807,-7.23074906610044,-0.750460191285081,-0.9950995,-1.8689423,-0.60231316,146.83394,48.974102,-37.94044,WAL
119566505716000,1.945022,-1.09603989447424,-7.49124753737476,-0.828309927932396,-0.84849185,-1.7027869,-0.625526,146.61409,49.298805,-37.620445,WAL
119566510720000,1.950026,-0.848692493522923,-7.73374499325979,-0.925308930543467,-0.6160576,-1.5415184,-0.64904433,146.46747,49.61266,-37.315765,WAL
119566515744000,1.95505,-0.636990469746683,-7.94705713063933,-1.06100392689988,-0.35460728,-1.3716979,-0.64476824,146.36008,49.99556,-36.93631,WAL
119566520700000,1.960006,-0.446147484077201,-8.14267096875754,-1.21367831942099,-0.08307768,-1.1835514,-0.6227771,146.31683,50.352867,-36.573727,WAL
119566525734000,1.96504,-0.289874084820387,-8.34046350844335,-1.46717738437212,0.16768251,-0.96486163,-0.57910025,146.33032,50.74842,-36.166515,WAL
119566530872000,1.970178,-0.148869307413775,-8.54189929536383,-1.77436636785385,0.38606682,-0.70921457,-0.5296202,146.41878,51.10985,-35.788265,WAL
119566535752000,1.975058,-0.104716442084633,-8.79790243086973,-2.29395246729719,0.52442783,-0.39003745,-0.4908302,146.59895,51.504807,-35.388607,WAL
119566540715000,1.980021,-0.0908134512051482,-9.08059647874415,-2.90104979699688,0.56382865,0.03359759,-0.46120325,146.89616,51.875042,-35.031116,WAL
119566545691000,1.984997,-0.135709272817723,-9.40050695044695,-3.27929337945977,0.5503896,0.5748242,-0.44501534,147.35146,52.28773,-34.675007,WAL
119566550731000,1.990037,-0.210745588091722,-9.74286016459386,-3.54661019018655,0.49968776,1.142318,-0.44348818,147.95276,52.69535,-34.35801,WAL
119566556360000,1.995666,-0.431072507537473,-10.0110988650964,-3.36670902019986,0.41386122,1.6166549,-0.46609017,148.75334,53.17749,-34.047794,WAL
119566560742000,2.000048,-0.657867133319058,-10.1737060513919,-3.03293578436831,0.32253686,1.9080375,-0.50976706,149.67714,53.66883,-33.754833,WAL
119566565750000,2.005056,-0.835166910367257,-10.2187110889623,-2.59000732283599,0.2406809,2.0088303,-0.5571091,150.72375,54.207676,-33.452156,WAL
119566570762000,2.010068,-0.969658134944461,-10.1898914620234,-2.11448478237766,0.19486602,1.994475,-0.5891795,151.82098,54.75469,-33.14372,WAL
119566575760000,2.015066,-1.00914089857726,-10.0901359786588,-1.78865196688798,0.19425514,1.8860464,-0.6102544,152.89104,55.269745,-32.8355,WAL
119566580760000,2.020066,-1.0000573360239,-9.95388254035853,-1.53885385439628,0.20738874,1.7214183,-0.63224554,153.92867,55.791145,-32.506065,WAL
119566585756000,2.025062,-1.02321753825441,-9.76758502228412,-1.3207487363974,0.25534168,1.5561792,-0.627664,154.88528,56.25405,-32.18766,WAL
119566590886000,2.030192,-1.07390260510678,-9.5344343816156,-1.12307702330548,0.3136793,1.4138476,-0.61269784,155.7862,56.713722,-31.85474,WAL
119566595749000,2.035055,-1.18796655976623,-9.34006302136791,-1.01603356215871,0.3549127,1.2861768,-0.57848936,156.6061,57.133675,-31.529808,WAL
119566600765000,2.040071,-1.34588284503698,-9.15582682083828,-0.954621640361611,0.40194935,1.1823297,-0.54641896,157.37921,57.54149,-31.201908,WAL
119566605756000,2.045062,-1.54250989851528,-8.94850944104804,-0.923789651222708,0.45356745,1.1187997,-0.50671273,158.0979,57.89383,-30.907211,WAL
119566610744000,2.05005,-1.79282837663755,-8.70862121943231,-0.934219581004367,0.5158757,1.1166617,-0.47311515,158.79657,58.232166,-30.6181,WAL
119566615813000,2.055119,-2.02420738131518,-8.47876710385284,-0.944092261746813,0.57879484,1.1530081,-0.4538729,159.48161,58.50558,-30.384493,WAL
119566620760000,2.060066,-2.23464753534183,-8.26375197798378,-0.953241847161066,0.6377433,1.1911873,-0.4269948,160.16101,58.76188,-30.16253,WAL
119566626504000,2.06581,-2.49404016551724,-8.03103154530874,-0.912738043929431,0.6560693,1.2626585,-0.41905355,160.86697,58.955376,-30.004717,WAL
119566630761000,2.070067,-2.69428614267241,-7.86756547634322,-0.85552486005012,0.66828656,1.3274102,-0.42363504,161.57939,59.14077,-29.851414,WAL
119566635762000,2.075068,-2.91324288490678,-7.70404330380801,-0.768739115977787,0.64996064,1.3811663,-0.419359,162.31746,59.261024,-29.767149,WAL
119566640763000,2.080069,-3.11746990818128,-7.5663088008925,-0.664250888119794,0.6258314,1.4263704,-0.42913285,163.07124,59.386635,-29.677849,WAL
119566645717000,2.085023,-3.31344151545064,-7.44265847725322,-0.559267025064378,0.59681535,1.4682146,-0.4370741,163.84898,59.44247,-29.658222,WAL
119566650772000,2.090078,-3.50704683207179,-7.32932865126805,-0.450659196269996,0.5644395,1.500285,-0.43004912,164.63391,59.500355,-29.638245,WAL
119566655720000,2.095026,-3.65349632171132,-7.18917219056377,-0.31302488112515,0.52198434,1.5134187,-0.4334089,165.43356,59.50144,-29.671957,WAL
119566660792000,2.100098,-3.75060463902439,-7.00952183902439,-0.133374553414634,0.47708577,1.5338826,-0.42210788,166.23999,59.50145,-29.708977,WAL
119566665778000,2.105084,-3.83839986951622,-6.81379846541675,0.0452158510099087,0.4266894,1.5357152,-0.4196644,167.05698,59.44325,-29.801071,WAL
119566670752000,2.110058,-3.91706657384884,-6.59630797192539,0.225686654668156,0.36102137,1.5308284,-0.4175264,167.87141,59.38979,-29.891018,WAL
119566675697000,2.115003,-4.009914493552,-6.36283250728328,0.393463646715901,0.32345316,1.5201381,-0.41691554,168.68918,59.278534,-30.02932,WAL
119566680755000,2.120061,-4.12833650932057,-6.09638328094123,0.546425248775593,0.24373524,1.4978416,-0.4196644,169.49338,59.17948,-30.159786,WAL
119566685655000,2.124961,-4.21806997689274,-5.83591193454259,0.661354786738959,0.15790866,1.4703526,-0.4266894,170.31699,59.00548,-30.35659,WAL
119566690748000,2.130054,-4.27576858594243,-5.56184286376183,0.733478258920544,0.0870483,1.4333953,-0.42088616,171.11876,58.840107,-30.546394,WAL
119566695673000,2.134979,-4.32313087880722,-5.30634393689586,0.774025399653474,0.0015271631,1.4031575,-0.40469822,171.95357,58.58113,-30.825737,WAL
119566700768000,2.140074,-4.35872734766551,-5.05716888719679,0.769575800392121,-0.07086037,1.3756685,-0.36102137,172.76038,58.32716,-31.101404,WAL
119566705649000,2.144955,-4.38233304982079,-4.81215676989247,0.75268891734767,-0.14355333,1.3588698,-0.30543262,173.60031,57.987835,-31.46205,WAL
119566710729000,2.150035,-4.36181854676365,-4.53008213864643,0.680888119160869,-0.20463985,1.3365731,-0.23640485,174.40746,57.65008,-31.82256,WAL
119566715692000,2.154998,-4.35214543791539,-4.28556683952273,0.610693528518884,-0.24190263,1.3197744,-0.17134771,175.2172,57.25101,-32.24416,WAL
119566720759000,2.160065,-4.36650072208855,-4.1085181348585,0.538917067680702,-0.28344148,1.3096951,-0.10629055,175.99768,56.85149,-32.668175,WAL
119566725723000,2.165029,-4.37265354988707,-3.95500580502799,0.47525997333988,-0.3155119,1.3041973,-0.050701816,176.82379,56.377,-33.17165,WAL
119566730791000,2.170097,-4.35835465298046,-3.85014712817441,0.427596948812727,-0.3539964,1.3093897,0.007941248,177.62317,55.903816,-33.674713,WAL
119566735730000,2.175036,-4.33882988801196,-3.78512736027787,0.395474211769984,-0.39675698,1.3041973,0.083383106,178.42093,55.391594,-34.220543,WAL
119566740753000,2.180059,-4.30169988848956,-3.83386056491871,0.40707734903951,-0.44806966,1.2996159,0.16982053,179.19466,54.879463,-34.766384,WAL
119566745708000,2.185014,-4.26507254474408,-3.88193403276569,0.418523406210623,-0.4990769,1.2938126,0.26450464,179.94124,54.35628,-35.32416,WAL
119566750763000,2.190069,-4.22770600132664,-3.93097770178011,0.430200463526461,-0.5525276,1.2944235,0.36346483,180.66505,53.825157,-35.889477,WAL
119566755716000,2.195022,-4.15373368366972,-4.00220904,0.450654644220184,-0.589485,1.2986995,0.45051312,181.41826,53.253475,-36.496822,WAL
119566760720000,2.200026,-3.72726865592661,-4.292380992,0.556171742715596,-0.62858033,1.3075571,0.5296202,182.15001,52.675266,-37.109444,WAL
119566765767000,2.205073,-3.2971389606789,-4.585046428,0.662595562880734,-0.66737026,1.3249667,0.5858198,182.88405,52.114258,-37.70372,WAL
119566770765000,2.210071,-3.10679017477922,-4.72619538836364,0.774007498062338,-0.7147123,1.3524556,0.6102544,183.60562,51.55778,-38.29156,WAL
119566775760000,2.215066,-2.93532557724675,-4.85541513018182,0.88583226265974,-0.7467828,1.3808609,0.6426302,184.31535,50.99975,-38.878265,WAL
119566780775000,2.220081,-2.76317443477922,-4.98515226836364,0.998104774062338,-0.8060367,1.4071281,0.6582073,185.00398,50.609245,-39.294903,WAL
119566785741000,2.225047,-2.58530108555523,-5.18246760328157,1.18434301271609,-0.88514376,1.4266758,0.65576386,185.71013,50.215763,-39.712963,WAL
119566790747000,2.230053,-2.30904864975095,-6.28279491040141,2.35490392780545,-0.9987647,1.4104879,0.62949663,186.40144,49.83668,-40.113678,WAL
119566795914000,2.23522,-2.02582975435757,-7.41272667278222,3.56838272973289,-1.1481212,1.3524556,0.58123827,187.06705,49.57689,-40.390488,WAL
119566800765000,2.240071,-1.79032888442191,-8.38190398097095,4.79117597379606,-1.3255776,1.2211196,0.4981606,187.6895,49.343727,-40.637337,WAL
119566806077000,2.245383,-1.5415190497479,-9.46184469794584,6.12949762857143,-1.5372424,0.9816604,0.39064834,188.15294,49.354042,-40.630783,WAL
119566810745000,2.250051,-1.53317078285714,-10.8434691825397,7.28989574285714,-1.7757853,0.63407815,0.28008172,188.5207,49.395134,-40.592953,WAL
119566815730000,2.255036,-1.52425559210084,-12.3189186374883,8.52909552857143,-1.9926424,0.17012598,0.15241088,188.65205,49.683044,-40.30086,WAL
119566820757000,2.260063,-1.57879356269211,-14.0284558276745,9.76109996855851,-2.1294763,-0.37110063,0.004276057,188.6338,50.002884,-39.974888,WAL
119566825709000,2.265015,-1.64548782495229,-15.7577412356102,10.9711230339528,-2.1218405,-1.0125091,-0.1255328,188.41805,50.346684,-39.620335,WAL
119566830765000,2.270071,-1.29871324089046,-16.7514756826199,10.4137810945753,-1.8777997,-1.6099354,-0.25228736,187.9579,50.941692,-38.993877,WAL
119566835656000,2.274962,-0.883408121041091,-17.5642233505577,9.52958304633425,-1.3762794,-1.8399261,-0.38515055,187.4381,51.53671,-38.35049,WAL
119566840748000,2.280054,-0.0927639254135338,-18.1179274902256,8.19681579864662,-0.80756384,-1.6346754,-0.49877146,186.85515,52.305264,-37.496048,WAL
119566845666000,2.284972,0.799633182055138,-18.5476004546366,6.76142613218045,-0.44073927,-1.2308935,-0.5897904,186.32237,53.03157,-36.657764,WAL
119566850769000,2.290075,1.72183728941116,-18.1788303616999,5.48795839974398,-0.2864958,-0.838718,-0.634689,185.99184,53.895866,-35.68077,WAL
119566855651000,2.294957,2.60281321246288,-17.5468255897593,4.34364709672299,-0.28588495,-0.5354234,-0.6224717,185.80373,54.697197,-34.7582,WAL
119566860745000,2.300051,3.19010198370613,-16.4479269459991,3.35064541887693,-0.33383787,-0.27763826,-0.5665775,185.86603,55.646236,-33.72337,WAL
119566865737000,2.305043,3.67332165030416,-15.2488265877398,2.43342318778662,-0.40683624,-0.15393804,-0.47250426,185.98193,56.526093,-32.76363,WAL
119566870741000,2.310047,3.69849267219267,-13.9016996833919,1.62487712156247,-0.43799037,0.11453723,-0.42119157,186.29916,57.456306,-31.795591,WAL
119566875749000,2.315055,3.48191167357752,-12.4770782202709,0.874063101917712,-0.4196644,0.42485678,-0.32742378,186.64946,58.31107,-30.911282,WAL
119566881548000,2.320854,2.97723354588676,-11.0187332833892,0.330526411478201,-0.32498032,0.7825184,-0.2648101,187.12624,59.13588,-30.091236,WAL
119566885768000,2.325074,2.53474319394358,-10.014160576741,0.0315464070710199,-0.160963,1.0855075,-0.25778514,187.66754,59.9247,-29.310465,WAL
119566890739000,2.330045,2.11347329261838,-8.94832948169519,-0.349780200938321,0.04642576,1.271516,-0.24007004,188.27281,60.573685,-28.691662,WAL
119566895746000,2.335052,1.74615998182451,-7.94179546368882,-0.750485547393951,0.2724459,1.3148874,-0.17989981,188.91542,61.19101,-28.097372,WAL
119566900751000,2.340057,1.25671397015712,-7.15080982315036,-1.57773703668656,0.47067168,1.1917981,-0.077579886,189.53229,61.63873,-27.674738,WAL
119566905755000,2.345061,0.694379443247812,-6.48839905322196,-2.65951621733095,0.67347896,0.9502009,0.009162978,190.1166,62.059177,-27.262085,WAL
119566910738000,2.350044,-0.0780136934793403,-5.94878571053834,-3.53479859301748,0.92087936,0.66859204,0.06261369,190.64027,62.342068,-26.98302,WAL
119566915774000,2.35508,-0.992962131639849,-5.47933572289432,-4.29166682611244,1.2098186,0.42577308,0.10293079,191.09378,62.590584,-26.717014,WAL
119566920742000,2.360048,-1.77206824833162,-5.33626766869801,-4.51476211292644,1.484708,0.15424347,0.17470746,191.49025,62.713234,-26.594978,WAL
119566925759000,2.365065,-2.47712049600897,-5.40362915845406,-4.39351122503972,1.6875153,-0.17715092,0.2501493,191.78844,62.811512,-26.475143,WAL
119566930765000,2.370071,-3.15848268186638,-5.70407995678685,-4.179961426193,1.840537,-0.5311473,0.32498032,192.02763,62.730602,-26.547401,WAL
119566935746000,2.375052,-3.8110347764369,-6.27063701431601,-3.86127303181336,1.9422461,-0.8558222,0.410196,192.17018,62.617104,-26.634651,WAL
119566940758000,2.380064,-4.45046379549337,-6.95486220800196,-3.6194716216593,1.9956968,-1.0974194,0.50579643,192.23354,62.34704,-26.866936,WAL
119566945747000,2.385053,-5.07437814279823,-7.71950887324497,-3.43651943199804,2.0231857,-1.207986,0.6221663,192.23529,62.043747,-27.122314,WAL
119566951446000,2.390752,-6.36981034483797,-9.43845364482793,-2.77191439788301,2.0378466,-1.0668762,0.7247916,192.27406,61.623882,-27.490782,WAL
119566955741000,2.395047,-7.64500907414468,-11.1676067691382,-2.03733374362396,1.8832976,-0.10445796,0.7635816,192.54364,61.204414,-27.896185,WAL
119566960721000,2.400027,-9.48880929069767,-13.0767454534884,-0.913650718752464,1.106277,0.7733554,0.68844515,192.88576,60.76414,-28.37037,WAL
119566965804000,2.40511,-11.6857882790698,-14.9427383953488,0.467855537150178,-0.4071417,3.1410692,0.5537493,194.0252,60.39513,-28.911997,WAL
119566970737000,2.410043,-12.6557453697283,-16.275828489627,2.49489298607188,-1.3518448,5.3447657,0.4810564,195.5149,59.879326,-29.604136,WAL
119566975781000,2.415087,-12.5522370070128,-17.1885832031752,5.21433677233856,-3.026532,6.114761,0.34513888,197.28983,59.53438,-30.200274,WAL
119566980697000,2.420003,-11.7897164140693,-17.7443963627328,6.64212693640838,-3.9409971,4.9883256,0.21991149,199.29292,58.870407,-31.026615,WAL
119566985840000,2.425146,-10.1785087585641,-17.9154975160668,6.63262134435009,-3.9489384,2.5384505,0.006414085,200.98836,58.32064,-31.662382,WAL
119566990685000,2.429991,-8.94125507964517,-17.2511763932659,5.70249623946013,-3.1096096,0.26816985,-0.16432275,201.95593,58.034084,-31.965458,WAL
119566995732000,2.435038,-8.11140533002671,-15.208823887066,3.2267773784815,-1.9752327,-1.1878275,-0.13897185,202.34103,122.22661,-32.225048,WAL
119567000655000,2.439961,-7.38171871241428,-13.331845961426,1.12557318106091,-0.9388999,-2.1374176,-0.050396383,202.27936,122.32829,-32.326942,WAL
119567005755000,2.445061,-6.83990867106696,-11.6965648551331,-0.209249777793465,-0.14019357,-2.8414397,0.01282817,201.81694,57.586452,-32.413174,WAL
119567010677000,2.449983,-6.35450677034171,-10.283460869799,-1.2786586800402,0.48472157,-3.3545666,0.052839845,201.16954,57.463097,-32.530807,WAL
119567015816000,2.455122,-5.93902182253266,-9.21012442321608,-1.86231644735678,0.9728029,-3.702149,0.07849618,200.35718,57.325077,-32.646645,WAL
119567021245000,2.460551,-5.52360861743872,-8.18652890185479,-2.31951350840712,1.3402383,-3.9052615,0.101098195,199.43924,57.152477,-32.780533,WAL
119567025773000,2.465079,-5.20835308510579,-7.47922483101874,-2.4892664094417,1.6132951,-3.9907827,0.13439035,198.46239,56.959053,-32.907795,WAL
119567030748000,2.470054,-4.83442740087329,-6.66313504766983,-2.65088571244437,1.8002199,-3.986812,0.18997909,197.43692,56.738758,-33.03825,WAL
119567035739000,2.475045,-4.32871504881182,-5.65973755966076,-2.69503517056848,1.9178114,-3.921144,0.27458394,196.42091,56.48781,-33.171215,WAL
119567040655000,2.479961,-3.83060206088672,-4.67141817455706,-2.73852119263582,1.9859229,-3.8041632,0.3753767,195.40596,56.20445,-33.312996,WAL
119567045702000,2.485008,-3.47420743886719,-4.23864977408203,-2.96451366261719,2.0179935,-3.6209037,0.4700608,194.44997,55.88877,-33.46749,WAL
119567050664000,2.48997,-3.16792556601562,-3.97877418246094,-3.23831129851563,2.0589213,-3.3603697,0.55863625,193.57217,55.537228,-33.64305,WAL
119567055739000,2.495045,-2.89067764328889,-3.87574652906667,-3.5978914117037,2.076331,-3.0109549,0.63316184,192.72964,55.158394,-33.833687,WAL
119567060724000,2.50003,-2.63134701321481,-3.83331066417778,-3.97981429417284,2.1084013,-2.8075366,0.69058317,191.93407,54.75173,-34.039764,WAL
119567065745000,2.505051,-2.39866919466924,-4.01998930755727,-4.2586813625562,2.1682663,-2.3399193,0.7098254,191.30788,54.371277,-34.236652,WAL
119567070719000,2.510025,-2.17941147308927,-4.29533635983729,-4.49323629049454,2.2021692,-1.8063285,0.72692966,190.77936,53.972954,-34.458298,WAL
119567075747000,2.515053,-2.12710516732154,-4.64598762012623,-4.64566730033781,2.2721133,-1.244638,0.70157874,190.40707,53.620674,-34.656456,WAL
119567080766000,2.520072,-2.10574061971731,-5.00918524171926,-4.78240058347409,2.303573,-0.6365216,0.65393126,190.24117,53.271305,-34.884804,WAL
119567085758000,2.525064,-2.18071837593644,-5.43825669500568,-4.82437356946652,2.3032675,0.020463986,0.605062,190.29846,52.982147,-35.094215,WAL
119567090974000,2.53028,-2.32504543502219,-5.93309206473016,-4.80375543354659,2.2574525,0.7180721,0.6068946,190.58545,52.69737,-35.34399,WAL
119567095746000,2.535052,-2.50189894059662,-6.44156578357396,-4.65548921959078,2.182316,1.4056009,0.6536258,191.12079,52.46211,-35.59881,WAL
119567100780000,2.540086,-2.7093215438474,-7.00391190689358,-4.43884769172005,2.1013765,2.0161607,0.7315111,191.87631,52.228565,-35.89817,WAL
119567105755000,2.545061,-2.92865213272136,-7.71147547922786,-4.17252890855015,2.0182989,2.5549438,0.8060367,192.8683,52.017307,-36.222927,WAL
119567110722000,2.550028,-3.15820814485942,-8.52989242551406,-3.86811762182123,1.9544634,3.01462,0.86559606,194.0519,51.801872,-36.586254,WAL
119567115759000,2.555065,-3.33102591420432,-9.37191857337917,-3.53165722277996,1.8897116,3.4077117,0.8958339,195.4191,51.60471,-36.953022,WAL
119567120764000,2.56007,-3.47227910880157,-10.2147295994106,-3.18323267282908,1.8170186,3.782783,0.8979719,196.95108,51.413486,-37.33268,WAL
119567125737000,2.565043,-3.57826621055924,-10.9597641640758,-2.87025974632227,1.7266107,4.119675,0.86559606,198.63016,51.27295,-37.663395,WAL
119567130716000,2.570022,-3.66414069895735,-11.6512793042654,-2.57647878312796,1.6166549,4.4584,0.8145888,200.45047,51.15263,-37.978466,WAL
119567135724000,2.57503,-3.72501199404125,-12.2437973666921,-2.22114614537815,1.4752395,4.8240027,0.75747293,202.4034,51.113365,-38.201782,WAL
119567140724000,2.58003,-3.76159258991597,-12.737635697479,-1.80961410756303,1.2724323,5.1868567,0.68783426,204.47539,51.108803,-38.3844,WAL
119567145693000,2.584999,-3.7408377674631,-13.053857538919,-1.37529229713285,1.0369438,5.539937,0.6200282,206.64705,51.181957,-38.467472,WAL
119567150732000,2.590038,-3.63834760031857,-13.1256005489009,-0.898712698853138,0.7538077,5.861252,0.54275376,208.92392,51.291298,-38.497158,WAL
119567155723000,2.595029,-3.51095415597777,-12.943405918949,-0.464826953720061,0.43951756,6.1566052,0.48288897,211.25656,51.46192,-38.432514,WAL
119567160714000,2.60002,-3.36120841881758,-12.5424745259222,-0.0638950663850429,0.12186762,6.286414,0.43676865,213.61562,51.65663,-38.310436,WAL
119567165714000,2.60502,-3.24320484065934,-12.0614797142857,0.314666504761905,-0.028710667,6.5038824,0.41722095,216.02974,51.87388,-38.124653,WAL
119567170759000,2.610065,-3.15005864676113,-11.5119161052632,0.677937103508772,-0.34147367,6.6550713,0.35979962,218.42584,127.88445,-37.87091,WAL
119567175765000,2.615071,-3.08990274640487,-11.0063963769358,0.989576012306416,-0.655153,6.7427306,0.28038713,220.78387,127.657684,-37.586536,WAL
119567180755000,2.620061,-3.06347111015856,-10.5438438926069,1.24948642740597,-0.9443977,6.764416,0.20097467,223.12318,127.42254,-37.243347,WAL
119567185761000,2.625067,-3.05203508628319,-10.0859026460177,1.49635494690265,-1.239751,6.7228775,0.10873401,225.38042,127.226204,-36.89208,WAL
119567190761000,2.630067,-3.07270608779409,-9.6414800256853,1.71339887092597,-1.5103643,6.642854,0.022907447,227.57635,127.024025,-36.482536,WAL
119567195715000,2.635021,-3.08802146871328,-9.28002939952996,1.88278876125147,-1.7733418,6.4983845,-0.056505036,229.64667,126.87273,-36.081688,WAL
119567200762000,2.640068,-3.09748755904818,-9.00551055581669,2.00111555763807,-2.0069978,6.3084054,-0.12492194,231.61476,126.72139,-35.633762,WAL
119567205702000,2.645008,-3.14609639791128,-8.78218862582057,2.12947830765864,-2.221717,6.048177,-0.18906279,233.43481,126.63269,-35.216198,WAL
119567210720000,2.650026,-3.25125269554406,-8.61967460175055,2.27765314967177,-2.3970351,5.6694403,-0.2507602,235.09264,126.548996,-34.774532,WAL
119567215715000,2.655021,-3.36618023735655,-8.50777143929938,2.46873294445339,-2.5017986,5.1929655,-0.31429017,236.57684,126.51483,-34.37114,WAL
119567220762000,2.660068,-3.49754942035434,-8.46884745520435,2.72660578703443,-2.5689938,4.624555,-0.3848451,237.85297,126.48266,-33.966915,WAL
119567225664000,2.66497,-3.61443646309148,-8.43905541048896,3.02489255607256,-2.5851817,3.9492438,-0.45204028,238.88681,126.50368,-33.649548,WAL
119567230779000,2.670085,-3.72067436766562,-8.41973952868691,3.40638351595032,-2.5836546,3.2085698,-0.51068336,239.67496,126.51818,-33.35897,WAL
119567235655000,2.674961,-3.80591023308729,-8.40133808444051,3.70592357775809,-2.5723536,2.4120014,-0.571159,240.1908,126.56573,-33.174595,WAL
119567240763000,2.680069,-3.86849647940163,-8.38208090935931,3.91293939124102,-2.5625796,1.559539,-0.6258314,240.42786,126.59944,-33.03992,WAL
119567245669000,2.684975,-3.86777566685703,-8.34797526251666,3.97020166678089,-2.503631,0.72051555,-0.65026605,240.41669,126.65462,-33.021152,WAL
119567250747000,2.690053,-3.75205362463354,-8.28317010298877,3.76190206811346,-2.4126122,-0.043676864,-0.65270954,240.15247,126.69211,-33.054264,WAL
119567255655000,2.694961,-3.6147778,-8.22474685631068,3.4985247104466,-2.2922719,-0.39920044,-0.6218608,239.80942,126.74237,-33.141953,WAL
119567260716000,2.700022,-3.3936121,-8.1776906118932,3.03266511453398,-2.2134702,-1.0009027,-0.5861252,239.15027,126.78097,-33.303295,WAL
119567265743000,2.705049,-3.19040275339558,-8.15068018088452,2.55651516883538,-2.0540345,-1.4474452,-0.5170974,238.54974,126.80102,-33.430035,WAL
119567270759000,2.710065,-3.05349070063882,-8.20261217223587,2.02775117488943,-1.8811595,-1.772731,-0.4529566,237.80809,126.81477,-33.594574,WAL
119567276337000,2.715643,-2.92502645417623,-8.26299920885377,1.46816620459852,-1.7348573,-1.9825631,-0.4025602,237.0774,126.78749,-33.687134,WAL
119567280754000,2.72006,-2.878301094511,-8.31691333078426,1.09076973053785,-1.5882497,-2.0772474,-0.36682457,236.293,126.75302,-33.803066,WAL
119567285660000,2.724966,-2.82640283448891,-8.37679621106296,0.671592211465715,-1.4501941,-2.0659463,-0.35094208,235.52527,126.68742,-33.863724,WAL
119567290742000,2.730048,-2.77802328869565,-8.40806185565217,0.272456004791304,-1.3408492,-1.9859229,-0.34391713,234.76157,126.61682,-33.92873,WAL
119567295676000,2.734982,-2.73236924888889,-8.43088887555556,-0.106472806866667,-1.2348641,-1.8353447,-0.3371976,234.03708,126.53722,-33.986862,WAL
119567300758000,2.740064,-2.70176143360996,-8.4227257921263,-0.474243361957292,-1.1377366,-1.645671,-0.3136793,233.4617,126.455154,-33.98556,WAL
119567305660000,2.744966,-2.67800605684647,-8.40372155024795,-0.821072840028337,-1.0473285,-1.4248432,-0.2883284,232.95569,126.3678,-33.97333,WAL
119567310866000,2.750172,-2.62756347006936,-8.34340267304874,-1.13901881364658,-0.97219205,-1.1859949,-0.24556783,232.57861,126.290375,-33.929916,WAL
119567315708000,2.755014,-2.57320659250757,-8.27545622135391,-1.41986235310931,-0.86651236,-0.9615019,-0.18387043,232.27948,126.21602,-33.886387,WAL
119567320711000,2.760017,-2.47886599177877,-8.15328350822123,-1.75157264285003,-0.7593055,-0.72418076,-0.111177474,232.11938,126.167404,-33.829346,WAL
119567325723000,2.765029,-2.36885356571001,-8.00978897428998,-2.10074297508719,-0.625526,-0.5161811,-0.04153884,232.0318,126.124504,-33.777813,WAL
119567330736000,2.770042,-2.34168995045854,-7.97945061997186,-2.2290600368965,-0.4709771,-0.32650748,0.030543262,232.06262,126.10574,-33.72302,WAL
119567335703000,2.775009,-2.34861429888884,-7.99560752938037,-2.26598994339366,-0.30848694,-0.15699236,0.08857546,232.16092,126.0901,-33.672897,WAL
119567340702000,2.780008,-2.35558325757679,-8.01186853001116,-2.30315777157552,-0.14110987,0.007330383,0.1432479,232.36057,126.09202,-33.61461,WAL
119567346378000,2.785684,-2.36349600202824,-8.03033171056335,-2.34535913039934,0.03970624,0.15057829,0.17837265,232.61151,126.08807,-33.557938,WAL
119567350728000,2.790034,-2.37997705709564,-8.04944665709564,-2.33268548806032,0.22235495,0.28863382,0.21227567,232.93231,126.085266,-33.50463,WAL
119567355705000,2.795011,-2.40459166853956,-8.07406126853956,-2.29330200694071,0.39828414,0.35888332,0.22724187,233.27736,126.06966,-33.451244,WAL
119567360741000,2.800047,-2.45444920449898,-8.14370484574934,-2.203180343792,0.48075095,0.49663344,0.24312437,233.7055,126.05838,-33.38962,WAL
119567365731000,2.805037,-2.51727337252897,-8.23677789424481,-2.0868392639887,0.63285637,0.625526,0.2611449,234.175235713571,126.027423934393,-33.3283381688169,WAL
119567370740000,2.810046,-2.580336750818,-8.33020532909728,-1.97005520211803,0.7538077,0.73639804,0.27763826,234.64676,125.99635,-33.266823,WAL
119567375788000,2.815094,-2.64389113963872,-8.42436018857727,-1.85236186126692,0.86529064,0.86590147,0.28710666,235.18686,125.95377,-33.197582,WAL
119567380741000,2.820047,-2.72572896411128,-8.56273742957239,-1.65518007813498,0.9370673,0.9737192,0.28985557,235.7588,125.90596,-33.130466,WAL
119567385768000,2.825074,-2.82494096590417,-8.7413184319423,-1.3873076940134,0.9691377,1.0451905,0.28344148,236.3569,125.8503,-33.057312,WAL
119567390736000,2.830042,-2.92169255289789,-8.92711650579579,-1.01253511594396,0.96974856,1.0919216,0.2843578,236.9709,125.7845,-32.986214,WAL
119567395756000,2.835062,-3.01860926693882,-9.12094993387763,-0.561872132535027,0.906524,1.0586295,0.27488935,237.57538,125.71724,-32.912056,WAL
119567400770000,2.840076,-3.1642659609845,-9.28175293163172,-0.125557725569736,0.79290307,0.9398162,0.28160888,238.14821,125.64424,-32.85267,WAL
119567405743000,2.845049,-3.33792309076269,-9.42164367851717,0.298937418432088,0.59956425,0.77518797,0.30757064,238.69081,125.588806,-32.80281,WAL
119567410722000,2.850028,-3.55463487312155,-9.50652665436561,0.53777131266692,0.3454443,0.5503896,0.35369098,239.14943,125.528725,-32.776825,WAL
119567416290000,2.855596,-3.82343401848963,-9.56738700209245,0.689921742432946,0.03604105,0.35979962,0.40866885,239.56447,125.50395,-32.770332,WAL
119567420746000,2.860052,-4.06602242597644,-9.6132797867328,0.691691234469932,-0.33353242,0.2489276,0.45081854,239.9096,125.51196,-32.807365,WAL
119567425763000,2.865069,-4.35893036516842,-9.66292517379624,0.607294024622856,-0.72784597,0.24770586,0.46975538,240.22853,125.56154,-32.857285,WAL
119567430765000,2.870071,-4.5890952828967,-9.72884265753561,0.396600376470465,-1.1365148,0.35063666,0.45112398,240.56406,125.68955,-32.95472,WAL
119567435748000,2.875054,-4.77923865085168,-9.80490004442674,0.106631765405519,-1.5060883,0.52870387,0.376293,240.91637,125.83957,-33.032166,WAL
119567440770000,2.880076,-4.86381703724942,-9.87167691846569,-0.205017139625771,-1.8420641,0.729984,0.2782491,241.34381,126.07497,-33.137794,WAL
119567445751000,2.885057,-4.87760911709715,-9.93144219776407,-0.52683145262047,-2.0879374,0.9233228,0.17440203,241.8092,126.31201,-33.202236,WAL
119567450764000,2.89007,-4.83274107756781,-9.96759345595855,-0.818815547973179,-2.244319,1.0974194,0.07971791,242.35678,126.597404,-33.249012,WAL
119567455729000,2.895035,-4.73612660637001,-9.98208542487047,-1.07967482197501,-2.3350325,1.1756102,0.018325957,242.9115,126.879715,-33.262787,WAL
119567460715000,2.900021,-4.66919843204507,-10.0120460679549,-1.31168177668281,-2.3350325,1.2751812,0.0030543262,243.5214,127.16843,-33.232136,WAL
119567465782000,2.905088,-4.62603026653158,-10.0552142334684,-1.52272550701789,-2.2934935,1.3454307,-0.022296581,244.11908,127.44299,-33.17366,WAL
119567470746000,2.910052,-4.61910883326717,-10.0950642596765,-1.68433748588726,-2.186592,1.4022411,-0.027488936,244.72589,127.702805,-33.077576,WAL
119567475771000,2.915077,-4.64298905359269,-10.1332726620683,-1.80851473132195,-2.0363193,1.4654657,-0.030543262,245.33475,127.9458,-32.96598,WAL
119567480747000,2.920053,-4.72787926391223,-10.1121876490066,-1.81599144342196,-1.8637499,1.5671748,-0.035124753,245.9687,128.1713,-32.821735,WAL
119567485753000,2.925059,-4.87004050991401,-10.0363682980132,-1.7164786256499,-1.6933185,1.7534887,-0.021380283,246.63217,128.38016,-32.66535,WAL
119567490739000,2.930045,-4.97970421447681,-9.86605418945072,-1.35507047775353,-1.5476271,2.0164661,-0.015271631,247.33746,128.57147,-32.482456,WAL
119567495754000,2.93506,-5.05716086806755,-9.59723429902286,-0.721748360079689,-1.4092661,2.2434027,0.017715093,248.07533,128.74799,-32.293293,WAL
119567500705000,2.940011,-5.06088195033208,-9.33733150880739,0.0150026431071325,-1.2443326,2.3099868,0.089186326,248.84055,128.93831,-32.144657,WAL
119567505747000,2.945053,-4.94468639349312,-9.08170079844066,0.949215570422562,-1.0161743,2.1496348,0.19272798,249.59283,129.10883,-32.012756,WAL
119567510685000,2.949991,-4.75364692572156,-8.93954034486418,1.74627137454372,-0.6933321,1.7131716,0.31337386,250.26286,129.26758,-32.002975,WAL
119567515777000,2.955083,-4.37072895797963,-9.05338090938031,2.28442623502759,-0.27366763,1.0882565,0.43799037,250.82224,129.39223,-32.059635,WAL
119567520651000,2.959957,-4.01895767638369,-9.26403634055545,2.51514179495765,0.19486602,0.37568212,0.52442783,251.23563,129.41827,-32.197685,WAL
119567525778000,2.965084,-3.67079731494977,-9.63637449084105,2.33622595548552,0.64965516,-0.3100141,0.6072,251.47368,129.40659,-32.430817,WAL
119567530688000,2.969994,-3.36808939777885,-10.0078942940608,2.02162740125543,1.0421361,-0.8762862,0.6395759,251.4549,129.21284,-32.65253,WAL
119567535757000,2.975063,-3.10555827571222,-10.4157554328827,1.4637485832931,1.353372,-1.2950343,0.67347896,251.28079,128.99748,-32.94737,WAL
119567540652000,2.979958,-2.86373352482131,-10.7928428588074,0.887185726525017,1.5717562,-1.5421293,0.68630713,250.96213,128.67404,-33.1807,WAL
119567545756000,2.985062,-2.63878870547342,-11.1470111329678,0.197993201233722,1.7159204,-1.604743,0.7098254,250.57726,128.35442,-33.438053,WAL
119567550657000,2.989963,-2.42311620370144,-11.4816787596095,-0.431132572422209,1.7684549,-1.5607607,0.7305948,250.1651,128.00482,-33.615868,WAL
119567555738000,2.995044,-2.20045101472443,-11.8132023843807,-0.990269496888347,1.7635679,-1.3545936,0.7425067,249.79065,127.67522,-33.777782,WAL
119567560687000,2.999993,-2.01374089418708,-12.1422775068942,-1.46943139416725,1.7125608,-1.0170907,0.75533485,249.54315,127.354416,-33.842358,WAL
119567565825000,3.005131,-1.89171525448864,-12.4985925317925,-1.81110324648348,1.602605,-0.61178154,0.75625116,249.3906,127.061966,-33.880276,WAL
119567570696000,3.010002,-1.8023260260101,-12.8230298636364,-2.11291925606061,1.5015068,-0.17165314,0.74067414,249.38596,126.76315,-33.825947,WAL
119567575765000,3.015071,-1.77508422820801,-13.1272295993266,-2.37171616924804,1.3848315,0.25289822,0.69058317,249.5104,126.48252,-33.734413,WAL
119567580754000,3.02006,-1.75182694037232,-13.4217899408592,-2.61051243494988,1.2990049,0.655153,0.6239988,249.78531,126.18269,-33.560596,WAL
119567585752000,3.025058,-1.74725750396181,-13.6913868322196,-2.76587332062052,1.244638,1.0189233,0.5519168,250.18306,125.88603,-33.349487,WAL
119567590815000,3.030121,-1.74260159777869,-13.9604274489408,-2.90606846496298,1.2400564,1.3332134,0.453262,250.70154,125.558426,-33.063503,WAL
119567595752000,3.035058,-1.73773933311394,-14.1743677542164,-2.83799670888523,1.2586879,1.6007724,0.36377025,251.31494,125.22475,-32.746326,WAL
119567601321000,3.040627,-1.71194626424825,-14.403246111451,-2.71193155332168,1.3182472,1.7880026,0.2874121,252.01443,124.85957,-32.375885,WAL
119567605757000,3.045063,-1.63024871592657,-14.5480733684441,-2.46312546451049,1.3848315,1.9233092,0.2284636,252.77072,124.480484,-31.980888,WAL
119567610718000,3.050024,-1.53888227381119,-14.7100409117133,-2.18487320874126,1.4819591,1.9798143,0.17440203,253.54279,124.06118,-31.555271,WAL
119567615734000,3.05504,-1.33491768066554,-14.7553987512637,-1.63066924572452,1.5699236,1.9281962,0.14110987,254.3117,123.635025,-31.129084,WAL
119567620726000,3.060032,-1.10836614839933,-14.7755365507582,-1.02149715743471,1.6597209,1.7944167,0.10415252,255.05911,123.192764,-30.700706,WAL
119567625764000,3.06507,-0.932670330168889,-14.3991844147556,-0.352423078097778,1.772731,1.5656476,0.06627888,255.71863,122.69704,-30.263754,WAL
119567630691000,3.069997,-0.764901688204444,-14.0007337641778,0.306068807671111,1.8829921,1.2971723,0.016493361,256.31363,122.19177,-29.83755,WAL
119567635838000,3.075144,-0.863256719883041,-13.3966272124756,1.09005722183236,2.0479257,1.024421,-0.06291912,256.77658,121.609634,-29.398806,WAL
119567640709000,3.080015,-1.07862433425669,-12.7409527319175,1.87495258085565,2.2382102,0.8194757,-0.11636983,257.17432,121.02515,-28.978287,WAL
119567645728000,3.085034,-1.91293366413076,-11.9407015375929,1.82804885854383,2.4599543,0.7113526,-0.13836098,257.47217,120.40143,-28.574558,WAL
119567650719000,3.090025,-2.97352961842496,-11.0979062971768,1.45873414026746,2.726597,0.6994407,-0.13408493,257.7389,119.772804,-28.17967,WAL
119567655738000,3.095044,-3.65164755346331,-10.8138416698344,0.916835491615558,3.0039299,0.7699956,-0.12461651,257.95483,119.18414,-27.864428,WAL
119567660777000,3.100083,-4.17171510622122,-10.7618348651906,0.302210331247183,3.1483996,0.93676186,-0.080634214,258.20807,118.62943,-27.564417,WAL
119567665809000,3.105115,-4.57464808610763,-10.7924478708963,-0.219248657252335,3.4138205,1.1734722,-0.03268129,258.62766,118.319565,-27.4806,WAL
119567671296000,3.110602,-4.95407379274093,-10.8683329699625,-0.740326696720901,3.6065483,1.5262468,0.042455133,259.1462,118.05899,-27.414055,WAL
119567675754000,3.11506,-5.17248858363196,-10.9219532491041,-0.95559555872155,3.8029416,1.6142114,0.0720821,259.77414,117.94118,-27.454266,WAL
119567680752000,3.120058,-5.36719323719128,-10.9775832884262,-1.08076280834867,3.8289034,1.7162259,0.12003502,260.52057,117.874374,-27.51504,WAL
119567685754000,3.12506,-5.53471924159812,-11.022735626322,-1.12879154500588,3.8426478,1.6646078,0.13958271,261.3412,117.90493,-27.646063,WAL
119567690746000,3.130052,-5.67771761732721,-11.0584848736246,-1.10836322085247,3.7885861,1.473407,0.17592919,262.14172,117.97396,-27.797777,WAL
119567695745000,3.135051,-5.7905031004769,-11.0828971485621,-1.09679190485091,3.7042868,1.1734722,0.19394971,262.91953,118.101524,-27.990143,WAL
119567700780000,3.140086,-5.88806102181223,-11.1014797645359,-1.08982347843345,3.5845573,0.8026769,0.20219639,263.6023,118.25296,-28.191961,WAL
119567705774000,3.14508,-5.984824529091,-11.1199110622862,-1.08291179590539,3.4376442,0.37782016,0.19333886,264.17722,118.443665,-28.41831,WAL
119567710753000,3.150059,-6.08129739708078,-11.138286999711,-1.07602087333687,3.277292,-0.105374254,0.16982053,264.60516,118.645706,-28.640898,WAL
119567715759000,3.155065,-6.20474956949713,-11.0694470852057,-1.04897941569886,3.073874,-0.6310238,0.14538592,264.89362,61.14415,-28.855453,WAL
119567720761000,3.160067,-6.35385013520086,-10.9156870355997,-1.00238550107966,2.874121,-1.1435398,0.13164146,265.02643,60.928207,-29.05943,WAL
119567725758000,3.165064,-6.48270326722856,-10.726487603173,-1.01750224865642,2.6426032,-1.6310102,0.11301007,265.03876,60.681114,-29.279074,WAL
119567730752000,3.170058,-6.58703503321765,-10.4941128464056,-1.10760683410015,2.4437664,-2.076331,0.07452556,264.89963,60.44098,-29.475191,WAL
119567735720000,3.175026,-6.61151960196511,-10.237290659214,-1.23859294804492,2.254398,-2.4397957,0.028405234,264.6913,60.16165,-29.697823,WAL
119567741181000,3.180487,-6.52237948105073,-9.91743560757971,-1.44309047956687,2.0787745,-2.702468,-0.04734206,264.3768,59.90674,-29.882626,WAL
119567745678000,3.184984,-6.34713438101278,-9.64155625719582,-1.58169613464728,1.9113973,-2.7947085,-0.12980886,264.09378,59.62519,-30.091997,WAL
119567750766000,3.190072,-6.01908800115133,-9.31350957947117,-1.70055358196897,1.7336355,-2.9205468,-0.204029,263.7201,59.374786,-30.261606,WAL
119567755648000,3.194954,-5.74813377459172,-9.04890116123793,-1.78757405893711,1.6398678,-2.9706378,-0.2284636,263.41333,59.126377,-30.433718,WAL
119567760721000,3.200027,-5.54210580111883,-8.86040760511594,-1.83140980479112,1.4410311,-2.971554,-0.25992316,263.0856,58.920258,-30.568924,WAL
119567765784000,3.20509,-5.33501675036776,-8.7170065379033,-1.86330265294695,1.219287,-2.934902,-0.28252518,262.752,58.75936,-30.662449,WAL
119567770760000,3.210066,-5.12471582374228,-8.78243359370403,-1.83993589958811,1.0033462,-2.8527408,-0.31642818,262.43784,58.625343,-30.738016,WAL
119567775750000,3.215056,-4.90780357738344,-8.84816338970077,-1.81207580535839,0.7858781,-2.740036,-0.37293324,262.11987,58.54049,-30.774843,WAL
119567780756000,3.220062,-4.65043794604832,-8.91488766149717,-1.75488343730987,0.60231316,-2.5809057,-0.42363504,261.84863,58.477005,-30.804598,WAL
119567785717000,3.225023,-4.39944418462748,-8.97559909514449,-1.7094665946727,0.43585235,-2.3976462,-0.4841107,261.54495,58.500347,-30.75454,WAL
119567790764000,3.23007,-4.17615888235699,-8.99460198771378,-1.75222337579123,0.29077184,-2.2214115,-0.54428095,261.2976,58.54703,-30.69673,WAL
119567795715000,3.235021,-3.95117403762572,-9.00256835436798,-1.81885111810294,0.17959438,-2.0347922,-0.6236934,261.03436,58.672382,-30.564377,WAL
119567800763000,3.240069,-3.65087288771446,-8.88340131039243,-2.18111913088148,0.115453534,-1.7919732,-0.66675943,260.85297,58.807198,-30.437773,WAL
119567805830000,3.245136,-3.35089833156581,-8.76429993262632,-2.54534378886909,0.106595986,-1.5134187,-0.68630713,260.68738,59.0008,-30.258595,WAL
119567810862000,3.250168,-3.07174475701809,-8.65263850280724,-2.91468550343998,0.18997909,-1.1991285,-0.68416905,260.61646,59.193703,-30.088757,WAL
119567815721000,3.255027,-2.80218847348721,-8.54481598939488,-3.2713292616077,0.32406402,-0.8594874,-0.6462954,260.59756,59.428158,-29.89082,WAL
119567820759000,3.260065,-2.523913061215,-8.38148613959365,-3.42506419607803,0.49113566,-0.5204572,-0.58551437,260.67993,59.643036,-29.71579,WAL
119567825673000,3.264979,-2.2527674026079,-8.21023624471849,-3.524959860467,0.66859204,-0.21624629,-0.4990769,260.8576,59.826637,-29.572935,WAL
119567830747000,3.270053,-2.07078756101497,-8.21738062278826,-3.48523696581762,0.81214535,0.03940081,-0.4120286,261.0811,60.03899,-29.408806,WAL
119567835660000,3.274966,-1.91526264370018,-8.26312320338324,-3.41662309492514,0.9288206,0.28588495,-0.355829,261.39597,60.22324,-29.271803,WAL
119567840755000,3.280061,-1.82168937311657,-8.40354546550357,-3.27058197303727,1.0369438,0.52778757,-0.30818152,261.74628,60.41183,-29.127361,WAL
119567845673000,3.284979,-1.75165755037669,-8.56695318189929,-3.10717430539255,1.1078042,0.6450737,-0.27397305,262.13184,60.58131,-28.999525,WAL
119567850761000,3.290067,-1.68182276484906,-8.68863764141509,-2.9304720460566,1.1407908,0.86620694,-0.27397305,262.59433,60.7698,-28.851725,WAL
119567855656000,3.294962,-1.61548530923585,-8.79035504872641,-2.75799473534906,1.1346822,1.0647382,-0.25870144,263.08282,60.940357,-28.720549,WAL
119567860724000,3.30003,-1.55881949754382,-8.89786262056665,-2.45291868828985,1.110553,1.2257011,-0.27183503,263.60294,61.13624,-28.55969,WAL
119567865782000,3.305088,-1.50945188137994,-9.00647095342438,-2.0727881830106,1.0622946,1.310306,-0.33261612,264.15863,61.339966,-28.392212,WAL
119567870754000,3.31006,-1.50049714028322,-9.14800865893341,-1.64418973244953,0.9492846,1.3045027,-0.44409904,264.71118,61.57722,-28.187775,WAL
119567875767000,3.315073,-1.51014030557397,-9.30712169177463,-1.18613907905996,0.7678576,1.2012665,-0.6197228,265.25592,61.850582,-27.947998,WAL
119567880750000,3.320056,-1.48754248517941,-9.35334181883775,-0.714362967808112,0.50976706,0.9486737,-0.81581056,265.72656,62.167114,-27.65766,WAL
119567885762000,3.325068,-1.45010182870515,-9.34866163904056,-0.232314144297972,0.29046643,0.67073005,-0.9963212,266.15204,62.528126,-27.322552,WAL
119567890858000,3.330164,-1.47404598581532,-9.31569287917123,-0.157527453602949,0.07452556,0.44165558,-1.1520919,266.4673,62.93864,-26.930054,WAL
119567895762000,3.335068,-1.5301846467178,-9.26891021396553,-0.307230526546469,-0.1441642,0.31031954,-1.2733486,266.72208,63.3887,-26.499706,WAL
119567900751000,3.340057,-1.60350063286371,-9.1991369712098,-0.532341408422665,-0.33292156,0.26267207,-1.3756685,266.89932,63.8721,-26.028576,WAL
119567905749000,3.345055,-1.68657392419602,-9.11606352679939,-0.801107978223583,-0.49449542,0.27183503,-1.4443909,267.0511,64.37537,-25.540092,WAL
119567910743000,3.350049,-1.76770339312555,-8.97833483415524,-1.2050842130289,-0.5681047,0.39003745,-1.4822645,267.22034,64.883415,-25.049826,WAL
119567915803000,3.355109,-1.8489536980866,-8.81105514680935,-1.68302720922182,-0.52626044,0.47403142,-1.4446963,267.37695,65.37858,-24.570782,WAL
119567920759000,3.360065,-1.94586866248295,-8.24756443888131,-2.02783983042292,-0.37232238,0.5589417,-1.3582588,267.56943,65.84507,-24.120628,WAL
119567926563000,3.365869,-2.07044748988501,-7.33218156217112,-2.35282785942311,-0.17348573,0.6960809,-1.2281445,267.79752,66.27462,-23.703794,WAL
119567930767000,3.370073,-2.23898612026458,-6.87689037155743,-2.38043250096212,0.04550946,0.84940815,-1.1029172,268.06366,66.65316,-23.336504,WAL
119567935747000,3.375053,-2.47797436380036,-6.44193169146121,-2.3087360229104,0.28038713,1.0228939,-0.9779953,268.37057,66.98204,-23.013988,WAL
119567940752000,3.380058,-2.80313565660793,-6.0476058438326,-2.20551326762115,0.47128254,1.1969905,-0.8530733,268.72806,67.19297,-22.806534,WAL
119567945761000,3.385067,-3.18735855422507,-5.68259387545054,-2.08064082338807,0.61269784,1.2745703,-0.7644979,269.10034,112.62841,-22.628275,WAL
119567950677000,3.389983,-3.53177230242697,-5.36836425193708,-1.92807070394607,0.7089091,1.4245378,-0.7333437,269.53928,112.58141,-22.57985,WAL
119567955717000,3.395023,-3.86150699725843,-5.07767712133034,-1.75018742628315,0.7360926,1.5528195,-0.6881397,269.9848,112.56412,-22.559935,WAL
119567960729000,3.400035,-4.16206616199086,-4.77407443511822,-1.57172652787602,0.7672467,1.6459764,-0.66767573,270.4347,112.72053,-22.714256,WAL
119567965915000,3.405221,-4.42356647679316,-4.43363084582754,-1.38423578084641,0.7684685,1.7140878,-0.65118235,270.89923,112.87447,-22.865498,WAL
119567970680000,3.409986,-4.62962565550927,-4.13236919446593,-1.2104474023981,0.7458665,1.7583756,-0.63591075,271.38385,113.04989,-23.038576,WAL
119567975823000,3.415129,-4.78593959917683,-3.82951091585837,-1.0199399097947,0.7110472,1.783421,-0.6270532,271.86804,113.21566,-23.201605,WAL
119567980695000,3.420001,-4.89324309337697,-3.54544672283404,-0.853349926153254,0.6392705,1.7846428,-0.6087272,272.3792,113.33599,-23.318624,WAL
119567985775000,3.425081,-4.92134290700809,-3.25508173746631,-0.708167448140162,0.5543602,1.7754798,-0.5900958,272.88428,113.455666,-23.43417,WAL
119567990654000,3.42996,-4.91279713142715,-2.9773734660368,-0.57104342711089,0.4456262,1.7650951,-0.5531385,273.401,113.5769,-23.550755,WAL
119567996385000,3.435691,-4.7763360652909,-2.65532517896569,-0.418206919045251,0.3368922,1.756543,-0.49357912,273.90717,113.709435,-23.677206,WAL
119568000687000,3.439993,-4.66859889238599,-2.42475704670195,-0.322438335447883,0.21013765,1.7385225,-0.42943826,274.41257,113.847466,-23.80799,WAL
119568005749000,3.445055,-4.52549454474756,-2.1878948132329,-0.268157412956026,0.07147124,1.707063,-0.34666604,274.90414,114.00873,-23.9596,WAL
119568010707000,3.450013,-4.39728237969647,-1.9891514461854,-0.236371929598031,-0.0711658,1.6566665,-0.26389378,275.38504,114.18025,-24.119898,WAL
119568015797000,3.455103,-4.29731139749795,-1.87318487801477,-0.260365012091879,-0.19792034,1.6166549,-0.19608775,275.85278,114.37229,-24.297503,WAL
119568020691000,3.459997,-4.20118998553733,-1.76168382013126,-0.28343419592781,-0.32925636,1.575116,-0.113926366,276.30615,114.58088,-24.487913,WAL
119568025809000,3.465115,-4.14723469076117,-1.64840363918,-0.340266285318993,-0.44318274,1.5454891,-0.028099801,276.74466,114.81118,-24.696064,WAL
119568030785000,3.470091,-4.10342654117485,-1.53888397424159,-0.401597292195257,-0.5305365,1.5274686,0.06811147,277.16824,115.06894,-24.927332,WAL
119568035758000,3.475064,-4.11737926852085,-1.45675392398181,-0.396416986574441,-0.61941737,1.491733,0.16890424,277.58246,115.336426,-25.161642,WAL
119568040674000,3.47998,-4.15836972969914,-1.38843688499565,-0.359981203914095,-0.7107417,1.4465289,0.25228736,277.9827,115.627464,-25.41427,WAL
119568045750000,3.485056,-4.26531321377599,-1.39883085930293,-0.251945587400559,-0.8054258,1.4343116,0.33108896,278.38824,115.940475,-25.67952,WAL
119568050768000,3.490074,-4.41441772013652,-1.46344281205916,-0.0978708228805461,-0.8527679,1.3759739,0.35979962,278.75912,116.26237,-25.950104,WAL
119568055733000,3.495039,-4.55864627405519,-1.6154058045091,0.105482750437912,-0.95356065,1.2999213,0.4196644,279.12573,116.618996,-26.246784,WAL
119568060714000,3.50002,-4.70172393035393,-1.81094521333733,0.33440691685183,-1.0396926,1.2134838,0.45204028,279.46442,116.97474,-26.538944,WAL
119568066421000,3.505727,-4.82705119144113,-2.092527996924,0.627276524692899,-1.1603385,1.0803152,0.51343226,279.76767,117.36154,-26.861185,WAL
119568070746000,3.510052,-4.90978296014182,-2.32417716525517,0.858925636872066,-1.3439035,1.0476339,0.5335908,280.06982,117.74991,-27.1735,WAL
119568075811000,3.515117,-4.97275549441789,-2.70591396050468,1.2406623942554,-1.4083499,0.9673051,0.56169057,280.31372,118.142136,-27.503635,WAL
119568080779000,3.520085,-5.01823197379086,-3.13339364538329,1.66814205539094,-1.5244142,0.90285885,0.5852089,280.54782,118.54668,-27.83097,WAL
119568085748000,3.525054,-5.10861943823073,-3.81495795778583,2.264243450388,-1.6300939,0.86651236,0.6075055,280.76483,118.92064,-28.139048,WAL
119568090759000,3.530065,-5.23275147397827,-4.68884613106053,2.98917349184687,-1.7507398,0.87109387,0.59620446,280.96957,119.29307,-28.436674,WAL
119568095748000,3.535054,-5.39402537813786,-5.92747736741246,4.37231908616434,-1.8658879,0.8772025,0.5537493,281.1408,119.58258,-28.675388,WAL
119568100768000,3.540074,-5.57731742930671,-7.37934326286746,6.13288733057088,-2.0173824,0.7318166,0.48349985,281.25977,119.863396,-28.89992,WAL
119568105750000,3.545056,-5.56879577577554,-9.60260199861098,8.66440380988981,-2.149024,0.2284636,0.40317106,281.20248,119.94801,-28.992107,WAL
119568110746000,3.550052,-5.45803141626076,-12.2520831798315,11.6240246796,-2.2305744,-0.7861836,0.27947086,280.9348,120.00589,-29.073763,WAL
119568115766000,3.555072,-4.94683170244941,-14.3845353518637,13.9780460592119,-2.164601,-2.19209,0.011911872,280.40137,119.86638,-29.07885,WAL
119568120748000,3.560054,-4.02715025793397,-15.9545985919063,15.6751375657082,-1.8286251,-3.1969633,-0.42241332,279.68024,119.64749,-29.013313,WAL
119568125815000,3.565121,-2.98973647089111,-17.0170971472898,14.8106770018423,-1.273654,-3.048523,-0.9596693,278.8406,119.111786,-28.729324,WAL
119568130768000,3.570074,-1.91346983818482,-17.730008808785,12.3867778330263,-0.84391034,-1.9752327,-1.4214834,277.9873,118.535324,-28.335646,WAL
119568135923000,3.575229,-0.559782778263491,-18.2683693433826,10.0310055435635,-0.6844745,-0.87598073,-1.7464638,277.16037,117.71481,-27.64999,WAL
119568140760000,3.580066,0.878646673258969,-18.626813840619,7.94086011908351,-0.7672467,-0.3213151,-1.9104811,276.5326,116.88687,-26.880375,WAL
119568145735000,3.585041,2.24513903789887,-18.8575862201276,6.3278311509082,-0.93554014,-0.2660318,-1.9318613,276.2098,64.08884,-25.91083,WAL
119568150764000,3.59007,3.53607272194404,-18.9805318150221,5.12674251458026,-1.0091494,-0.364992,-1.8600847,276.03333,65.03678,-24.95207,WAL
119568155727000,3.595033,4.37814871815805,-17.8941740727931,3.71758813287754,-1.0577132,-0.44837508,-1.6551393,275.97168,66.09656,-23.884626,WAL
119568160732000,3.600038,4.82633585027147,-15.6773349761713,2.08869332059119,-0.95142263,-0.2434298,-1.4016303,275.9699,67.08459,-22.887486,WAL
119568165822000,3.605128,4.80237771611471,-13.5618608669499,0.712562739142609,-0.7153232,0.19730948,-1.1801916,276.06268,68.14219,-21.828197,WAL
119568170767000,3.610073,4.37713579046056,-11.6231238900261,-0.389408094351646,-0.4166101,0.7162395,-1.0085385,276.23416,69.10757,-20.860407,WAL
119568175827000,3.615133,3.7402573380311,-9.95852859889076,-1.25289428483708,-0.1432479,1.1523973,-0.8854492,276.5453,69.981834,-19.993069,WAL
119568180738000,3.620044,2.90181977401208,-8.69155577409131,-1.80253683869466,0.040317107,1.4104879,-0.7666359,276.94943,70.792,-19.187883,WAL
119568185749000,3.625055,1.56775473822249,-7.44517846223278,-2.32765514679335,0.21227567,1.505172,-0.59040123,277.444,71.428696,-18.559828,WAL
119568190756000,3.630062,-0.373257523980602,-6.25874067410926,-2.80697608931116,0.36987892,1.4355333,-0.36071593,277.9575,72.01008,-17.98369,WAL
119568195693000,3.634999,-1.81844613687655,-5.62421684583044,-3.01573044610808,0.5143485,1.2305881,-0.10476339,278.45154,72.38087,-17.617178,WAL
119568200753000,3.640059,-2.62088481947447,-5.74914751831433,-2.84755456013882,0.6441574,0.88300574,0.12858713,278.87524,72.68991,-17.309717,WAL
119568205652000,3.644958,-3.41935237305139,-6.09120519283141,-2.77295322501422,0.77304995,0.40958515,0.34055737,279.30185,107.4655,-17.464775,WAL
119568210748000,3.650054,-4.28472662194197,-6.80386644130476,-2.83774070348947,0.8958339,-0.1337795,0.5216789,279.5854,107.67571,-17.67231,WAL
119568215710000,3.655016,-5.21018157899362,-7.68188899278513,-2.94097098002035,0.9831876,-0.66950834,0.68325275,279.73618,108.02856,-18.022863,WAL
119568220761000,3.660067,-6.36009562158912,-9.03762392683378,-3.14679210507816,1.0519099,-1.0604621,0.8063421,279.7625,108.40614,-18.399757,WAL
119568225695000,3.665001,-7.55291204784154,-10.4598543168106,-3.33317335028949,1.0894781,-1.1386528,0.88422745,279.68365,108.83583,-18.830557,WAL
119568230783000,3.670089,-9.29509906338243,-12.6474870757745,-3.41731300420518,1.0418307,-0.70188415,0.88056225,279.64987,109.262405,-19.257734,WAL
119568235712000,3.675018,-10.9413891860283,-14.6258876771861,-3.3221647393063,0.77946407,0.3735441,0.8005389,279.7892,109.74436,-19.737286,WAL
119568240759000,3.680065,-12.4006221074744,-15.8820566370298,-2.25961645148999,0.25320363,1.133155,0.655153,279.97104,110.19057,-20.177345,WAL
119568245708000,3.685014,-13.5764623973371,-16.8825293104415,-1.05677753230554,-0.43585235,2.8322768,0.569021,280.76144,110.70464,-20.667286,WAL
119568251434000,3.69074,-12.5224364365802,-15.8504609460406,1.85826285956552,-0.7831292,4.07722,0.36774087,281.63684,111.12859,-21.0498,WAL
119568255683000,3.694989,-11.6797036564092,-14.9717756136477,3.68378197160555,-1.2241739,4.0518694,0.22266038,282.6059,111.625084,-21.483253,WAL
119568260740000,3.700046,-10.1652107220502,-12.9734188750125,3.00637294876611,-1.0815369,2.8029552,0.15088372,283.55304,112.05849,-21.850197,WAL
119568265734000,3.70504,-8.75322414360042,-11.074281012487,2.29045885506244,-0.3943135,1.3448198,0.118202426,284.4007,112.35538,-22.128195,WAL
119568270825000,3.710131,-7.97952811550468,-9.72982614047867,1.18699093570239,0.3145956,0.21380283,0.15760323,284.94336,112.625,-22.401747,WAL
119568275653000,3.714959,-7.24580106312868,-8.45482552722858,0.140527939302809,0.88147855,-0.5910121,0.21960606,285.13477,112.817024,-22.621857,WAL
119568280756000,3.720062,-6.69530284051463,-7.36511428862146,-0.481526655027884,1.3164146,-1.2030991,0.26175576,285.04013,112.9928,-22.85432,WAL
119568285680000,3.724986,-6.22009598783876,-6.37779134683495,-0.961347085177576,1.6194037,-1.6899587,0.2883284,284.7469,113.17437,-23.098701,WAL
119568290755000,3.730061,-5.87842057905501,-5.56674316602861,-1.10807978392102,1.8329011,-2.0610592,0.27550024,284.30542,113.34822,-23.314903,WAL
119568295664000,3.73497,-5.59424244640338,-4.84682540801934,-1.14123388208745,1.9028453,-2.3344216,0.26297748,283.7562,113.53817,-23.531923,WAL
119568300748000,3.740054,-5.42346651747261,-4.34878216309029,-1.06804187762561,1.8606955,-2.4987442,0.2321288,283.13638,66.274895,-23.724674,WAL
119568305762000,3.745068,-5.29194746955043,-3.93154869761995,-0.963733558613525,1.7085901,-2.5854871,0.20677789,282.4698,66.07965,-23.905973,WAL
119568310769000,3.750075,-5.19395679945165,-3.71280758673978,-0.89073850163011,1.4718798,-2.622139,0.204029,281.77368,65.87208,-24.08227,WAL
119568315779000,3.755085,-5.11263480912263,-3.59321683878365,-0.833334945608175,1.1899655,-2.6484063,0.21746802,281.0678,65.6635,-24.24725,WAL
119568321402000,3.760708,-4.98766844828273,-3.77450779800896,-0.960452197284221,0.9062186,-2.6535985,0.2415972,280.36438,65.45062,-24.408117,WAL
119568325763000,3.765069,-4.87956752877053,-4.01981415654554,-1.12260391952812,0.6441574,-2.6233609,0.26450464,279.67673,65.23942,-24.566391,WAL
119568330731000,3.770037,-4.7087170933851,-4.3202725204699,-1.47066804722194,0.42363504,-2.5237896,0.29840767,279.0176,65.027115,-24.728157,WAL
119568335746000,3.775052,-4.5101554580115,-4.63506544090955,-1.91137782230513,0.26511553,-2.3267858,0.34116822,278.40985,64.81459,-24.896936,WAL
119568340707000,3.780013,-4.30907753327358,-4.93453730638383,-2.39072135633901,0.16249016,-2.1789563,0.3662137,277.83502,64.64311,-25.036753,WAL
119568345737000,3.785043,-4.10278656813066,-5.23198002692959,-2.89925260302759,0.12064589,-1.8304577,0.42210788,277.39343,64.45827,-25.202703,WAL
119568350733000,3.790039,-3.90812218111342,-5.51675872676753,-3.24426099133788,0.079107046,-1.4352279,0.47311515,277.04602,64.33834,-25.32727,WAL
119568355800000,3.795106,-3.71618834966874,-5.79986118075744,-3.50817007220409,0.06352998,-1.0259482,0.5308419,276.8178,64.20458,-25.474766,WAL
119568360712000,3.800018,-3.59085022512996,-6.07156747996435,-3.64691293096688,0.056199603,-0.6258314,0.5842926,276.757,64.1361,-25.582512,WAL
119568370790000,3.810096,-3.4044999772563,-6.62583971785732,-3.7950374281202,0.038179077,0.08307768,0.72082096,277.04605,64.02262,-25.796015,WAL
119568375841000,3.815147,-3.31110296376058,-6.90363581565424,-3.86927605037873,0.03756821,0.39553526,0.7910705,277.3743,63.975246,-25.895391,WAL
119568380760000,3.820066,-3.29784251787091,-7.26418715838687,-3.92033502947514,0.027794369,0.6963864,0.86406887,277.77835,63.936897,-25.981222,WAL
119568385739000,3.825045,-3.33554782490857,-7.68837049686666,-3.95804018887022,0.046731193,0.96669424,0.91904676,278.25116,63.87768,-26.077845,WAL
119568391286000,3.830592,-3.38071777375901,-8.19893528224613,-3.9935983381427,0.0711658,1.2162327,0.94806284,278.77686,63.818756,-26.16372,WAL
119568395759000,3.835065,-3.41876502435606,-8.63013813253725,-4.01896320130267,0.10354166,1.4538593,0.95172805,279.36282,63.746216,-26.250978,WAL
119568400766000,3.840072,-3.47186501890123,-9.10110494674732,-3.96945154224514,0.15668693,1.6887369,0.9392053,279.99036,116.313705,-26.312988,WAL
119568405761000,3.845067,-3.53353404974217,-9.56125074652916,-3.85560120666402,0.20922135,1.9086485,0.9126327,280.66556,116.37525,-26.363997,WAL
119568410726000,3.850032,-3.59222462824133,-9.99784238254172,-3.68338260962773,0.24923302,2.121535,0.88086766,281.37378,116.42224,-26.388048,WAL
119568415847000,3.855153,-3.6503379405352,-10.4288498532636,-3.45092920874889,0.28619036,2.2950208,0.8436049,282.11472,116.46417,-26.39558,WAL
119568420749000,3.860055,-3.65252262580294,-10.6909001205523,-3.18653318031375,0.28680122,2.4611762,0.81122905,282.8927,116.48659,-26.373314,WAL
119568425788000,3.865094,-3.60237127196516,-10.8126959449696,-2.8736843454397,0.26419923,2.620612,0.77518797,283.69794,116.50198,-26.333542,WAL
119568430722000,3.870028,-3.55326494534567,-10.9319538528233,-2.56735448807344,0.21410827,2.7895162,0.7312057,284.49747,116.49691,-26.268703,WAL
119568435727000,3.875033,-3.50345198127382,-11.0529278756866,-2.25661656020191,0.160963,2.8686233,0.68875057,285.29422,116.48778,-26.191803,WAL
119568440696000,3.880002,-3.39697906735041,-11.0128031790339,-1.93301233229984,0.07238753,3.0488284,0.6759224,286.15164,116.48291,-26.104269,WAL
119568445697000,3.885003,-3.2204170108895,-10.7773874504206,-1.58894249229606,0.022907447,3.250414,0.6435465,287.01434,116.46612,-25.995707,WAL
119568450677000,3.889983,-3.04166546630389,-10.5098210707932,-1.22092063078694,-0.12308934,3.4523048,0.6105598,287.89078,116.437416,-25.876034,WAL
119568455730000,3.895036,-2.85429730745082,-10.170532690247,-0.795544433068229,-0.3268129,3.663359,0.5873469,288.8091,116.41356,-25.745144,WAL
119568461147000,3.900453,-2.6822425521978,-9.84879866758242,-0.354183999725275,-0.5858198,3.8655553,0.5714644,289.7535,116.39556,-25.60958,WAL
119568465765000,3.905071,-2.56287499783112,-9.61432699580683,0.00818190891748602,-0.8784242,4.06317,0.55924714,290.73636,116.3929,-25.461494,WAL
119568470656000,3.909962,-2.54082689567256,-9.4443571781772,0.385803007178861,-1.2098186,4.240321,0.5183192,291.7503,116.39935,-25.302065,WAL
119568475795000,3.915101,-2.72351500735567,-9.4203192885611,0.770409507097783,-1.5134187,4.362189,0.45112398,292.77844,116.42131,-25.124023,WAL
119568480706000,3.920012,-2.89460821359714,-9.42454356342359,1.05777030493901,-1.8252654,4.4495425,0.35613444,293.86835,116.46183,-24.92897,WAL
119568485768000,3.925074,-3.06288379312705,-9.49185365466627,1.16835143448378,-2.1035144,4.473977,0.24923302,294.94202,116.51204,-24.703876,WAL
119568490697000,3.930003,-3.20185803021176,-9.5447105845199,1.27852206937751,-2.3432791,4.4403796,0.12522738,295.97015,116.559616,-24.463316,WAL
119568495753000,3.935059,-3.28140954769989,-9.5668082026287,1.39784925331325,-2.5286767,4.350582,0.011911872,296.95135,116.61316,-24.194916,WAL
119568500699000,3.940005,-3.35910399590271,-9.58096785568675,1.52386908933293,-2.6902506,4.174348,-0.1001819,297.88937,116.681946,-23.913376,WAL
119568505748000,3.945054,-3.43717965503078,-9.52241086931073,1.74345722775255,-2.8099802,3.8933496,-0.20372356,298.7295,116.75045,-23.61432,WAL
119568510719000,3.950025,-3.51432061009982,-9.44545895772167,1.98814624995107,-2.8973339,3.5008688,-0.2938262,299.48965,116.82359,-23.311592,WAL
119568515787000,3.955093,-3.59507024744568,-9.21745996418086,2.45839395713447,-2.9547553,3.0030136,-0.38698313,300.09808,116.89111,-23.008379,WAL
119568520722000,3.960028,-3.66916312542343,-8.9983791647101,2.91034530368313,-2.9846876,2.3805418,-0.4529566,300.5912,116.9673,-22.73428,WAL
119568525741000,3.965047,-3.68639261164979,-8.81316236768528,3.29370155212833,-3.01462,1.6288722,-0.5225952,300.86987,117.03471,-22.48439,WAL
119568530731000,3.970037,-3.70352254515638,-8.62901576135855,3.67484275151895,-3.0616567,0.7715228,-0.589485,301.00403,117.09796,-22.28789,WAL
119568535769000,3.975075,-3.54277544739536,-8.41200652062632,3.82076523565191,-3.1077769,0.34238997,-0.6301075,301.02957,117.15868,-22.108805,WAL
119568541048000,3.980354,-3.33980062617685,-8.17858496226036,3.92732706712837,-3.104417,-0.86009824,-0.6169739,300.56625,117.21503,-22.056477,WAL
119568545756000,3.985062,-3.29476865890859,-8.07023452218481,3.7698226430821,-3.0641,-1.2137892,-0.6026186,300.33496,117.273315,-21.96741,WAL
119568550703000,3.990009,-3.26192365577894,-7.9670077264534,3.57744514556799,-3.0347786,-1.8817704,-0.5540548,299.65912,117.33977,-22.011389,WAL
119568555740000,3.995046,-3.27190136371918,-7.93690908599861,3.14873914217249,-2.9342911,-2.4379632,-0.4859433,298.98346,117.395874,-22.062696,WAL
119568560680000,3.999986,-3.29063961186256,-7.92285535097534,2.68028274292504,-2.7852402,-2.8860328,-0.42271876,298.14774,117.44554,-22.168047,WAL
119568565794000,4.0051,-3.2403421223768,-7.97023554986774,1.99472782686392,-2.5980098,-3.2091806,-0.3640757,297.22,117.51373,-22.317701,WAL
119568570731000,4.010037,-3.17549165027922,-8.03045393866954,1.28600370134222,-2.3790147,-3.412904,-0.29718593,296.20596,117.56468,-22.505833,WAL
119568575741000,4.015047,-3.03625134193703,-8.04806295598963,0.585105389356882,-2.1386392,-3.490484,-0.23671028,295.1518,117.634254,-22.709797,WAL
119568580689000,4.019995,-2.87705459511423,-8.05261128791515,-0.101714740449222,-1.8710803,-3.4535267,-0.18967366,294.0871,117.673325,-22.92404,WAL
119568585761000,4.025067,-2.66576715251843,-8.03713753439803,-0.746132056056511,-1.5867225,-3.3224962,-0.14049901,293.06723,117.73859,-23.120157,WAL
119568590700000,4.030006,-2.4381778504914,-8.01292591728092,-1.34658054484029,-1.3170254,-3.105639,-0.07666359,292.10736,117.77695,-23.311625,WAL
119568595723000,4.035029,-2.23355194592088,-7.98895448494624,-1.85479699087501,-1.0558805,-2.8249464,-0.0021380284,291.27448,117.84404,-23.465956,WAL
119568600724000,4.04003,-2.03984190851337,-7.96533148172043,-2.32253573053172,-0.8268061,-2.4944682,0.07849618,290.54523,117.89089,-23.61012,WAL
119568605752000,4.045058,-1.94255962717583,-7.97824593441228,-2.65379620509486,-0.59681535,-2.0864103,0.16340645,289.9738,117.961205,-23.716633,WAL
119568610767000,4.050073,-1.88620011949932,-8.00642561468805,-2.92620040228828,-0.38789943,-1.640784,0.24495697,289.53162,118.018616,-23.811087,WAL
119568615816000,4.055122,-1.89714612050265,-8.10479349593,-3.12877625285918,-0.22602014,-1.151481,0.30848694,289.26358,118.09744,-23.863243,WAL
119568620740000,4.060046,-1.9403294702381,-8.2343435952381,-3.29191341309524,-0.07941248,-0.6417139,0.37110063,289.14716,118.16653,-23.899685,WAL
119568625752000,4.065058,-2.03760770505858,-8.40182405179468,-3.35163222755254,0.029321533,-0.11911872,0.4156938,289.18976,118.240265,-23.894571,WAL
119568630773000,4.070079,-2.15833478798587,-8.58515031448763,-3.36504629081272,0.093767814,0.4129449,0.45265114,289.38992,118.311295,-23.864288,WAL
119568635758000,4.075064,-2.31005314024468,-8.77320466138298,-3.2899928102234,0.14660765,0.68936145,0.48380527,289.69894,118.41019,-23.835594,WAL
119568640757000,4.080063,-2.48830902448936,-8.96673988276596,-3.14229506844681,0.14844026,1.2238685,0.49968776,290.23584,118.510056,-23.750862,WAL
119568646218000,4.085524,-2.68111726845238,-9.18268152757937,-2.91987729919643,0.12308934,1.7513506,0.51068336,290.86316,118.62581,-23.665337,WAL
119568650771000,4.090077,-2.84116876904762,-9.36436158492063,-2.71224301892857,0.070249505,2.2950208,0.5109888,291.63705,118.743546,-23.536222,WAL
119568655736000,4.095042,-2.97997071306057,-9.47381790617757,-2.38338769860929,-0.009773844,2.806315,0.5002986,292.55582,118.872696,-23.387196,WAL
119568660728000,4.100034,-3.10041671108536,-9.53644957160133,-1.99796047474554,-0.12858713,3.261715,0.48747048,293.5919,119.01203,-23.195848,WAL
119568665757000,4.105063,-3.09353699251863,-9.50364347242921,-1.50529419517139,-0.29901853,3.6199875,0.47342056,294.72583,119.157295,-22.986893,WAL
