timestamp,rel_time,acc_x,acc_y,acc_z,gyro_x,gyro_y,gyro_z,azimuth,pitch,roll,label
3935305572000,0,-0.653741395900415,9.81722112499063,-1.21933535639265,-0.0070249503,-0.03268129,0.002443461,305.39594,-98.47704,-8.397301,STD
3935310574000,0.005002,-0.653980683149093,9.81913543797174,-1.21143886969045,-0.0143553335,-0.038179077,-0.007941248,305.46918,-98.42742,-8.340174,STD
3935315580000,0.010008,-0.654220161751028,9.82105128179089,-1.20353606832475,-0.013439035,-0.05131268,-0.005497787,305.54852,-98.37753,-8.282844,STD
3935320606000,0.015034,-0.654460597119251,9.82297477980029,-1.19560169364157,-0.017104227,-0.06261369,-0.013744468,305.62753,-98.335495,-8.233766,STD
3935325576000,0.020004,-0.654698353541868,9.824876846077,-1.18775572424734,-0.022907447,-0.05497787,-0.014660766,305.70358,-98.292946,-8.184006,STD
3935330567000,0.024995,-0.654937114569087,9.82678694925346,-1.17987660286976,-0.01985312,-0.051923547,-0.013133603,305.78287,-98.254456,-8.138015,STD
3935335565000,0.029993,-0.655176210464506,9.82869973139652,-1.17198643083106,-0.030848695,-0.05222898,-0.010079277,305.85962,-98.21689,-8.093727,STD
3935340589000,0.035017,-0.655416550156101,9.83062246398689,-1.16405521347963,-0.02321288,-0.046731193,-0.011301007,305.93256,-98.18316,-8.052022,STD
3935345564000,0.039992,-0.655654545770289,9.83252644381116,-1.15620135075603,-0.020463986,-0.04642576,-0.013439035,306.00583,-98.14996,-8.011544,STD
3935350574000,0.045002,-0.655894215725482,9.83444381846836,-1.14829223472684,-0.025961773,-0.0421497,-0.016798794,306.0752,-98.119255,-7.9734235,STD
3935355704000,0.050132,-0.656139626278404,9.83640711826705,-1.14019367879275,-0.014660766,-0.03176499,-0.01282817,306.1416,-98.089905,-7.935408,STD
3935360576000,0.055004,-0.656372694546208,9.83827167901154,-1.13250241865419,-0.018325957,-0.016798794,-0.004276057,306.20438,-98.06074,-7.8985023,STD
3935366253000,0.060681,-0.656644272657112,9.84044432091353,-1.12354033248698,-0.016798794,-0.0070249503,-0.00061086525,306.26465,-98.03438,-7.863346,STD
3935370654000,0.065082,-0.65685480907883,9.84212862547767,-1.1165926239751,-0.019242255,-0.0012217305,-0.0106901415,306.3208,-98.010635,-7.831097,STD
3935375565000,0.069993,-0.657089743040896,9.84400811189314,-1.10883979586745,-0.027183503,0.004276057,-0.0061086523,306.3735,-97.98305,-7.794996,STD
3935380563000,0.074991,-0.657328838936316,9.84592089403619,-1.10094962382874,-0.021991149,0.024129177,-0.007330383,306.41946,-97.96196,-7.76459,STD
3935385547000,0.079975,-0.657567265095334,9.84782831824607,-1.09308155311228,-0.02565634,0.039095376,-0.01038471,306.4645,-97.940414,-7.734695,STD
3935390601000,0.085029,-0.657809039936361,9.84976253212182,-1.08510297578463,-0.027488936,0.050396383,-0.014966198,306.5042,-97.92132,-7.706654,STD
3935395551000,0.089979,-0.658045839592689,9.85165694420828,-1.07728857970788,-0.020463986,0.059864793,-0.009162978,306.53967,-97.901665,-7.6775055,STD
3935400567000,0.094995,-0.658285796577768,9.85357661512256,-1.06936999168344,-0.03726278,0.06383542,-0.009162978,306.57288,-97.88419,-7.652298,STD
3935405611000,0.100039,-0.658527093035651,9.85550700190318,-1.06140720101453,-0.03145956,0.06841691,-0.022602014,306.6027,-97.87188,-7.630208,STD
3935410556000,0.104984,-0.658763653500407,9.85739950044208,-1.05360069826715,-0.021685716,0.077579886,-0.021380283,306.62976,-97.85558,-7.604796,STD
3935415536000,0.109964,-0.659001888306168,9.85930539381391,-1.04573894221419,-0.028099801,0.086132,-0.017715093,306.65524,-97.84238,-7.5832963,STD
3935420710000,0.115138,-0.659249403744924,9.86128553283115,-1.03757092498164,-0.035124753,0.095294975,-0.021380283,306.67758,-97.83225,-7.5642395,STD
3935425568000,0.119996,-0.659481802276326,9.86314473564246,-1.02990176616531,-0.04184427,0.096516706,-0.02076942,306.6996,-97.820206,-7.543674,STD
3935430573000,0.125001,-0.659721233039947,9.8650601967521,-1.02200054346549,-0.03634648,0.12003502,-0.025961773,306.7122,-97.811806,-7.526175,STD
3935435880000,0.130308,-0.659975110974519,9.86709123613449,-1.01362256367169,-0.03604105,0.12797627,-0.03359759,306.72873,-97.80362,-7.5100083,STD
3935440609000,0.135037,-0.660201338363363,9.8689010694187,-1.00615705275312,-0.032375857,0.121256754,-0.032375857,306.7427,-97.795586,-7.493263,STD
3935445555000,0.139983,-0.660437946666434,9.87079395066711,-0.99834897133987,-0.032375857,0.12675454,-0.022296581,306.75085,-97.78734,-7.4764037,STD
3935450601000,0.145029,-0.660679338800945,9.87272510286676,-0.990383023339211,-0.05100725,0.12003502,-0.021991149,306.76437,-97.780624,-7.462686,STD
3935455534000,0.149962,-0.66495840824059,9.87241728191781,-0.986180060787328,-0.04886922,0.12308934,-0.026572637,306.7735,-97.77458,-7.4478374,STD
3935460597000,0.155025,-0.673669843831036,9.86975545086688,-0.985696092424167,-0.052534413,0.11942416,-0.025350908,306.78647,-97.76531,-7.4318995,STD
3935465553000,0.159981,-0.682197174422829,9.86714987419525,-0.985222352110553,-0.058948494,0.12003502,-0.019547688,306.8375,-97.70019,-7.366383,STD
3935470702000,0.16513,-0.691056582255183,9.86444282934413,-0.984730163072055,-0.054061573,0.12095132,-0.022907447,306.88794,-97.64023,-7.305471,STD
3935475581000,0.170009,-0.699451426072245,9.86187773479593,-0.984263783130546,-0.054367006,0.124311075,-0.02443461,306.93622,-97.57955,-7.244622,STD
3935480565000,0.174993,-0.708026933673031,9.85925743735215,-0.983787366317985,-0.063224554,0.11148291,-0.026267206,306.9875,-97.52178,-7.187173,STD
3935485554000,0.179982,-0.716611044311138,9.85663451119906,-0.983310471559184,-0.06719518,0.105068825,-0.021991149,307.03476,-97.46525,-7.1303515,STD
3935490583000,0.185011,-0.725263979247807,9.85399055537146,-0.982829753230459,-0.07391469,0.09468412,-0.022296581,307.08545,-97.4115,-7.077464,STD
3935495545000,0.189973,-0.733801633484384,9.85138182424866,-0.982355439381357,-0.08032878,0.0888809,-0.02565634,307.13538,-97.35909,-7.026151,STD
3935500572000,0.195,-0.742451127206125,9.84873891990478,-0.981874912231128,-0.070249505,0.081855945,-0.035124753,307.18726,-97.31124,-6.978638,STD
3935505734000,0.200162,-0.751332902935511,9.84602504040943,-0.981381480532404,-0.07574729,0.070249505,-0.03023783,307.2409,-97.260376,-6.9298234,STD
3935510579000,0.205007,-0.759669246098795,9.84347782108457,-0.980918350625331,-0.0711658,0.06352998,-0.032986723,307.2937,-97.21764,-6.8875384,STD
3935515556000,0.209984,-0.768232709447333,9.84086120383383,-0.980442602937507,-0.07574729,0.055283304,-0.03390302,307.34903,-97.17357,-6.8450756,STD
3935520703000,0.215131,-0.777088676064759,9.83815521046643,-0.979950605077505,-0.07513642,0.06383542,-0.0290161,307.40015,-97.131165,-6.803176,STD
3935525593000,0.220021,-0.785502446563926,9.83558433275774,-0.979483173654267,-0.06352998,0.06536258,-0.027183503,307.45435,-97.09201,-6.7640395,STD
3935530580000,0.225008,-0.794083115987104,9.83296245808837,-0.979006470073962,-0.06780604,0.063224554,-0.02687807,307.5059,-97.05222,-6.7253523,STD
3935535567000,0.229995,-0.802663785410283,9.83034058341901,-0.978529766493657,-0.074830994,0.07422013,-0.026572637,307.55206,-97.01422,-6.687421,STD
3935540600000,0.235028,-0.811323602776807,9.82769452462395,-0.978048665807939,-0.06780604,0.0729984,-0.019242255,307.60126,-96.97654,-6.6489215,STD
3935545559000,0.239987,-0.819856095190993,9.82508737072674,-0.977574638726581,-0.06078109,0.077579886,-0.029626964,307.64438,-96.944435,-6.616543,STD
3935550562000,0.24499,-0.828464294333596,9.82245708418757,-0.977096405718307,-0.06627888,0.07941248,-0.018325957,307.68787,-96.90535,-6.5772376,STD
3935555549000,0.249977,-0.837044963756775,9.8198352095182,-0.976619702138002,-0.0720821,0.086132,-0.022602014,307.7274,-96.8752,-6.546475,STD
3935560598000,0.255026,-0.845732310842724,9.81718073885334,-0.976137072024315,-0.070249505,0.08246681,-0.015882496,307.76865,-96.84047,-6.5106683,STD
3935565570000,0.259998,-0.854287171153942,9.81456675031191,-0.975661802282731,-0.06658431,0.08307768,-0.013133603,307.80573,-96.808876,-6.478257,STD
3935570616000,0.265044,-0.862969356417499,9.81191385687265,-0.975179458936788,-0.057726767,0.07086037,-0.015882496,307.84668,-96.77881,-6.446854,STD
3935575642000,0.27007,-0.871617129531776,9.80927147827063,-0.974699027375807,-0.056199603,0.058337633,-0.021991149,307.88663,-96.74981,-6.4167867,STD
3935580584000,0.275012,-0.880120371619072,9.80667326198509,-0.974226625311667,-0.0580322,0.05467244,-0.012217305,307.92685,-96.718895,-6.384119,STD
3935585564000,0.279992,-0.888688996790003,9.80405506750876,-0.973750590856099,-0.05497787,0.037873644,-0.015882496,307.97333,-96.694984,-6.358374,STD
3935590588000,0.285016,-0.897333328689351,9.80141374039047,-0.973270350473614,-0.056505036,0.04153884,-0.016798794,308.01413,-96.66825,-6.3299694,STD
3935595560000,0.289988,-0.905888189000569,9.79879975184904,-0.972795080732031,-0.0571159,0.044593163,-0.02321288,308.05893,-96.6455,-6.305431,STD
3935600578000,0.295006,-0.914522197255133,9.79616157918193,-0.972315413885035,-0.0571159,0.062002823,-0.020463986,308.09766,-96.62148,-6.279343,STD
3935605567000,0.299995,-0.92310630789324,9.79353865302884,-0.971838519126234,-0.05681047,0.055588737,-0.013744468,308.14145,-96.59908,-6.2550874,STD
3935610563000,0.304991,-0.931702462783595,9.7909120466827,-0.971360955242696,-0.043066,0.052534413,-0.014049901,308.17847,-96.579994,-6.232712,STD
3935615566000,0.309994,-0.940310661926198,9.78828176014353,-0.970882722234422,-0.04520403,0.052839845,-0.008246681,308.21567,-96.55695,-6.207603,STD
3935621675000,0.316103,-0.950821852924032,9.7850700031042,-0.970298767517742,-0.032375857,0.041233405,-0.005497787,308.2564,-96.53839,-6.1845155,STD
3935625561000,0.319989,-0.9575081335293,9.78302697022568,-0.969927307699602,-0.029321533,0.043676864,-0.00580322,308.2923,-96.51893,-6.161407,STD
3935630559000,0.324987,-0.966107729634583,9.78039931239582,-0.969449552637568,-0.021685716,0.048563786,-0.008246681,308.33005,-96.50188,-6.139161,STD
3935635561000,0.329989,-0.974714208169723,9.77776955159851,-0.968971415218541,-0.0125227375,0.04917465,-0.0033597588,308.36768,-96.48427,-6.1158276,STD
3935640602000,0.33503,-0.98338779039596,9.77511928686856,-0.968489549818839,-0.022602014,0.045814894,0.0033597588,308.4044,-96.46656,-6.0935144,STD
3935645556000,0.339984,-0.991911679772825,9.77251476168066,-0.968016000683722,-0.02565634,0.045814894,-0.0012217305,308.43924,-96.45297,-6.0738764,STD
3935650553000,0.344981,-1.00050955527064,9.76988762959266,-0.967538341210936,-0.032375857,0.03573562,0.0030543262,308.47748,-96.43473,-6.050823,STD
3935655584000,0.350012,-1.00636276373644,9.76724566171135,-0.967556773510543,-0.033292156,0.043982297,0.005192355,308.5097,-96.41938,-6.03031,STD
3935660572000,0.355,-1.00826469489621,9.76463050481513,-0.968269996764529,-0.03756821,0.034208454,0.00061086525,308.54926,-96.40453,-6.0116353,STD
3935665573000,0.360001,-1.01017158297359,9.76200853215315,-0.968985078860194,-0.032375857,0.02321288,-0.008552114,308.63342,-96.37689,-5.9763107,STD
3935670638000,0.365066,-1.0121028743377,9.759353004952,-0.96970931217644,-0.01985312,0.018936822,-0.013744468,308.71704,-96.35156,-5.9429398,STD
3935675582000,0.37001,-1.01398802823784,9.75676091680146,-0.970416243966277,-0.032070424,0.0125227375,-0.0067195175,308.8031,-96.32514,-5.91048,STD
3935680573000,0.375001,-1.01589110330166,9.75414418703622,-0.971129896183727,-0.028405234,0.020158553,-0.009162978,308.8848,-96.30713,-5.883655,STD
3935685794000,0.380222,-1.01788187767719,9.75140687064585,-0.971876435600137,-0.04184427,0.022602014,-0.004886922,308.9686,-96.28406,-5.8545866,STD
3935691023000,0.385451,-1.01987570246356,9.74866535993809,-0.972624118919121,-0.051618114,0.018936822,-0.00580322,309.05057,-96.265274,-5.8291306,STD
3935695560000,0.389988,-1.02160566671212,9.74628665768505,-0.973272854665578,-0.055283304,0.016798794,-0.007941248,309.13007,-96.246376,-5.8041697,STD
3935700556000,0.394984,-1.02351064828273,9.74366730647144,-0.973987221822136,-0.05100725,0.015882496,-0.00580322,309.20898,-96.227844,-5.7796235,STD
3935705653000,0.400081,-1.02545414129021,9.74099500200071,-0.974716030748672,-0.05467244,0.005192355,-0.007330383,309.28998,-96.21099,-5.758155,STD
3935710563000,0.404991,-1.02732633094426,9.7384207396991,-0.975418100952575,-0.049785517,-0.007941248,-0.007941248,309.37067,-96.19604,-5.7371078,STD
3935715595000,0.410023,-1.02924503936366,9.7357825140572,-0.97613761567071,-0.045814894,-0.013133603,-0.0061086523,309.4508,-96.18165,-5.7170424,STD
3935720974000,0.415402,-1.0312960593533,9.73296235989827,-0.976906747162928,-0.047647487,-0.011911872,-0.011301007,309.53146,-96.170456,-5.700426,STD
3935725571000,0.419999,-1.03304890168318,9.73055220026477,-0.97756406217868,-0.043676864,-0.014660766,-0.011911872,309.61346,-96.15989,-5.6832542,STD
3935730605000,0.425033,-1.03496837270528,9.72791292604353,-0.978283862872458,-0.044898596,-0.021380283,-0.010995574,309.69492,-96.15068,-5.668243,STD
3935735660000,0.430088,-1.03689585105585,9.72526264173912,-0.979006666310488,-0.042455133,-0.019242255,-0.011301007,309.7733,-96.14392,-5.65473,STD
3935740600000,0.435028,-1.03877947975056,9.72267265074728,-0.979713026149038,-0.03359759,-0.0125227375,-0.008857546,309.851,-96.13788,-5.64121,STD
3935745585000,0.440013,-1.04068026700626,9.72005906672009,-0.980425820439558,-0.047647487,-0.006414085,-0.0033597588,309.92712,-96.12985,-5.627867,STD
3935750608000,0.445036,-1.04259554371345,9.71742555968526,-0.981144048267298,-0.05467244,-0.0009162979,-0.009162978,310.00015,-96.12693,-5.617953,STD
3935755740000,0.450168,-1.04455238226836,9.71473490507592,-0.98187786176759,-0.06047566,0.002443461,-0.013744468,310.07095,-96.12178,-5.607014,STD
3935761003000,0.455431,-1.04655917130081,9.71197556851923,-0.982630406672506,-0.05955936,0.007330383,-0.015577064,310.13858,-96.11829,-5.5977054,STD
3935765615000,0.460043,-1.04831773315101,9.70955754454061,-0.983289866505582,-0.07391469,0.0143553335,-0.010079277,310.20358,-96.11249,-5.588303,STD
3935770790000,0.465218,-1.0502909676642,9.70684434547527,-0.9840298284822,-0.069027774,0.019242255,-0.01985312,310.26654,-96.11424,-5.5844617,STD
3935776310000,0.470738,-1.05239575114493,9.70395026647224,-0.98481912125726,-0.063224554,0.03023783,-0.014966198,310.32495,-96.10994,-5.5753818,STD
3935780822000,0.47525,-1.05411618285962,9.70158467146106,-0.985464282308179,-0.07513642,0.022602014,-0.0027488936,310.38635,-96.10542,-5.5677567,STD
3935785606000,0.480034,-1.05594032854292,9.69907646965844,-0.986148336046564,-0.069027774,0.014966198,-0.003970624,310.4436,-96.10656,-5.563032,STD
3935790725000,0.485153,-1.05789221018021,9.69639263081486,-0.986880290705174,-0.06780604,0.014660766,-0.0021380284,310.5002,-96.10246,-5.5546155,STD
3935795564000,0.489992,-1.05973732743805,9.69385559308014,-0.987572208773746,-0.062002823,0.013744468,0.0021380284,310.5583,-96.10001,-5.5466056,STD
3935800649000,0.495077,-1.06167624482927,9.6911895800855,-0.988299301846423,-0.07086037,0.015271631,0.005192355,310.6148,-96.0965,-5.5390415,STD
3935805531000,0.499959,-1.06353775804538,9.68862999789478,-0.988997368391322,-0.070554934,0.011301007,0.004581489,310.67224,-96.09528,-5.532052,STD
3935810489000,0.504917,-1.06542825016449,9.6860305696888,-0.98970630201066,-0.08368854,0.018020526,0.0076358155,310.72537,-96.09034,-5.523639,STD
3935815467000,0.509895,-1.0673263683107,9.68342065568932,-0.99041809538643,-0.09010262,0.01740966,0.0015271631,310.78073,-96.08945,-5.518803,STD
3935820547000,0.514975,-1.06926337919514,9.68075726414306,-0.99114447352,-0.093767814,0.0290161,-0.008246681,310.82974,-96.088104,-5.51449,STD
3935825470000,0.519898,-1.07114052576681,9.67817618607568,-0.991848402565583,-0.1001819,0.026267206,-0.002443461,310.8823,-96.08381,-5.50819,STD
3935830476000,0.524904,-1.07304932035097,9.67555159196532,-0.992564199600356,-0.09896017,0.018325957,-0.009773844,310.93192,-96.0864,-5.5087414,STD
3935835500000,0.529928,-1.07496497835952,9.67291756064082,-0.993282570415918,-0.1020145,0.0036651916,-0.016493361,310.98355,-96.08655,-5.5079975,STD
3935840480000,0.534908,-1.07686385910844,9.670306598062,-0.993994649767331,-0.10262536,-0.020158553,-0.01985312,311.0392,-96.08864,-5.508967,STD
3935845464000,0.539892,-1.07876426506278,9.66769353832448,-0.99470730107003,-0.084910266,-0.059253927,-0.025350908,311.1025,-96.095314,-5.5131454,STD
3935850558000,0.544986,-1.0807066141662,9.66502280672277,-0.995435681033101,-0.08246681,-0.08002335,-0.02565634,311.16644,-96.10002,-5.517151,STD
3935855570000,0.549998,-1.07814586375193,9.66476603874942,-0.995490639519997,-0.08399397,-0.08093964,-0.03268129,311.23465,-96.11003,-5.5252132,STD
3935860544000,0.554972,-1.06070080766681,9.67241319069693,-0.993339879843879,-0.07849618,-0.069027774,-0.036651913,311.304,-96.12096,-5.532902,STD
3935865538000,0.559966,-1.04318560660346,9.68009109114442,-0.991180472159413,-0.08155051,-0.05100725,-0.03176499,311.41718,-96.10132,-5.5050883,STD
3935870594000,0.565022,-1.0254529561076,9.68786431194189,-0.988994255649068,-0.087964594,-0.0290161,-0.034208454,311.52374,-96.08664,-5.481978,STD
3935875547000,0.569975,-1.00808155224961,9.6954791779644,-0.986852576381715,-0.080634214,-0.005192355,-0.03023783,311.623,-96.07208,-5.456998,STD
3935880610000,0.575038,-0.990324351011378,9.70326316073686,-0.984663333068449,-0.051618114,0.004886922,-0.026267206,311.71817,-96.06169,-5.4341054,STD
3935885533000,0.579961,-0.973058164620733,9.71083190400939,-0.982534625813618,-0.038789943,-0.0015271631,-0.01282817,311.80994,-96.04825,-5.4087353,STD
3935890554000,0.584982,-0.955448267836775,9.71855131493187,-0.980363543317882,-0.021991149,-0.02687807,-0.01740966,311.90274,-96.044044,-5.3889728,STD
3935895529000,0.589957,-0.937999704502739,9.72620000430438,-0.978212351241346,-0.013744468,-0.046731193,-0.015882496,311.99475,-96.03692,-5.3651924,STD
3935900563000,0.594991,-0.920344213482933,9.73393940175185,-0.976035647540184,-0.01038471,-0.06536258,-0.013744468,312.0922,-96.03382,-5.3444123,STD
3935905602000,0.60003,-0.90267118621857,9.74168648632432,-0.973856781836935,-0.01038471,-0.06688975,-0.0143553335,312.18893,-96.03315,-5.32555,STD
3935910593000,0.605021,-0.885166506901953,9.74935977449682,-0.971698671353721,-0.02565634,-0.06688975,-0.01985312,312.28903,-96.033005,-5.3092446,STD
3935915576000,0.610004,-0.867689885576626,9.75702076326932,-0.969544020073847,-0.03359759,-0.06383542,-0.026572637,312.38715,-96.03567,-5.2949066,STD
3935920618000,0.615046,-0.850006336565529,9.76477246011679,-0.967363857169346,-0.05009095,-0.051923547,-0.036957346,312.4811,-96.03862,-5.284396,STD
3935925580000,0.620008,-0.832603367467341,9.7724011629643,-0.965218286298236,-0.06291912,-0.04886922,-0.035430185,312.57535,-96.04081,-5.273689,STD
3935930580000,0.625008,-0.815067122910521,9.78008828796179,-0.963056284211266,-0.06963864,-0.030543262,-0.03848451,312.66016,-96.04627,-5.267881,STD
3935935650000,0.630078,-0.797285370929906,9.78788303270925,-0.960864014095077,-0.07422013,-0.012217305,-0.040317107,312.7428,-96.050514,-5.2622085,STD
3935940593000,0.635021,-0.779949039561034,9.79548252448177,-0.958726658831899,-0.07452556,-0.004886922,-0.047036625,312.8219,-96.05724,-5.259565,STD
3935946158000,0.640586,-0.760431199369293,9.80403829460398,-0.9563203505091,-0.06994407,-0.009773844,-0.048258353,312.8982,-96.06385,-5.2565556,STD
3935950585000,0.645013,-0.744904608438685,9.81084447507676,-0.954406113861297,-0.06291912,-0.008857546,-0.053145275,312.96945,-96.074005,-5.2569957,STD
3935955583000,0.650011,-0.727375378379688,9.81852852522425,-0.952244976575161,-0.055283304,-0.003970624,-0.058337633,313.03992,-96.08589,-5.258531,STD
3935960634000,0.655062,-0.709660264128389,9.82629405889671,-0.950060922066904,-0.064446285,0.007941248,-0.056505036,313.10706,-96.09637,-5.2599297,STD
3935965575000,0.660003,-0.692330947257339,9.83389047581923,-0.947924431604559,-0.061086524,0.030543262,-0.06505715,313.16858,-96.11403,-5.266059,STD
3935970628000,0.665056,-0.674608818508217,9.8416590843417,-0.945739512295467,-0.0729984,0.07147124,-0.0729984,313.22052,-96.127945,-5.2714972,STD
3935975579000,0.670007,-0.657244429148054,9.84927087551422,-0.943598697828949,-0.090713486,0.10293079,-0.074830994,313.2679,-96.142334,-5.27778,STD
3935980571000,0.674999,-0.639736242582526,9.85694570111171,-0.941440154945317,-0.087964594,0.1337795,-0.07391469,313.30313,-96.15934,-5.285101,STD
3935985556000,0.679984,-0.622252606759376,9.86460976473421,-0.939284638864608,-0.0842994,0.160963,-0.07391469,313.32993,-96.174576,-5.292854,STD
3935990586000,0.685014,-0.604611144735216,9.87234301248169,-0.937109664765116,-0.08857546,0.20341812,-0.0711658,313.3433,-96.18807,-5.2988663,STD
3935995557000,0.689985,-0.587176610396825,9.87998555215419,-0.934960202290249,-0.07880162,0.21624629,-0.08460484,313.357,-96.20799,-5.309552,STD
3936000566000,0.694994,-0.569608800599803,9.88768651397668,-0.932794308599523,-0.09590584,0.22266038,-0.08857546,313.3607,-96.220055,-5.316122,STD
3936005541000,0.699969,-0.552160237265768,9.89533520334919,-0.930643116522987,-0.12034045,0.21960606,-0.09285152,313.36343,-96.23543,-5.3264,STD
3936010587000,0.705015,-0.534462659259025,9.90309304989665,-0.928461224016816,-0.15332718,0.22082779,-0.09010262,313.36334,-96.24585,-5.335408,STD
3936016262000,0.71069,-0.514559021687035,9.91181793676881,-0.926007351648105,-0.1731803,0.22266038,-0.1001819,313.36386,-96.258446,-5.349058,STD
3936020720000,0.715148,-0.498923706040174,9.91867177741657,-0.924079710587362,-0.20647246,0.22479841,-0.115453534,313.36398,-96.26459,-5.363091,STD
3936025575000,0.720003,-0.481896012575502,9.92613597578914,-0.921980406560913,-0.22357668,0.2171626,-0.118202426,313.36646,-96.26945,-5.376146,STD
3936030576000,0.725004,-0.464356260769771,9.93382463821163,-0.919817972073526,-0.23090707,0.1957823,-0.116980694,313.37213,-96.2735,-5.392056,STD
3936035583000,0.730011,-0.446795465470572,9.94152252518411,-0.917652943183633,-0.23518312,0.17684549,-0.13225232,313.37897,-96.28021,-5.412968,STD
3936040572000,0.735,-0.429297800651777,9.94919273850661,-0.915495697501254,-0.24801129,0.15057829,-0.14080444,313.39398,-96.282776,-5.43153,STD
3936045525000,0.739953,-0.411926396793791,9.95680760452912,-0.913354018233901,-0.24617869,0.13347405,-0.14446963,313.41144,-96.28947,-5.4525795,STD
3936051230000,0.745658,-0.39191754175446,9.96557861415126,-0.910887173852668,-0.24709499,0.112704635,-0.15668693,313.43683,-96.29832,-5.478326,STD
3936055565000,0.749993,-0.39706130532508,9.96997732777438,-0.913619753390416,-0.25992316,0.10262536,-0.14569137,313.46393,-96.30103,-5.4979224,STD
3936060573000,0.755001,-0.435702860199872,9.97141737713684,-0.924180179038073,-0.258396,0.10415252,-0.14446963,313.49283,-96.31123,-5.5232387,STD
3936065678000,0.760106,-0.4750928637214,9.97288531882919,-0.934945149671317,-0.2678644,0.11056661,-0.13194689,313.54633,-96.22074,-5.44653,STD
3936070585000,0.765013,-0.512955106087735,9.97429632566257,-0.94529259548862,-0.26297748,0.098043874,-0.12950343,313.60294,-96.137505,-5.375059,STD
3936075596000,0.770024,-0.551619808858819,9.9757372376744,-0.955859347269852,-0.2666427,0.077579886,-0.1020145,313.6588,-96.0452,-5.295305,STD
3936080606000,0.775034,-0.590276795664471,9.97717786213644,-0.966423990339892,-0.2687807,0.048258353,-0.08552113,313.71896,-95.9587,-5.2207155,STD
3936086065000,0.780493,-0.632398250948315,9.97874759645545,-0.977935444734972,-0.26206118,0.00580322,-0.07696902,313.78723,-95.87099,-5.143603,STD
3936090541000,0.784969,-0.666934912214204,9.98003466932812,-0.987374036028685,-0.23151793,-0.04520403,-0.046120327,313.86493,-95.779594,-5.058595,STD
3936095556000,0.789984,-0.705630478847008,9.98147673153912,-0.997949222654683,-0.20586158,-0.11056661,-0.03268129,313.95667,-95.69383,-4.979644,STD
3936110495000,0.804923,-0.820899286409812,9.98577243789409,-1.02945125914637,-0.115453534,-0.25503623,-0.023823744,314.30353,-95.46076,-4.7382045,WAL
3936115460000,0.809888,-0.859209054771103,9.98720012261545,-1.03992101021278,-0.11056661,-0.27091873,-0.021380283,314.43564,-95.39373,-4.6626263,WAL
3936120548000,0.814976,-0.898467886880317,9.98866317596133,-1.05065013275577,-0.0983493,-0.3005457,-0.03268129,314.5789,-95.336975,-4.5946665,WAL
3936125468000,0.819896,-0.936430436797246,9.99007792094201,-1.06102499181856,-0.10720685,-0.29871312,-0.03726278,314.7148,-95.279,-4.527074,WAL
3936130470000,0.824898,-0.975025695879456,9.99151624500571,-1.07157276519907,-0.13072516,-0.2932153,-0.054061573,314.85492,-95.229645,-4.46963,WAL
3936135486000,0.829914,-1.01372897847769,9.9929585947665,-1.08215006053626,-0.13927728,-0.26511553,-0.07819075,314.98495,-95.18713,-4.418149,WAL
3936140481000,0.834909,-1.05227022580189,9.99439490598164,-1.09268307293843,-0.17623462,-0.23609942,-0.10323623,315.11014,-95.143936,-4.3742237,WAL
3936145463000,0.839891,-1.09071116557549,9.99582747904948,-1.1031886720951,-0.19975294,-0.20097467,-0.14172074,315.2224,-95.11301,-4.3428206,WAL
3936150568000,0.844996,-1.13010116909702,9.99729542074184,-1.11395364272835,-0.21197024,-0.16157386,-0.1740966,315.32257,-95.08493,-4.3181963,WAL
3936155578000,0.850006,-1.16875815590268,9.99873604520388,-1.12451828579839,-0.22602014,-0.1142318,-0.204029,315.4078,-95.06354,-4.304631,WAL
3936160528000,0.854956,-1.20695218478251,10.0001594166783,-1.13495640619693,-0.23365596,-0.061391957,-0.24648413,315.47778,-95.053604,-4.3042274,WAL
3936165513000,0.859941,-1.24541627245241,10.0015928523956,-1.14546833148718,-0.25717425,-0.032070424,-0.2782491,315.53925,-95.044975,-4.309539,WAL
3936170546000,0.864974,-1.28425072646296,10.0030400905028,-1.15608147491463,-0.25473082,0.0018325958,-0.2938262,315.5828,-95.04616,-4.3216443,WAL
3936175531000,0.869959,-1.32271481413285,10.0044735262201,-1.16659340020488,-0.25045475,-0.0027488936,-0.30298916,315.6278,-95.05079,-4.3408027,WAL
3936180527000,0.874955,-1.36126377742248,10.005910124985,-1.17712852131823,-0.25320363,-0.029321533,-0.29779682,315.6687,-95.05529,-4.359652,WAL
3936185546000,0.879974,-1.39999020791701,10.0073533373952,-1.187712142789,-0.26816985,-0.09865474,-0.301462,315.72238,-95.06329,-4.38372,WAL
3936190530000,0.884958,-1.43844657962147,10.0087864855626,-1.19822195936806,-0.28344148,-0.18417588,-0.3023783,315.7877,-95.06921,-4.405593,WAL
3936195526000,0.889954,-1.4769955429111,10.0102230843275,-1.20875708048141,-0.30115658,-0.27030787,-0.29810223,315.87195,-95.072845,-4.4275317,WAL
3936200544000,0.894972,-1.5157142574402,10.0116660091879,-1.21933859324099,-0.32162055,-0.34269542,-0.29657507,315.97528,-95.075745,-4.4511333,WAL
3936205526000,0.899954,-1.5541551972138,10.0130985822557,-1.22984419239766,-0.344528,-0.39370266,-0.29871312,316.0952,-95.076965,-4.47523,WAL
3936210615000,0.905043,-1.59342174528845,10.0145619231514,-1.24057542365184,-0.34605515,-0.43127087,-0.2932153,316.22986,-95.07748,-4.497394,WAL
3936215542000,0.90997,-1.63143830696339,10.0159786809806,-1.25096504369298,-0.3475823,-0.44318274,-0.28313604,316.36923,-95.07591,-4.5191426,WAL
3936220653000,0.915081,-1.6708746062775,10.0174483479718,-1.26174266659337,-0.33383787,-0.46822822,-0.25809056,316.5207,-95.072586,-4.535718,WAL
3936225555000,0.919983,-1.70869826881668,10.0188579170562,-1.27207956885472,-0.32650748,-0.49113566,-0.23671028,316.67227,-95.06822,-4.550753,WAL
3936230545000,0.924973,-1.74720093631373,10.0202927905223,-1.28260203770092,-0.29749137,-0.52595496,-0.19333886,316.83212,-95.05791,-4.5532084,WAL
3936235573000,0.930001,-1.78599681049713,10.0217385908807,-1.29320463757241,-0.25381452,-0.56046885,-0.14263703,316.99585,-95.04459,-4.548385,WAL
3936240594000,0.935022,-1.82473867292251,10.0231823783904,-1.30379247646556,-0.21044308,-0.5708536,-0.0852157,317.1601,-95.02382,-4.5305004,WAL
3936245518000,0.939946,-1.86273208670116,10.0245982735703,-1.31417577037312,-0.16340645,-0.573297,-0.032070424,317.32925,-94.999146,-4.5013304,WAL
3936250583000,0.945011,-1.90181345160548,10.0260547132709,-1.3248563925587,-0.111177474,-0.5687156,-0.004581489,317.49652,-94.974976,-4.465362,WAL
3936255644000,0.950072,-1.93145057050992,10.0393492086484,-1.31272447860966,-0.083383106,-0.5580254,0.01160644,317.66,-94.94592,-4.420096,WAL
3936260551000,0.954979,-1.94693322656234,10.0689070096843,-1.26885694137012,-0.03756821,-0.5290093,0.028710667,317.8142,-94.92193,-4.3694167,WAL
3936265547000,0.959975,-1.96269669704081,10.0990009110446,-1.2241937630435,-0.0290161,-0.5155703,0.028710667,318.0817,-94.99183,-4.39934,WAL
3936271361000,0.965789,-1.9810411360644,10.1340221165107,-1.17221783854571,-0.024129177,-0.4914411,0.018020526,318.33463,-95.06831,-4.4292917,WAL
3936275602000,0.97003,-1.99442241674878,10.1595682005117,-1.13430419977806,-0.022907447,-0.4841107,0.004886922,318.58536,-95.14846,-4.4621778,WAL
3936280554000,0.974982,-2.01004705762336,10.1893970635093,-1.09003437210124,-0.03756821,-0.48655418,-0.008552114,318.82892,-95.2317,-4.4999957,WAL
3936285582000,0.98001,-2.02591149508648,10.2196837200424,-1.04508512057477,-0.05467244,-0.49174652,-0.03573562,319.0679,-95.322876,-4.547194,WAL
3936290572000,0.985,-2.04165603425533,10.2497414798078,-1.00047558097312,-0.063224554,-0.49663344,-0.063224554,319.3045,-95.41768,-4.599874,WAL
3936295582000,0.99001,-2.05746367778959,10.2799197115562,-0.955687245621565,-0.06963864,-0.50335294,-0.08857546,319.53992,-95.51709,-4.660986,WAL
3936300577000,0.995005,-2.07322399304979,10.3100075893174,-0.911033007082441,-0.08552113,-0.5164866,-0.12370021,319.77518,-95.62313,-4.7337847,WAL
3936305555000,0.999983,-2.0889306695994,10.3399930658929,-0.866530744930737,-0.09743301,-0.54244834,-0.14569137,320.01315,-95.731804,-4.810968,WAL
3936310608000,1.005036,-2.10487398751928,10.3704303124048,-0.821357998716885,-0.103847094,-0.56230146,-0.17256944,320.24976,-95.848274,-4.8999443,WAL
3936315552000,1.00998,-2.1204733866477,10.4002109866093,-0.777159689340023,-0.12644911,-0.5696318,-0.17562376,320.4874,-95.95955,-4.9886217,WAL
3936320642000,1.01507,-2.13653344764358,10.4308711062898,-0.731656170988843,-0.1432479,-0.59040123,-0.18661933,320.73117,-96.07858,-5.0876107,WAL
3936325564000,1.019992,-2.15206343197005,10.4605192613129,-0.687654536936878,-0.16371189,-0.6026186,-0.1881465,320.9718,-96.191475,-5.184453,WAL
3936330552000,1.02498,-2.16780166070236,10.4905649738799,-0.643062876910221,-0.1881465,-0.6035349,-0.2012801,321.2118,-96.306076,-5.287509,WAL
3936335520000,1.029948,-2.18347678506926,10.520490214464,-0.598650012633471,-0.19211712,-0.59712076,-0.20738874,321.45026,-96.41898,-5.388638,WAL
3936341332000,1.03576,-2.20181491365631,10.5554993727318,-0.54669196771067,-0.20891592,-0.57910025,-0.22174409,321.68225,-96.53082,-5.4950466,WAL
3936345557000,1.039985,-2.21514571084837,10.5809490791464,-0.508921365542943,-0.23793201,-0.57940567,-0.22815818,321.91476,-96.6393,-5.6004477,WAL
3936350597000,1.045025,-2.23104801093074,10.6113080188693,-0.463864836566529,-0.2501493,-0.5849035,-0.24556783,322.14035,-96.75336,-5.711978,WAL
3936355625000,1.050053,-2.24691244839386,10.6415946754025,-0.41891558504006,-0.26083946,-0.59559363,-0.2779437,322.3643,-96.867935,-5.82872,WAL
3936360607000,1.055035,-2.26263174581655,10.6716042463746,-0.374377563738375,-0.28496864,-0.602924,-0.30879238,322.58575,-96.98201,-5.948877,WAL
3936365527000,1.059955,-2.27815541970648,10.7012403541994,-0.3303938092614,-0.3313944,-0.60903263,-0.3368922,322.8067,-97.097824,-6.076259,WAL
3936370572000,1.065,-2.29407349588019,10.7316294119181,-0.28529258134751,-0.3830125,-0.61666846,-0.35185838,323.0271,-97.21308,-6.2071733,WAL
3936375554000,1.069982,-2.30979279330288,10.7616389828903,-0.240754560045826,-0.41416663,-0.59620446,-0.36468655,323.23798,-97.330414,-6.343098,WAL
3936380575000,1.075003,-2.32563514423811,10.7918834742294,-0.195867887031823,-0.44135013,-0.6017023,-0.3475823,323.45605,-97.43683,-6.4731865,WAL
3936385546000,1.079974,-2.34131973425983,10.8218267856109,-0.151428203392587,-0.42913285,-0.60994893,-0.33353242,323.66608,-97.54791,-6.605162,WAL
3936390599000,1.085027,-2.35726305217971,10.8522640321228,-0.106255457178735,-0.44226643,-0.6420194,-0.3173445,323.88214,-97.64666,-6.7299876,WAL
3936395543000,1.089971,-2.37286245130812,10.8820447063272,-0.062057147801872,-0.42577308,-0.72082096,-0.27977628,324.11197,-97.74195,-6.8437767,WAL
3936400557000,1.094985,-2.38868271571546,10.9122470324722,-0.0172330533003369,-0.41691554,-0.8503244,-0.26633725,324.36255,-97.83636,-6.959615,WAL
3936405585000,1.100013,-2.40454715317858,10.9425336890054,0.0277161982261326,-0.39370266,-1.0106765,-0.27366763,324.64166,-97.93085,-7.0714793,WAL
3936410795000,1.105223,-2.4209858403669,10.9739166405841,0.0742924910767503,-0.37751472,-1.1203269,-0.24281894,324.94046,-98.012985,-7.1692214,WAL
3936415568000,1.109996,-2.4360456971711,11.0026672793336,0.116962096791913,-0.33933565,-1.1557571,-0.22785273,325.25897,-98.10766,-7.27469,WAL
3936420607000,1.115035,-2.45194484203519,11.0330201954574,0.162009685980831,-0.31520647,-1.1679744,-0.20708331,325.5979,-98.19435,-7.371239,WAL
3936425572000,1.12,-2.46761050074729,11.062927365244,0.206395730895096,-0.25350907,-1.1395692,-0.17287487,325.9306,-98.28437,-7.459909,WAL
3936430556000,1.124984,-2.48333610860651,11.0929489834145,0.250951631771771,-0.20647246,-1.0845913,-0.116980694,326.25473,-98.36575,-7.5367103,WAL
3936435562000,1.12999,-2.49913113126769,11.1231031207663,0.295704207973343,-0.18570304,-0.97585726,-0.073303826,326.55063,-98.44703,-7.6066513,WAL
3936440599000,1.135027,-2.51502396569524,11.1534439896918,0.340733917587271,-0.19914207,-0.8527679,-0.007941248,326.8234,-98.51122,-7.654467,WAL
3936445478000,1.139906,-2.53041827563609,11.1828331299513,0.384351140776937,-0.20952678,-0.6969972,0.04642576,327.052,-98.57127,-7.691778,WAL
3936450586000,1.145014,-2.54653513056084,11.2136016744166,0.430015575303033,-0.21838433,-0.54092115,0.09712757,327.2427,-98.61543,-7.710743,WAL
3936455662000,1.15009,-2.55858660893238,11.2078263389089,0.465172748551365,-0.26267207,-0.4596761,0.10720685,327.4076,-98.65157,-7.7259073,WAL
3936460628000,1.155056,-2.56305038136164,11.134996398682,0.480678478845094,-0.33841935,-0.41783184,0.09315695,327.53735,-98.67689,-7.73291,WAL
3936465553000,1.159981,-2.56747730025292,11.0627677527664,0.496056191631363,-0.46303585,-0.364992,0.057726767,327.68024,-98.625046,-7.738747,WAL
3936470608000,1.165036,-2.5720210718256,10.9886325639128,0.511839813587624,-0.58123827,-0.33200526,-0.008552114,327.81378,-98.57994,-7.7574925,WAL
3936475571000,1.169999,-2.57648214765452,10.9158466208307,0.527336176746661,-0.68294734,-0.34574974,-0.07513642,327.943,-98.53545,-7.7863183,WAL
3936480815000,1.175243,-2.58119580504861,10.8389396118598,0.543709928188527,-0.7965683,-0.34666604,-0.13683382,328.05612,-98.49721,-7.8311744,WAL
3936485556000,1.179984,-2.58545733245238,10.769409457487,0.558513123380345,-0.8921687,-0.29749137,-0.1994475,328.15588,-98.47399,-7.893536,WAL
3936490592000,1.18502,-2.58998402555624,10.6955529172166,0.574237420150223,-0.97310835,-0.23640485,-0.2666427,328.24976,-98.465645,-7.9730034,WAL
3936495556000,1.189984,-2.59444600025194,10.6227523084196,0.58973690568749,-1.0656544,-0.20189096,-0.36132678,328.33444,-98.479805,-8.075624,WAL
3936500562000,1.19499,-2.59894572735239,10.5493357395965,0.605367531110447,-1.1640037,-0.13622294,-0.39645153,328.3914,-98.497536,-8.1763315,WAL
3936505652000,1.20008,-2.60352095926237,10.4746872507212,0.621260436304784,-1.2302825,-0.063224554,-0.43004912,328.43423,-98.54539,-8.299714,WAL
3936510654000,1.205082,-2.60801709089571,10.4013293447577,0.636878572214818,-1.29198,-0.03481932,-0.45662177,328.47018,-98.6042,-8.427056,WAL
3936515584000,1.210012,-2.61244850412089,10.3290273702675,0.65227189689224,-1.3014483,-0.034208454,-0.47128254,328.49258,-98.67732,-8.555965,WAL
3936520669000,1.215097,-2.61701924169697,10.2544522099668,0.668149190195424,-1.2947289,-0.06383542,-0.49510628,328.51508,-98.76664,-8.690737,WAL
3936525567000,1.219995,-2.62142189118519,10.1826195383536,0.683442598769463,-1.2550226,-0.13988814,-0.5164866,328.5506,-98.86758,-8.824852,WAL
3936530591000,1.225019,-2.62593779788769,10.1089389866622,0.699129427000573,-1.1695015,-0.26816985,-0.5213735,328.60947,-98.97748,-8.956898,WAL
3936535564000,1.229992,-2.63040786238441,10.036006386431,0.714657013941916,-1.0760391,-0.41447207,-0.51068336,328.69507,-99.09366,-9.0864105,WAL
3936540607000,1.235035,-2.63494084755572,9.96204718615634,0.73040316735941,-0.95905846,-0.5842926,-0.50640726,328.82358,-99.21654,-9.215317,WAL
3936545551000,1.239979,-2.63938484491582,9.88953989165745,0.745840205332062,-0.850019,-0.7492262,-0.49174652,328.99158,-80.66529,-9.334631,WAL
3936550602000,1.24503,-2.64392502102138,9.81546336566353,0.761611337775401,-0.7464773,-0.88789266,-0.47342056,329.19907,-80.5494,-9.44856,WAL
3936555693000,1.250121,-2.64850115179813,9.74080021107335,0.777507365347969,-0.6612616,-0.9896017,-0.46609017,329.44095,-80.435486,-9.558865,WAL
3936560604000,1.255032,-2.6529154865545,9.66877688516638,0.792841364839008,-0.59437186,-1.0439687,-0.47708577,329.70605,-80.322945,-9.6672,WAL
3936565564000,1.259992,-2.65737386578308,9.59603493922898,0.808328360863352,-0.559858,-0.9789116,-0.4636467,329.96237,-80.220825,-9.765098,WAL
3936570604000,1.265032,-2.66190415435405,9.52211973609904,0.824065147146153,-0.54550266,-0.90041536,-0.4437936,330.22687,-80.11884,-9.863068,WAL
3936575572000,1.27,-2.66636972451687,9.44926046444238,0.839577122196343,-0.5525276,-0.84879726,-0.43127087,330.47687,-80.01972,-9.958284,WAL
3936580577000,1.275005,-2.67086855275055,9.37585856133418,0.855204625241069,-0.5739079,-0.7858781,-0.4266894,330.69763,-79.92495,-10.049312,WAL
3936585585000,1.280013,-2.67537007758457,9.30241266108125,0.870841495420487,-0.61636305,-0.7174612,-0.42332962,330.8989,-79.83378,-10.136257,WAL
3936590591000,1.285019,-2.67986980468503,9.22899609225814,0.886472120843444,-0.64568454,-0.6728681,-0.43127087,331.0862,-79.74155,-10.224153,WAL
3936596343000,1.290771,-2.68504008640334,9.14463890011461,0.904432040426514,-0.6563747,-0.6630942,-0.43554693,331.26132,-79.652,-10.308876,WAL
3936600565000,1.294993,-2.68883510194831,9.08272025177838,0.91761472131659,-0.6582073,-0.6600399,-0.4297437,331.42328,-79.56395,-10.391696,WAL
3936605576000,1.300004,-2.69333932338267,9.00923035438073,0.933260958630701,-0.6337727,-0.68416905,-0.42852196,331.58817,-79.47519,-10.475528,WAL
3936610588000,1.305016,-2.69784444368381,8.93572579126818,0.948910318323042,-0.61300325,-0.70157874,-0.42424592,331.74808,-79.39021,-10.555475,WAL
3936615577000,1.310005,-2.702328890049,8.86255853959848,0.964487863316077,-0.59559363,-0.743423,-0.4297437,331.92004,-79.304665,-10.636396,WAL
3936620589000,1.315017,-2.70683401035014,8.78905397648593,0.980137223008418,-0.5522222,-0.7812967,-0.42485678,332.09366,-79.22586,-10.711956,WAL
3936625571000,1.319999,-2.71131216464788,8.71598938482058,0.995692911353837,-0.4822781,-0.8179486,-0.41874814,332.2768,-79.1483,-10.787546,WAL
3936630567000,1.324995,-2.71580290308054,8.64271947314654,1.01129231299449,-0.4156938,-0.8481864,-0.41813725,332.46667,-79.072716,-10.862375,WAL
3936635549000,1.329977,-2.72028105737828,8.56965488148119,1.02684800133991,-0.35033122,-0.8875872,-0.41447207,332.66745,-79.00242,-10.933855,WAL
3936640583000,1.335011,-2.72480595274858,8.49582767264069,1.04256605335332,-0.310625,-0.9300423,-0.41599923,332.87546,-78.93234,-11.006194,WAL
3936645502000,1.33993,-2.72922747843918,8.42368702101446,1.05792503187021,-0.2657264,-0.97066486,-0.41325033,333.09186,-78.86653,-11.076051,WAL
3936650628000,1.345056,-2.73383506955323,8.34851056640255,1.07393034268085,-0.22968534,-0.9963212,-0.4156938,333.3137,-78.79936,-11.147803,WAL
3936655795000,1.350223,-2.73847951420526,8.27273281747945,1.09006367099895,-0.21105394,-1.033584,-0.41263947,333.54803,-78.7347,-11.217236,WAL
3936660586000,1.355014,-2.79135971482403,8.20889816128755,1.1616132072103,-0.18845193,-1.0571023,-0.43310347,333.7832,-78.6629,-11.2944565,WAL
3936666384000,1.360812,-2.86285293674678,8.13263878429185,1.25693730403433,-0.17959438,-1.0778717,-0.43860126,334.02554,-78.59544,-11.366855,WAL
3936670566000,1.364994,-2.87215569490574,8.10370765092141,1.32514516574878,-0.16982053,-1.0968086,-0.44440445,334.37286,-78.466835,-11.493534,WAL
3936675563000,1.369991,-2.85188228057615,8.08850284155899,1.40623871722093,-0.15851954,-1.1139128,-0.44409904,334.72296,-78.33919,-11.619541,WAL
3936680578000,1.375006,-2.81815357368928,8.07991848756746,1.48883716157479,-0.14263703,-1.1456778,-0.44012842,335.14355,-78.21297,-11.74249,WAL
3936685568000,1.379996,-2.77670262091365,8.0753127406515,1.57173892285081,-0.11484267,-1.180497,-0.44257188,335.5669,-78.08569,-11.867076,WAL
3936690577000,1.385005,-2.7405395784106,8.07575958410596,1.64406496940397,-0.10903945,-1.2253957,-0.44165558,336.05627,-77.974,-11.973347,WAL
3936695547000,1.389975,-2.70901858768212,8.08026267682119,1.70710699788079,-0.09162979,-1.246776,-0.43188173,336.54486,-77.86465,-12.078266,WAL
3936700554000,1.394982,-2.68492396496803,8.11156572060994,1.79840745816035,-0.087659165,-1.2534955,-0.42546764,337.10052,-77.77671,-12.159092,WAL
3936705621000,1.400049,-2.67060257423512,8.17839877766847,1.92730007445155,-0.07941248,-1.2501358,-0.41783184,337.6538,-77.69106,-12.238118,WAL
3936710506000,1.404934,-2.68443577788095,8.2518656299482,2.05860155410028,-0.07544186,-1.2550226,-0.4166101,338.27707,-77.62845,-12.291686,WAL
3936715563000,1.409991,-2.741239515238,8.34180519792787,2.20534446401134,-0.06841691,-1.2596041,-0.42119157,338.8921,-77.56427,-12.347084,WAL
3936720610000,1.415038,-2.72959181693096,8.40226593753626,2.27288951971572,-0.065973446,-1.276403,-0.42394048,339.56833,-77.51906,-12.379558,WAL
3936725564000,1.419992,-2.60114291267646,8.4114410406111,2.20407773160897,-0.064751714,-1.3069462,-0.43493605,340.24146,-77.46705,-12.418605,WAL
3936730501000,1.424929,-2.45579681534247,8.37899449510763,2.15998418254403,-0.07086037,-1.2745703,-0.40133846,340.88205,-77.41076,-12.458466,WAL
3936736229000,1.430657,-2.2357290169863,8.21796875733855,2.18145420618395,-0.09468412,-1.235475,-0.37904188,341.5225,-77.34448,-12.506998,WAL
3936740535000,1.434963,-2.09748038033166,8.11361437039848,2.2063845998845,-0.0693332,-1.2391402,-0.36896262,342.36493,-77.36877,-12.464536,WAL
3936745554000,1.439982,-2.01817007690785,8.04223504762808,2.2619017543107,-0.0009162979,-1.2638801,-0.35124752,343.184,-77.39515,-12.4208145,WAL
3936750602000,1.44503,-1.93840151510601,7.97044329203036,2.31773968926656,0.05375614,-1.3038919,-0.33353242,343.9943,-77.43542,-12.357448,WAL
3936755581000,1.450009,-1.90118608318309,7.91082227304688,2.41029634685497,0.11484267,-1.3567317,-0.32070425,344.79715,-77.47616,-12.296704,WAL
3936760509000,1.454937,-1.87282397228566,7.85409829804687,2.50956366095753,0.17348573,-1.4138476,-0.31337386,345.59503,-77.5163,-12.2388115,WAL
3936765576000,1.460004,-1.87843558142686,7.8360993264817,2.52462420138262,0.20861048,-1.4608842,-0.30115658,346.4037,-77.563,-12.16847,WAL
3936770591000,1.465019,-1.89171634057517,7.82724530214766,2.52019723544105,0.23732115,-1.4828753,-0.28252518,347.2027,-77.60974,-12.100629,WAL
3936775557000,1.469985,-1.956226514618,7.77514488100009,2.47505014364492,0.25045475,-1.5060883,-0.28099802,348.00577,-77.64242,-12.039263,WAL
3936780565000,1.474993,-2.04814523743357,7.69993893483753,2.40820030223016,0.26175576,-1.5234979,-0.2611449,348.79517,-77.68082,-11.9732,WAL
3936785535000,1.479963,-2.12315609317608,7.6398889795939,2.35776998639257,0.26939157,-1.5448782,-0.2519819,349.5935,-77.703384,-11.917923,WAL
3936790589000,1.485017,-2.16960630488433,7.60566228477624,2.33576719138297,0.2938262,-1.5476271,-0.23701571,350.3733,-77.72913,-11.8611,WAL
3936795547000,1.489975,-2.21517420153046,7.57208572108294,2.31418233628649,0.29718593,-1.5473217,-0.23243423,351.2006,-77.734665,-11.8201475,WAL
3936800554000,1.494982,-2.26119244648954,7.53817731962824,2.2923841576927,0.32375857,-1.5357152,-0.22052236,352.00473,-77.74374,-11.779305,WAL
3936806076000,1.500504,-2.30484850500776,7.51068559295369,2.30593293413103,0.33444872,-1.5250251,-0.20708331,352.82443,-77.748215,-11.734842,WAL
3936810577000,1.505005,-2.33350261103479,7.49795054553512,2.35368964453062,0.36285394,-1.5076154,-0.20280726,353.61722,-77.750786,-11.696432,WAL
3936815561000,1.509989,-2.36523157447374,7.48384890671394,2.40657110301352,0.3866777,-1.4950926,-0.19242255,354.44147,-77.74167,-11.665295,WAL
3936820671000,1.515099,-2.36146306039161,7.47608964417056,2.53161332325813,0.4288274,-1.4831808,-0.17195857,355.23706,-77.7342,-11.637339,WAL
3936825547000,1.519975,-2.34289771825862,7.47144821170858,2.68013620571514,0.4709771,-1.4813483,-0.16798794,356.01007,-77.72122,-11.617953,WAL
3936830576000,1.525004,-2.30294025333835,7.52214654673688,2.83693762610495,0.5137377,-1.4853189,-0.16982053,356.78076,-77.70045,-11.604683,WAL
3936835553000,1.529981,-2.25363594028588,7.59834416400226,2.99381468798194,0.5552765,-1.4874569,-0.18203785,357.53067,-77.67625,-11.599706,WAL
3936840590000,1.535018,-2.20677246266244,7.76951242965313,3.12203297759132,0.59315014,-1.493871,-0.1908954,358.25275,-77.64526,-11.600388,WAL
3936845550000,1.539978,-2.16302864275043,8.01253365138647,3.22410199222347,0.61850107,-1.4837917,-0.19975294,358.9556,-77.60919,-11.6101675,WAL
3936850613000,1.545041,-2.13435061758569,8.26622735441505,3.27383163681073,0.65057147,-1.464244,-0.19730948,359.6205,-77.573715,-11.617673,WAL
3936855598000,1.550026,-2.11656360268256,8.51969273467772,3.28717189798808,0.6826419,-1.4395039,-0.19547687,0.2695458,-77.53447,-11.632543,WAL
3936860570000,1.554998,-2.0934351046071,8.74269569748421,3.25852156066881,0.711658,-1.3949108,-0.1826487,0.9063698,-77.51796,-11.622775,WAL
3936865563000,1.559991,-2.06373194972564,8.93081507531836,3.17931347503882,0.71959925,-1.3432927,-0.16982053,1.5228614,-77.499,-11.6178465,WAL
3936870611000,1.565039,-2.04424270293213,9.09406645048185,3.12820795733033,0.7339546,-1.2754866,-0.13683382,2.1236982,-77.51257,-11.585732,WAL
3936875555000,1.569983,-2.03453433729752,9.22998336661882,3.1039370432438,0.75136423,-1.2266175,-0.09621128,2.703424,-77.52804,-11.553953,WAL
3936880584000,1.575012,-2.04352682192178,9.29744859739256,3.07211850195075,0.7629707,-1.196685,-0.049785517,3.2562885,-77.5689,-11.501541,WAL
3936885543000,1.579971,-2.0664584255915,9.31120808638339,3.03542779240946,0.7733554,-1.1569787,-0.023518313,3.780446,-77.61158,-11.450693,WAL
3936890570000,1.584998,-2.10059441308429,9.29804856593768,3.02342223329266,0.7806858,-1.1148291,-0.006414085,4.309219,-77.68098,-11.375425,WAL
3936895546000,1.589974,-2.14532339404918,9.25779195996809,3.03684094626431,0.77671516,-1.0781772,0.027794369,4.8156962,-77.75562,-11.295315,WAL
3936900573000,1.595001,-2.19604584867572,9.2065286925744,3.03862121801984,0.7788532,-1.0647382,0.036957346,5.311443,-77.82308,-11.22681,WAL
3936905623000,1.600051,-2.2565983301358,9.13666038861601,3.0199896702976,0.7867944,-1.042747,0.031154128,5.78305,-77.889854,-11.160312,WAL
3936910579000,1.605007,-2.32343205651807,9.0752318866829,3.02159015212587,0.7788532,-1.0192287,0.032986723,6.279744,-77.95904,-11.092398,WAL
3936915573000,1.610001,-2.40853280038397,9.03044209533621,3.07085901614535,0.7672467,-1.0183123,0.03268129,6.7667823,-78.02047,-11.03294,WAL
3936921593000,1.616021,-2.59732192014204,9.06677121760674,3.12672191714427,0.77366084,-1.02717,0.027183503,7.26915,-78.073814,-10.987356,WAL
3936925562000,1.61999,-2.8547211902717,9.23000039879429,3.15811205604922,0.7855727,-1.0586295,0.01160644,7.7683635,-78.11774,-10.95019,WAL
3936930509000,1.624937,-3.17554613089438,9.43345082946569,3.19723702887935,0.8136725,-1.1166617,-0.008552114,8.294002,-78.14073,-10.935851,WAL
3936935544000,1.629972,-3.38680406418658,9.76311979722436,3.24187274366808,0.8567385,-1.1575897,-0.05100725,8.815592,-78.151054,-10.937335,WAL
3936940585000,1.635013,-3.5543022690054,10.1399899321511,3.28839992021974,0.9062186,-1.1856894,-0.098043874,9.341877,-78.153046,-10.949969,WAL
3936945551000,1.639979,-3.79671542487422,10.5504602692695,3.31662602954317,0.97066486,-1.2012665,-0.14569137,9.941173,-78.09392,-11.033328,WAL
3936950564000,1.644992,-4.08173297502516,10.9852328461461,3.33594938409137,1.028697,-1.212873,-0.17470746,10.53756,-78.026115,-11.128424,WAL
3936955602000,1.65003,-4.40447056702454,11.3572317402863,3.33898711357873,1.0757337,-1.2153164,-0.19486602,11.162505,-77.94249,-11.245677,WAL
3936960602000,1.65503,-4.74230262223926,11.6950640511247,3.3340909990593,1.0903945,-1.2055426,-0.19333886,11.776202,-77.85368,-11.368267,WAL
3936965581000,1.660009,-5.04290203191489,12.0592373489362,3.30729934,1.0845913,-1.201572,-0.18112154,12.425311,-77.73643,-11.525136,WAL
3936970627000,1.665055,-5.33347531174838,12.4392179533765,3.27153636347826,1.0775663,-1.1661417,-0.15210545,13.050458,-77.62055,-11.678947,WAL
3936975552000,1.66998,-5.46903673935911,12.8569338387065,3.21508705513782,1.0607675,-1.102001,-0.115453534,13.70218,-77.46817,-11.870336,WAL
3936980567000,1.674995,-5.48774810636018,13.3200429806175,3.14024124521282,1.0537425,-1.0100657,-0.083383106,14.322714,-77.31997,-12.054973,WAL
3936985532000,1.67996,-5.40408142022858,13.7061911336098,3.10050074409831,1.056186,-0.8885035,-0.039095376,14.940626,-77.15445,-12.259628,WAL
3936991402000,1.68583,-5.18233375440477,14.0757701808435,3.09481491260241,1.0552697,-0.766025,0.01160644,15.517926,-76.998276,-12.451592,WAL
3936995549000,1.689977,-4.9236202983029,14.1336798019334,3.07464468522019,1.0439687,-0.65026605,0.058948494,16.051247,-76.88441,-12.603977,WAL
3937000608000,1.695036,-4.53332176300752,14.0556201383459,3.03821673353383,1.028697,-0.56016344,0.09743301,16.5436,-76.78099,-12.743308,WAL
3937005610000,1.700038,-4.09879852358109,13.6729274982726,2.89354551756984,0.97402465,-0.53023106,0.12034045,16.994873,-76.73682,-12.820813,WAL
3937010607000,1.705035,-3.640604450992,13.1391550707729,2.69515223728161,0.9425651,-0.44929138,0.14508049,17.394325,-76.7018,-12.8889,WAL
3937015592000,1.71002,-3.33154705964163,12.4849431127101,2.47637148412404,0.8604037,-0.3726278,0.15515977,17.75787,-76.725395,-12.891836,WAL
3937020631000,1.715059,-3.10305074853774,11.7546511490112,2.24339485594652,0.7706065,-0.29993483,0.15485434,18.090836,-76.74587,-12.894414,WAL
3937025546000,1.719974,-2.97937430141496,11.0325108599189,1.97144189093482,0.66645396,-0.24556783,0.14660765,18.37518,-76.823425,-12.839394,WAL
3937030565000,1.724993,-2.96123791458353,10.2843839562305,1.64498664390152,0.56596667,-0.19028452,0.15271631,18.631897,-76.894035,-12.7853985,WAL
3937035531000,1.729959,-2.927466065625,9.52926932894737,1.30892581407895,0.46486846,-0.10629055,0.17379116,18.859564,-76.977615,-12.718874,WAL
3937040565000,1.734993,-2.864032421875,8.73634809210526,0.944181824342105,0.37293324,0.034513887,0.22968534,19.048822,-77.06273,-12.645565,WAL
3937045505000,1.739933,-2.61221530684174,8.07096452517524,0.69413085186593,0.31978795,0.21960606,0.28863382,19.217491,-77.13642,-12.590277,WAL
3937050532000,1.74496,-2.18444991582585,7.49585751104749,0.537283553407049,0.2864958,0.35369098,0.34055737,19.35495,-77.21636,-12.524368,WAL
3937055553000,1.749981,-1.74433611631318,7.08626961516353,0.370697409098117,0.30818152,0.37384954,0.4083634,19.478233,-77.31178,-12.45067,WAL
3937061310000,1.755738,-1.22523809587711,6.80213171050545,0.168522381303271,0.39095375,0.25625798,0.49541172,19.598476,-77.42579,-12.357972,WAL
3937065512000,1.75994,-0.899020757238444,6.67006255923983,0.000564014181926156,0.5384777,0.004581489,0.5684101,19.720901,-77.61486,-12.196764,WAL
3937070529000,1.764957,-0.556610313570227,6.57970407018707,-0.218198201302583,0.7611381,-0.3839288,0.65118235,19.912388,-77.833275,-12.00834,WAL
3937075534000,1.769962,-0.395871130927552,6.53748447173436,-0.508091122941822,1.0396926,-0.81183994,0.6731735,20.144281,-78.13667,-11.7420845,WAL
3937080536000,1.774964,-0.44407229629345,6.55063027863154,-0.880554611518478,1.3255776,-1.2745703,0.6606508,20.490793,-78.45052,-11.465293,WAL
3937085529000,1.779957,-0.56455200355412,6.67868029897685,-1.26349900473883,1.5809193,-1.7476854,0.59528816,20.9707710678457,-78.8033975809352,-11.1460862394085,WAL
3937090544000,1.784972,-0.874908640791599,7.10800702234787,-1.6773078543888,1.7828102,-2.191479,0.54428095,21.452864,-79.15783,-10.825473,WAL
3937095520000,1.789948,-1.12177386591928,7.60095801668941,-2.10667161311172,1.8704693,-2.5885415,0.5198463,22.095821,-79.468056,-10.531155,WAL
3937100569000,1.794997,-1.28675390313901,8.19488658381751,-2.56861578623513,1.8930714,-2.7382035,0.5332854,22.780724,-100.25979,-10.253477,WAL
3937105470000,1.799898,-1.38155175751037,8.77953731753112,-2.96370981407676,1.8945986,-2.9385672,0.5522222,23.577261,-100.08002,-10.041499,WAL
3937110462000,1.80489,-1.36171466804979,9.38952812914938,-3.27118485606846,1.8894062,-3.0002646,0.6123924,24.367683,-99.92617,-9.827669,WAL
3937115387000,1.809815,-1.25724470372555,9.94905443320554,-3.37589733777647,1.858252,-2.947425,0.6762278,25.164707,-99.8205,-9.625698,WAL
3937120512000,1.81494,-1.02566163653789,10.4701162512533,-3.19738547180773,1.8115209,-2.846632,0.7476991,25.960423,-99.74004,-9.418628,WAL
3937125389000,1.819817,-0.778046033074491,10.9311863788777,-2.93781755549299,1.7638733,-2.7043004,0.81245077,26.705496,-99.67101,-9.1798315,WAL
3937130457000,1.824885,-0.475959356283343,11.3531486997629,-2.52065020749852,1.740966,-2.5503623,0.86529064,27.414928,-99.63299,-8.938022,WAL
3937135480000,1.829908,-0.193006984371563,11.7163015765423,-2.12134934990501,1.6994271,-2.4226916,0.9083566,28.072086,-99.55259,-8.629135,WAL
3937140481000,1.834909,0.0608037666283372,11.9844783888611,-1.74781650408959,1.674687,-2.288912,0.9462303,28.677467,-99.505844,-8.321641,WAL
3937145435000,1.839863,0.242678400712177,12.1193493852399,-1.43629479859779,1.6459764,-2.1697934,0.97433007,29.230541,-99.401344,-7.949522,WAL
3937150540000,1.844968,0.305819955836716,12.0246375070111,-1.21980955016605,1.6111571,-2.0332649,0.98837996,29.728952,-99.32945,-7.588714,WAL
3937155566000,1.849994,0.280364626545046,11.8203398926595,-1.05207884748833,1.5628988,-1.8771889,0.98990715,30.1824,-99.232,-7.190961,WAL
3937160547000,1.854975,-0.0537066335085596,11.2264353145426,-1.04589232576517,1.5213599,-1.7171422,0.97035944,30.585184,-99.17046,-6.8125277,WAL
3937165836000,1.860264,-0.408435180873249,10.5958066629345,-1.03932326063894,1.5036448,-1.5543466,0.91446525,30.954945,-99.138504,-6.451748,WAL
3937170552000,1.86498,-0.724733125545565,10.0334990961006,-1.03346587528532,1.4840971,-1.398576,0.8356637,31.270412,-99.137436,-6.1160903,WAL
3937175581000,1.870009,-1.0620237031022,9.43387128575134,-1.02721973640844,1.4743233,-1.2846496,0.73945236,31.540775,-99.174736,-5.813081,WAL
3937180548000,1.874976,-1.28458635689411,9.09625028645925,-1.04971416347004,1.4602734,-1.1979067,0.6414085,31.782003,-99.2525,-5.5399933,WAL
3937185569000,1.879997,-1.4333382969772,8.93049826286017,-1.09221474947852,1.4330899,-1.162782,0.5564982,31.995808,-99.35567,-5.3002443,WAL
3937190561000,1.884989,-1.54078846633717,8.83043837380466,-1.12898586633717,1.3710871,-1.1621711,0.51159966,32.289944,-99.55896,-5.2302485,WAL
3937195565000,1.889993,-1.56653382320834,8.86133284506286,-1.15473122320834,1.3011429,-1.1777482,0.48716503,32.56928,-99.76144,-5.181764,WAL
3937200539000,1.894967,-1.51663387065598,8.9125439298876,-1.19091665537129,1.2336423,-1.2406673,0.49113566,32.892296,-99.98103,-5.1704407,WAL
3937205718000,1.900146,-1.37497667359499,8.9902265441312,-1.24118206159941,1.1914927,-1.323745,0.50640726,33.21819,-100.18607,-5.1670527,WAL
3937210573000,1.905001,-1.24916227744378,9.05591850986691,-1.25830187060578,1.1096367,-1.3881912,0.5580254,33.577457,-100.3683,-5.153591,WAL
3937215603000,1.910031,-1.13494238093162,9.10750197934832,-1.20671867043751,1.0552697,-1.4446963,0.61758476,33.95179,-100.53801,-5.1400313,WAL
3937220566000,1.914994,-1.02224390252409,9.15839835291418,-1.15582256259752,1.0005972,-1.4840971,0.6560693,34.34486,-100.68523,-5.0867047,WAL
3937225572000,1.92,-0.920764463788402,9.23127604453736,-0.975523375197237,0.9416488,-1.5121969,0.6478226,34.74331,-100.812836,-5.037078,WAL
3937230548000,1.924976,-0.825473430594437,9.3135731686966,-0.737295742461371,0.8765916,-1.568702,0.61727935,35.153824,-100.92005,-4.991505,WAL
3937235564000,1.929992,-0.743428182557391,9.39131823128084,-0.51355190120575,0.79259765,-1.6417004,0.5748242,35.584682,-101.0066,-4.926547,WAL
3937240591000,1.935019,-0.676290877311736,9.46361977869556,-0.306975592306372,0.72356987,-1.6832392,0.5326745,36.013203,-101.08216,-4.877325,WAL
3937245563000,1.939991,-0.714633681956532,9.46323397053532,-0.201020277798658,0.66889745,-1.7122552,0.49938235,36.47569,-101.12449,-4.827631,WAL
3937250562000,1.94499,-0.817053875494725,9.41900690582,-0.15446564518977,0.63499445,-1.7394388,0.45204028,36.939075,-101.15974,-4.801469,WAL
3937255633000,1.950061,-0.92094921484903,9.37414284397335,-0.107240491767151,0.5873469,-1.7553213,0.42332962,37.43145,-101.17227,-4.7730947,WAL
3937260577000,1.955005,-1.0222425608888,9.33040237428891,-0.0611980625576409,0.59437186,-1.7540996,0.39767328,37.917217,-101.19389,-4.763043,WAL
3937265618000,1.960046,-1.15897419392458,9.25930070391061,-0.0975336268861732,0.6215554,-1.7623463,0.38545597,38.402466,-101.20858,-4.7632375,WAL
3937270598000,1.965026,-1.32549821008579,9.16414415163607,-0.211721575563348,0.6826419,-1.7660115,0.3707952,38.877903,-101.23537,-4.775285,WAL
3937275589000,1.970017,-1.43039459487825,9.04930778617408,-0.453504126075194,0.76083267,-1.7082846,0.3857614,39.414917,-101.30217,-4.81052,WAL
3937280558000,1.974986,-1.47478975197313,8.91612245396026,-0.817544312267935,0.8756753,-1.6136005,0.4175264,39.934837,-101.38935,-4.846843,WAL
3937285560000,1.979988,-1.44388775090498,8.81753075565611,-1.16928048597285,0.9963212,-1.5674802,0.44898596,40.48135,-101.52998,-4.906842,WAL
3937290578000,1.985006,-1.27585839020979,8.78293627972028,-1.49545523356643,1.0925325,-1.5473217,0.47983465,41.00154,-101.683174,-4.957222,WAL
3937295571000,1.989999,-1.11853375951424,8.74891497621189,-1.75483378068966,1.1661417,-1.5357152,0.48380527,41.486404,-101.8968,-5.0043726,WAL
3937300556000,1.994984,-0.975384170668666,8.71551373233383,-1.92184159448276,1.1976013,-1.5540411,0.47525316,41.965687,-102.11355,-5.049516,WAL
3937305643000,2.000071,-0.778909011202526,8.71494512938466,-2.13244027431936,1.1856894,-1.5790867,0.47403142,42.454556,-102.383194,-5.045903,WAL
3937310552000,2.00498,-0.522119476770504,8.75908046231971,-2.38922986740633,1.1655309,-1.5769486,0.47433686,42.929802,-102.650665,-5.0476284,WAL
3937315618000,2.010046,-0.248771603601637,8.8197454420191,-2.63683930832196,1.1215485,-1.4966198,0.45020768,43.374565,-102.9181,-5.013459,WAL
3937320615000,2.015043,0.118467265948158,9.05641099727149,-2.67764359686221,1.0665708,-1.3625349,0.4120286,43.792164,-103.17089,-4.9843407,WAL
3937325511000,2.019939,0.478283456725785,9.28829303819918,-2.71762314392906,0.98654735,-1.2507466,0.40775254,44.16505,-103.43434,-4.8852506,WAL
3937330546000,2.024974,0.502016915879166,9.44186937774309,-2.39123575065651,0.8381071,-1.2626585,0.37323865,44.52157,-103.66621,-4.8103538,WAL
3937335582000,2.03001,0.386880666498944,9.56143357093013,-1.91740581195483,0.6249151,-1.3698653,0.3213151,44.863735,-103.85567,-4.7459803,WAL
3937340598000,2.035026,0.205815573863705,9.67319975502852,-1.42744446615631,0.4373795,-1.5054774,0.26328292,45.1912,-104.008705,-4.6129284,WAL
3937345568000,2.039996,-0.0275717766616631,9.7779860354248,-0.927328729240468,0.2947425,-1.6230689,0.24404067,45.536114,-104.11566,-4.4972486,WAL
3937351065000,2.045493,-0.301818770174487,9.8425783937257,-0.534159152382244,0.23151793,-1.704925,0.23243423,45.963547,-104.15488,-4.4462285,WAL
3937355639000,2.050067,-0.539433707485761,9.86633995362083,-0.300504461269325,0.22082779,-1.7867808,0.21746802,46.416035,-104.1695,-4.414849,WAL
3937360577000,2.055005,-0.752008328608359,9.94911832184403,0.0201603897888841,0.26816985,-1.8096883,0.21991149,46.94076,-104.14106,-4.4456067,WAL
3937365629000,2.060057,-0.882291676066351,10.1471486682464,0.483969142654029,0.3640757,-1.7785342,0.23823744,47.467754,-104.12032,-4.4804187,WAL
3937370543000,2.064971,-1.05773794904055,10.0793758664688,0.917391771968348,0.46639562,-1.8390098,0.22968534,48.08346,-104.099144,-4.585767,WAL
3937375583000,2.070011,-1.29167353717112,9.72131153412463,1.34229507879327,0.50518554,-2.0485365,0.1469131,48.7222,-104.08833,-4.715231,WAL
3937380528000,2.074956,-1.44355737629302,9.49668928991913,1.4879974836562,0.47250426,-2.211332,0.069027774,49.413635,-104.03808,-4.8740234,WAL
3937385691000,2.080119,-1.50400365760767,9.42229382941508,1.29735926783901,0.46395215,-2.2876904,0.030543262,50.130173,-104.00507,-5.0516167,WAL
3937390525000,2.084953,-1.53081163743172,9.35674365474596,1.09109178727198,0.52290064,-2.313652,0.035430185,50.917053,-103.94976,-5.299314,WAL
3937395558000,2.089986,-1.49603875817788,9.2971329749562,0.817876915046893,0.6444628,-2.3240368,0.05131268,51.713657,-103.908936,-5.553989,WAL
3937400552000,2.09498,-1.42364995029945,9.23838155646211,0.540869750423748,0.70829827,-2.2834144,0.07941248,52.528008,-103.91301,-5.7984085,WAL
3937405672000,2.1001,-1.28745835026473,9.17879783977085,0.247206483360125,0.8197812,-2.1933117,0.11148291,53.324608,-103.95242,-6.030958,WAL
3937410561000,2.104989,-1.15614298276961,9.11691497308305,-0.0305382621439703,0.8903361,-2.0754147,0.13347405,54.092762,-104.030594,-6.234304,WAL
3937415632000,2.11006,-1.00564361414025,8.99651531653976,-0.28853714329706,0.91782504,-1.9443841,0.12889257,54.8229,-104.116974,-6.427174,WAL
3937421763000,2.116191,-0.819611898436028,8.85161649557189,-0.597466809549651,0.93187493,-1.7321084,0.089491755,55.465374,-104.25269,-6.569752,WAL
3937425565000,2.119993,-0.658379752979084,8.76928532108536,-0.755268457761447,0.9242391,-1.6639969,0.07727446,56.103397,-104.37748,-6.7059464,WAL
3937430526000,2.124954,-0.447997671545129,8.66185634774826,-0.961174290685887,0.9202685,-1.5589281,0.06047566,56.636562,-104.54505,-6.804386,WAL
3937435580000,2.130008,-0.151804118907125,8.51143995520371,-1.18432587969685,0.8900307,-1.4761559,0.0290161,57.14626,-104.698524,-6.9071646,WAL
3937440658000,2.135086,0.181542352983201,8.34241873991118,-1.41438188017957,0.86529064,-1.3713925,0.006414085,57.611565,-104.84486,-7.003613,WAL
3937445564000,2.139992,0.513924874145108,8.27220496897491,-1.4705176460708,0.86437434,-1.2770138,0.0009162979,58.02656,-105.01397,-7.0548544,WAL
3937450556000,2.144984,0.857996935082669,8.25360658889321,-1.43332074025481,0.8552113,-1.2479976,0.0015271631,58.422085,-105.16942,-7.108618,WAL
3937455645000,2.150073,1.14495033512101,8.48340574869313,-1.42556664997096,0.8558222,-1.2253957,-0.0030543262,58.757393,-105.3543,-7.095296,WAL
3937460565000,2.154993,1.37757493647628,8.88023637405615,-1.43925044164569,0.850019,-1.1801916,-0.0076358155,59.07146,-105.529495,-7.0807734,WAL
3937465634000,2.160062,1.56460905946656,9.18979882137806,-1.48645630387957,0.8533788,-1.1414018,-0.006414085,59.348293,-105.68798,-7.016735,WAL
3937470578000,2.165006,1.69854890250556,9.40027596019398,-1.56299329995959,0.8677341,-1.0824533,0.0070249503,59.60299,-105.843605,-6.9490094,WAL
3937475588000,2.170016,1.69679384681124,9.54686336032574,-1.55032277292524,0.8888089,-1.0100657,0.027794369,59.850765,-106.00063,-6.843237,WAL
3937480563000,2.174991,1.57472876903651,9.63405263656327,-1.45877394183365,0.91782504,-0.95478237,0.056505036,60.085583,-106.158745,-6.732539,WAL
3937485559000,2.179987,1.42590403254117,9.70364249645612,-1.35055926988743,0.94989544,-0.9505063,0.069027774,60.31399,-106.33454,-6.60395,WAL
3937490787000,2.185215,1.217158831207,9.74017256066291,-1.20443765075047,0.96486163,-0.98349303,0.06658431,60.536297,-106.51031,-6.475348,WAL
3937495570000,2.189998,1.00896987001672,9.77075894206747,-1.09808211159634,0.9841039,-1.0186177,0.061086524,60.778915,-106.67932,-6.373921,WAL
3937500555000,2.194983,0.769493171634701,9.79893274800826,-1.02295217488935,0.9941832,-1.1316279,0.042760566,61.048473,-106.84836,-6.289431,WAL
3937505618000,2.200046,0.440306621090322,9.83444556814512,-0.94039713897901,1.0195341,-1.2501358,-0.0030543262,61.352955,-107.01128,-6.257347,WAL
3937510559000,2.204987,-0.00910929594548396,9.87938712840726,-0.850513957448951,1.0149527,-1.3454307,-0.04428773,61.677605,-107.16529,-6.2388678,WAL
3937515514000,2.209942,-0.489892011270378,9.93755470778222,-0.757047917349534,1.0170907,-1.4101825,-0.07147124,62.098274,-107.355896,-6.288532,WAL
3937520577000,2.215005,-1.06161843020609,10.0320136862504,-0.652645706277043,0.9914343,-1.4538593,-0.10842858,62.530216,-107.53496,-6.358782,WAL
3937525510000,2.219938,-1.60776498160359,10.1500512235283,-0.582708993543578,0.95264435,-1.4779885,-0.12767084,63.04434,-107.718,-6.5211134,WAL
3937530572000,2.225,-2.14517169882454,10.326098430906,-0.578076160584862,0.89949906,-1.4895949,-0.15118915,63.555397,-107.883736,-6.693666,WAL
3937535524000,2.229952,-2.62450491960339,10.4946846767197,-0.58151058397955,0.8481864,-1.5085317,-0.18417588,64.141235,-108.04184,-6.9668317,WAL
3937540584000,2.235012,-2.95984160334642,10.6548455401776,-0.61154072236005,0.7828238,-1.5128077,-0.23548855,64.713745,-108.177025,-7.242478,WAL
3937545507000,2.239935,-3.19441425979823,10.8097002304178,-0.618725326324355,0.72143185,-1.518611,-0.2751948,65.328636,-108.29635,-7.5964413,WAL
3937550573000,2.245001,-3.21288425838965,10.9666951220139,-0.572550315381175,0.64568454,-1.5176947,-0.31337386,65.9291,-108.39425,-7.9500084,WAL
3937555639000,2.250067,-3.15945152734785,11.1264430863309,-0.486619301696481,0.5656612,-1.5030339,-0.3484986,66.53911,-108.47961,-8.341914,WAL
3937560541000,2.254969,-2.85366227965195,11.2907482517986,-0.262982326963834,0.5009095,-1.4813483,-0.398895,67.132744,-108.55299,-8.731426,WAL
3937565582000,2.26001,-2.50638445744533,11.4471069809094,-0.03666012540958,0.45906523,-1.4923438,-0.44226643,67.79213,-108.65359,-9.138605,WAL
3937570654000,2.265082,-1.96686546570635,11.5314067545991,0.169874465371399,0.38973203,-1.5467108,-0.47494772,68.44387,-108.73278,-9.540724,WAL
3937575520000,2.269948,-1.44925911440472,11.6122826810135,0.368020624429018,0.30665436,-1.6511687,-0.48991394,69.109726,-108.75286,-9.902275,WAL
3937580550000,2.274978,-0.863135008742802,11.8033869059501,0.440735305460653,0.23151793,-1.784032,-0.47769663,69.7907,-108.7569,-10.256356,WAL
3937585540000,2.279968,-0.271514426314779,12.0143518464491,0.486597365854127,0.1572978,-1.9181169,-0.44959682,70.49405,-108.73976,-10.602845,WAL
3937590570000,2.284998,0.103152458216386,12.2659708823991,0.245443682340259,0.09896017,-1.9709567,-0.4034765,71.19861,-108.64666,-10.859707,WAL
3937595543000,2.289971,0.401861736707174,12.5273418982752,-0.0859369195256762,0.07147124,-1.9929478,-0.37843102,71.92786,-108.54253,-11.111162,WAL
3937600543000,2.294971,0.553861146438694,12.8679704943769,-0.471782744659413,0.033292156,-1.8961257,-0.31795537,72.66097,-108.40818,-11.267817,WAL
3937605599000,2.300027,0.646832443430557,13.2442830685746,-0.883512776836427,-0.023518313,-1.6823229,-0.28221974,73.36369,-108.262474,-11.41042,WAL
3937610558000,2.304986,0.748603879598086,13.6909944277512,-1.19612026507177,-0.10720685,-1.425454,-0.27000242,73.97206,-108.111725,-11.48038,WAL
3937615620000,2.310048,0.86200223846252,14.2167502712387,-1.43322585209995,-0.19730948,-1.1682798,-0.2556471,74.52049,-107.940346,-11.521954,WAL
3937620567000,2.314995,1.04929377678407,14.4715836075645,-1.4696555073344,-0.30787608,-0.9092729,-0.22479841,74.95031,-107.77818,-11.509748,WAL
3937625590000,2.320018,1.28033304984991,14.591916473284,-1.40226905227136,-0.40225476,-0.66675943,-0.18417588,75.31317,-107.59683,-11.474843,WAL
3937630551000,2.324979,1.4933978407589,14.6090898509168,-1.17578936502598,-0.48533243,-0.45020768,-0.15485434,75.59827,-107.39995,-11.396203,WAL
3937635570000,2.329998,1.70076167157564,14.5713873138543,-0.860030832424748,-0.59406644,-0.24465153,-0.14905111,75.820465,-107.1777,-11.301023,WAL
3937640631000,2.335059,1.88579700894214,14.5538435126632,-0.40355986766803,-0.7351763,-0.099571034,-0.1572978,75.99639,-106.90545,-11.167955,WAL
3937645552000,2.33998,2.05105992118644,14.5492530240113,0.124363229152542,-0.8979719,-0.013744468,-0.18448131,76.13304,-106.613914,-11.034305,WAL
3937650559000,2.344987,2.19149082423137,14.5398987844175,0.594169173580878,-1.0897835,0.03023783,-0.18173242,76.286385,-106.25617,-10.887302,WAL
3937655589000,2.350017,2.31015027263936,14.526714136119,1.01167461096798,-1.2895365,0.06963864,-0.19120082,76.41794,-105.87847,-10.750769,WAL
3937660513000,2.354941,2.38955619152987,14.5217265296746,1.32631471064594,-1.5189165,0.118202426,-0.19333886,76.61219,-105.40542,-10.612695,WAL
3937665548000,2.359976,2.40360743621175,14.5310942217581,1.47619475173385,-1.7461584,0.20219639,-0.19456059,76.78866,-104.90773,-10.476527,WAL
3937670594000,2.365022,2.3822748458155,14.5361129441735,1.5638928104488,-1.9990565,0.2919936,-0.19822577,77.01341,-104.33457,-10.347447,WAL
3937675566000,2.369994,2.28276904066076,14.5313744782565,1.51177072439049,-2.2727242,0.3848451,-0.19914207,77.21817,-103.736435,-10.216664,WAL
3937680539000,2.374967,2.16008405579221,14.4678332038358,1.41330810922321,-2.542421,0.45723262,-0.21471913,77.433685,-103.11512,-10.096462,WAL
3937685572000,2.38,1.97891570079029,14.2587924770625,1.19962238328836,-2.814867,0.54641896,-0.21838433,77.62434,-102.47881,-9.971395,WAL
3937690550000,2.384978,1.74791501777601,14.0111815746102,1.02851489331849,-3.0967813,0.59956425,-0.22174409,77.809006,-101.858536,-9.862936,WAL
3937695551000,2.389979,1.32886497810611,13.614988766147,1.00184809109131,-3.2323935,0.743423,-0.22204952,77.94901,-101.273445,-9.751164,WAL
3937700572000,2.395,0.908139073450525,13.2172115033408,0.97507464298441,-3.5081992,0.9257663,-0.23884831,78.04405,-100.7365,-9.666383,WAL
3937705639000,2.400067,0.799081562405076,13.01492477498,0.477946589270583,-3.7562103,1.1221595,-0.23304509,78.102325,-100.25914,-9.574463,WAL
3937710638000,2.405066,0.818216019120703,12.8953343892886,-0.201327290967226,-3.934583,1.2684617,-0.21044308,78.131294,-99.851135,-9.483331,WAL
3937715549000,2.409977,0.805671878836422,12.6494382987349,-0.882830736179615,-3.9990294,1.3310753,-0.13103059,78.14307,-99.60618,-9.462099,WAL
3937720648000,2.415076,0.779567733688525,12.3405394795082,-1.59634380065574,-3.9409971,1.3203852,-0.011301007,78.14265,-99.44599,-9.42287,WAL
3937725563000,2.419991,0.67284559619186,11.9435403132827,-2.16457461995751,-3.8295143,1.2513574,0.09896017,78.01554,-80.640175,-9.357107,WAL
3937730548000,2.424976,0.470013046918605,11.4257836328265,-2.60226592457513,-3.7507126,1.0613784,0.19822577,77.934685,-80.67276,-9.263364,WAL
3937735575000,2.430003,-0.113081842846131,11.0714360168001,-2.70082985517344,-3.662137,0.7724391,0.2648101,77.7851,-80.66492,-9.162137,WAL
3937740569000,2.434997,-0.878760738381263,10.8020304696116,-2.62993371049511,-3.6205983,0.4361578,0.25625798,77.711975,-80.61277,-9.0557165,WAL
3937745520000,2.439948,-2.04725732597583,10.7552493167228,-2.58977292011096,-3.5842519,0.14477506,0.18051068,77.65867,-80.50226,-8.990933,WAL
3937750552000,2.44498,-3.46518638989499,10.8316361136319,-2.56590197753121,-3.5760052,0.022602014,-0.012217305,77.66162,-80.3268,-8.9625845,WAL
3937755562000,2.44999,-4.80049691986851,11.0836117999613,-2.66731234926037,-3.5631769,0.112704635,-0.36193767,77.809906,-79.98556,-9.124466,WAL
3937760584000,2.455012,-6.09319098901673,11.4416600555932,-2.84401153821909,-3.5372152,0.4783075,-0.83016586,77.92022,-79.56127,-9.375134,WAL
3937765508000,2.459936,-6.85911136882348,11.887515913176,-2.85242139737003,-3.451694,1.0051788,-1.3026701,77.88323,-78.91204,-9.896104,WAL
3937770635000,2.465063,-7.2396672859009,12.4305564302883,-2.72414415205086,-3.3163874,1.5534303,-1.6615535,77.74295,-78.2039,-10.509938,WAL
3937775503000,2.469931,-7.49007164820008,13.0031530719022,-2.49526814910951,-3.1209106,1.9614882,-1.6930131,77.25668,-77.37752,-11.267122,WAL
3937780545000,2.474973,-7.4168829773399,13.7670607315271,-1.93720405615764,-2.9150488,2.1658227,-1.3967434,76.67837,-76.58937,-12.021107,WAL
3937785551000,2.479979,-7.37371793969992,14.4743281929238,-1.3305372650365,-2.7317894,2.2107213,-0.85062987,75.99942,-75.86343,-12.731268,WAL
3937790584000,2.485012,-7.5007661872871,14.8896774873783,-0.41676874580292,-2.6575692,2.150551,-0.5317582,75.30369,-75.193344,-13.400389,WAL
3937795534000,2.489962,-7.57696120462925,15.1544966270996,0.380503488853953,-2.5692992,1.9129245,0.036957346,74.74741,-74.78523,-13.782261,WAL
3937800588000,2.495016,-7.41833372285948,14.7281857227571,0.70271535285846,-2.5060747,1.6542231,0.35430184,74.2308,-74.42105,-14.121758,WAL
3937805584000,2.500012,-7.19193458774825,14.2451293348145,0.967030790641153,-2.4248295,1.5476271,0.5152648,73.851265,-74.154,-14.312155,WAL
3937810579000,2.505007,-6.73209666342614,13.5553722444908,1.04945456440102,-2.2540927,1.5387696,0.61666846,73.52341,-73.980194,-14.416457,WAL
3937815897000,2.510325,-6.2334615946863,12.8216414941467,1.19264002022133,-2.0054705,1.4227052,0.605062,73.23535,-73.79768,-14.502915,WAL
3937820595000,2.515023,-5.70264504142125,12.179724287452,1.87159129366197,-1.8197676,1.0390818,0.5503896,73.0367,-73.64814,-14.559271,WAL
3937825533000,2.519961,-5.14471142285531,11.5050143754344,2.58522717877264,-1.7244726,0.36865717,0.48533243,73.014786,-73.53796,-14.569349,WAL
3937830586000,2.525014,-4.25938822474837,11.1097824689165,2.5083919330373,-1.7101172,-0.28252518,0.46883908,73.104805,-73.44099,-14.566052,WAL
3937835518000,2.529946,-3.33188396506809,10.7835243907638,2.27068982753108,-1.7153096,-0.7315111,0.5119051,73.334145,-73.35204,-14.545957,WAL
3937840608000,2.535036,-2.49629483923735,10.5627213901642,1.54317672993949,-1.7095064,-0.98868537,0.5864306,73.753876,-73.23453,-14.45335,WAL
3937845510000,2.539938,-1.72070864849678,10.377843338296,0.727007596417251,-1.7009543,-1.104139,0.61666846,74.25642,-73.106674,-14.353069,WAL
3937850545000,2.544973,-1.25354741431946,9.53570724937076,-0.313030866195547,-1.7024814,-1.2293663,0.52473325,74.79636,-73.01595,-14.184768,WAL
3937855588000,2.550016,-0.916925924317522,8.43233643998064,-1.43510258903679,-1.7589865,-1.2528846,0.43218717,75.32995,-72.9115,-14.015095,WAL
3937860640000,2.555068,-0.63511063023583,7.52369654894966,-2.96345337995442,-1.8286251,-1.1472049,0.35369098,75.75724,-72.870636,-13.812846,WAL
3937865535000,2.559963,-0.388919709476813,6.73867280737218,-4.64033889447087,-1.8933768,-1.0998629,0.2593123,76.20542,-72.78495,-13.644576,WAL
3937870582000,2.56501,-0.107082482372814,6.4176395878279,-6.11215350445151,-1.9694295,-0.7128797,0.15363261,76.43455,-72.73183,-13.538853,WAL
3937875567000,2.569995,0.18702560282194,6.37494646079094,-7.42140867376789,-2.164601,-0.1337795,-0.027183503,76.59662,-72.60452,-13.498872,WAL
3937880550000,2.574978,0.598490630858228,6.94131528130682,-7.88356625259267,-2.610227,0.2284636,-0.16462818,76.43827,-72.488,-13.482052,WAL
3937885628000,2.580056,1.08922232068139,7.88876754720751,-7.8398376154461,-3.022256,1.0079277,-0.15607607,75.9947,-72.341194,-13.528605,WAL
3937890533000,2.584961,1.38387274146637,8.4749256088669,-6.90529058266007,-3.1829133,1.6649132,-0.09254608,75.34473,-72.266335,-13.591361,WAL
3937895548000,2.589976,1.5778847676227,8.877500656837,-5.4162480970511,-3.1557298,2.0888536,0.07849618,74.53554,-72.1851,-13.649942,WAL
3937900534000,2.594962,1.75062157113453,8.76890785661728,-4.4370716197375,-3.005457,2.1197023,0.25259277,73.66118,-72.18772,-13.62429,WAL
3937905640000,2.600068,1.915936507895,8.36534498995724,-3.72232772849756,-2.864958,1.9581286,0.3643811,72.72265,-72.22565,-13.577696,WAL
3937910640000,2.605068,1.80549608338821,7.69970958266986,-3.3803232564801,-2.742785,1.8390098,0.4343252,71.92235,-72.23947,-13.448889,WAL
3937915538000,2.609966,1.55277843948918,6.90411698011573,-3.23524467240347,-2.58396,1.8267925,0.4868596,71.13975,-72.31121,-13.292393,WAL
3937920639000,2.615067,1.22951688905522,6.17361008581342,-3.0969828598394,-2.3237314,1.9178114,0.48349985,70.45254,-72.37378,-13.115528,WAL
3937925567000,2.619995,0.883289737910181,5.52326470566075,-2.97065667968673,-2.0454822,2.0201313,0.453262,69.768295,-72.47819,-12.936274,WAL
3937930547000,2.624975,0.528287198365128,4.94494378293961,-2.93531439181576,-1.81091,2.0619757,0.44776422,69.04016,-72.536,-12.79823,WAL
3937935523000,2.629951,0.170303770952259,4.4173892171197,-2.95886591736681,-1.6337591,2.0436497,0.44990227,68.30694,-72.639656,-12.667801,WAL
3937940619000,2.635047,-0.100148868929967,4.01152611799187,-2.94106525633585,-1.4886786,2.0409007,0.43401974,67.541756,-72.69828,-12.592925,WAL
3937945556000,2.639984,-0.296808754814858,3.70967598955311,-2.89533043180499,-1.3570372,2.0372355,0.41447207,66.786934,-72.79696,-12.513648,WAL
3937950565000,2.644993,-0.505188153718296,3.43570993236477,-2.80347237556431,-1.241889,1.9886718,0.39675698,66.02128,-72.85981,-12.487185,WAL
3937955632000,2.65006,-0.724256723265206,3.18875983243864,-2.66804813929246,-1.1297953,1.9013181,0.38820487,65.27146,-72.95309,-12.457014,WAL
3937960578000,2.655006,-0.938921055008571,2.956814884069,-2.53276980378187,-1.0381655,1.784032,0.37720928,64.54235,-73.02443,-12.455183,WAL
3937965725000,2.660153,-1.17128023047997,2.81423090786372,-2.35850051178487,-0.8875872,1.6566665,0.37873647,63.843052,-73.13587,-12.442847,WAL
3937970585000,2.665013,-1.37132849822144,2.71812674849614,-2.2037794096657,-0.7305948,1.4953982,0.3903429,63.199356,-73.21359,-12.458769,WAL
3937975583000,2.670011,-1.50949878765248,2.75378358537108,-2.07898038752212,-0.5534439,1.357648,0.40133846,62.586914,-73.32837,-12.465867,WAL
3937980596000,2.675024,-1.64722668598489,2.78152137857493,-1.95187617354009,-0.38423425,1.284955,0.4297437,62.012413,-73.43496,-12.486899,WAL
3937985543000,2.679971,-1.77277036923152,2.71177494182942,-1.80308367804495,-0.20525073,1.1969905,0.4529566,61.48305,-73.58002,-12.49573,WAL
3937990787000,2.685215,-1.904382825108,2.63439472643857,-1.64138064216347,-0.12003502,1.1191051,0.48624873,60.978905,-73.718185,-12.507054,WAL
3937995546000,2.689974,-2.00676551034215,2.52413654175739,-1.44842876757387,0.07849618,1.0170907,0.49968776,60.508774,-73.91064,-12.509264,WAL
3938001181000,2.695609,-2.12799401029895,2.39358288118196,-1.21995980070848,0.28496864,0.93523467,0.52748215,60.067448,-74.09278,-12.51393,WAL
3938005603000,2.700031,-2.28128637017458,2.39716142295998,-0.925567052991369,0.48747048,0.8582657,0.5546656,59.655716,-74.30983,-12.5084,WAL
3938010516000,2.704944,-2.4658718904031,2.42715652632895,-0.570239893423892,0.68019843,0.77366084,0.6053675,59.269833,-74.568726,-12.482178,WAL
3938015547000,2.709975,-2.65489076935073,2.45787204944096,-0.206378517526481,0.86926126,0.6966918,0.6606508,58.927795,-74.81336,-12.465326,WAL
3938020567000,2.714995,-2.84349636909572,2.48852041478031,0.156687295831699,1.0711522,0.58276546,0.7284568,58.621204,-75.09922,-12.424142,WAL
3938025529000,2.719957,-2.97936655585106,2.65103950388707,0.55318990400982,1.282817,0.44868052,0.7959574,58.34179,-75.41865,-12.362336,WAL
3938030601000,2.725029,-3.08867692393617,2.89450354562193,0.980494178641571,1.4892895,0.32070425,0.87598073,58.094303,-75.775536,-12.272826,WAL
3938035661000,2.730089,-3.0754179649901,3.20524528126733,1.44724702463366,1.6945401,0.17348573,0.9737192,57.96615,-76.04238,-12.208487,WAL
3938040602000,2.73503,-3.00982726624752,3.53788387031683,1.92043700615842,1.9101756,0.01038471,1.073901,57.881214,-76.34655,-12.117451,WAL
3938045567000,2.739995,-2.97832297718447,3.96690738713592,2.55056275351942,2.1084013,-0.17745635,1.1737776,57.88264,-76.63917,-11.996992,WAL
3938050620000,2.745048,-2.96364106868932,4.45141057188511,3.26997678080502,2.2653937,-0.3912592,1.2431108,57.940315,-76.957184,-11.854552,WAL
3938055574000,2.750002,-3.00165023416931,5.15154919381443,4.20051848568596,2.3976462,-0.5742133,1.3093897,58.067944,-77.284096,-11.642266,WAL
3938060539000,2.754967,-3.06292462408803,5.95282853402062,5.23275438834259,2.4862216,-0.79351395,1.3322971,58.266388,-77.61837,-11.422528,WAL
3938065520000,2.759948,-3.28453779201206,6.88282789444026,6.73791160755254,2.5240953,-1.0506883,1.3038919,58.5445,-77.90422,-11.158158,WAL
3938071229000,2.765657,-3.63245896548606,8.02272771476179,8.73845888085071,2.4486532,-1.3607023,1.1893547,58.89454,-78.16056,-10.917283,WAL
3938075543000,2.769971,-4.0304138151323,9.25888438000219,10.5026241201618,2.2409592,-1.6722436,1.0027353,59.34852,-78.28283,-10.677379,WAL
3938080530000,2.774958,-4.82414333925213,11.6139629593265,13.1657949901596,1.8735237,-1.8353447,0.8765916,59.836395,-78.34945,-10.465608,WAL
3938085547000,2.779975,-5.06058975718468,13.1541911432843,14.1301567917309,1.643533,-2.2104158,0.5439755,60.640953,-78.06856,-10.412606,WAL
3938110444000,2.804872,-2.75648286807894,15.6684441040322,8.30609614942239,-0.90041536,-0.31245756,-0.24404067,64.43154,-74.20752,-11.07284,WAL
3938115456000,2.809884,-2.33181877186448,15.9274543268542,7.04480698403735,-1.1691961,0.09468412,-0.21227567,64.6358,-73.615326,-11.081509,WAL
3938120541000,2.814969,-2.3952759164513,13.0718836487132,4.64401194738842,-1.3090842,0.60903263,-0.13744467,64.648766,-72.98767,-11.116338,WAL
3938125461000,2.819889,-2.57696868844791,10.3613042792346,2.55907070294118,-1.38025,1.2779301,-0.04917465,64.38401,-72.50107,-11.149648,WAL
3938130480000,2.824908,-3.15607708795181,7.76748284337349,1.2110622,-1.3768903,1.9550742,-0.011301007,63.979847,-72.01663,-11.218378,WAL
3938135459000,2.829887,-3.6846565021895,5.40380205541562,0.136485726593683,-1.2583824,2.4663684,0.002443461,63.374218,-71.66864,-11.361779,WAL
3938140514000,2.834942,-4.08800123053672,3.61220055163728,-0.191818197684557,-1.070236,2.7104092,0.012217305,62.668194,-71.3571,-11.523715,WAL
3938145460000,2.839888,-4.43025224587229,2.10205768593595,-0.401190487377163,-0.84635377,2.7333164,-0.009468411,61.954636,-71.09165,-11.841326,WAL
3938150532000,2.84496,-4.56069657927193,1.57544949178436,-0.145133301636165,-0.60139686,2.6087,-0.043982297,61.215782,-70.87725,-12.164742,WAL
3938155503000,2.849931,-4.6551240719413,1.24367566260967,0.120390648173552,-0.31978795,2.3533583,-0.12156218,60.563942,-70.62342,-12.605307,WAL
3938160545000,2.854973,-4.60890962593715,1.690414033881,0.451593250272771,-0.014660766,2.0164661,-0.23915374,59.97437,-70.409355,-13.053924,WAL
3938165490000,2.859918,-4.56358427181369,2.12855787480459,0.776424045072579,0.2947425,1.6084082,-0.34605515,59.522163,-70.16899,-13.536671,WAL
3938170572000,2.865,-4.47427819140244,3.12880992353659,0.996519301981707,0.5644395,1.1239921,-0.43127087,59.193897,-69.95484,-14.019475,WAL
3938175487000,2.869915,-4.36904054902439,4.33904495869919,1.15915959898374,0.8014552,0.86437434,-0.46883908,58.921402,-69.7725,-14.50879,WAL
3938180529000,2.874957,-4.30241594344541,5.66133471316585,1.35345027812618,0.90377516,0.32620203,-0.47525316,58.88773,-69.588104,-14.930602,WAL
3938185521000,2.879949,-4.25274837230827,7.00236257565168,1.55663627646392,1.0742066,-0.31429017,-0.47342056,58.96097,-69.44379,-15.33739,WAL
3938190538000,2.884966,-4.15678229940095,8.68249200609564,1.75950041099317,1.260215,-1.1227703,-0.47952923,59.218163,-69.3875,-15.613865,WAL
3938195524000,2.889952,-4.03132238225959,10.5694055840252,1.96023593256963,1.4520267,-2.0384574,-0.4831944,59.69115,-69.35531,-15.838646,WAL
3938200512000,2.89494,-4.0596435190811,12.5890496294683,1.35294512654322,1.6807957,-2.9245174,-0.47861293,60.36706,-69.447235,-15.905097,WAL
3938205556000,2.899984,-4.15530750664422,14.6888694765818,0.386741209585107,1.89918,-3.5689802,-0.46914452,61.23292,-69.562996,-15.929398,WAL
3938210530000,2.904958,-4.3185683618966,16.0219816466724,-0.674468706895173,2.0900755,-3.8139372,-0.41172317,62.1824,-69.847786,-15.765568,WAL
3938215528000,2.909956,-4.51453012482148,17.020020812625,-1.79099690499857,2.2617285,-3.6862664,-0.344528,63.193993,-70.15491,-15.592075,WAL
3938220591000,2.915019,-4.91101502061045,17.7623206569064,-2.31884564100362,2.261423,-3.3835826,-0.34574974,64.06258,-70.65526,-15.357416,WAL
3938225579000,2.920007,-5.43986089533368,18.3059935616141,-2.41769531165028,1.881465,-2.809064,-0.4007276,64.80938,-71.087776,-15.164073,WAL
3938230548000,2.924976,-5.96945917394469,18.347613783115,-1.92833951017467,1.1496484,-2.1090124,-0.47861293,65.34292,-71.57745,-15.000418,WAL
3938235552000,2.92998,-6.50425498494905,18.1243950791849,-1.12382084931878,0.267559,-1.3234396,-0.5357288,65.69531,-71.93114,-14.899239,WAL
3938240572000,2.935,-6.61386020584442,17.4132170181378,-0.467700210401048,-0.5305365,-0.4364632,-0.54519725,65.82392,-72.119736,-14.906202,WAL
3938245557000,2.939985,-6.43105738258767,16.3741278252721,0.0807080534189843,-1.1960741,0.5549711,-0.51923543,65.702675,-72.167725,-14.967951,WAL
3938250597000,2.945025,-5.36887734554164,14.8659079906964,0.41895089481577,-1.6624697,1.4492778,-0.47891834,65.43164,-71.983665,-15.147755,WAL
3938255568000,2.949996,-3.76826003691968,13.0898804117539,0.616287268054532,-1.8619173,1.9339994,-0.36346483,64.99046,-71.76682,-15.323476,WAL
3938260570000,2.954998,-2.02426817181917,10.9752889069588,0.599367622376863,-1.7455474,1.7821994,-0.19486602,64.5378,-71.49537,-15.494801,WAL
3938265546000,2.959974,-0.119229435583851,8.45405255706248,0.307732076823611,-1.2873985,1.0534371,0.059253927,64.108406,-71.30379,-15.59896,WAL
3938270615000,2.965043,1.84644311612387,6.17745449733049,-0.841519631361452,-0.48075095,-0.0027488936,0.43585235,63.83336,-71.36392,-15.403001,WAL
3938275562000,2.96999,3.7991729807795,4.35625566940737,-3.13319490460224,0.70402217,-0.537256,0.8790351,63.60888,-71.6326,-15.111126,WAL
3938280503000,2.974931,4.6154731102104,2.85841899963931,-4.88760227394116,2.057394,-1.4266758,1.0543534,63.786827,-72.20531,-14.546147,WAL
3938285547000,2.979975,4.43068142207851,1.61767519643683,-6.19874273044904,2.708271,-2.0518963,1.2345587,64.00542,-72.94813,-13.860209,WAL
3938290506000,2.984934,3.88188520941532,0.79328106927621,-6.93522886202621,3.685961,-2.5696046,1.219287,64.30114,-74.193275,-13.088568,WAL
3938295549000,2.989977,2.577118665,0.7592013395,-6.5603520175,4.2384887,-3.0332513,1.1297953,64.75481,-75.484406,-12.267804,WAL
3938300576000,2.995004,1.29861346160691,1.26763984611358,-5.14576041695891,4.481002,-3.3502905,0.99173975,65.2795,-76.85594,-11.540277,WAL
3938305589000,3.000017,0.0631151580214603,2.74186151292855,-1.87901913449359,4.498106,-3.440393,0.81581056,65.88733,-78.160934,-10.8517885,WAL
3938310615000,3.005043,-1.08968847711803,4.26689575856005,1.21154381066515,4.2922444,-3.2647693,0.6282749,66.58272,-79.11656,-10.394939,WAL
3938315554000,3.009982,-1.1875468404055,6.33170737209062,2.0237683638978,3.7562103,-2.9275718,0.42485678,67.266335,-79.83299,-10.008001,WAL
3938320607000,3.015035,-1.25777659452762,8.3299103236144,2.63211834976797,2.9599476,-2.6493225,0.20708331,67.84893,-80.14197,-9.770698,WAL
3938326289000,3.020717,-1.12913494041678,9.78308443551353,1.76974288667367,2.2348504,-2.4627032,0.00030543262,68.34508,-80.349174,-9.602688,WAL
3938330538000,3.024966,-1.0329367024166,10.8697681386919,1.12485845466246,1.7809776,-2.3787093,-0.10629055,68.87841,-80.520004,-9.444447,WAL
3938335546000,3.029974,-0.834420668680969,11.8298157884386,-0.139000671255463,1.6893479,-2.2837198,-0.13775012,69.34899,-80.63468,-9.333243,WAL
3938340527000,3.034955,-0.621211180097338,12.7252959907628,-1.4893275576182,1.8466456,-2.0723603,-0.10781772,69.75876,-80.72501,-9.242369,WAL
3938345551000,3.039979,-0.411636756854693,13.3696920717509,-2.65127334148014,2.0879374,-1.8017471,-0.03604105,70.07752,-80.895424,-9.083729,WAL
3938350556000,3.044984,-0.203989447851986,13.9580257563177,-3.76737768101083,2.296548,-1.5250251,0.08674286,70.327484,-81.078125,-8.912424,WAL
3938355620000,3.050048,0.133411097017008,14.2446573200937,-4.86704862914757,2.4480424,-1.2012665,0.2519819,70.41698,-98.63882,-8.6383505,WAL
3938360722000,3.05515,0.551408146877482,14.3441808738161,-5.95682647626031,2.4901922,-0.81122905,0.3912592,70.402596,-98.37387,-8.350843,WAL
3938365580000,3.060008,0.835788148202138,13.9629376005831,-6.50901769387755,2.3878722,-0.41416663,0.45540005,70.2966,-98.13136,-8.0088415,WAL
3938370647000,3.065075,1.07586573282976,13.3284465981977,-6.84341149165121,2.097406,-0.076358154,0.45051312,70.0978,-97.952644,-7.6595,WAL
3938375567000,3.069995,1.16164207185451,12.536123274118,-7.11892116453325,1.7150042,0.07666359,0.4334089,69.82676,-97.83799,-7.2426925,WAL
3938380574000,3.075002,1.02191574189822,11.4582348226662,-7.32352034686232,1.5118915,0.4352415,0.3717115,69.408745,-97.83788,-6.847223,WAL
3938385541000,3.079969,0.581825833045675,10.3607596004446,-6.94173325468876,1.207986,0.96761054,0.34055737,68.90937,-97.8847,-6.4261966,WAL
3938390622000,3.08505,-0.219663660556791,9.20523823130558,-5.86980255058609,1.0045679,1.5427402,0.25625798,68.30321,-98.02329,-6.0372076,WAL
3938396182000,3.09061,-1.02126903895179,8.3180602909782,-4.15698932522504,0.77182823,2.0980167,0.11759156,67.587944,-98.2567,-5.7027917,WAL
3938400589000,3.095017,-1.6080357260012,7.8579336989798,-2.45156671970394,0.46639562,2.4486532,0.09162979,66.77895,-98.47543,-5.3503604,WAL
3938405550000,3.099978,-1.97320633802898,7.6056055927838,-0.520766506410133,0.39522982,2.4712553,0.06291912,66.0051,-98.74842,-5.163878,WAL
3938410562000,3.10499,-2.03308408304385,7.62863568709337,1.441382532684,0.3036,2.0567832,0.062002823,65.26289,-98.961136,-4.9785314,WAL
3938415537000,3.109965,-1.92019958486562,7.81541453000099,3.006307161807,0.3662137,1.289842,0.07238753,64.71522,-99.03701,-4.9241576,WAL
3938420628000,3.115056,-1.5430370178915,8.25543789507091,4.02658031920063,0.56413406,0.33383787,0.106595986,64.34671,-99.12172,-4.885417,WAL
3938425534000,3.119962,-1.31152784973027,8.66149791871628,4.63734769164305,0.8891144,-0.6435465,0.16065755,64.29268,-98.98653,-4.865205,WAL
3938430600000,3.125028,-1.28491205752034,9.05186246969004,4.66839958046082,1.2620476,-1.4676038,0.22052236,64.476036,-98.908264,-4.865295,WAL
3938435524000,3.129952,-1.29983395601828,9.39995436795098,4.47170951287776,1.5787812,-2.207056,0.24801129,64.98182,-98.768745,-4.8508296,WAL
3938440582000,3.13501,-1.48596551946204,9.62633046598816,3.3197057573476,1.779756,-2.7284296,0.30482176,65.659744,-98.67677,-4.8369417,WAL
3938445527000,3.139955,-1.7151699100161,9.71037541459489,2.17494568732248,1.9278907,-2.855184,0.3472769,66.43013,-98.63021,-4.828933,WAL
3938450569000,3.144997,-2.0778998309247,9.42105470506171,0.957209602858165,1.9932534,-2.6966646,0.30604348,67.25561,-98.61185,-4.84171,WAL
3938455675000,3.150103,-2.43820588758284,9.11970335978375,-0.242792257806069,1.9199494,-2.4550674,0.21410827,68.029465,-98.712616,-4.862408,WAL
3938460572000,3.155,-2.67948246110917,8.70667078836763,-0.901191029729683,1.7266107,-2.1945333,0.12492194,68.73822,-98.79886,-4.8922434,WAL
3938465533000,3.159961,-2.92391233271713,8.28824020090687,-1.56819456403907,1.5216653,-1.9556851,0.046120327,69.407486,-99.12416,-4.9906044,WAL
3938470599000,3.165027,-3.06242693208424,7.91424856886549,-1.98870744255187,1.3671165,-1.8341229,-0.028099801,70.02237,-99.41773,-5.1087475,WAL
3938475499000,3.169927,-3.15931217829049,7.57030600047486,-2.30842872468256,1.2819008,-1.6187929,-0.058337633,70.532265,-99.67379,-5.223485,WAL
3938480575000,3.175003,-2.9513656739289,7.54583991500051,-2.30031454589284,1.2596041,-1.3891076,-0.13103059,70.98906,-100.069145,-5.4205236,WAL
3938485504000,3.179932,-2.67406022379216,7.6032136147878,-2.20947307090044,1.2348641,-1.1768318,-0.172264,71.38376,-100.43504,-5.608049,WAL
3938490543000,3.184971,-2.22734652283981,7.84691347249242,-1.88973110991291,1.2385293,-1.0170907,-0.20952678,71.71,-100.8653,-5.826371,WAL
3938495549000,3.189977,-1.74882288976416,8.12839768302182,-1.52380132760544,1.2632693,-0.8979719,-0.23854288,71.981705,-101.29298,-6.045368,WAL
3938500568000,3.194996,-1.13410066872594,8.69394947697591,-1.22985862311115,1.2638801,-0.8396343,-0.24556783,72.22671,-101.68642,-6.2154565,WAL
3938505646000,3.200074,-0.475462463768985,9.34317867896875,-0.952289601867079,1.2370021,-0.8689558,-0.2443461,72.45713,-102.07438,-6.3878126,WAL
3938510648000,3.205076,-0.265094065459083,9.69418252442347,-1.24644603783692,1.2116512,-0.895223,-0.2302962,72.6482,-102.32763,-6.4400625,WAL
3938515573000,3.210001,-0.210020669645616,9.93971823888294,-1.73292770892284,1.2266175,-0.88056225,-0.21166481,72.830894,-102.576065,-6.489166,WAL
3938520596000,3.215024,-0.153851397123577,10.1901397401479,-2.22908962442833,1.2702943,-0.7825184,-0.18997909,73.027054,-102.748146,-6.4184155,WAL
3938525570000,3.219998,-0.0982300629558237,10.4381183480101,-2.72041141772404,1.3350459,-0.61269784,-0.14477506,73.19543,-102.92082,-6.3364234,WAL
3938530564000,3.224992,0.0378303008575509,10.4507477024376,-2.92251463414588,1.3762794,-0.47342056,-0.10354166,73.36155,-103.11274,-6.2547355,WAL
3938535778000,3.230206,0.232771480807656,10.30810741773,-2.94153327257665,1.3799446,-0.35338554,-0.080634214,73.481606,-103.30536,-6.162396,WAL
3938540530000,3.234958,0.401267406105185,10.2023236734069,-2.80610658463964,1.3222178,-0.21319197,-0.081855945,73.48466,-103.59739,-6.0150666,WAL
3938545543000,3.239971,0.570484022637974,10.1132623648085,-2.52111025762916,1.2434162,-0.1001819,-0.10354166,73.45774,-103.88367,-5.8690248,WAL
3938550620000,3.245048,0.689006053818401,10.0194360162357,-2.13154507348166,1.1609493,-0.030543262,-0.1328632,73.42474,-104.18712,-5.70846,WAL
3938555612000,3.25004,0.71364691917361,9.92087264058071,-1.57301832038485,1.1010846,-0.024129177,-0.17379116,73.37264,-104.47839,-5.561324,WAL
3938560792000,3.25522,0.724247118560055,9.81592875173358,-0.997487401344063,1.1029172,-0.09743301,-0.22235495,73.33204,-104.72489,-5.4169354,WAL
3938565557000,3.259985,0.552354881405701,9.68700941477613,-0.516970458616557,1.1420126,-0.16310102,-0.2406809,73.28496,-104.96562,-5.28107,WAL
3938570616000,3.265044,0.369856911255886,9.55013576825614,-0.00680567094426848,1.2006557,-0.20586158,-0.258396,73.323074,-105.16109,-5.19093,WAL
3938575578000,3.270006,-0.0133558164094677,9.35927157455353,0.370817922712125,1.3026701,-0.31887165,-0.269697,73.39566,-105.37625,-5.117723,WAL
3938580573000,3.275001,-0.487507179483039,9.14263334973938,0.697818869238657,1.350623,-0.4709771,-0.2843578,73.48664,-105.59032,-5.0599446,WAL
3938585527000,3.279955,-1.04623585011392,8.92418950886076,0.963535886227848,1.4025466,-0.6221663,-0.3136793,73.67077,-105.77476,-5.069185,WAL
3938590585000,3.285013,-1.78713522751266,8.69425538987342,1.12193507402532,1.4315627,-0.752586,-0.355829,73.88557,-105.961494,-5.0966473,WAL
3938595545000,3.289973,-2.41456611905483,8.512388541856,1.15872305906291,1.4153748,-0.8472701,-0.43371433,74.18762,-106.13055,-5.2399216,WAL
3938600584000,3.295012,-2.93110636125417,8.38081685792184,1.05151656585883,1.3414601,-0.9221011,-0.5332854,74.510994,-106.28884,-5.405548,WAL
3938605598000,3.300026,-3.2102576265793,8.42290747513441,0.823859601680108,1.2370021,-0.9080512,-0.6197228,74.87973,-106.45757,-5.7051497,WAL
3938610616000,3.305044,-3.23447955136089,8.6530163296371,0.46456683921371,1.0946705,-0.80756384,-0.7272351,75.23255,-106.6026,-6.029176,WAL
3938615519000,3.309947,-3.16585927967758,8.9285946047444,0.146009504832108,0.97158116,-0.7012733,-0.8078693,75.59089,-106.77683,-6.446715,WAL
3938620613000,3.315041,-2.07379618199967,9.77616608352823,0.174533543346976,0.883922,-0.74128497,-0.8197812,75.95696,-106.92752,-6.8701196,WAL
3938625497000,3.319925,-1.02675335336619,10.5887964530571,0.201881679213999,0.81000733,-0.91507614,-0.81489426,76.295044,-107.105156,-7.2894754,WAL
3938630558000,3.324986,-0.210882431903587,11.0597324915544,0.24238827231543,0.71776664,-1.1340714,-0.8136725,76.65335,-107.25746,-7.7097993,WAL
3938635543000,3.329971,0.473194008882141,11.3587331510723,0.287691349649839,0.61911196,-1.3326025,-0.786489,77.05432,-107.3857,-8.123063,WAL
3938640584000,3.335012,0.970329349481146,11.4650225007706,0.280103641481558,0.5128214,-1.5015068,-0.75533485,77.52236,-107.407135,-8.315526,WAL
3938645545000,3.339973,1.32667059379431,11.4357340983253,0.236171155046748,0.41783184,-1.6334536,-0.73273283,78.03306,-107.399445,-8.508717,WAL
3938650558000,3.344986,1.43166165704404,11.3951148604832,0.1692390783447,0.36041048,-1.7201965,-0.70188415,78.57507,-107.334915,-8.615676,WAL
3938655607000,3.350035,1.39397395142245,11.3480052899454,0.0891527543199532,0.30970868,-1.7821994,-0.65118235,79.14747,-107.239624,-8.715963,WAL
3938660529000,3.354957,1.20823252819334,11.5343558446739,-0.0844574607677147,0.25778514,-1.7889189,-0.61758476,79.7164,-107.13267,-8.788824,WAL
3938665607000,3.360035,0.911562757456593,11.8903591501642,-0.330921595958705,0.17867808,-1.7088956,-0.5873469,80.27979,-106.997375,-8.844372,WAL
3938670559000,3.364987,0.686158115753118,12.355644371922,-0.530096311796184,0.076052725,-1.6291776,-0.58551437,80.84787,-106.869095,-8.908704,WAL
3938675555000,3.369983,0.533149728237928,12.9625776881996,-0.683104693985716,0.027794369,-1.4138476,-0.56291234,81.35718,-106.72528,-8.941303,WAL
3938680572000,3.375,0.651757052656176,13.3799726873646,-0.739056404343729,-0.08552113,-1.183246,-0.5222898,81.83673,-106.57038,-8.976296,WAL
3938685560000,3.379988,0.962326053300669,13.6590346732309,-0.725553414124187,-0.16340645,-0.9440922,-0.47128254,82.25352,-106.40727,-8.985757,WAL
3938690566000,3.384994,1.33585553915023,13.792955723824,-0.564966197986343,-0.23090707,-0.6985244,-0.42394048,82.63551,-106.25171,-8.998909,WAL
3938695549000,3.389977,1.77939499675645,13.756748633346,-0.23457454273805,-0.3145956,-0.49357912,-0.35705075,82.965385,-106.06443,-8.979233,WAL
3938700584000,3.395012,2.09976329241247,13.7528292301199,0.164603499803741,-0.41630468,-0.3539964,-0.26328292,83.253235,-105.83102,-8.902833,WAL
3938705639000,3.400067,2.187993965506,13.8085537560192,0.684699922131799,-0.52381694,-0.26633725,-0.1554652,83.50413,-105.56771,-8.796558,WAL
3938710637000,3.405065,2.1930779213996,13.8570025193342,1.14923491766481,-0.6258314,-0.20005837,-0.084910266,83.749176,-105.21748,-8.6353245,WAL
3938715559000,3.409987,1.99302445458832,13.8881218794209,1.48265731592945,-0.77182823,-0.13041973,-0.06658431,83.973885,-104.83006,-8.457762,WAL
3938721340000,3.415768,1.77892543900346,13.9402183865699,1.79921981148325,-0.9578367,-0.073303826,-0.08307768,84.26052,-104.354164,-8.277489,WAL
3938725562000,3.41999,1.66551744090084,14.010264508167,1.87593698564593,-1.1646146,-0.016187929,-0.103847094,84.530235,-103.84842,-8.094422,WAL
3938730521000,3.424949,1.53231273635539,14.092538008167,1.9660460492823,-1.3918564,0.021685716,-0.11789699,84.85173,-103.287544,-7.9461727,WAL
3938735538000,3.429966,1.42114825334617,13.9109548796341,1.81982380577756,-1.5992452,0.093462385,-0.122783914,85.14916,-102.70314,-7.8001695,WAL
3938740590000,3.435018,1.31865380273471,13.6221069620607,1.57756423062109,-1.8820758,0.19058995,-0.116675265,85.431465,-102.07115,-7.655487,WAL
3938745557000,3.439985,1.20878823197265,13.4510516853006,1.4443126213151,-2.182927,0.2510656,-0.11056661,85.765686,-101.44217,-7.549586,WAL
3938750628000,3.445056,1.09160193927207,13.3387483587372,1.36618842618138,-2.4733934,0.2773328,-0.09712757,86.086655,-100.78183,-7.438759,WAL
3938755710000,3.450138,0.872501841296096,13.3506528937949,1.45707601258728,-2.738509,0.25411993,-0.08093964,86.38961,-100.14701,-7.345867,WAL
3938760566000,3.454994,0.616402036147114,13.4192509970499,1.6217115559052,-2.9825497,0.23487769,-0.08246681,86.68961,-99.50155,-7.2530985,WAL
3938765518000,3.459946,0.236922487345383,13.8090916505225,1.4322775797656,-3.1758883,0.25473082,-0.0720821,86.99682,-98.890434,-7.171035,WAL
3938770569000,3.464997,-0.224125311012426,14.4067461260237,1.01562697305422,-3.2556064,0.30573806,-0.06261369,87.3067,-98.31963,-7.0883,WAL
3938775501000,3.469929,-0.674310965635414,14.9903200466676,0.608792525954533,-3.400076,0.39187005,-0.027794369,87.63659,-97.79435,-7.0214987,WAL
3938780573000,3.475001,-1.08872355685888,15.000845123113,0.229043263496484,-3.517362,0.52015173,0.05955936,87.945435,-97.344284,-6.933269,WAL
3938785539000,3.479967,-1.48114181259259,14.8492286962963,-0.132159926888889,-3.604105,0.6591236,0.18661933,88.232056,-96.97452,-6.8211794,WAL
3938791141000,3.485569,-2.01103459250354,14.089568523338,-0.520276610848656,-3.6642752,0.7507534,0.30268374,88.442055,-96.78664,-6.7617917,WAL
3938795544000,3.489972,-2.45834736421499,13.2844058189533,-0.818485101598303,-3.6566393,0.8032878,0.3652974,88.62768,-83.31408,-6.6803336,WAL
3938800577000,3.495005,-2.94717167461431,12.8131631395512,-0.955061486115007,-3.615406,0.7635816,0.40317106,88.76474,-83.28603,-6.6306124,WAL
3938805588000,3.500016,-3.42312325174314,12.5583609180024,-0.993522216324384,-3.5558467,0.6084218,0.44348818,88.92413,-83.19362,-6.561288,WAL
3938810568000,3.504996,-3.90383747801656,12.5220531892991,-1.17945964213821,-3.5075881,0.31887165,0.43890667,89.08224,-82.97251,-6.568946,WAL
3938815549000,3.509977,-4.38819406230284,12.585536756112,-1.43339417945584,-3.4251215,-0.015577064,0.39522982,89.300766,-82.71471,-6.5712266,WAL
3938820576000,3.515004,-4.87702372486199,12.6496065995909,-1.68967382593159,-3.3173037,-0.20861048,0.29229903,89.51244,-82.36679,-6.6360197,WAL
3938825567000,3.519995,-5.36235271746845,12.7132176178529,-1.94411816958793,-3.2128458,-0.2443461,0.15974127,89.776825,-81.990036,-6.7155247,WAL
3938830567000,3.524995,-5.791634756363,12.8447403422854,-2.16843981114622,-3.087313,-0.11759156,0.006414085,90.02459,-81.57653,-6.8361335,WAL
3938835545000,3.529973,-6.18493782464455,13.0162873601896,-2.37345944454976,-2.9743028,0.08979719,-0.1740966,90.26345,-81.13825,-6.9984736,WAL
3938840535000,3.534963,-6.50642638129203,13.2108975516609,-2.46112803804769,-2.8802297,0.28802297,-0.36041048,90.27017,-80.61262,-7.3093276,WAL
3938845550000,3.539978,-6.68749680415733,13.4506936551865,-2.3192080859894,-2.8200593,0.47769663,-0.49357912,90.22694,-80.083534,-7.655504,WAL
3938850586000,3.545014,-6.86956203977457,13.8720364014514,-1.81979662277465,-2.791654,0.61819565,-0.54000485,90.054955,-79.51846,-8.081381,WAL
3938855577000,3.550005,-7.05037680310353,14.5768451307033,-0.757048308376438,-2.7672195,0.6542367,-0.43463063,89.86353,-78.981476,-8.495087,WAL
3938860799000,3.555227,-7.23956027216861,15.3142747408322,0.354887515664325,-2.7495046,0.5742133,-0.15057829,89.65032,-78.4628,-8.878106,WAL
3938865543000,3.559971,-7.01993702814647,14.9782436633816,0.97671655863472,-2.7638597,0.50946164,0.027794369,89.42908,-77.95621,-9.252767,WAL
3938870599000,3.565027,-6.70034521100362,14.4003515490958,1.55460844434901,-2.7849348,0.3662137,0.3811799,89.24329,-77.563614,-9.482896,WAL
3938875557000,3.569985,-6.18471177098798,13.5215028085729,1.88059455291166,-2.8359418,0.18875736,0.57787853,89.16625,-77.074684,-9.681843,WAL
3938880569000,3.574997,-5.51729310083638,12.4074654210141,2.03615838701516,-2.8283062,-0.022602014,0.6386596,89.137184,-76.64484,-9.806246,WAL
3938885530000,3.579958,-4.99044598743732,11.585411561336,1.92366394582736,-2.7580566,-0.25870144,0.6096435,89.20169,-76.18987,-9.854093,WAL
3938890584000,3.585012,-4.5223829102346,10.8919849311425,1.6722966849033,-2.6190848,-0.4709771,0.5635232,89.31952,-75.7582,-9.879557,WAL
3938895567000,3.589995,-4.07294791053429,10.4386525717604,0.808819845611554,-2.3887885,-0.59650993,0.5626069,89.50883,-75.35595,-9.839795,WAL
3938900601000,3.595029,-3.63472267789112,10.2828390608019,-0.871043495343905,-2.130698,-0.74220127,0.5494733,89.767105,-74.975716,-9.804492,WAL
3938905546000,3.599974,-3.15683740193338,10.1704769814319,-2.09904568556662,-1.9113973,-0.6270532,0.5681047,90.000755,-74.68191,-9.724977,WAL
3938910583000,3.605011,-2.61203180831738,10.1058391775459,-2.83314803543262,-1.632232,-0.17592919,0.6420194,90.17671,-74.464806,-9.6476345,WAL
3938915486000,3.609914,-2.03727040398138,10.0437939453303,-3.62081633689215,-1.3747523,0.23365596,0.711658,90.29471,-74.49667,-9.546133,WAL
3938920592000,3.61502,-1.35441577459641,9.98083545330296,-4.57971883848668,-1.2996159,0.6001751,0.79504114,90.28854,-74.56485,-9.447796,WAL
3938925598000,3.620026,-0.845955919008746,9.90320057842566,-5.29341398887269,-1.3845261,0.9981538,0.86437434,90.18688,-74.80294,-9.300799,WAL
3938930569000,3.624997,-0.637765076705539,9.79679219300291,-5.58488101350826,-1.5402967,1.5170839,0.8958339,89.93722,-75.043304,-9.174653,WAL
3938935584000,3.630012,-0.441893307790308,9.60344448460835,-5.6515768765925,-1.6505579,1.9242256,0.9114109,89.56675,-75.40709,-8.99165,WAL
3938940589000,3.635017,-0.281195012235091,9.19926391212029,-5.15974280298689,-1.7186694,2.1142046,0.8881981,89.106766,-75.7378,-8.832262,WAL
3938945520000,3.639948,-0.0807697242888889,8.90370630388889,-4.784322662,-1.8090774,2.2290473,0.84940815,88.443054,-76.016754,-8.685928,WAL
3938950552000,3.64498,0.218189801014815,8.83231294018518,-4.645998014,-1.9843957,2.4312437,0.79779,87.7038,-76.25477,-8.56632,WAL
3938955590000,3.650018,0.455319487550019,8.72465168591921,-4.48506182340506,-2.1826215,2.542421,0.816116,86.96416,-76.40835,-8.421534,WAL
3938960587000,3.655015,0.369508736130615,8.4310883109664,-4.20956418800491,-2.2886066,2.5506678,0.88025683,86.201614,-76.5466,-8.285424,WAL
3938965832000,3.66026,0.259989174805719,8.09061535540742,-3.94641383678625,-2.3209825,2.468812,0.86467975,85.43098,-76.634636,-8.129895,WAL
3938970613000,3.665041,-0.0251486755302166,7.47214765279361,-3.95444588323831,-2.2886066,2.430022,0.8164214,84.65165,-76.722786,-7.972748,WAL
3938975546000,3.669974,-0.319351774402245,6.83401730830629,-3.9627332886238,-2.2562308,2.4190264,0.69974613,83.888336,-76.733574,-7.8473835,WAL
3938980556000,3.674984,-0.296568696408799,6.37439580784045,-4.06397780809724,-2.214081,2.5784621,0.59223384,83.097664,-76.75334,-7.7436857,WAL
3938985616000,3.680044,-0.167987172745357,5.97205997543439,-4.19670719952067,-2.2269092,2.692694,0.54183745,82.33339,-76.76463,-7.656346,WAL
3938990596000,3.685024,-0.0791583785871681,5.59357691243363,-4.12931865781711,-2.233018,2.694832,0.59864795,81.49669,-76.72149,-7.623716,WAL
3938995668000,3.690096,-0.0397550463075221,5.23178273650442,-3.79259920058997,-2.1649065,2.7006352,0.7452556,80.632835,-76.711426,-7.5842977,WAL
3939000639000,3.695067,-0.00113636240331858,4.87719305816372,-3.46258492182891,-2.0891593,2.6407704,0.8374963,79.74779,-76.696144,-7.528889,WAL
3939005603000,3.700031,-0.152614771710926,4.40268020502563,-3.239902364509,-2.003638,2.5127943,0.8393288,78.88498,-76.71813,-7.453554,WAL
3939010535000,3.704963,-0.375746951962609,3.88520335336215,-3.05949759735652,-1.9046779,2.3887885,0.7959574,78.04276,-76.7778,-7.361324,WAL
3939015562000,3.70999,-0.519956890624712,3.50939105718372,-3.12784146042263,-1.7895297,2.3399193,0.7302894,77.25417,-76.79676,-7.259743,WAL
3939020611000,3.715039,-0.631503683076497,3.19259819830211,-3.29739258308572,-1.6881261,2.3854287,0.6658431,76.48271,-76.83732,-7.1686106,WAL
3939025580000,3.720008,-0.719233328294395,2.95189124174901,-3.34403094690184,-1.5870279,2.4541512,0.6032294,75.68357,-76.81314,-7.132302,WAL
3939030556000,3.724984,-0.789643062009419,2.76706571946625,-3.29562419466248,-1.4471397,2.4556782,0.5714644,74.89721,-76.82567,-7.1033187,WAL
3939035555000,3.729983,-0.878664839149119,2.61915788637731,-3.19647835109583,-1.2644911,2.4233024,0.55863625,74.05793,-76.853516,-7.1140065,WAL
3939040560000,3.734988,-0.997104281886549,2.53161566151697,-3.01624458014611,-1.0546589,2.3432791,0.5555819,73.2358,-76.92605,-7.126328,WAL
3939045536000,3.739964,-1.17411855003716,2.45672396093742,-2.77905011871377,-0.829555,2.2397375,0.5656612,72.4287,-77.0299,-7.147759,WAL
3939050546000,3.744974,-1.40708789403954,2.39253854563742,-2.48664975831145,-0.6093381,2.1132884,0.59650993,71.6521,-77.19226,-7.155563,WAL
3939055541000,3.749969,-1.63935972503592,2.32854530223951,-2.19512484808998,-0.36926803,1.9611828,0.6246097,70.92161,-77.384926,-7.1664577,WAL
3939060512000,3.75494,-1.87051553522271,2.26485953388495,-1.90500065815786,-0.11789699,1.8875736,0.634689,70.206215,-77.63878,-7.167449,WAL
3939065592000,3.76002,-2.08521275100592,2.21974139329389,-1.62668577455621,-0.0030543262,1.7143933,0.64843345,69.541855,-77.90887,-7.144298,WAL
3939070539000,3.764967,-2.2721022147929,2.196380234714,-1.37438511553254,0.22602014,1.5543466,0.66645396,68.89636,-78.26818,-7.1094103,WAL
3939075542000,3.76997,-2.41818825857228,2.22880915384615,-1.12108673531738,0.45845437,1.3878858,0.7119634,68.329575,-78.53014,-7.1208324,WAL
3939080575000,3.775003,-2.51350165400435,2.32888842307692,-0.868505774629227,0.6783658,1.2473868,0.75594574,67.802864,-78.841576,-7.119248,WAL
3939085537000,3.779965,-2.6116475653653,2.46495563498531,-0.61223953811049,0.8927795,1.1111639,0.8038987,67.334785,-79.149635,-7.1236033,WAL
3939090535000,3.784963,-2.71596794502985,2.65091789235289,-0.344635270429262,1.1099422,0.96974856,0.8518516,66.90981,-79.50744,-7.107979,WAL
3939095526000,3.789954,-2.82986542788903,2.85215148127868,-0.0592517506894034,1.3054191,0.8362745,0.9114109,66.54217,-79.86836,-7.0786448,WAL
3939100556000,3.794984,-2.96551688950772,3.08828548180017,0.267316566321443,1.5054774,0.6844745,0.95417154,66.223236,-80.26964,-7.0336833,WAL
3939105467000,3.799895,-3.04729736481277,3.39219608174882,0.596405953246662,1.6798794,0.5384777,1.0033462,65.95568,-80.65508,-6.974206,WAL
3939110462000,3.80489,-3.05209970554161,3.81480226646923,0.946977062136332,1.8533652,0.35460728,1.0442741,65.746155,-81.06955,-6.898984,WAL
3939115647000,3.810075,-3.10036075124964,4.34821595793975,1.43292251843581,2.0210476,0.15302174,1.0922271,65.60513,-81.45703,-6.814188,WAL
3939120515000,3.814943,-3.20225729425069,4.97288629464981,2.04873219769077,2.1697934,-0.062308256,1.149343,65.524345,-81.8612,-6.7115207,WAL
3939125469000,3.819897,-3.37633188263485,5.71397372198008,2.78208639813628,2.2696698,-0.27214047,1.2064588,65.52804,-82.2474,-6.5704217,WAL
3939130459000,3.824887,-3.72033582011636,6.71299868697367,3.77639903367518,2.3154848,-0.49938235,1.2382239,65.60105,-82.63294,-6.418827,WAL
3939135481000,3.829909,-4.1276732256526,7.79379232726202,5.0447075202159,2.28036,-0.7150178,1.2483032,65.75993,-82.943,-6.236398,WAL
3939140479000,3.834907,-4.70073645034347,9.07613904592738,7.04103477379784,2.1700988,-0.91690874,1.2272283,65.97864,-83.23572,-6.05628,WAL
3939145467000,3.839895,-5.38907246120208,10.5013446680313,9.15827509313361,1.9233092,-1.14018,1.135904,66.3083,-83.35205,-5.918676,WAL
3939150535000,3.844963,-6.49091497962412,12.4521474443617,11.7412825776889,1.4984524,-1.3759739,0.9465357,66.694664,-83.39538,-5.817473,WAL
3939155632000,3.85006,-7.62552687301587,14.3538739546485,14.2140222947846,0.98990715,-1.7055358,0.6808093,67.27243,-83.07566,-5.8250732,WAL
3939160562000,3.85499,-8.93458415295815,15.7115955481344,15.6058087553082,0.589485,-1.997224,0.537256,67.89355,-82.67876,-5.841561,WAL
3939165592000,3.86002,-9.93522338810642,16.9678473201182,16.6322215510346,0.42943826,-2.5097399,0.22602014,68.787994,-81.766235,-6.0950227,WAL
3939170570000,3.864998,-9.19330663067293,17.5439727007477,15.6126036315423,0.0729984,-2.2913556,0.04062254,69.526955,-80.78037,-6.326853,WAL
3939175544000,3.869972,-8.45198602973396,18.1196351441488,14.5938050113024,-0.3472769,-1.4144585,-0.06780604,70.23827,-79.58372,-6.75295,WAL
3939180546000,3.874974,-6.14086187008277,17.1242116274528,12.2792282549056,-0.8503244,-0.5015204,-0.13713925,70.85581,-78.36129,-7.1768956,WAL
3939185912000,3.88034,-3.3690115792058,15.7621817994978,9.55516859899563,-1.2812898,-0.0018325958,-0.089491755,71.32212,-77.150116,-7.5711913,WAL
3939190566000,3.884994,-2.79042843261307,13.5047877611482,7.77734821279526,-1.4706581,0.26419923,-0.012217305,71.519295,-76.14086,-7.8302317,WAL
3939195527000,3.889955,-2.79546079198178,10.7319555419977,6.08144184440208,-1.5036448,0.67103547,0.062308256,71.53151,-75.13138,-8.095113,WAL
3939200573000,3.895001,-3.2499742992438,8.45296536013119,4.75928660158528,-1.4456125,1.2052372,0.12614368,71.278946,-74.49605,-8.037396,WAL
3939205617000,3.900045,-3.80890174986334,6.30087474701166,3.53140669305758,-1.344209,1.7269161,0.14477506,70.93656,-73.87958,-8.016543,WAL
3939210570000,3.904998,-4.28894248994105,4.4865425797511,2.53958257219051,-1.1905763,2.0888536,0.15393804,70.4959,-73.37935,-8.05727,WAL
3939215570000,3.909998,-4.73252066903715,2.83320600260129,1.66586801244503,-1.0128145,2.2800546,0.1704314,69.97891,-72.92563,-8.1238365,WAL
3939220563000,3.914991,-4.98356693272171,1.76977633573613,0.978319581957186,-0.7858781,2.3328943,0.14905111,69.439964,-72.54044,-8.403485,WAL
3939225598000,3.920026,-5.03096445183486,1.32739818922018,0.48327730412844,-0.5348125,2.262034,0.077579886,68.89008,-72.20411,-8.698998,WAL
3939230559000,3.924987,-4.89958331949128,1.68028905180653,0.379203337525773,-0.27397305,2.0726657,-0.009773844,68.36754,-71.916275,-9.1193075,WAL
3939235579000,3.930007,-4.67261513662203,2.45383371256383,0.476475411752577,0.03359759,1.7486018,-0.10140363,67.90864,-71.68485,-9.549259,WAL
3939240597000,3.935025,-4.49260693575198,3.49500683780191,0.59090663541709,0.34697145,1.3613132,-0.24373524,67.52087,-71.5175,-10.019148,WAL
3939245578000,3.940006,-4.34738055804749,4.71975067647656,0.716769620779379,0.60903263,0.89858276,-0.3866777,67.25164,-71.38499,-10.488311,WAL
3939250571000,3.944999,-4.05607382043738,5.97843218144135,0.873186749910537,0.8338311,0.35246924,-0.48349985,67.108574,-71.335335,-10.89369,WAL
3939255559000,3.949987,-3.67145161956262,7.25575718855865,1.04887834008946,0.999681,0.03848451,-0.54092115,67.0377,-71.30149,-11.312202,WAL
3939260633000,3.955061,-3.2486247667661,8.63700033345763,1.14492079389391,1.0451905,-0.6753115,-0.54825157,67.223625,-71.3385,-11.598527,WAL
3939265568000,3.959996,-2.81685164739443,10.033654559243,1.18457345218607,1.0983357,-1.505172,-0.5360342,67.53307,-71.394936,-11.864149,WAL
3939270564000,3.964992,-2.54515456558023,11.3496616541679,1.05577921666186,1.1636983,-2.3585508,-0.48991394,68.03614,-71.56856,-11.920668,WAL
3939275582000,3.97001,-2.47584909131814,12.5509566700317,0.718492539873089,1.2528846,-3.0680707,-0.47952923,68.73048,-71.74618,-11.9365,WAL
3939280553000,3.974981,-2.43614717259067,13.6660043484974,0.416615889579275,1.3515394,-3.5094209,-0.5177083,69.559166,-72.09256,-11.716168,WAL
3939285581000,3.980009,-2.4461268407772,14.6639768985492,0.167122715593782,1.4407257,-3.6667187,-0.5161811,70.489784,-72.45025,-11.466554,WAL
3939290535000,3.984963,-2.69588411205074,15.4513306904259,-0.0714630511366153,1.4645494,-3.6569448,-0.48899764,71.43883,-72.90798,-11.156161,WAL
3939295568000,3.989996,-3.26362885729387,15.9948126058593,-0.304383947317024,1.423316,-3.4507778,-0.47983465,72.36125,-73.344635,-10.872843,WAL
3939300568000,3.994996,-3.71628923521861,16.106696853734,-0.498112542611191,1.3112222,-3.0121765,-0.48655418,73.17359,-73.82174,-10.59335,WAL
3939305581000,4.000009,-4.03530689488787,15.7006745154421,-0.646745763012912,1.0867293,-2.3823745,-0.48075095,73.85823,-74.2439,-10.351897,WAL
3939310493000,4.004921,-4.34789710918976,15.3028325593899,-0.792384378335725,0.7874053,-1.7098118,-0.5207626,74.410934,-74.58559,-10.258936,WAL
3939315559000,4.009987,-4.39736408582124,14.4245602730759,-0.985009495015064,0.46883908,-0.981355,-0.5671884,74.76259,-74.854675,-10.214152,WAL
3939320587000,4.015015,-4.37538282479686,13.4310062648589,-1.18723725251712,0.124311075,-0.26206118,-0.5739079,74.92128,-75.0396,-10.211408,WAL
3939325582000,4.02001,-4.05256430957502,12.1498863492743,-1.39362189247155,-0.160963,0.24862215,-0.5421429,74.95128,-75.115326,-10.332888,WAL
3939330549000,4.024977,-3.54594047488775,10.6945849116634,-1.60223169150047,-0.32559118,0.42394048,-0.4859433,74.87059,-75.14245,-10.466445,WAL
3939335606000,4.030034,-2.68791796396707,9.19539381744208,-2.33950958227073,-0.32406402,0.28344148,-0.39584067,74.75103,-75.14149,-10.62691,WAL
3939340564000,4.034992,-1.7015545726211,7.71812164545281,-3.28496392042887,-0.08735373,0.0015271631,-0.21563543,74.61491,-75.183105,-10.743579,WAL
3939345587000,4.040015,-0.674367110710316,6.52375834663029,-5.06711379624129,0.52442783,-0.18448131,0.06047566,74.487625,-75.34901,-10.785331,WAL
3939350558000,4.044986,0.359820633909266,5.53286215047994,-7.35194692737193,1.5057828,-0.2660318,0.3921755,74.39956,-75.67687,-10.750156,WAL
3939355623000,4.050051,0.722409231904667,4.93144563701182,-8.1151417446425,2.5867088,-0.30940324,0.7370089,74.30243,-76.32524,-10.548222,WAL
3939360554000,4.054982,0.684577707129982,4.57677474659523,-7.97327352673743,3.0665436,-0.52870387,0.86376345,74.27544,-77.04715,-10.303581,WAL
3939365546000,4.059974,0.37968414606851,4.77450768145034,-5.58502679501886,3.7830884,-0.8698721,0.98990715,74.19123,-78.291504,-9.86937,WAL
3939371106000,4.065534,-0.134881115905091,5.3601917823303,-1.4517709339252,4.2018366,-1.2388347,0.99082345,74.19077,-79.45803,-9.429144,WAL
3939375574000,4.070002,-0.479071258761536,5.87114717642155,1.67137098690086,4.3753223,-1.6065756,0.89858276,74.31263,-80.50634,-8.994191,WAL
3939380551000,4.074979,-0.157434256213159,6.85024808175052,3.13292726763918,4.261396,-2.037541,0.7870999,74.571075,-81.32785,-8.566482,WAL
3939385564000,4.079992,0.157352910974405,7.82707396447238,4.45664748863943,3.8142426,-2.5662448,0.65209866,74.972725,-81.924324,-8.048251,WAL
3939390570000,4.084998,0.351099407409071,8.6795584948361,3.8280478675348,3.2290337,-3.007595,0.4886922,75.45392,-82.40525,-7.594333,WAL
3939395554000,4.089982,0.543994441014818,9.52829658898967,3.20221076973507,2.8475482,-3.2357533,0.32559118,76.06032,-97.15533,-7.152646,WAL
3939400559000,4.094987,0.641350393292907,9.91142692851893,1.75692175822859,2.692694,-3.275154,0.21930063,76.72398,-96.774445,-6.7649245,WAL
3939405699000,4.100127,0.722758519900772,10.2144465518192,0.115190948379272,2.7296515,-3.1380148,0.14355333,77.38939,-96.45208,-6.435189,WAL
3939410558000,4.104986,0.78047955014881,10.4190642219888,-1.3111775301208,2.8722885,-2.8490756,0.09682214,78.02624,-96.14309,-6.1001663,WAL
3939415564000,4.109992,0.830838271279762,10.5911226855742,-2.72122152021534,3.0839531,-2.4489589,0.08155051,78.57753,-95.885635,-5.7971625,WAL
3939420544000,4.114972,0.903859790124237,10.7564003879764,-4.11945571448726,3.255301,-1.9758437,0.09162979,78.958305,-95.7127,-5.4739017,WAL
3939425578000,4.120006,1.01552671507686,10.9137491934091,-5.52544343438619,3.2846224,-1.455081,0.05222898,79.195816,-95.65927,-5.1845565,WAL
3939430555000,4.124983,1.12969655343716,11.1449027253249,-6.58892668485269,3.043636,-0.8668178,-0.042455133,79.217705,-95.803085,-4.878805,WAL
3939435581000,4.130009,1.2490622835433,11.4600285878385,-7.30989569070529,2.5305092,-0.31306845,-0.11911872,79.09,-96.0425,-4.5864134,WAL
3939441183000,4.135611,1.1894578107171,11.5378833513868,-7.69872702475038,1.9095647,0.16584991,-0.13652839,78.87058,-96.54764,-4.324224,WAL
3939445568000,4.139996,1.00733425903782,11.4065849968734,-7.71143330856278,1.3503176,0.63591075,-0.13408493,78.49498,-97.05141,-4.0710273,WAL
3939450567000,4.144995,0.676860954546952,11.1174581120264,-7.37336819505766,0.9300423,0.8552113,-0.16920967,78.047005,-97.59505,-3.8155315,WAL
3939455603000,4.150031,0.212052918240527,10.6764857914333,-6.6543060462603,0.5161811,1.2773192,-0.20097467,77.416,-98.03443,-3.5433836,WAL
3939460650000,4.155078,-0.259658969942366,10.2463002226238,-5.87547691638175,0.33017266,1.6920967,-0.25167647,76.77535,-98.493225,-3.3114336,WAL
3939465566000,4.159994,-0.793138684643939,9.97496170587086,-4.3854131613754,0.0018325958,2.0631974,-0.25167647,76.03745,-98.814064,-3.0644212,WAL
3939470838000,4.165266,-1.3480548228499,9.69885488466413,-2.76528533852978,-0.21777347,2.3017402,-0.18173242,75.29622,-99.0535,-2.8981187,WAL
