timestamp,rel_time,acc_x,acc_y,acc_z,gyro_x,gyro_y,gyro_z,azimuth,pitch,roll,label
6823713991000,0,-1.55096273873882,9.53754253917387,-2.18207464290895,-0.027488936,0.0033597588,0.01160644,306.33353,-52.528763,-12.040141,STD
6823719023000,0.005032,-1.55312903723341,9.53706113001349,-2.18375953978323,-0.02443461,0.013133603,0.014966198,306.28165,-53.105026,-12.054784,STD
6823724006000,0.010015,-1.55527424100894,9.53658440866091,-2.18542802967284,-0.024740042,0.013133603,0.015882496,306.23267,-53.67316,-12.067334,STD
6823729127000,0.015136,-1.55747885440138,9.53609448491084,-2.18714272698866,-0.030848695,0.01038471,0.019242255,306.18268,-54.23413,-12.077596,STD
6823734017000,0.020026,-1.55958402126118,9.53562666082613,-2.18878007709105,-0.03481932,0.0033597588,0.014049901,306.13672,-54.787712,-12.087018,STD
6823739007000,0.025016,-1.561732238568,9.53514926978673,-2.19045091083562,-0.028099801,0.0076358155,0.0125227375,306.0893,-55.33614,-12.094212,STD
6823743988000,0.029997,-1.5638765813346,9.53467273977324,-2.19211873105239,-0.029932396,0.0021380284,0.0061086523,306.04947,-55.873024,-12.099425,STD
6823749059000,0.035068,-1.56605966950352,9.53418759950053,-2.19381668654713,-0.03023783,0.006414085,0.01863139,306.00543,-56.406776,-12.100818,STD
6823754083000,0.040092,-1.56822252396234,9.53370695569652,-2.19549890473003,-0.04153884,0.016798794,0.018936822,305.96606,-56.927914,-12.105113,STD
6823759002000,0.045011,-1.57034017545178,9.53323635719494,-2.19714596508866,-0.030543262,0.014966198,0.020463986,305.92868,-57.449116,-12.103296,STD
6823764015000,0.050024,-1.57249829436142,9.53275676575596,-2.19882450007093,-0.036651913,0.016493361,0.021991149,305.8899,-57.95563,-12.101874,STD
6823769018000,0.055027,-1.57465210822636,9.53227813101244,-2.20049968668898,-0.03390302,0.02107485,0.019547688,305.8533,-58.45981,-12.099759,STD
6823774023000,0.060032,-1.57680678310024,9.53179930492982,-2.20217554297987,-0.03176499,0.013439035,0.019242255,305.82117,-58.955368,-12.093851,STD
6823778999000,0.065008,-1.57894897334449,9.53132325326407,-2.20384168901453,-0.02565634,0.009773844,0.015577064,305.7899,-59.444683,-12.089269,STD
6823784018000,0.070027,-1.58110967528095,9.5308430878078,-2.20552223301533,-0.032375857,0.010079277,0.019242255,305.76086,-59.92475,-12.081164,STD
6823789008000,0.075017,-1.58325789258778,9.53036569676839,-2.2071930667599,-0.027794369,0.0070249503,0.017104227,305.73724,-60.400875,-12.073358,STD
6823793983000,0.079992,-1.58539965232756,9.52988974077219,-2.20885887795814,-0.034208454,0.0018325958,0.02107485,305.71518,-60.86629,-12.061751,STD
6823799095000,0.085104,-1.58760039117976,9.52940067804805,-2.21057056174617,-0.026572637,0.0015271631,0.021991149,305.69568,-61.328583,-12.050703,STD
6823804287000,0.090296,-1.58831246293888,9.52901819444153,-2.21090967682456,-0.01985312,0.008246681,0.01985312,305.67798,-61.78182,-12.038711,STD
6823809005000,0.095014,-1.55423292497715,9.53127511592466,-2.17931275249427,-0.029321533,0.0067195175,0.017715093,305.6648,-62.225693,-12.0245695,STD
6823814018000,0.100027,-1.51802251298008,9.53367315479598,-2.14574018325566,-0.029932396,0.0009162979,0.01282817,305.6336,-62.677803,-12.0263605,STD
6823819021000,0.10503,-1.48188433400117,9.53606641002702,-2.11223458503089,-0.026572637,-0.00061086525,0.013133603,305.60355,-63.121597,-12.026341,STD
6823824018000,0.110027,-1.44578949483314,9.5384567950739,-2.07876916941443,-0.028710667,-0.009773844,0.015577064,305.57974,-63.55618,-12.024181,STD
6823828985000,0.114994,-1.40991135471955,9.54083282919995,-2.04550466683949,-0.025350908,-0.002443461,0.007941248,305.5554,-63.984364,-12.025121,STD
6823834011000,0.12002,-1.3736070397989,9.54323708680363,-2.01184503528289,-0.0290161,-0.0015271631,0.0076358155,305.53638,-64.40426,-12.020618,STD
6823839000000,0.125009,-1.33756998704539,9.54562364493829,-1.9784331964775,-0.03359759,-0.0015271631,0.01038471,305.527982425519,-64.6101707282576,-12.017734399037,STD
6823843980000,0.129989,-1.30159794400821,9.54800589779669,-1.94508163158457,-0.041233405,-0.0076358155,0.015882496,305.5196,-64.81571,-12.014856,STD
6823849099000,0.135108,-1.26462186201879,9.55045464325496,-1.91079916959925,-0.035124753,-0.00030543262,0.00580322,305.50327,-65.22094,-12.014577,STD
6823854046000,0.140055,-1.2288881879415,9.55282111010045,-1.87766860905199,-0.03390302,0.00030543262,0.010995574,305.49023,-65.61804,-12.005768,STD
6823859001000,0.14501,-1.19309672744969,9.55519140385816,-1.84448447169366,-0.03940081,0.0027488936,0.008246681,305.47897,-66.00523,-12.001825,STD
6823863990000,0.149999,-1.15705967469618,9.55757796199282,-1.81107263288828,-0.034513887,0.0030543262,0.009162978,305.46954,-66.389366,-11.994532,STD
6823868996000,0.155005,-1.12089982581182,9.55997265231595,-1.77754694335936,-0.028099801,0.0067195175,0.01282817,305.4609,-66.765396,-11.98702,STD
6823874009000,0.160018,-1.08468941381475,9.56237069118727,-1.74397437412075,-0.03604105,0.016798794,0.015577064,305.45273,-67.13201,-11.979404,STD
6823878987000,0.164996,-1.04873181738121,9.56475198731762,-1.71063620343059,-0.040317107,0.006414085,0.01038471,305.452,-67.49327,-11.970668,STD
6823884017000,0.170026,-1.01239860925329,9.56715815837742,-1.67694978346845,-0.04428773,0.009468411,0.015882496,305.44583,-67.84771,-11.95989,STD
6823889007000,0.175016,-0.976354333197968,9.5695451948761,-1.64353124756168,-0.043066,0.0027488936,0.025350908,305.44772,-68.19521,-11.9469795,STD
6823893992000,0.180001,-0.940346173651716,9.57192983955464,-1.61014619716182,-0.04734206,-0.020158553,0.03481932,305.45514,-68.53444,-11.930921,STD
6823899097000,0.185106,-0.903471217887702,9.57437188791652,-1.57595749459588,-0.021991149,-0.05100725,0.040011674,305.46857,-68.8749,-11.911823,STD
6823904068000,0.190077,-0.867564184566856,9.57674983549868,-1.5426662036154,-0.014966198,-0.087964594,0.059253927,305.49042,-69.20711,-11.883635,STD
6823909007000,0.195016,-0.83188829690408,9.57911247543194,-1.50958921987922,0.023823744,-0.106901415,0.06261369,305.51926,-69.543976,-11.857274,STD
6823914486000,0.200495,-0.79231182626137,9.58173343194022,-1.47289580139561,0.051923547,-0.124311075,0.07391469,305.55814,-69.87764,-11.820724,STD
6823919028000,0.205037,-0.759503589419028,9.58390616135445,-1.44247756690893,0.069027774,-0.1423316,0.06780604,305.60614,-70.20822,-11.7868185,STD
6823924008000,0.210017,-0.72353154638185,9.58628841421286,-1.40912600201599,0.056505036,-0.16371189,0.079107046,305.66016,-70.53627,-11.743877,STD
6823928988000,0.214997,-0.687559503344672,9.58867066707126,-1.37577443712306,0.011301007,-0.18325958,0.08735373,305.72192,-70.8521,-11.702777,STD
6823934020000,0.220029,-0.65121184861313,9.59107779485912,-1.34207462295816,-0.05467244,-0.21502456,0.0983493,305.79456,-71.156,-11.655991,STD
6823938994000,0.225003,-0.61528314538684,9.59345717753335,-1.30876324067353,-0.11453723,-0.23732115,0.1142318,305.8714,-71.44701,-11.605654,STD
6823943988000,0.229997,-0.579209976124256,9.59584612748815,-1.27531791636122,-0.18295415,-0.26236662,0.12705997,305.95966,-71.71692,-11.551571,STD
6823949104000,0.235113,-0.54225556404028,9.59829343785434,-1.24105554568005,-0.25045475,-0.26847526,0.13408493,306.05026,-71.970146,-11.495509,STD
6823954091000,0.2401,-0.506232957890399,9.60067903926094,-1.20765710107743,-0.30604348,-0.2724459,0.1386664,306.1486,-72.207855,-11.436127,STD
6823959003000,0.245012,-0.47075209937662,9.60302876336545,-1.17476093907862,-0.3304781,-0.27152961,0.14966199,306.2482,-72.43555,-11.374096,STD
6823964008000,0.250017,-0.434599473794075,9.60542297532455,-1.14124194665108,-0.35613444,-0.26236662,0.15851954,306.34818,-72.64716,-11.312822,STD
6823969013000,0.255022,-0.39844684821153,9.60781718728365,-1.10772295422355,-0.38698313,-0.25473082,0.15943582,306.44983,-72.848946,-11.251866,STD
6823974012000,0.260021,-0.362337562439872,9.61020852905859,-1.07424414440432,-0.40775254,-0.24556783,0.17715092,306.54837,-73.048416,-11.185645,STD
6823978990000,0.264999,-0.326379966006324,9.61258982518894,-1.04090597371415,-0.39614612,-0.22968534,0.1826487,306.64514,-73.24243,-11.124646,STD
6823984696000,0.270705,-0.285163805851678,9.61531937033152,-1.00269231321635,-0.37598756,-0.18784106,0.20525073,306.73123,-73.43698,-11.057287,STD
6823989009000,0.275018,-0.254009705124901,9.61738255438339,-0.973807714946628,-0.36193767,-0.16340645,0.22296582,306.81927,-73.62929,-10.990824,STD
6823993988000,0.279997,-0.218044885389537,9.61976432887777,-0.940462847155081,-0.3387248,-0.13561209,0.24007004,306.89474,-73.82837,-10.922154,STD
6823999085000,0.285094,-0.18122771604004,9.62220255032742,-0.906327721400207,-0.31031954,-0.12980886,0.24465153,306.97086,-74.02875,-10.853411,STD
6824004490000,0.290499,-0.145173397073762,9.62432278760722,-0.872380860719822,-0.29565877,-0.1142318,0.23945917,307.03754,-74.22864,-10.786091,STD
6824009014000,0.295023,-0.179076589003305,9.61611691142534,-0.892247699618707,-0.27977628,-0.0729984,0.22143865,307.0974,-74.429016,-10.724122,STD
6824014001000,0.30001,-0.216449537312905,9.60707122077126,-0.914147771587924,-0.26908615,-0.0018325958,0.21166481,307.21707,-74.66139,-10.482908,STD
6824019020000,0.305029,-0.254062295998664,9.59796748678433,-0.936188369384897,-0.25992316,0.07391469,0.19792034,307.32376,-74.88664,-10.256299,STD
6824024007000,0.310016,-0.291435244308264,9.58892179613025,-0.958088441354114,-0.23609942,0.16707164,0.16646078,307.40573,-75.106384,-10.047835,STD
6824028985000,0.314994,-0.32874074594957,9.57989243016353,-0.979948990434276,-0.21166481,0.23976462,0.13164146,307.47205,-75.319664,-9.852371,STD
6824034022000,0.320031,-0.366488397971919,9.57075604680187,-1.00206863400936,-0.16920967,0.27397305,0.09101892,307.52417,-75.52971,-9.675058,STD
6824039041000,0.32505,-0.404101156657678,9.56165231281494,-1.02410923180633,-0.12950343,0.28313604,0.03023783,307.5653,-75.72921,-9.519994,STD
6824043976000,0.329985,-0.441084413106019,9.55270094257675,-1.04578094930545,-0.09193522,0.27091873,-0.025961773,307.60437,-75.925964,-9.379592,STD
6824049072000,0.335081,-0.479274215509413,9.54345754182014,-1.06815968737546,-0.059864793,0.22999077,-0.07269296,307.65146,-76.11595,-9.256032,STD
6824054139000,0.340148,-0.517246689759411,9.53426674283393,-1.09041107391406,-0.031154128,0.17654006,-0.10323623,307.7075,-76.301476,-9.145526,STD
6824059006000,0.345015,-0.553720349158414,9.52543871467804,-1.1117841740292,0.016798794,0.12644911,-0.14905111,307.77716,-76.48203,-9.053377,STD
6824064048000,0.350057,-0.591505471552038,9.51629326204563,-1.13392577476487,0.057726767,0.07971791,-0.1881465,307.862,-76.658615,-8.968108,STD
6824069019000,0.355028,-0.628758514673558,9.50727659305797,-1.15575558382021,0.087964594,0.07360926,-0.2180789,307.951,-76.832,-8.895134,STD
6824074005000,0.360014,-0.666123968908903,9.49823271625804,-1.17765126435731,0.10048734,0.07574729,-0.23182335,308.05173,-77.0018,-8.82898,STD
6824078996000,0.365005,-0.703526893515523,9.48917977018736,-1.199568902055,0.106901415,0.081855945,-0.23457226,308.15356,-77.1689,-8.77011,STD
6824083989000,0.369998,-0.740944806270653,9.48012319640837,-1.22149532261692,0.09896017,0.0842994,-0.23793201,308.2562,-77.32876,-8.717129,STD
6824089008000,0.375017,-0.778557564956413,9.47101946242144,-1.24353592041389,0.09132435,0.06566802,-0.21991149,308.3619,-77.48972,-8.660018,STD
6824093999000,0.380008,-0.815960489563033,9.46196651635075,-1.26545355811158,0.10354166,0.057726767,-0.20861048,308.46402,-77.647255,-8.608108,STD
6824099067000,0.385076,-0.853940457887287,9.45277390351039,-1.2877093360823,0.10323623,0.054367006,-0.18478674,308.56848,-77.80299,-8.548722,STD
6824104042000,0.390051,-0.891223477305827,9.44374997910613,-1.30955671086611,0.100792766,0.03268129,-0.15577064,308.67947,-77.96039,-8.48535,STD
6824109005000,0.395014,-0.928416567833308,9.43474782095169,-1.33135138846451,0.0852157,0.020463986,-0.12858713,308.78748,-78.11577,-8.417939,STD
6824113993000,0.400002,-0.965797010217163,9.42570031644346,-1.35325585186584,0.09101892,0.020158553,-0.10567969,308.89697,-78.27633,-8.345137,STD
6824119012000,0.405021,-1.00340976890292,9.41659658245652,-1.37529644966282,0.09773844,0.028710667,-0.07727446,309.00574,-78.437035,-8.265045,STD
6824124091000,0.4101,-1.04147217204398,9.4073840172205,-1.39760053338683,0.09407325,0.032070424,-0.05589417,309.11517,-78.59648,-8.182425,STD
6824128979000,0.414988,-1.07810320700234,9.39851789812743,-1.41906585357643,0.10140363,0.050701816,-0.03359759,309.21637,-78.76188,-8.094706,STD
6824133997000,0.420006,-1.11570847161384,9.38941597799465,-1.44110205994129,0.10842858,0.06505715,-0.028099801,309.31738,-78.92383,-8.007954,STD
6824139006000,0.425015,-1.15324628955705,9.38033038254923,-1.46309874341708,0.11148291,0.08582657,-0.025350908,309.41028,-79.08686,-7.918954,STD
6824144006000,0.430015,-1.19071666083197,9.37126111179118,-1.48505590400383,0.10995574,0.09407325,-0.013133603,309.50192,-79.249886,-7.828069,STD
6824149061000,0.43507,-1.22859920619091,9.36209207905479,-1.50725459335702,0.121256754,0.100792766,-0.003970624,309.58795,-79.41239,-7.7402067,STD
6824154064000,0.440073,-1.26609205968859,9.35301736673429,-1.52922492824012,0.11484267,0.093767814,-0.003970624,309.632072010216,-79.4903413902244,-7.69680612599159,STD
6824159045000,0.445054,-1.30342004355266,9.34398255920512,-1.55109865161663,0.113926366,0.09162979,-0.004581489,309.676,-79.56795,-7.6535964,STD
6824164030000,0.450039,-1.34077800371375,9.33494049625934,-1.57298994072162,0.12034045,0.086132,-0.004581489,309.76062,-79.72688,-7.56679,STD
6824169059000,0.455068,-1.37846570314206,9.32581862373089,-1.59507445283976,0.10934488,0.070554934,-0.021380283,309.8513,-79.873924,-7.486428,STD
6824174054000,0.460063,-1.4158986040457,9.3167584222436,-1.61700965626592,0.10629055,0.063224554,-0.040927973,309.94113,-80.01974,-7.4090548,STD
6824179031000,0.46504,-1.45319661161275,9.30773087013104,-1.63886581391396,0.10293079,0.056505036,-0.058337633,310.03568,-80.15701,-7.337336,STD
6824184016000,0.470025,-1.49055457177384,9.29868880718526,-1.66075710301895,0.11148291,0.04520403,-0.08368854,310.13437,-80.28696,-7.274886,STD
6824189041000,0.47505,-1.52821229490513,9.28957419007342,-1.68282404940862,0.11056661,0.03726278,-0.110872045,310.2345,-80.407326,-7.2194996,STD
6824194057000,0.480066,-1.56580257136812,9.28047589764894,-1.70485147290924,0.10873401,0.04062254,-0.12492194,310.3349,-80.52357,-7.169127,STD
6824199139000,0.485148,-1.60388745673194,9.27125789085046,-1.72716873092961,0.11209377,0.032986723,-0.14874569,310.44168,-80.629745,-7.130048,STD
6824204033000,0.490042,-1.64056345613583,9.26238088863248,-1.74866039971191,0.1151481,0.023823744,-0.172264,310.5482,-80.729774,-7.096177,STD
6824209046000,0.495055,-1.67684524538264,9.25603048115556,-1.75611174635361,0.122478485,0.034513887,-0.18997909,310.65158,-80.82456,-7.0688844,STD
6824214035000,0.500044,-1.71267819422267,9.25029721951841,-1.76041170131196,0.12705997,0.035430185,-0.19730948,310.76062,-80.9139,-7.0457077,STD
6824219060000,0.505069,-1.74876970913973,9.24452258738238,-1.76474268420747,0.13591751,0.03390302,-0.20677789,310.79193,-80.932686,-7.1985774,STD
6824224023000,0.510032,-1.78441591581303,9.23881920443887,-1.7690202301001,0.13622294,0.026572637,-0.21563543,310.8261,-80.94132,-7.3503413,STD
6824229024000,0.515033,-1.8203350533454,9.23307215263542,-1.77333052770417,0.13805555,0.026267206,-0.22571471,310.86026,-80.94152,-7.502432,STD
6824234055000,0.520064,-1.85646966260862,9.22729062541624,-1.77766668192254,0.13133603,0.028099801,-0.22174409,310.89697,-80.93436,-7.650046,STD
6824239791000,0.5258,-1.89766785754677,9.22069892592722,-1.782610466577,0.1441642,0.028710667,-0.2171626,310.93558,-80.92121,-7.797494,STD
6824244086000,0.530095,-1.92851622701319,9.21576319557413,-1.78631227185784,0.15668693,0.022296581,-0.20586158,310.97665,-80.90304,-7.938988,STD
6824249171000,0.53518,-1.96503868539194,9.20991961260662,-1.79069496798196,0.16615535,0.01282817,-0.19242255,311.0196,-80.88166,-8.075823,STD
6824254110000,0.540119,-2.00051251468056,9.2042438099957,-1.79495182858314,0.17715092,0.005192355,-0.18875736,311.065,-80.85643,-8.209574,STD
6824259050000,0.545059,-2.03599352636021,9.19856685820425,-1.79920955107147,0.1881465,-0.011911872,-0.19486602,311.11703,-80.82741,-8.33949,STD
6824264056000,0.550065,-2.07194857584772,9.19281406049818,-1.80352415811126,0.19028452,-0.02107485,-0.18967366,311.1699,-80.79692,-8.462814,STD
6824269068000,0.555077,-2.10794671968141,9.18705436770897,-1.80784393647391,0.18509217,-0.04550946,-0.19181168,311.23355,-80.75805,-8.587124,STD
6824274041000,0.56005,-2.14366475026499,9.18133949296021,-1.81213010123796,0.19730948,-0.050701816,-0.18845193,311.29526,-80.71898,-8.706387,STD
6824279034000,0.565043,-2.17952642866914,9.17560163460096,-1.81643350374489,0.19242255,-0.07849618,-0.19792034,311.3719,-80.669,-8.827054,STD
6824284016000,0.570025,-2.21530910077198,9.16987641722748,-1.82072742549324,0.1853976,-0.105068825,-0.21594086,311.45074,-80.614204,-8.947143,STD
6824289049000,0.575058,-2.25145807481726,9.16409259164725,-1.8250653034859,0.17562376,-0.12064589,-0.21288654,311.53534,-80.557976,-9.061677,STD
6824294106000,0.580115,-2.28777942624721,9.15828118573443,-1.82942386677,0.17745635,-0.13805555,-0.22815818,311.62952,-80.4886,-9.184206,STD
6824299189000,0.585198,-2.3242875198439,9.15243990112797,-1.83380483911983,0.19975294,-0.13836098,-0.21960606,311.72372,-80.42415,-9.297106,STD
6824304051000,0.59006,-2.35920830502335,9.14685258541744,-1.83799533441097,0.20708331,-0.13164146,-0.23151793,311.82217,-80.34593,-9.418116,STD
6824309772000,0.595781,-2.40029876409608,9.14027812363629,-1.84292619075828,0.19547687,-0.116675265,-0.23823744,311.91895,-80.26905,-9.533379,STD
6824314052000,0.600061,-2.43103939769707,9.13535963099107,-1.84661506773197,0.19150625,-0.077579886,-0.2434298,312.0076,-80.187614,-9.64998,STD
6824319051000,0.60506,-2.46694417044739,9.12961487754867,-1.85092364156175,0.1731803,-0.053450707,-0.24923302,312.0971,-80.10064,-9.766695,STD
6824324045000,0.610054,-2.50281303124256,9.1238758700089,-1.85522790595582,0.17073683,-0.008552114,-0.25534168,312.17004,-80.0108,-9.883494,STD
6824329032000,0.615041,-2.53863161530054,9.1181449067328,-1.85952613713989,0.17134771,0.032375857,-0.25289822,312.23788,-79.91956,-9.997601,STD
6824334029000,0.620038,-2.5745220232688,9.11240245165145,-1.86383298719538,0.14905111,0.0693332,-0.25961772,312.29477,-79.8219,-10.114288,STD
6824339049000,0.625058,-2.61057762623071,9.10663356541804,-1.86815966065518,0.14019357,0.103847094,-0.26145032,312.34128,-79.72582,-10.227036,STD
6824344100000,0.630109,-2.6468558833145,9.10082905458836,-1.87251305261642,0.14294247,0.11301007,-0.2648101,312.38535,-79.62634,-10.340129,STD
6824349168000,0.635177,-2.68325624104577,9.09500500768977,-1.8768810966591,0.1469131,0.13133603,-0.2666427,312.41763,-79.52609,-10.451411,STD
6824354082000,0.640091,-2.71855051055868,9.08935793459196,-1.8811164100817,0.1469131,0.14080444,-0.26053402,312.45078,-79.426796,-10.559309,STD
6824359055000,0.645064,-2.75426854114227,9.0836430598432,-1.88540257484575,0.16310102,0.1423316,-0.25411993,312.4818,-79.32711,-10.665621,STD
6824364056000,0.650065,-2.79018767867464,9.07789600803976,-1.88971287244983,0.18173242,0.14569137,-0.24404067,312.5105,-79.22999,-10.767175,STD
6824369049000,0.655058,-2.82604935707879,9.07215814968051,-1.89401627495675,0.18784106,0.13316862,-0.2321288,312.54437,-79.13506,-10.864451,STD
6824374041000,0.66005,-2.86190385309191,9.06642144050178,-1.89831881557653,0.20463985,0.1328632,-0.21746802,312.57465,-100.95637,-10.956263,STD
6824379321000,0.66533,-2.89982687772117,9.06035376733198,-1.90286957969361,0.20891592,0.13530666,-0.20005837,312.60873,-101.04387,-11.042169,STD
6824384014000,0.670023,-2.93353383881684,9.05496066313011,-1.90691441605752,0.19914207,0.13072516,-0.19486602,312.64594,-101.13093,-11.125804,STD
6824389048000,0.675057,-2.96968999525314,9.04917568836935,-1.91125315593732,0.21624629,0.12858713,-0.18661933,312.68268,-101.21274,-11.202129,STD
6824394065000,0.680074,-3.00572405104197,9.04341024967751,-1.91557724373569,0.22510384,0.12889257,-0.19486602,312.72092,-101.29788,-11.280306,STD
6824399081000,0.68509,-3.04175092443977,9.03764596016619,-1.91990046964691,0.22937989,0.122478485,-0.20250183,312.7627,-101.38093,-11.3546715,STD
6824403951000,0.68996,-3.07672916874744,9.03204945101147,-1.9240978600352,0.23243423,0.11209377,-0.20647246,312.80643,-101.46559,-11.42905,STD
6824409043000,0.695052,-3.08136054427804,9.03073137525061,-1.92375247420255,0.24953845,0.103847094,-0.20830505,312.85226,-101.55236,-11.503705,STD
6824414039000,0.700048,-3.07848277095112,9.03049155663319,-1.92231359004321,0.26206118,0.109650314,-0.22052236,312.89777,-101.64322,-11.581132,STD
6824419046000,0.705055,-3.07559866145395,9.03025120999238,-1.92087153780424,0.2773328,0.09865474,-0.22174409,312.9163,-101.88711,-11.807602,STD
6824424025000,0.710034,-3.07273068039015,9.03001220741108,-1.91943754976793,0.3036,0.10140363,-0.23273966,312.93097,-102.13495,-12.0356655,STD
6824429026000,0.715035,-3.06985002698585,9.02977214878303,-1.9179972255724,0.30848694,0.10262536,-0.25473082,312.9511,-102.382904,-12.262856,STD
6824434033000,0.720042,-3.06696591748867,9.02953180214223,-1.91655517333343,0.32559118,0.1142318,-0.2782491,312.9692,-102.632744,-12.489092,STD
6824439053000,0.725062,-3.06407431979029,9.0292908314738,-1.91510937700038,0.32467487,0.118507855,-0.30757064,312.99075,-102.88657,-12.718885,STD
6824444075000,0.730084,-3.06118157006095,9.02904976480112,-1.91366300465285,0.33505958,0.14569137,-0.3213151,313.00415,-103.14041,-12.946051,STD
6824449164000,0.735173,-3.0582502272946,9.02880548198605,-1.9121973358204,0.3222314,0.18570304,-0.35246924,313.014,-103.40253,-13.181745,STD
6824454029000,0.740038,-3.05544791199527,9.02857195164702,-1.91079618060919,0.31398472,0.23396139,-0.36896262,313.0155,-103.66127,-13.412114,STD
6824459046000,0.745055,-3.05255804234332,9.02833112498496,-1.90935124829785,0.30665436,0.2828306,-0.37415496,313.00684,-103.92092,-13.642904,STD
6824464028000,0.750037,-3.04968833323309,9.02809197839729,-1.90791639623983,0.27977628,0.33292156,-0.38606682,312.98538,-104.18131,-13.8749075,STD
6824469031000,0.75504,-3.04680652779783,9.02785182376499,-1.90647549602981,0.25167647,0.37659842,-0.38912117,312.95358,-104.43588,-14.100525,STD
6824474029000,0.760038,-3.04392760243995,9.02761190914331,-1.90503603585599,0.19547687,0.4382958,-0.39645153,312.9036,-104.68725,-14.325026,STD
6824479035000,0.765044,-3.04104406895826,9.02737161050463,-1.90359427162426,0.15271631,0.47403142,-0.398895,312.85052,-104.93271,-14.544065,STD
6824483997000,0.770006,-3.03818588015758,9.02713342395946,-1.902165179711,0.1328632,0.4886922,-0.40500367,312.7874,-105.17465,-14.760994,STD
6824489048000,0.775057,-3.03527642597939,9.02689096522515,-1.90071045515357,0.098043874,0.49632803,-0.38820487,312.71832,-105.40265,-14.967086,STD
6824494042000,0.780051,-3.03239980468343,9.02665124261197,-1.8992721470087,0.10140363,0.49235737,-0.37995818,312.65012,-105.63151,-15.172871,STD
6824499042000,0.785051,-3.0295197272946,9.02641123198605,-1.8978321108204,0.09162979,0.49968776,-0.37110063,312.57864,-105.848015,-15.369092,STD
6824504059000,0.790068,-3.02662985764265,9.02617040532399,-1.89638717850906,0.064751714,0.5354234,-0.35246924,312.50226,-106.05439,-15.555573,STD
6824509025000,0.795034,-3.02376936478006,9.02593202677032,-1.89495693456684,0.03726278,0.5491679,-0.34422258,312.43213,-106.25639,-15.7388,STD
6824514056000,0.800065,-3.02087143091142,9.02569052807851,-1.89350797015418,0.017104227,0.54702985,-0.34880406,312.3582,-106.45153,-15.916198,STD
6824519052000,0.805061,-3.01799365758451,9.02545070946109,-1.89206908599483,0.011301007,0.54702985,-0.34208453,312.28183,-106.63657,-16.084036,STD
6824524043000,0.810052,-3.01511876433498,9.02521113085428,-1.89063164187167,0.011301007,0.56016344,-0.33078352,312.232999675513,-106.725028414622,-16.1641929095643,STD
6824529037000,0.815046,-3.01224214303901,9.02497140824111,-1.88919333372679,-0.0061086523,0.627664,-0.3231477,312.18414,-106.81354,-16.244398,STD
6824534053000,0.820062,-3.00935284940254,9.02473062958118,-1.88774868942269,-0.054061573,0.70188415,-0.31581733,312.09003,-106.98563,-16.402779,STD
6824539045000,0.825054,-3.00647738013754,9.02449100297225,-1.88631095729229,-0.09590584,0.7275405,-0.31978795,311.98846,-107.15133,-16.554945,STD
6824544075000,0.830084,-3.00358002228437,9.02424955228257,-1.88486228088686,-0.113926366,0.7644979,-0.3173445,311.86374,-107.30816,-16.698051,STD
6824549127000,0.835136,-3.0006699920907,9.02400704554613,-1.88340726832221,-0.13622294,0.75747293,-0.30634892,311.7465,-107.45712,-16.837147,STD
6824554067000,0.840076,-2.99782447563054,9.02376991504772,-1.88198451256817,-0.14446963,0.7516697,-0.28313604,311.62024,-107.59862,-16.968115,STD
6824559037000,0.845046,-2.99496167870604,9.02353134448554,-1.880553116597,-0.14508049,0.7302894,-0.26908615,311.50266,-107.73555,-17.096176,STD
6824564926000,0.850935,-2.99156952355748,9.02324865997033,-1.87885704197442,-0.1441642,0.7156286,-0.25503623,311.38724,-107.862816,-17.214888,STD
6824569051000,0.85506,-2.9891934597117,9.02305065120394,-1.87766901211907,-0.16432275,0.7134906,-0.23945917,311.27664,-107.981514,-17.326782,STD
6824574037000,0.860046,-2.98632144653956,9.02281131260776,-1.8762330080321,-0.17684549,0.70280045,-0.22266038,311.1751,-108.09415,-17.43243,STD
6824579013000,0.865022,-2.98345519352219,9.02257245403284,-1.8747998840175,-0.19242255,0.6908886,-0.20372356,311.07666,-108.1978,-17.53082,STD
6824583986000,0.869995,-2.98059066855126,9.02233373946429,-1.87336762402462,-0.20372356,0.6924158,-0.17501289,310.9797,-108.29132,-17.619404,STD
6824589058000,0.875067,-2.97766911804804,9.02209027268535,-1.87190685131521,-0.2098322,0.68600166,-0.16065755,310.89032,-108.3808,-17.705189,STD
6824594053000,0.880062,-2.9747919207366,9.02185050207005,-1.8704682551631,-0.20677789,0.6753115,-0.15210545,310.8038,-108.462006,-17.782722,STD
6824599050000,0.885059,-2.9719135713942,9.0216106354505,-1.86902908299651,-0.1966986,0.65148777,-0.1469131,310.72485,-108.53857,-17.855938,STD
6824603944000,0.889953,-2.96909455164602,9.02137571304984,-1.8676195755754,-0.18325958,0.6218608,-0.14538592,310.65234,-108.612686,-17.926594,STD
6824609044000,0.895053,-2.96419109269961,9.0299299805436,-1.89233141389223,-0.16798794,0.589485,-0.13805555,310.58942,-108.68312,-17.993248,STD
6824614043000,0.900052,-2.9591780841033,9.03923986433376,-1.9193061675499,-0.1518,0.5723807,-0.13530666,310.53195,-108.75399,-18.059656,STD
6824619050000,0.905059,-2.95415705308874,9.04856464691774,-1.94632408944707,-0.14172074,0.5540548,-0.14019357,310.463,-108.810814,-18.108341,STD
6824624026000,0.910035,-2.94916710894486,9.05783169667566,-1.97317473441618,-0.12339478,0.535118,-0.14782938,310.40076,-108.868324,-18.156406,STD
6824629028000,0.915037,-2.9441510919417,9.0671471675135,-2.00016567616367,-0.11362094,0.5161811,-0.15271631,310.3453,-108.92536,-18.204487,STD
6824634859000,0.920868,-2.93830375184866,9.07800652586125,-2.03162992672936,-0.1020145,0.4908302,-0.160963,310.2985,-108.98577,-18.255264,STD
6824639046000,0.925055,-2.93410501870347,9.08580418207838,-2.05422310407777,-0.086132,0.49388456,-0.16798794,310.25,-109.04706,-18.305723,STD
6824644064000,0.930073,-2.92907295686384,9.09514945050386,-2.08130038230425,-0.07666359,0.48624873,-0.17684549,310.2133,-109.11029,-18.358889,STD
6824649178000,0.935187,-2.92394462600536,9.10467350445523,-2.10889567940474,-0.064446285,0.45906523,-0.18845193,310.18253,-109.17641,-18.414143,STD
6824654147000,0.940156,-2.91896170147743,9.11392751776855,-2.13570855216429,-0.03573562,0.46028697,-0.19639318,310.1466,-109.2447,-18.46914,STD
6824659057000,0.945066,-2.91403794228401,9.12307165247742,-2.16220305915752,-0.025350908,0.46303585,-0.2003638,310.11942,-109.31329,-18.525812,STD
6824664033000,0.950042,-2.90904799814012,9.13233870223534,-2.18905370412663,-0.009773844,0.45937067,-0.18967366,310.0952,-109.38135,-18.57947,STD
6824669048000,0.955057,-2.90401894470733,9.14167838361315,-2.2161147942633,0.018936822,0.4373795,-0.19150625,310.07648,-109.45447,-18.637053,STD
6824674038000,0.960047,-2.89901496133153,9.15097150626025,-2.24304098365154,0.04642576,0.408058,-0.19883664,310.06244,-109.526054,-18.692352,STD
6824679027000,0.965036,-2.89401198075801,9.16026276655813,-2.26996177700984,0.061391957,0.36010507,-0.19272798,310.06223,-109.59448,-18.7444,STD
6824684043000,0.970052,-2.88898192452294,9.16960431028516,-2.29702826317645,0.096516706,0.3222314,-0.20097467,310.06833,-109.67148,-18.802073,WAL
6824689041000,0.97505,-2.8839699187289,9.1789123317261,-2.32399762080418,0.12767084,0.2883284,-0.20616703,310.08902,-109.74566,-18.85737,WAL
6824694060000,0.980069,-2.87893685408699,9.18825946250081,-2.35108029506061,0.15332718,0.26725355,-0.21533,310.1179,-109.824394,-18.915815,WAL
6824699141000,0.98515,-2.87384161570374,9.19772205892765,-2.37849752317316,0.17012598,0.27000242,-0.21135938,310.15103,-109.901566,-18.971218,WAL
6824704453000,0.990462,-2.86851472999387,9.20761485802614,-2.40716123420128,0.18784106,0.26358834,-0.20005837,310.1942,-109.9802,-19.026958,WAL
6824709047000,0.995056,-2.86390785632084,9.21617049037901,-2.43195059573425,0.21288654,0.25686884,-0.18906279,310.23776,-110.05867,-19.080547,WAL
6824714054000,1.000063,-2.85888682530628,9.22549527296299,-2.45896851763143,0.22724187,0.2565634,-0.183565,310.28244,-110.135025,-19.13153,WAL
6824719047000,1.005056,-2.85387983352364,9.23479398265778,-2.48591089510947,0.23182335,0.2574797,-0.17654006,310.33014,-110.20822,-19.178274,WAL
6824724042000,1.010051,-2.84887083613644,9.24409641705102,-2.5128640646474,0.23304509,0.3313944,-0.20341812,310.35593,-110.28909,-19.229908,WAL
6824729043000,1.015052,-2.84385582193557,9.25341002553964,-2.53984961036494,0.24312437,0.4260785,-0.20677789,310.37714,-110.36189,-19.271324,WAL
6824734074000,1.020083,-2.8388107236663,9.26277950450509,-2.56699703698062,0.24495697,0.4746423,-0.21624629,310.3899,-110.441925,-19.320284,WAL
6824739049000,1.025058,-2.8338217823247,9.27204469191378,-2.59384228591979,0.2574797,0.55771995,-0.20922135,310.36557,-110.51921,-19.360243,WAL
6824744058000,1.030067,-2.82879874570558,9.28137319919621,-2.62087099987684,0.25137106,0.6258314,-0.18906279,310.33276,-110.59283,-19.397032,WAL
6824749115000,1.035124,-2.82372757457704,9.29079109924159,-2.64815872327089,0.24007004,0.6805039,-0.15974127,310.28125,-110.66165,-19.425884,WAL
6824754164000,1.040173,-2.81866442586674,9.30019410049314,-2.67540327842544,0.24281894,0.7302894,-0.1432479,310.2128,-110.728325,-19.449648,WAL
6824759050000,1.045059,-2.81376473392803,9.30929353882055,-2.70176828070017,0.23518312,0.766025,-0.12003502,310.13538,-110.78243,-19.461113,WAL
6824764049000,1.050058,-2.80875172533171,9.31860342261071,-2.72874303435784,0.22876903,0.79809546,-0.10048734,310.04663,-110.832794,-19.46676,WAL
6824769046000,1.055055,-2.80374072233995,9.32790958170241,-2.75570699595564,0.23060162,0.818254,-0.07513642,309.95392,-110.87491,-19.462946,WAL
6824774043000,1.060052,-2.7987297193482,9.33721574079411,-2.78267095755344,0.24220806,0.8246681,-0.054367006,309.8584,-110.91297,-19.453989,WAL
6824779111000,1.06512,-2.79364751739458,9.34665412668099,-2.8100180372768,0.26939157,0.8405506,-0.034513887,309.75705,-110.946075,-19.43689,WAL
6824784144000,1.070153,-2.78860041352075,9.3560273303449,-2.83717625595235,0.2687807,0.8371908,-0.007330383,309.66287,-110.96987,-19.412415,WAL
6824789043000,1.075052,-2.78368768515241,9.36515097921227,-2.86361140661627,0.26816985,0.84635377,0.010079277,309.56274,-110.9938,-19.384125,WAL
6824794146000,1.080155,-2.778570385119,9.37465454732213,-2.89114734738745,0.28313604,0.86498517,0.029626964,309.46417,-111.011696,-19.347603,WAL
6824799134000,1.085143,-2.77356840734776,9.38394394527078,-2.91806274471581,0.29168814,0.88239485,0.044593163,309.36584,-111.02569,-19.307564,WAL
6824803955000,1.089964,-2.76873389755723,9.39292233089838,-2.9440770050446,0.28252518,0.8848383,0.04642576,309.2688,-111.037964,-19.266123,WAL
6824809041000,1.09505,-2.79740738115958,9.41201826488749,-2.91956027614422,0.29749137,0.88606006,0.05589417,309.17007,-111.04833,-19.21822,WAL
6824814041000,1.10005,-2.83406875968818,9.43320565986219,-2.88242278372593,0.29168814,0.8958339,0.055283304,309.0697,-111.05785,-19.172842,WAL
6824819049000,1.105058,-2.87078879642243,9.45442695466884,-2.84522587131976,0.29168814,0.8863655,0.057726767,308.8771,-111.08281,-19.078346,WAL
6824824037000,1.110046,-2.90736218764256,9.4755634998956,-2.80817750888328,0.29810223,0.8897252,0.052534413,308.68112,-111.11194,-18.986057,WAL
6824829027000,1.115036,-2.94395024341411,9.49670852008034,-2.77111429144982,0.2874121,0.8872818,0.045814894,308.4934,-111.140434,-18.895128,WAL
6824834065000,1.120074,-2.98089024841952,9.51805693925684,-2.73369455408915,0.29016098,0.8888089,0.041233405,308.30695,-111.17376,-18.805597,WAL
6824839047000,1.125056,-3.01741964598542,9.53916805960963,-2.69669075664357,0.28405234,0.8872818,0.03634648,308.12527,-111.20774,-18.719196,WAL
6824844051000,1.13006,-3.05411035361685,9.5603724045003,-2.65952355423134,0.28099802,0.88606006,0.029626964,307.9461,-111.245285,-18.63537,WAL
6824849171000,1.13518,-3.09165160523014,9.58206829695439,-2.62149476199501,0.2782491,0.8888089,0.027794369,307.76953,-111.28308,-18.552273,WAL
6824854074000,1.140083,-3.12760175301528,9.60284465646658,-2.58507773692963,0.27275133,0.890947,0.022296581,307.59613,-111.323555,-18.473013,WAL
6824859047000,1.145056,-3.16406516009983,9.62391763950841,-2.5481407869704,0.26908615,0.8979719,0.021685716,307.42377,-111.36387,-18.393301,WAL
6824864050000,1.150059,-3.20074853545555,9.64511774692009,-2.51098101205666,0.26419923,0.9266826,0.019547688,307.24704,-111.40559,-18.315037,WAL
6824869062000,1.155071,-3.23749790129262,9.66635599164272,-2.47375438965656,0.2565634,0.9443977,0.027183503,307.07507,-111.444626,-18.235203,WAL
6824874044000,1.160053,-3.27402729885852,9.68746711199551,-2.43675059221098,0.24862215,0.9624182,0.024740042,306.89682,-111.48631,-18.157946,WAL
6824879026000,1.165035,-3.31055669642442,9.70857823234829,-2.39974679476539,0.23793201,0.93523467,0.021991149,306.7301,-111.525024,-18.081116,WAL
6824884006000,1.170015,-3.3470714294389,9.72968087774309,-2.36275785231677,0.23548855,0.9025534,0.02107485,306.56256,-111.564255,-18.004656,WAL
6824889040000,1.175049,-3.3839821053415,9.75101234700361,-2.32536782495004,0.23060162,0.91324353,0.029626964,306.39352,-111.60008,-17.926197,WAL
6824894053000,1.180062,-3.42073880345428,9.77225482920524,-2.28813377505146,0.21471913,0.93370754,0.040317107,306.23398,-111.633644,-17.849613,WAL
6824899169000,1.185178,-3.45825072596474,9.79393377174335,-2.25013469280906,0.21960606,0.93737274,0.05497787,306.07968,-111.66691,-17.770786,WAL
6824904056000,1.190065,-3.4940835573386,9.81464233159161,-2.21383650771942,0.21197024,0.92087936,0.070249505,305.92865,-111.69315,-17.689817,WAL
6824909042000,1.195051,-3.53064228400732,9.83577040186038,-2.1768030002799,0.19211712,0.89675015,0.07971791,305.7819,-111.716324,-17.607748,WAL
6824914035000,1.200044,-3.56725233660598,9.85692813448211,-2.139717500351,0.19058995,0.8863655,0.10293079,305.64038,-111.734726,-17.518894,WAL
6824919053000,1.205062,-3.60404569609728,9.87819180407871,-2.10244631296,0.18570304,0.8741482,0.112704635,305.5085,-111.750534,-17.434061,WAL
6824924043000,1.210052,-3.64063375186883,9.89933682426346,-2.06538309552654,0.1777618,0.8579602,0.13530666,305.38556,-111.75761,-17.341455,WAL
6824929005000,1.215014,-3.67701650392061,9.92036319503634,-2.02852784805063,0.17134771,0.85154617,0.16218472,305.2664,-111.761314,-17.246475,WAL
6824934052000,1.220061,-3.71402249940738,9.9417497515238,-1.99104126320361,0.17501289,0.8399397,0.17531833,305.15616,-111.763916,-17.151928,WAL
6824939049000,1.225058,-3.75066188110887,9.96292443406151,-1.95392605328077,0.18417588,0.8246681,0.20738874,305.05402,-111.756615,-17.04693,WAL
6824944054000,1.230063,-3.787359921016,9.98413301643118,-1.91675142337006,0.17470746,0.79351395,0.23762658,304.96255,-111.74487,-16.942333,WAL
6824949106000,1.235115,-3.8244025778813,10.0055407603136,-1.87922770103062,0.17256944,0.75777835,0.26816985,304.881,-111.72957,-16.831915,WAL
6824954082000,1.240091,-3.86088798179296,10.0266264557924,-1.84226846857593,0.18325958,0.72265357,0.29138273,304.8116,-111.71075,-16.719181,WAL
6824959688000,1.245697,-3.90199271939923,10.0503817630381,-1.80062991207654,0.18142697,0.70554936,0.3051272,304.75037,-111.68574,-16.603882,WAL
6824963997000,1.250006,-3.93358749541518,10.0686410600272,-1.76862482111046,0.18875736,0.6954701,0.32803464,304.70102,-111.658325,-16.483648,WAL
6824969023000,1.255032,-3.97043951311213,10.0899386294558,-1.73129421373159,0.19486602,0.6719518,0.3381139,304.66187,-111.63142,-16.367458,WAL
6824974007000,1.260016,-4.00698357522944,10.1110582247666,-1.69427556128904,0.21227567,0.6444628,0.3475823,304.62958,-111.60437,-16.248308,WAL
6824978981000,1.26499,-4.04345431458969,10.1321354452874,-1.65733118383132,0.21563543,0.59895337,0.3640757,304.6117,-111.57345,-16.129614,WAL
6824983988000,1.269997,-4.08016701904823,10.1533525026151,-1.62014169892365,0.2284636,0.57848936,0.3747658,304.59583,-111.54806,-16.012299,WAL
6824989011000,1.27502,-4.11699703991807,10.1746373596066,-1.58283337404023,0.22602014,0.52198434,0.38515055,304.6056,-111.518234,-15.898608,WAL
6824993994000,1.280003,-4.15353376975967,10.1957527174384,-1.54582214909616,0.22815818,0.45723262,0.39675698,304.6253,-111.49045,-15.785949,WAL
6824999086000,1.285095,-4.1908697176532,10.2173299604807,-1.50800132681737,0.21655174,0.40011674,0.40744713,304.6604,-111.45883,-15.676437,WAL
6825004043000,1.290052,-4.22721580832646,10.2383351438586,-1.47118321683388,0.20799962,0.36713,0.43249258,304.7096,-111.42397,-15.564857,WAL
6825009010000,1.295019,-4.34667556330781,10.2753319485452,-1.34589478819806,0.19822577,0.33353242,0.46303585,304.7769,-111.38451,-15.455128,WAL
6825014002000,1.300011,-4.52726487099541,10.3241404067381,-1.15554368694232,0.17715092,0.301462,0.48288897,304.85434,-111.33953,-15.345907,WAL
6825019012000,1.305021,-4.71227236709476,10.4121949953141,-0.977032105015619,0.1563815,0.27672195,0.49205196,305.01953,-111.25473,-15.359315,WAL
6825024006000,1.310015,-4.89903011280805,10.5242492787227,-0.806875075737591,0.11911872,0.25289822,0.5006041,305.19144,-111.161415,-15.368823,WAL
6825029237000,1.315246,-5.11224780738873,10.6915776933786,-0.588220877739531,0.07971791,0.2171626,0.50823987,305.3274,-111.06983,-15.391391,WAL
6825033978000,1.319987,-5.33622996487612,10.9304919739092,-0.319442465463714,0.031154128,0.19792034,0.51007247,305.46213,-110.97174,-15.412435,WAL
6825039009000,1.325018,-5.5482881413905,11.189736489822,-0.0851694459465041,-0.00061086525,0.13927728,0.5140431,305.54077,-110.880516,-15.448714,WAL
6825043998000,1.330007,-5.73152823880421,11.4528504330809,0.0933722144773331,-0.05375614,0.06261369,0.51343226,305.62738,-110.77946,-15.486524,WAL
6825049059000,1.335068,-5.86078066384828,11.650138056697,0.23977584162584,-0.10567969,-0.0125227375,0.5158757,305.69745,-110.663414,-15.542634,WAL
6825054036000,1.340045,-5.92198458885816,11.7631298199328,0.343351788460095,-0.14110987,-0.08857546,0.52198434,305.78705,-110.54399,-15.600268,WAL
6825058959000,1.344968,-5.92505716711313,11.8105066118717,0.41808419851332,-0.1740966,-0.17440203,0.50762904,305.87375,-110.414345,-15.677434,WAL
6825064047000,1.350056,-5.84799211070034,11.7695659782533,0.456616731749123,-0.21288654,-0.2510656,0.4783075,305.97562,-110.284775,-15.757503,WAL
6825068935000,1.354944,-5.77395634109623,11.7302346462709,0.493634621382889,-0.26725355,-0.32162055,0.45051312,306.06787,-110.14672,-15.835705,WAL
6825074041000,1.36005,-5.69661864887066,11.6891491755054,0.532303472542876,-0.3472769,-0.39003745,0.44135013,306.17734,-110.005974,-15.917215,WAL
6825078963000,1.364972,-5.604487577519,11.6345862126715,0.562505328234481,-0.45448375,-0.46883908,0.43310347,306.2552,-109.865685,-15.987963,WAL
6825084009000,1.370018,-5.48049282157308,11.5535125843284,0.581581449130564,-0.5751296,-0.54733527,0.42913285,306.34875,-109.717026,-16.060093,WAL
6825088940000,1.374949,-5.36412920483106,11.4758737926299,0.605080688581308,-0.7165449,-0.65087694,0.41508293,306.38086,-109.5356,-16.08548,WAL
6825094053000,1.380062,-5.25286447534084,11.3984721055127,0.638943912803794,-0.8436049,-0.7632761,0.40011674,306.43353,-109.345375,-16.114542,WAL
6825099660000,1.385669,-5.1419833462503,11.3112225596817,0.673230834410417,-0.9755518,-0.895223,0.3930918,306.35864,-109.127335,-16.078245,WAL
6825104063000,1.390072,-5.06741795198939,11.2400465658709,0.696956142086649,-1.1090258,-1.0387764,0.37965274,306.31366,-108.90161,-16.053543,WAL
6825109007000,1.395016,-4.98369065032554,11.1601251229001,0.723596596583876,-1.2327261,-1.1960741,0.36957347,306.2594,-108.65185,-16.006512,WAL
6825114049000,1.400058,-4.84858023100651,11.0082228537731,0.688692889550646,-1.3558154,-1.3448198,0.33505958,306.237,-108.401596,-15.976099,WAL
6825119366000,1.405375,-4.69551290296172,10.8369615905746,0.636395124520816,-1.4877623,-1.4727961,0.31948254,306.24918,-108.1419,-15.948579,WAL
6825124049000,1.410058,-4.54096474369936,10.7450684559002,0.515262859156189,-1.6114625,-1.5968018,0.29779682,306.26324,-107.87541,-15.913756,WAL
6825128999000,1.415008,-4.37760506222409,10.6479360585825,0.387224269885443,-1.7244726,-1.6468927,0.28710666,306.21854,-107.60093,-15.853419,WAL
6825134056000,1.420065,-4.19045753273502,10.5253141551567,0.170179888582902,-1.7852536,-1.7214183,0.27275133,306.2101,-107.338745,-15.806084,WAL
6825138963000,1.424972,-4.00459986936416,10.4014090462428,-0.0585679822890174,-1.8939877,-1.7760907,0.26175576,306.20383,-107.075935,-15.761395,WAL
6825144056000,1.430065,-3.78160888773081,10.3195734765208,-0.334797771059706,-1.9886718,-1.8099937,0.2574797,306.23145,-106.81743,-15.70384,WAL
6825148988000,1.434997,-3.56025347927641,10.2487392502578,-0.60927844980673,-2.1025982,-1.8338175,0.24740042,306.26523,-106.56935,-15.652215,WAL
6825154055000,1.440064,-3.30955014572397,10.2570359485403,-0.913052471104886,-2.2131648,-1.822211,0.2321288,306.26743,-106.32023,-15.568589,WAL
6825158935000,1.444944,-3.05917685996756,10.2960853027131,-1.21395982861988,-2.3139575,-1.7757853,0.226631,306.26044,-106.08173,-15.485915,WAL
6825164050000,1.450059,-2.79674666393394,10.337015107343,-1.52935760191684,-2.4236078,-1.745242,0.19730948,306.30432,-105.84729,-15.388839,WAL
6825169107000,1.455116,-2.53729221596874,10.3774808007962,-1.84117901727612,-2.5250115,-1.72264,0.18295415,306.33194,-105.62484,-15.289672,WAL
6825174037000,1.460046,-2.23696851210753,10.4997850530474,-2.04663221512415,-2.6154196,-1.7073684,0.15790866,306.38165,-105.4271,-15.201463,WAL
6825179015000,1.465024,-1.90923264221219,10.6660985722348,-2.20316278442438,-2.6911669,-1.7162259,0.1459968,306.4264,-105.24971,-15.114601,WAL
6825184041000,1.47005,-1.56795181305866,10.9080811942338,-2.33123784068236,-2.731484,-1.6939293,0.13591751,306.54456,-105.03495,-14.960533,WAL
6825189006000,1.475015,-1.2264197952514,11.1784602150838,-2.44508186312849,-2.7714956,-1.6520851,0.11301007,306.657,-104.84612,-14.815456,WAL
6825194086000,1.480095,-0.895878992702069,11.4765652618489,-2.61861295127918,-2.8032606,-1.6087136,0.098043874,306.8479,-104.617256,-14.611215,WAL
6825199215000,1.485224,-0.570452045800632,11.7869730110081,-2.81887569989807,-2.8050933,-1.5262468,0.061391957,307.0138,-75.577896,-14.421769,WAL
6825204060000,1.490069,-0.304689353333078,12.0697395119059,-3.11442214623697,-2.7999008,-1.3726143,0.008857546,307.18137,-75.81715,-14.17069,WAL
6825209043000,1.495052,-0.0445659924928756,12.3572443638711,-3.45212616049536,-2.809064,-1.1899655,-0.039095376,307.31628,-76.02642,-13.933177,WAL
6825213995000,1.500004,0.189269350436262,12.6385137410272,-3.77008849659653,-2.8283062,-0.96883225,-0.06078109,307.43576,-76.28219,-13.637309,WAL
6825218993000,1.505002,0.41141453168255,12.9198971203589,-4.08109183013614,-2.8283062,-0.70432764,-0.063224554,307.4892,-76.51119,-13.357278,WAL
6825224007000,1.510016,0.641607108530053,13.1514610896647,-4.28178455599087,-2.805704,-0.5757405,-0.029626964,307.53983,-76.79662,-13.018993,WAL
6825228984000,1.514993,0.873259998780004,13.359476191827,-4.4330679300734,-2.7614164,-0.35308012,-0.008857546,307.4856,-77.06218,-12.697049,WAL
6825234020000,1.520029,0.831550156284024,13.2194762891519,-3.87003857502959,-2.7101038,-0.28771752,0.03970624,307.50598,-77.39102,-12.31137,WAL
6825239011000,1.52502,0.661853690316568,12.9177934729783,-2.97913208071006,-2.5482244,-0.42821655,0.087659165,307.52112,-77.718285,-11.930612,WAL
6825244029000,1.530038,0.703857643255618,12.5329058191011,-2.70149340396067,-2.2855523,-0.58062744,0.09101892,307.5561,-78.09879,-11.50688,WAL
6825249079000,1.535088,0.857821839931648,12.102712017603,-2.74677691472846,-1.9807305,-0.6792821,0.053145275,307.61584,-78.4796,-11.093071,WAL
6825254080000,1.540089,0.724323287972458,11.7592348011525,-2.62296090538138,-1.7724255,-0.8197812,0.02107485,307.7302,-78.781815,-10.72401,WAL
6825259003000,1.545012,0.346745126779959,11.4921672198457,-2.35589351639809,-1.666135,-1.0684034,-0.020463986,307.90152,-79.07361,-10.37486,WAL
6825263985000,1.549994,-0.0987700867326524,11.202591970517,-1.98864913218911,-1.6392568,-1.3356569,-0.047036625,308.15384,-79.38035,-10.014489,WAL
6825269017000,1.555026,-0.621421519311362,10.8879862651364,-1.50659200981363,-1.642922,-1.5827519,-0.08032878,308.46957,-79.67066,-9.672023,WAL
6825274006000,1.560015,-1.10392281842759,10.6459358133386,-1.18818660742272,-1.6859881,-1.8173242,-0.09987647,308.84985,-79.850525,-9.414316,WAL
6825279013000,1.565022,-1.56146209024948,10.4552945744956,-0.988013137431667,-1.781894,-2.0097466,-0.10934488,309.28656,-80.00981,-9.163749,WAL
6825284761000,1.57077,-2.04717084069401,10.2878468864353,-0.705723061829653,-1.883603,-2.115121,-0.12308934,309.73544,-80.02054,-9.020214,WAL
6825289007000,1.575016,-2.38790091366325,10.1876318266956,-0.473224918521293,-1.9819523,-2.1319196,-0.11881329,310.21085,-80.01384,-8.872701,WAL
6825294041000,1.58005,-2.83793156468556,10.0255198804423,-0.380345495452661,-2.0995438,-2.1838431,-0.10354166,310.70364,-79.879036,-8.812331,WAL
6825299108000,1.585117,-3.33138057679929,9.82430810484747,-0.447416242394116,-2.1884248,-2.2702806,-0.073303826,311.2074,-79.73114,-8.743088,WAL
6825304078000,1.590087,-3.67796147946726,9.65979889012209,-0.315790163318535,-2.2391264,-2.2757785,-0.0061086523,311.6756,-79.47991,-8.734709,WAL
6825309047000,1.595056,-3.89882793927959,9.525358135506,-0.00369602710120071,-2.245846,-2.1071796,0.049480084,312.1141,-79.21877,-8.720371,WAL
6825314036000,1.600045,-4.0668867530723,9.41036904157782,0.104401857588583,-2.232407,-2.2104158,0.118202426,312.58838,-78.88524,-8.770198,WAL
6825319047000,1.605056,-4.18781386795891,9.3126972793177,0.0299852988584997,-2.1270328,-2.4550674,0.22113322,313.0482,-78.585205,-8.790473,WAL
6825324038000,1.610047,-4.32448382569599,9.20700288168151,-0.0943665613495731,-1.9953914,-2.5714374,0.29840767,313.48224,-78.22955,-8.838347,WAL
6825329024000,1.615033,-4.47957355002784,9.09179324526726,-0.276043276083983,-1.9358319,-2.8047879,0.31490102,314.0148,-77.8879,-8.856412,WAL
6825334106000,1.620115,-4.62593064969119,8.96137461252573,-0.561827233308051,-1.8038851,-3.0430253,0.3100141,314.57364,-77.58619,-8.873105,WAL
6825339040000,1.625049,-4.74368944238812,8.80777639646766,-1.04822196908441,-1.6526959,-3.2284229,0.25045475,315.18253,-77.29436,-8.889202,WAL
6825344046000,1.630055,-4.8053457512635,8.65592152720246,-1.42258626058864,-1.5567901,-3.3206635,0.17562376,315.8096,-77.01179,-8.939475,WAL
6825349113000,1.635122,-4.80053699703696,8.50684848914875,-1.66302663320781,-1.4895949,-3.3502905,0.10048734,316.47327,-76.74675,-8.9978485,WAL
6825354827000,1.640836,-4.68888413402819,8.34720325987691,-1.83966905584673,-1.4376713,-3.3377676,0.007330383,317.17053,-76.53916,-9.084635,WAL
6825359047000,1.645056,-4.53643849813381,8.23487476871153,-1.9078683862021,-1.4001031,-3.3383787,-0.018325957,317.8809,-76.34604,-9.168864,WAL
6825363987000,1.649996,-4.30418175323446,8.11417791815787,-1.96744371811884,-1.3918564,-3.3334916,-0.055283304,318.60474,-76.1814,-9.272098,WAL
6825369033000,1.655042,-3.99298839987316,8.00573185026832,-2.00044905811299,-1.3808609,-3.3411274,-0.065973446,319.33356,-76.02942,-9.372571,WAL
6825373939000,1.659948,-3.68794860014738,7.9017254935449,-2.01730191011987,-1.3839152,-3.345098,-0.06352998,320.0995,-75.92552,-9.42879,WAL
6825379044000,1.665053,-3.36611687087837,7.79604943552761,-2.0076950003144,-1.3744467,-3.3530393,-0.04917465,320.86923,-75.83028,-9.483773,WAL
6825383978000,1.669987,-3.02753025066733,7.7000224026693,-2.00313374246169,-1.3674219,-3.3512068,-0.023823744,321.68723,-75.803024,-9.458659,WAL
6825389050000,1.675059,-2.62415120742462,7.61358398969847,-2.00793587094414,-1.320996,-3.3163874,-0.005497787,322.49692,-75.79016,-9.435099,WAL
6825394003000,1.680012,-2.222578670093,7.53980624591287,-2.02446101155164,-1.2712106,-3.2995887,-0.013744468,323.34714,-75.82634,-9.347414,WAL
6825399131000,1.68514,-1.78989253809104,7.48692243441997,-2.06772968499266,-1.1881329,-3.2830954,-0.03573562,324.18564,-75.88218,-9.2647295,WAL
6825404023000,1.690032,-1.38944922857847,7.44944897099793,-2.11430733177027,-1.1145236,-3.2210925,-0.0720821,325.10895,-76.070015,-9.059047,WAL
6825409033000,1.695042,-1.01132057672151,7.44472246464388,-2.1757531975963,-1.0317514,-3.1367931,-0.098043874,326.017,-76.27355,-8.869327,WAL
6825413990000,1.699999,-0.63595360784508,7.41791732177167,-2.22763460741228,-0.95203346,-3.019507,-0.14172074,326.9828,-76.60846,-8.577684,WAL
6825419009000,1.705018,-0.251970051703913,7.32070636171504,-2.25193729667307,-0.85062987,-2.960253,-0.20005837,327.93442,-76.951584,-8.316261,WAL
6825424497000,1.710506,0.173554035143431,7.20508182066508,-2.28402635401973,-0.7370089,-2.7620273,-0.28527406,328.88834,-77.4509,-7.9683537,WAL
6825428989000,1.714998,0.531194320588343,7.09503849049881,-2.31939746839942,-0.61819565,-2.6810875,-0.3286455,329.84323,-77.953995,-7.6497474,WAL
6825434062000,1.720071,0.937731822325136,6.96720174289364,-2.35678774136059,-0.55680364,-2.5179865,-0.43035457,330.75488,-78.54695,-7.3019767,WAL
6825439011000,1.72502,1.36158273909933,6.80573488805493,-2.36687942308102,-0.43066,-2.3218987,-0.49938235,331.61243,-79.15299,-6.995255,WAL
6825444014000,1.730023,1.76083674367173,6.63064591276091,-2.3560245129981,-0.31887165,-2.0781636,-0.54244834,332.50677,-79.797745,-6.6355867,WAL
6825449024000,1.735033,2.04307081568311,6.40758992272296,-2.26042905474383,-0.22266038,-1.8924606,-0.59437186,333.3328,-80.4197,-6.3393507,WAL
6825454001000,1.74001,2.31522862096376,6.18561685484349,-2.16595751918633,-0.1133155,-1.7345519,-0.67256266,334.134,-80.98302,-6.0496187,WAL
6825458960000,1.744969,2.50281196524143,5.96051684171028,-2.07685544901748,0.002443461,-1.5506815,-0.7431176,334.8483,-81.53415,-5.8050137,WAL
6825464056000,1.750065,2.68676362927981,5.73241415655254,-1.98146053412043,0.10934488,-1.3545936,-0.8151997,335.50314,-82.04753,-5.5707994,WAL
6825468969000,1.754978,2.75620108264463,5.55187668112948,-1.84258553071625,0.21074851,-1.1508701,-0.8579602,336.08026,-82.551994,-5.3720117,WAL
6825474216000,1.760225,2.82309702066277,5.36331421091618,-1.68509235009747,0.28038713,-0.9288206,-0.88789266,336.5827,-83.020004,-5.1858587,WAL
6825478981000,1.76499,2.79641069853801,5.24322599356725,-1.43157298654971,0.32895094,-0.7104363,-0.890947,337.0075,-83.47662,-5.021378,WAL
6825484311000,1.77032,2.76463146651517,5.11221134578425,-1.14653144986736,0.37384954,-0.52931476,-0.8906415,337.40274,-83.87996,-4.863211,WAL
6825488982000,1.774991,2.69409399406363,5.07071873277062,-0.864381187455709,0.40317106,-0.36041048,-0.8729264,337.71887,-84.26867,-4.7139287,WAL
6825493956000,1.779965,2.6189808731101,5.02653456297189,-0.563928306865782,0.4111123,-0.20341812,-0.85062987,337.957,-84.61503,-4.57581,WAL
6825504247000,1.790256,2.30019976200299,5.14488381778981,0.238874015647751,0.44012842,0.049480084,-0.795652,338.2575,-85.257645,-4.3046365,WAL
6825508924000,1.794933,2.15806012693672,5.35809346682845,0.577500929400784,0.43860126,0.14477506,-0.77763146,338.31763,-85.530014,-4.175883,WAL
6825513914000,1.799923,2.00640804676125,5.58557179667724,0.938789853845436,0.43127087,0.1863139,-0.752586,338.35464,-85.76302,-4.0491033,WAL
6825518927000,1.804936,1.85725349854564,5.96364983743167,1.28382257076844,0.41722095,0.2510656,-0.7431176,338.33975,-85.9647,-3.9298851,WAL
6825523901000,1.80991,1.70985266401238,6.36654553048994,1.62284451071686,0.41080686,0.2959642,-0.71868294,338.30286,-86.14779,-3.8053274,WAL
6825528915000,1.814924,1.5444619100408,6.79852929478555,1.9193192313265,0.39370266,0.32925636,-0.6914995,338.2254,-86.30257,-3.685302,WAL
6825533892000,1.819901,1.37845219052642,7.23015465467211,2.20865048223704,0.37995818,0.32467487,-0.64996064,338.13205,-86.4393,-3.5606468,WAL
6825538923000,1.824932,1.23498566189273,7.66979212780801,2.53661898830159,0.38148534,0.2910773,-0.60903263,338.0156,-93.48017,-3.4785318,WAL
6825543886000,1.829895,1.09644206059075,8.10389539902837,2.86450547602021,0.39492437,0.24770586,-0.5381723,337.8976,-93.38427,-3.3767285,WAL
6825548957000,1.834966,0.90258360365185,8.52258443273938,3.22142436653613,0.398895,0.16646078,-0.46395215,337.78763,-93.31029,-3.3011925,WAL
6825553970000,1.839979,0.700472096397102,8.9315076132759,3.57864473918152,0.4111123,0.06383542,-0.40133846,337.69308,-93.22006,-3.208851,WAL
6825559006000,1.845015,0.489851576696035,9.30381129735683,3.93723831809838,0.419359,-0.062002823,-0.33017266,337.6484,-93.128044,-3.1238222,WAL
6825563967000,1.849976,0.280554034812775,9.66136116685022,4.29042787108113,0.40530908,-0.2098322,-0.2657264,337.6355,-93.024376,-3.0238552,WAL
6825569012000,1.855021,-0.024871115901263,10.263527597589,4.95467813243398,0.41080686,-0.3747658,-0.21013765,337.65082,-87.05205,-2.945678,WAL
6825573998000,1.860007,-0.381214095889782,10.9990565740528,5.79071369667049,0.40561453,-0.5384777,-0.16401732,337.70453,-87.13265,-2.852724,WAL
6825578987000,1.864996,-0.662734430231357,11.4637636588515,6.33639027506713,0.3811799,-0.7104363,-0.112399206,337.79492,-87.15747,-2.789551,WAL
6825584079000,1.870088,-0.884348189165462,11.7004869627143,6.63859085065069,0.3481932,-0.84849185,-0.06261369,337.919,-87.1715,-2.7137516,WAL
6825589007000,1.875016,-1.06589219589214,11.8707747588825,6.82773849559038,0.30482176,-0.9437868,-0.050701816,338.06848,-87.04975,-2.6931608,WAL
6825594009000,1.880018,-1.2290978686849,12.0060020979266,6.95363980453616,0.2941316,-0.9877691,-0.0580322,338.2404,-86.89781,-2.6621833,WAL
6825599083000,1.885092,-1.32515288041951,12.0610994003146,7.02441434378605,0.29871312,-0.9896017,-0.080634214,338.42603,-86.65157,-2.669053,WAL
6825604045000,1.890054,-1.36502284964866,12.0511322072365,7.04933310707918,0.30909783,-0.9450085,-0.092240654,338.60925,-86.38716,-2.6723526,WAL
6825609096000,1.895105,-1.31884745071361,11.9512826353949,7.01595757693625,0.33169982,-0.84696466,-0.10903945,338.78278,-86.07448,-2.71234,WAL
6825614002000,1.900011,-1.22943968515699,11.8082300237869,6.95337218772598,0.3549127,-0.72265357,-0.11484267,338.93518,-85.76517,-2.7500963,WAL
6825619010000,1.905019,-1.04981678334525,11.614050766568,6.8498812936281,0.4025602,-0.6597345,-0.10842858,339.07635,-85.462135,-2.7943652,WAL
6825624009000,1.910018,-0.795607449535382,11.379396389564,6.71299950564689,0.43218717,-0.4978552,-0.103847094,339.15384,-85.167114,-2.8414392,WAL
6825628996000,1.915005,-0.493935078079414,11.1902011168685,6.51244448211771,0.4877759,-0.3475823,-0.09987647,339.20673,-84.91217,-2.8714335,WAL
6825634076000,1.920085,-0.151424663961325,11.0303625624707,6.26126988341312,0.5412266,-0.20738874,-0.09132435,339.21637,-84.673454,-2.8996832,WAL
6825639006000,1.925015,0.222486001520185,10.9158116601228,5.93104644981375,0.5739079,-0.0852157,-0.09407325,339.172,-84.4806,-2.890623,WAL
6825644617000,1.930626,0.703957466493507,10.8400747402597,5.43875562337662,0.56688297,-0.032375857,-0.105068825,339.10797,-84.296455,-2.8820999,WAL
6825649022000,1.935031,1.05480465865536,10.7629108285684,5.02523308398785,0.54367006,-0.027183503,-0.12675454,338.99368,-84.18152,-2.8178434,WAL
6825654090000,1.940099,1.43092875453974,10.656172878626,4.5220399672217,0.5006041,-0.0729984,-0.14477506,338.87955,-84.06072,-2.7558446,WAL
6825659003000,1.945012,1.72493111751672,10.589897226869,4.0338993716838,0.44837508,-0.15974127,-0.15851954,338.74243,-84.02943,-2.6233282,WAL
6825663998000,1.950007,1.96843280575906,10.5517011064977,3.5373469651063,0.38881573,-0.24129178,-0.16035213,338.61676,-83.98218,-2.4931293,WAL
6825669017000,1.955026,2.13680869202655,10.58038137078,3.04586308301433,0.3277292,-0.32559118,-0.16310102,338.47916,-84.01411,-2.3070707,WAL
6825674006000,1.960015,2.24250356251803,10.663098866019,2.56334276128691,0.29138273,-0.3924809,-0.15302174,338.35864,-84.031815,-2.1193855,WAL
6825679097000,1.965106,2.27987249878422,10.7602328512405,2.1363207177523,0.2846632,-0.43004912,-0.13347405,338.21838,-84.14336,-1.8884138,WAL
6825684059000,1.970068,2.24229612667787,10.8682648658693,1.78873862590689,0.3210097,-0.44929138,-0.10293079,338.0905,-84.247635,-1.6553609,WAL
6825689043000,1.975052,2.17625250617112,10.9640233775216,1.42139966440425,0.4025602,-0.4361578,-0.08827003,337.9347,-84.46078,-1.4073466,WAL
6825694047000,1.980056,2.07624560445195,11.0449814639769,1.03089664417569,0.4529566,-0.3662137,-0.08002335,337.76895,-84.65977,-1.161081,WAL
6825699014000,1.985023,1.95670229537885,11.1539461202089,0.53530187017046,0.5122105,-0.2678644,-0.067500606,337.59604,-84.92114,-0.9311366,WAL
6825704063000,1.990072,1.80900772753966,11.3016411855355,-0.107884170482806,0.5580254,-0.12583824,-0.062002823,337.3949,-85.17402,-0.711005,WAL
6825708938000,1.994947,1.63349726800353,11.4716214422436,-0.740607025588351,0.6096435,0.06688975,-0.058337633,337.1778,-85.481766,-0.522188,WAL
6825714621000,2.00063,1.37199261312022,11.7171150052952,-1.49843688670328,0.6282749,0.3023783,-0.04795292,336.91467,-85.77397,-0.33998653,WAL
6825718941000,2.00495,1.13074300226209,11.9974003299532,-2.06162057316693,0.61117065,0.44409904,-0.05375614,336.69272,-86.13167,-0.20332749,WAL
6825724006000,2.010015,0.776024843867005,12.4845465580148,-2.70011330766381,0.58368176,0.82344633,-0.04917465,336.34286,-86.474495,-0.07338699,WAL
6825728956000,2.014965,0.444961314103059,12.9857008602921,-3.30623625359603,0.48716503,1.3023647,-0.056199603,336.0061,-86.85176,-0.009429929,WAL
6825734085000,2.020094,0.138162181971158,13.5632049660145,-3.89276395077616,0.3387248,1.8854356,-0.048258353,335.5371,-87.19262,0.05337708,WAL
6825738971000,2.02498,-0.121379172881408,14.110630437204,-4.39532742241095,0.18509217,2.4736989,-0.01740966,334.99457,-87.58541,0.04321973,WAL
6825744035000,2.030044,-0.171303972807288,14.6598033562899,-4.54010928850113,0.10170906,2.9565878,0.021991149,334.32153,-87.94334,0.038369443,WAL
6825748991000,2.035,-0.171074635589904,15.1137549423792,-4.51657545653492,0.11362094,3.2620203,0.07513642,333.58188,-88.36115,-0.014611483,WAL
6825754011000,2.04002,0.035863839268245,15.2219275446097,-3.79699401200352,0.17531833,3.311806,0.1142318,332.78244,-88.75472,-0.051713925,WAL
6825758990000,2.044999,0.240815679603489,15.2530621671293,-3.03494403197859,0.2782491,3.1612277,0.12614368,331.96558,-89.16674,-0.080136925,WAL
6825763992000,2.050001,0.445002535804917,14.8446886332276,-1.99026705983347,0.3707952,2.8023443,0.07238753,331.20145,-89.57129,-0.10529084,WAL
6825769013000,2.055022,0.598496015242959,14.3660351790931,-1.02803344148353,0.43249258,2.3286183,-0.022602014,330.5038,-89.870926,-0.085505456,WAL
6825774043000,2.060052,0.419146882660621,13.4416974091647,-0.623348203240095,0.47647488,1.9126191,-0.10995574,329.90323,-90.241005,-0.07320597,WAL
6825779224000,2.065233,0.218423640041029,12.4550205793055,-0.279792655540879,0.5021312,1.6163495,-0.14996742,329.3894,-90.42568,-0.01936871,WAL
6825784202000,2.070211,-0.153688918726108,11.1192318403883,-0.77117207667167,0.50732356,1.502423,-0.17073683,328.9532,-90.61834,0.016544426,WAL
6825789187000,2.075196,-0.535593244775219,9.77338742254853,-1.30175997246304,0.5360342,1.5125023,-0.20922135,328.5793,-90.76852,0.015928,WAL
6825794044000,2.080053,-1.01743961607664,8.36527292734587,-2.27480894911998,0.627664,1.6319265,-0.26633725,328.2152,-90.93174,0.0063589066,WAL
6825799192000,2.085201,-1.51858389981117,6.90342563717292,-3.278949244942,0.8185594,1.7825048,-0.34666604,327.83707,-91.21442,-0.0893167,WAL
6825804049000,2.090058,-1.89501681677907,5.83268332549231,-3.95234580658214,1.0961977,1.9614882,-0.44165558,327.4254,-91.54812,-0.1995717,WAL
6825808940000,2.094949,-2.27408484166891,4.75444559717651,-4.63045628279831,1.3973542,2.108096,-0.5537493,326.97943,-92.11681,-0.43769637,WAL
6825814047000,2.100056,-2.80665024630418,3.74049986459946,-4.80222479711687,1.7195857,2.1633792,-0.6963864,326.5101,-92.780106,-0.70350486,WAL
6825818950000,2.104959,-3.34725144013158,2.79104050822368,-4.85219640460526,1.9969184,2.2153027,-0.7706065,326.0026,-93.51441,-0.9713644,WAL
6825824023000,2.110032,-3.78391983220013,2.46038536529827,-4.7545375157152,2.116648,2.2446244,-0.92057395,325.48785,-94.46245,-1.3845559,WAL
6825828961000,2.11497,-4.16959152357738,2.34771724599102,-4.61153551534867,2.300213,2.2580633,-0.981355,324.95856,-95.50217,-1.7822478,WAL
6825834090000,2.120099,-4.52169758263629,2.63861841261964,-4.49573674025177,2.3735168,2.2858577,-0.9673051,324.43945,-96.61604,-2.297916,WAL
6825839048000,2.125057,-4.8279680258531,3.20670086353516,-4.40681961130878,2.3417518,2.3671029,-0.91904676,323.89447,-97.7574,-2.809816,WAL
6825844021000,2.13003,-5.06449637970838,3.99133540659875,-4.28830675970652,2.2085834,2.4798074,-0.8304713,323.35403,-98.90221,-3.3720315,WAL
6825849140000,2.135149,-5.27069007290401,4.91233350415927,-4.15084426567904,2.047315,2.5515842,-0.70616025,322.8013,-100.023895,-3.8998997,WAL
6825854170000,2.140179,-5.38252389552461,5.98253659060274,-3.89417667531625,1.8881844,2.5891523,-0.5671884,322.25186,-101.09213,-4.4339657,WAL
6825859057000,2.145066,-5.41735027734666,7.15668740801531,-3.54591166223025,1.7815884,2.4871378,-0.41447207,321.7273,-102.1129,-4.923195,WAL
6825864036000,2.150045,-5.39960589835935,8.2058788692453,-3.09317434171224,1.6954565,2.3047945,-0.25717425,321.25925,-103.02527,-5.384461,WAL
6825869041000,2.15505,-5.35194567761758,9.17814836770409,-2.58320968117729,1.6035212,2.038152,-0.122478485,320.8542,-103.88362,-5.8100276,WAL
6825874043000,2.160052,-5.27972715494771,9.97796475181014,-2.18810779547466,1.4932601,1.7809776,0.00030543262,320.55948,-104.566605,-6.167517,WAL
6825879029000,2.165038,-5.19329326049879,10.6742377904264,-1.86157944893403,1.349096,1.5097535,0.12736541,320.35876,-105.18741,-6.494126,WAL
6825884104000,2.170113,-4.90671366799846,11.2093409635036,-1.53582840676143,1.1728612,1.2202033,0.22479841,320.25708,-105.61661,-6.7650237,WAL
6825889040000,2.175049,-4.52080839877065,11.6361068029197,-1.2225642091433,1.0091494,0.9388999,0.29626966,320.24,-105.99039,-7.0168214,WAL
6825894021000,2.18003,-4.13681029326322,11.5760943058556,-1.00680063141273,0.8353582,0.7098254,0.3145956,320.2181,-106.254166,-7.232238,WAL
6825899072000,2.185081,-3.75181062044722,11.117761760849,-0.869300757835892,0.6753115,0.5748242,0.2565634,320.24878,-106.475586,-7.454256,WAL
6825904043000,2.190052,-3.35247194392993,10.5755745550661,-0.770732313080627,0.5870415,0.48197266,0.116980694,320.25992,-106.59234,-7.609495,WAL
6825909042000,2.195051,-2.92576593861285,9.91834919823789,-0.716780975601885,0.6169739,0.4364632,-0.063224554,320.2879,-106.710884,-7.7927885,WAL
6825914033000,2.200042,-2.56287148061594,9.38435144021739,-0.772719925,0.74128497,0.43951756,-0.26389378,320.2964,-106.81898,-7.955365,WAL
6825919043000,2.205052,-2.26348066751208,8.97389599637681,-0.941730883333333,0.82772243,0.46914452,-0.37384954,320.3041,-106.93685,-8.139718,WAL
6825923942000,2.209951,-2.03129058025061,8.67843457003927,-1.14048087128296,1.056186,0.5332854,-0.5720753,320.22604,-107.16398,-8.334858,WAL
6825929031000,2.21504,-1.85355361481204,8.48246857247054,-1.38202073403778,1.2745703,0.72173727,-0.70616025,320.10315,-107.41334,-8.527659,WAL
6825933977000,2.219986,-1.67858927825666,8.35394881210654,-1.57851740154964,1.3869696,0.89736104,-0.7825184,319.93228,-107.7281,-8.705287,WAL
6825939043000,2.225052,-1.49533235850847,8.33515284813559,-1.71008654888136,1.4059063,1.1487321,-0.81489426,319.68365,-108.07979,-8.883097,WAL
6825943973000,2.229982,-1.35450638158926,8.32088342572996,-1.82767063093278,1.323745,1.366811,-0.8014552,319.3954,-108.45373,-9.019302,WAL
6825949129000,2.235138,-1.30128687302567,8.31604519214188,-1.9244333324417,1.1960741,1.5033394,-0.7449502,319.0654,-108.81069,-9.134271,WAL
6825953972000,2.239981,-1.2762016345079,8.31869968691778,-1.98715055123532,1.0592403,1.6310102,-0.679893,318.63715,-109.15252,-9.179362,WAL
6825959041000,2.24505,-1.32535599851154,8.34327735652086,-1.96748882616444,0.9254609,1.7272215,-0.6062838,318.19052,-109.44597,-9.193853,WAL
6825963996000,2.250005,-1.39553663270639,8.40542040368244,-1.97346308251831,0.7965683,1.7626517,-0.5589417,317.70917,-109.71267,-9.178455,WAL
6825969666000,2.255675,-1.54066758489408,8.58817771609582,-2.0540914703623,0.7122689,1.7357736,-0.52778757,317.22913,-109.94214,-9.141907,WAL
6825974001000,2.26001,-1.65459202168301,8.74514639202174,-2.09611707720082,0.66248333,1.7088956,-0.50793445,316.7319,-110.146736,-9.099908,WAL
6825979024000,2.265033,-1.79466088501407,8.97392519906823,-2.09144811996506,0.63591075,1.7168368,-0.47311515,316.24155,-110.32414,-9.042788,WAL
6825984089000,2.270098,-1.93209510537027,9.19245663256077,-2.04584207574901,0.6401868,1.738828,-0.41722095,315.75485,-110.506134,-8.996238,WAL
6825989042000,2.275051,-2.05275800638779,9.36227864188807,-1.85367519536461,0.636827,1.7605137,-0.35277468,315.2745,-110.66876,-8.93559,WAL
6825994067000,2.280076,-2.17907772889961,9.53718759949649,-1.6545312666317,0.6261369,1.751656,-0.27152961,314.79727,-110.82236,-8.878383,WAL
6825999151000,2.28516,-2.3476206751285,9.74148195048778,-1.40937788545054,0.5882632,1.7507398,-0.19364429,314.32162,-110.95581,-8.800875,WAL
6826004214000,2.290223,-2.51463380661962,9.90745341119173,-1.16992868548852,0.5549711,1.7366899,-0.109650314,313.87054,-111.04157,-8.724362,WAL
6826009040000,2.295049,-2.67082107764636,9.93042212046516,-0.958616416270748,0.5128214,1.7235563,-0.03604105,313.4291,-111.10373,-8.629689,WAL
6826014016000,2.300025,-2.82923266650999,9.9398117997454,-0.762983268170779,0.4605924,1.6872098,-0.0067195175,312.98633,-111.126465,-8.555024,WAL
6826019016000,2.305025,-2.9745916559342,9.87416599089307,-0.683270303031727,0.43554693,1.640784,0.043066,312.5607,-111.13201,-8.457918,WAL
6826023989000,2.309998,-3.11862322283226,9.80404297122302,-0.623069012510413,0.42363504,1.600467,0.07147124,312.1568,-111.103714,-8.396963,WAL
6826029029000,2.315038,-3.2602627283226,9.69438671223022,-0.714449365104127,0.4120286,1.5613716,0.07360926,311.76837,-111.065186,-8.3347,WAL
6826034300000,2.320309,-3.41135351991288,9.57693131653184,-0.818783200736362,0.42394048,1.5366315,0.08368854,311.38284,-111.038826,-8.298632,WAL
6826039661000,2.32567,-3.61369407317984,9.41186344658785,-1.0690465681228,0.45814893,1.5198327,0.073303826,311.00452,-111.01643,-8.270541,WAL
6826044061000,2.33007,-3.77567593798374,9.27871018085628,-1.27894329059469,0.5002986,1.5036448,0.06536258,310.6383,-111.03669,-8.275675,WAL
6826049068000,2.335077,-3.91661168090526,9.15186830655433,-1.5655128307534,0.5635232,1.4761559,0.04734206,310.2785,-111.072105,-8.288096,WAL
6826054219000,2.340228,-4.06184910577334,9.02252116107122,-1.83944755080536,0.61911196,1.4413365,0.03145956,309.92938,-111.18271,-8.345331,WAL
6826059038000,2.345047,-4.20066833580439,8.915048015719,-1.8484036150786,0.6542367,1.4223998,0.011301007,309.58224,-111.304016,-8.407409,WAL
6826064365000,2.350374,-4.35213382636772,8.79864871072685,-1.86500638717272,0.7098254,1.3014483,0.005192355,309.2792,-111.51403,-8.513924,WAL
6826069049000,2.355058,-4.44416312363228,8.74606078927315,-2.01838876282728,0.74189585,1.20371,0.009162978,308.97516,-111.72373,-8.619368,WAL
6826073985000,2.359994,-4.54114361280774,8.69064362866354,-2.18002313648886,0.7742717,1.1136073,-0.00030543262,308.70587,-111.972404,-8.772181,WAL
6826079020000,2.365029,-4.60663179599885,8.69256932268924,-2.17387256439358,0.7974846,1.0231993,0.0030543262,308.4658,-112.22031,-8.925955,WAL
6826083994000,2.370003,-4.66848363191305,8.69944164258921,-2.15325531764932,0.8045095,0.9560041,0.006414085,308.2439,-112.46875,-9.084695,WAL
6826089006000,2.375015,-4.730807998942,8.70636646513417,-2.13248056077715,0.8151997,0.8918633,0.013439035,308.05505,-112.75958,-9.268948,WAL
6826094007000,2.380016,-4.79299558064826,8.71327608954506,-2.111751398942,0.8335256,0.85154617,0.033292156,307.88043,-113.04692,-9.448437,WAL
6826099052000,2.385061,-4.74452377553468,8.74455685328803,-1.96599999544273,0.8585711,0.8170323,0.055283304,307.7095,-113.33796,-9.624453,WAL
6826103968000,2.389977,-4.66453633839696,8.78219820247851,-1.78720479048571,0.8848383,0.79137594,0.07360926,307.54944,-113.62667,-9.794858,WAL
6826109462000,2.395471,-4.44436099061689,8.77106103114394,-1.61211171391495,0.90408057,0.7901542,0.08368854,307.4033,-113.91696,-9.985059,WAL
6826114009000,2.400018,-4.23137048742264,8.74932729706528,-1.47301572503494,0.91507614,0.8136725,0.09407325,307.26,-114.204254,-10.165548,WAL
6826119015000,2.405024,-3.91874365102451,8.73628930273202,-1.26046782733025,0.9294315,0.8304713,0.108123146,307.1005,-114.4554,-10.318155,WAL
6826123995000,2.410004,-3.58342058312575,8.72670845500201,-1.03053213367818,0.9080512,0.8258898,0.14172074,306.9445,-114.69159,-10.4587965,WAL
6826128991000,2.415,-3.24186725013944,8.7390955748008,-0.77574520535757,0.8940013,0.786489,0.16920967,306.77136,-114.88499,-10.545226,WAL
6826134093000,2.420102,-2.89147052898406,8.75856194073705,-0.508081088251992,0.8744536,0.7440339,0.21105394,306.6066,-115.06145,-10.617769,WAL
6826139008000,2.425017,-2.58768219343712,8.86482220993754,-0.44670844568006,0.83077675,0.68386364,0.24587326,306.42596,-115.15615,-10.616299,WAL
6826144026000,2.430035,-2.28752570752307,8.99922059457444,-0.44222848549175,0.7910705,0.6951646,0.28619036,306.24356,-115.2383,-10.598867,WAL
6826149015000,2.435024,-2.01377563519861,9.1215817390548,-0.514892888344448,0.75625116,0.79504114,0.3203988,306.01877,-115.23044,-10.490012,WAL
6826154016000,2.440025,-1.75456593177733,9.23730024876776,-0.635240235111627,0.72082096,0.89736104,0.33750305,305.79276,-115.208336,-10.374983,WAL
6826159008000,2.445017,-1.52706497616303,9.36770947303417,-0.659865264989708,0.6774496,0.97097033,0.35338554,305.5165,-115.12893,-10.163504,WAL
6826164004000,2.450013,-1.32516353482915,9.51051814820914,-0.605696582346645,0.6151413,1.0323622,0.36743546,305.2173,-115.03422,-9.941419,WAL
6826169011000,2.45502,-1.17522419736948,9.67477777771084,-0.578371841032129,0.5519168,1.0778717,0.38331795,304.86768,-114.91753,-9.642916,WAL
6826174041000,2.46005,-1.05914866504016,9.85372760301205,-0.568698868220884,0.5006041,1.0894781,0.40866885,304.51297,-114.78728,-9.340487,WAL
6826179214000,2.465223,-1.03359452845624,10.0445922967552,-0.568107099390364,0.44043383,1.0763446,0.43493605,304.13147,-114.601524,-8.982414,WAL
6826184109000,2.470118,-1.06125147098328,10.2289720740413,-0.572716581789577,0.37568212,1.0638218,0.44684792,303.74707,-114.404076,-8.627123,WAL
6826189040000,2.475049,-1.16135940261671,10.3934017998811,-0.594023987986916,0.310625,1.0235047,0.46303585,303.35522,-114.1682,-8.23918,WAL
6826194040000,2.480049,-1.31323654604024,10.5452785963921,-0.627247102269799,0.23365596,0.9550878,0.47739118,302.97418,-113.91689,-7.8614163,WAL
6826199108000,2.485117,-1.87299209071017,10.741369567256,-0.706779896981538,0.15210545,0.90224797,0.4831944,302.59137,-113.641945,-7.4888268,WAL
6826204053000,2.490062,-2.71494096835987,10.9634216596659,-0.817806136407151,0.05375614,0.84604836,0.4914411,302.2279,-113.34715,-7.128344,WAL
6826209040000,2.495049,-3.45101770050741,11.1078908347428,-0.87643646012934,-0.038789943,0.82436264,0.49205196,301.88153,-113.042496,-6.8101063,WAL
6826214034000,2.500043,-4.08388350572082,11.1792666270023,-0.885953262242563,-0.08368854,0.7809912,0.4914411,301.5547,-112.730774,-6.5062165,WAL
6826219039000,2.505048,-4.71460153433093,11.2490437682865,-0.83132262702445,-0.17715092,0.7086037,0.4908302,301.32455,-112.446884,-6.4058685,WAL
6826224022000,2.510031,-5.3391360345947,11.3168230832911,-0.715130128000406,-0.25534168,0.66675943,0.47219884,301.0929,-112.16192,-6.3136597,WAL
6826229015000,2.515024,-5.86328013543746,11.3734749140732,-0.56845164495596,-0.33169982,0.64812803,0.42943826,300.91492,-111.90441,-6.363704,WAL
6826234113000,2.520122,-6.30764297977099,11.4212558167939,-0.39166216519084,-0.3998113,0.6337727,0.39003745,300.74127,-111.635086,-6.418862,WAL
6826239041000,2.52505,-6.64094882847649,11.4585812642231,-0.125359640791461,-0.4560109,0.6407976,0.33383787,300.59644,-111.38285,-6.6088424,WAL
6826244028000,2.530037,-6.8814056380727,11.4874361637297,0.24013474193334,-0.52870387,0.66248333,0.28313604,300.44257,-111.11933,-6.8002596,WAL
6826249076000,2.535085,-6.98663546412272,11.5414406206799,0.717928603304611,-0.6010914,0.66706485,0.2302962,300.3018,-110.85877,-7.0839634,WAL
6826254046000,2.540055,-6.95959454167219,11.6180570225357,1.29029716385759,-0.6585127,0.65057147,0.1853976,300.15042,-110.59891,-7.3682857,WAL
6826258939000,2.544948,-6.81272212312672,11.655735948215,1.83773573199784,-0.71959925,0.5882632,0.13805555,299.99646,-110.29565,-7.6998816,WAL
6826264042000,2.550051,-6.45803269282071,11.6317704664574,2.3817525933111,-0.77488256,0.49541172,0.10567969,299.84644,-109.998436,-8.031963,WAL
6826268937000,2.554946,-6.11780052324441,11.608781825814,2.90359514399274,-0.8167268,0.39675698,0.08552113,299.66562,-109.60343,-8.346457,WAL
6826274048000,2.560057,-5.7625550444488,11.5847787732444,3.44846486340722,-0.86590147,0.29077184,0.084910266,299.5061,-109.215546,-8.662255,WAL
6826278958000,2.564967,-5.38730858352598,11.5408014415736,3.87312871619233,-0.95569867,0.16462818,0.09773844,299.37384,-108.82977,-8.97909,WAL
6826284064000,2.570073,-4.91707851908694,11.4458055390967,4.08211999922292,-1.0516045,0.019547688,0.13713925,299.27338,-108.44925,-9.288204,WAL
6826288975000,2.574984,-4.48163004186704,11.3262396775106,4.19617625839564,-1.1939361,-0.12370021,0.1908954,299.05362,-107.81728,-9.408438,WAL
6826294054000,2.580063,-4.08358119695898,11.1149295707214,4.04383632804607,-1.348485,-0.24220806,0.2556471,298.86667,-107.17899,-9.518894,WAL
6826299028000,2.585037,-3.75388521340936,10.8601282231616,3.81644977063508,-1.5442673,-0.3436117,0.34055737,298.6504,-106.43503,-9.513302,WAL
6826304045000,2.590054,-3.57911783098702,10.4775291989776,3.38189318126229,-1.7663169,-0.38728857,0.4352415,298.44983,-105.66674,-9.489522,WAL
6826309002000,2.595011,-3.4300822834808,10.097747877497,2.92169037561799,-2.02624,-0.47678033,0.47067168,298.26517,-104.859055,-9.403858,WAL
6826314051000,2.60006,-3.35510221559792,9.70520574350087,2.35272430866551,-2.1600194,-0.5739079,0.52931476,298.09393,-104.04214,-9.289076,WAL
6826319156000,2.605165,-3.28867984405183,9.32434717903416,1.77778924275618,-2.4077253,-0.6640105,0.56688297,297.97003,-103.23637,-9.169545,WAL
6826324041000,2.61005,-3.33877387398008,9.15402759235464,1.23176566084163,-2.6331346,-0.8750645,0.57635134,297.901,-102.44172,-9.053138,WAL
6826329028000,2.615037,-3.41679805273755,9.08414535945249,0.74212088059512,-2.801428,-1.0998629,0.54458636,297.93115,-101.74436,-8.967908,WAL
6826334141000,2.62015,-3.62078337351716,9.49211630529657,0.552705824677643,-2.948952,-1.3713925,0.47433686,298.02585,-101.06668,-8.900105,WAL
6826339006000,2.625015,-3.82419204084821,9.94965030580357,0.3655539786875,-3.0903673,-1.724778,0.3857614,298.26727,-100.511345,-8.888329,WAL
6826344048000,2.630057,-4.08384839048295,10.7874090951705,0.135292800085227,-3.198185,-2.0702224,0.2770274,298.57465,-100.03029,-8.904878,WAL
6826349050000,2.635059,-4.34887333831036,11.6533802015254,-0.171307511973404,-3.2739322,-2.435825,0.1459968,299.0034,-99.68414,-8.98427,WAL
6826354043000,2.640052,-4.64343382810208,12.6586267940745,-0.793157598257162,-3.3011158,-2.7766879,0.020463986,299.51596,-99.453415,-9.089292,WAL
6826358992000,2.645001,-4.93035302052367,13.6366655222955,-1.46269398299045,-3.2623258,-3.0509665,-0.0983493,300.14545,-99.382164,-9.242689,WAL
6826364773000,2.650782,-5.23008657484004,14.6503100115169,-2.61803078790235,-3.1829133,-3.1948252,-0.23151793,300.82846,-99.44487,-9.423349,WAL
6826368994000,2.655003,-5.42407091175205,15.3455655532851,-3.47165529326359,-3.0460796,-3.232699,-0.3576616,301.59543,-80.35238,-9.645718,WAL
6826374042000,2.660051,-5.45715702782558,15.818225270923,-4.57295412822644,-2.8948903,-3.1526756,-0.47403142,302.36337,-80.06485,-9.88658,WAL
6826379061000,2.66507,-5.47538725320656,16.261538191648,-5.62761270354213,-2.7360654,-2.9309313,-0.5516113,303.14517,-79.73199,-10.151951,WAL
6826384014000,2.670023,-5.32063476643363,16.3853401071961,-6.19356576190343,-2.5909848,-2.6450465,-0.5766568,303.87634,-79.37939,-10.421007,WAL
6826388999000,2.675008,-5.16488246549217,16.5099418736018,-6.76317529065996,-2.5115724,-2.346639,-0.5879578,304.59378,-79.07425,-10.672715,WAL
6826394025000,2.680034,-4.8093701364662,16.431076921503,-7.01234053476432,-2.457511,-2.0091357,-0.58551437,305.20575,-78.778366,-10.919753,WAL
6826399195000,2.685204,-4.42592232386461,16.331665023616,-7.2395687821111,-2.4569001,-1.611768,-0.56596667,305.70325,-78.49082,-11.159426,WAL
6826404042000,2.690051,-3.92143688962433,15.9859343828265,-7.07914474633274,-2.5103507,-1.4013249,-0.5589417,306.17474,-78.266014,-11.356946,WAL
6826408937000,2.694946,-3.38867102358203,15.5962263469431,-6.85715889155004,-2.549446,-0.9502009,-0.5662721,306.45047,-78.04661,-11.555423,WAL
6826414034000,2.700043,-2.82890413786453,15.3476923916275,-6.26973171222954,-2.6603181,-0.5183192,-0.59681535,306.68747,-77.887596,-11.693165,WAL
6826418980000,2.704989,-2.28527662206021,15.1204383481656,-5.66817667234243,-2.7736337,-0.1731803,-0.600786,306.80972,-77.730446,-11.828019,WAL
6826424026000,2.710035,-1.64569081185857,14.9019074162426,-4.74646214211196,-2.826168,0.027488936,-0.5708536,306.8702,-77.63172,-11.894348,WAL
6826429006000,2.715015,-0.99340788278732,14.6895361821459,-3.76045318791349,-2.8173106,0.04734206,-0.5299256,306.87598,-77.52924,-11.960429,WAL
6826434517000,2.720526,-0.550424389160366,14.5649398927577,-3.18751417504974,-2.6777277,-0.12675454,-0.5174029,306.91037,-77.48545,-11.944868,WAL
6826438946000,2.724955,-0.212854341073418,14.4721082378134,-2.76133197573617,-2.3936756,-0.40500367,-0.49754974,306.96378,-77.4639,-11.9152975,WAL
6826444038000,2.730047,0.109927121488515,14.3133083585562,-1.8025022432634,-1.9816469,-0.8020661,-0.49021935,307.1398,-77.510735,-11.791442,WAL
6826449016000,2.735025,0.418047576504922,14.1521371320473,-0.811776495744258,-1.5262468,-1.4953982,-0.5152648,307.478,-77.57859,-11.663178,WAL
6826454018000,2.740027,0.49280470290515,13.9688565965401,-0.465323502911116,-1.0818423,-2.0091357,-0.54702985,307.9119,-77.72143,-11.469658,WAL
6826458944000,2.744953,0.539708014977133,13.7859339111155,-0.197974633406244,-0.79168135,-2.4401011,-0.57818395,308.5146,-77.88077,-11.277284,WAL
6826464029000,2.750038,0.512716508656716,13.4924341641791,-0.187676825522388,-0.732122,-2.6777277,-0.5729916,309.23767,-78.054146,-11.03351,WAL
6826468949000,2.754958,0.47594514570676,13.1936671521803,-0.21525533333626,-0.84299403,-2.817616,-0.52473325,310.04242,-78.23313,-10.788326,WAL
6826474005000,2.760014,0.399606171780721,12.7617624856512,-0.209268020930831,-1.0839803,-2.8857274,-0.44226643,310.89893,-78.40028,-10.524813,WAL
6826478982000,2.764991,0.316308569164827,12.3102013631347,-0.196115767404341,-1.3768903,-2.8637362,-0.34147367,311.7519,-78.5535,-10.249543,WAL
6826483979000,2.769988,0.0950778871205092,11.6740875972597,0.020924531974323,-1.6536123,-2.8225029,-0.25503623,312.61877,-78.68426,-9.960885,WAL
6826488997000,2.775006,-0.200446511785522,10.9378692017478,0.347556762914014,-1.8411479,-2.8231137,-0.1966986,313.47314,-78.7916,-9.657373,WAL
6826494030000,2.780039,-0.563689441556442,10.2523496480937,0.344213765851184,-1.9074267,-2.8420506,-0.16462818,314.3102,-78.85759,-9.358969,WAL
6826503921000,2.78993,-1.30958640333715,8.93050684490406,0.17898342728323,-1.7760907,-2.7895162,-0.12492194,315.9148,-78.8594,-8.797809,WAL
6826508948000,2.794957,-1.68868093643509,8.25869370451034,0.0950067907468727,-1.743104,-2.8386908,-0.057421334,316.7131,-78.81017,-8.520916,WAL
6826513935000,2.799944,-2.15795035687831,7.71774072977208,-0.332346776000407,-1.6786577,-2.9568932,0.01985312,317.49475,-78.716324,-8.308947,WAL
6826518935000,2.804944,-2.65491530396825,7.21103168418803,-0.858544961796093,-1.645671,-2.919936,0.09468412,318.2305,-78.62899,-8.083735,WAL
6826523940000,2.809949,-2.94993189610829,6.72440934077834,-1.22490761099831,-1.6340646,-2.9883528,0.15974127,318.99655,-78.485176,-7.9137483,WAL
6826528950000,2.814959,-3.19825969933313,6.24208018013337,-1.55441950469792,-1.5928311,-3.1166344,0.20952678,319.7549,-78.362236,-7.7272143,WAL
6826533946000,2.819955,-3.43492594434119,5.95238592017999,-1.72774564312824,-1.5946637,-3.4413095,0.24037547,320.53085,-78.23245,-7.6075764,WAL
6826538947000,2.824956,-3.66917037752128,5.70877171749976,-1.86360739871858,-1.5289958,-3.8783834,0.25289822,321.3653,-78.13331,-7.4707856,WAL
6826543952000,2.829961,-4.16452850206213,5.47140267175504,-2.63137850266917,-1.4242324,-4.2769732,0.2406809,322.24283,-78.115944,-7.336619,WAL
6826548976000,2.834985,-4.74436900854312,5.23517124965185,-3.60207445867702,-1.2922854,-4.4220533,0.17562376,323.16187,-78.11394,-7.214174,WAL
6826554041000,2.84005,-4.94213315331084,5.01757613121046,-4.1285246373682,-1.1679744,-4.312403,0.07360926,324.08926,-78.1789,-7.1204615,WAL
6826559051000,2.84506,-4.80048052741459,4.82027431225221,-4.25500040750738,-1.0506883,-4.0900483,-0.05009095,325.01617,-78.25614,-7.064487,WAL
6826564036000,2.850045,-4.48274678017431,4.74702331959527,-4.16170215343618,-0.98471475,-3.869526,-0.20647246,325.9368,-78.309235,-7.1984887,WAL
6826569047000,2.855056,-4.06448626070928,4.74221573145662,-3.94536048639551,-0.9053023,-3.694513,-0.35185838,326.81192,-78.36405,-7.3814416,WAL
6826574046000,2.860055,-3.63226994287571,4.83643206291371,-3.77621129485052,-0.84299403,-3.578754,-0.44806966,327.7392,-78.35446,-7.5981812,WAL
6826579024000,2.865033,-3.19371899383062,4.98420449813019,-3.63320556466353,-0.7846564,-3.4972036,-0.49846604,328.6274,-78.33125,-7.8567157,WAL
6826584020000,2.870029,-2.74465829181495,5.12233052455516,-3.51499486690391,-0.71776664,-3.4122932,-0.4978552,329.4923,-78.339035,-8.065598,WAL
6826589041000,2.87505,-2.28833431600435,5.25542514365362,-3.4104205800514,-0.65118235,-3.33227,-0.47708577,330.3321,-78.34016,-8.29436,WAL
6826594034000,2.880043,-1.83945038244568,5.3112628311094,-3.30534991242069,-0.569021,-3.268129,-0.43004912,331.2242,-78.37685,-8.438387,WAL
6826599071000,2.88508,-1.38962124755816,5.32053765164391,-3.19868942785041,-0.4831944,-3.222925,-0.36957347,332.08963,-78.422585,-8.584953,WAL
6826604042000,2.890051,-0.946963411725514,5.23934436692599,-3.1223160529623,-0.38698313,-3.1468723,-0.3390302,332.94247,-78.53308,-8.65535,WAL
6826609040000,2.895049,-0.502974371845203,5.08179988948733,-3.06980116068223,-0.3277292,-3.0546317,-0.30268374,333.766,-78.65404,-8.720836,WAL
6826614032000,2.900041,-0.0570139013402473,4.91425418189071,-3.05052802532908,-0.23335053,-2.9657507,-0.31337386,334.63486,-78.8112,-8.716197,WAL
6826619030000,2.905039,0.391659698607898,4.737648546071,-3.06007421529717,-0.12583824,-2.8362474,-0.37140608,335.45435,-78.96629,-8.731341,WAL
6826624025000,2.910034,0.808027112009489,4.60939643407136,-3.05209701670456,-0.025350908,-2.682004,-0.46181414,336.2621,-79.153076,-8.699566,WAL
6826629013000,2.915022,1.19520386619354,4.52440642616388,-3.02848869487002,0.09712757,-2.5124888,-0.54458636,337.01935,-79.3378,-8.697269,WAL
6826634075000,2.920084,1.5314087247075,4.45532706169502,-2.96345709812211,0.22876903,-2.3365595,-0.63041294,337.78305,-79.54518,-8.654199,WAL
6826639044000,2.925053,1.80745257687543,4.40386129518238,-2.86052551624226,0.3622431,-2.151162,-0.711658,338.48834,-79.74194,-8.646022,WAL
6826644032000,2.930041,2.02196775398887,4.37880389703154,-2.73329875194805,0.505491,-1.9749273,-0.77824235,339.16644,-79.980865,-8.595453,WAL
6826649075000,2.935084,2.16816157129187,4.38351982344498,-2.57767308181818,0.6261369,-1.8188512,-0.84788096,339.79004,-80.19986,-8.579097,WAL
6826654003000,2.940012,2.2446681854367,4.40382174368989,-2.43899741998037,0.7467828,-1.6615535,-0.91446525,340.37207,-80.44019,-8.5344515,WAL
6826659040000,2.945049,2.23046651470069,4.44642675589794,-2.31591622417076,0.86834496,-1.4963144,-0.96944314,340.89844,-80.66062,-8.51464,WAL
6826663951000,2.94996,2.18233522892972,4.51013601408574,-2.19118867191601,0.98807454,-1.3191634,-1.0134255,341.3752,-80.87087,-8.48674,WAL
6826669055000,2.955064,2.07304770813648,4.61467200708661,-2.05339138897638,1.0772609,-1.1496484,-1.047023,341.79724,-81.05252,-8.477721,WAL
6826673935000,2.959944,1.94867811104697,4.75062049246616,-1.87218377161624,1.1884383,-0.956615,-1.0870347,342.15622,-81.19422,-8.488681,WAL
6826679022000,2.965031,1.77413396743631,4.97364894040605,-1.5715799406051,1.2684617,-0.73548174,-1.1230757,342.4485,-81.29883,-8.512478,WAL
6826684019000,2.970028,1.60249329193548,5.25859349435484,-1.18312182491935,1.3017539,-0.50640726,-1.1563679,342.67282,-81.33616,-8.56961,WAL
6826689505000,2.975514,1.4136165804314,5.72823299316945,-0.534815166141663,1.3136657,-0.26816985,-1.1756102,342.8215,-81.33467,-8.634848,WAL
6826694027000,2.980036,1.26205907662582,6.20414356231469,0.103777447692232,1.2705997,-0.15332718,-1.1640037,342.9266,-81.263054,-8.733129,WAL
6826699074000,2.985083,1.10441654540423,6.98280183540225,1.10695694287606,1.1722504,0.06383542,-1.1502593,342.92657,-98.83782,-8.83547,WAL
6826703984000,2.989993,0.96892570173814,7.78887303187856,2.09446761062619,1.110553,0.27366763,-1.1407908,342.86633,-98.98905,-8.974954,WAL
6826709039000,2.995048,0.890843821690702,8.78556555939279,3.15086932813093,0.90285885,0.4456262,-1.1023064,342.7538,-99.12782,-9.098291,WAL
6826714009000,3.000018,0.831081813261282,9.80645780915226,4.19015783961409,0.6704246,0.5928447,-1.0412198,342.5832,-99.27735,-9.2583,WAL
6826719051000,3.00506,0.892177886751371,11.1352970048503,5.24915630855124,0.43860126,0.65118235,-0.9602802,342.40057,-99.40009,-9.390927,WAL
6826724069000,3.010078,0.99483024637163,12.4160750757078,6.19716362933617,0.2452624,0.6450737,-0.8677341,342.2243,-99.44265,-9.442558,WAL
6826729028000,3.015037,1.22886842810416,13.5495539788385,6.79832050073437,0.1133155,0.5653558,-0.7476991,342.0576,-80.53339,-9.459881,WAL
6826734082000,3.020091,1.47142160980573,14.6129225858384,7.37172156649284,0.07147124,0.43554693,-0.60048056,341.91556,-80.57336,-9.380007,WAL
6826739042000,3.025051,1.72883987892638,15.2151839927914,7.74570653009202,0.12644911,0.26053402,-0.43401974,341.80835,-80.61636,-9.2639265,WAL
6826744052000,3.030061,1.97420982271378,15.6904318610451,8.06337256695368,0.23487769,0.05375614,-0.33841935,341.74448,-80.70789,-9.047052,WAL
6826749095000,3.035104,2.16540465647268,15.6617530427553,8.15419023901425,0.38331795,-0.16737708,-0.30207285,341.7263,-80.78947,-8.811834,WAL
6826754026000,3.040035,2.32627952117193,15.5667789850539,8.22039228793428,0.5345071,-0.34697145,-0.29352075,341.7389,-80.901375,-8.508409,WAL
6826759665000,3.045674,2.37973269782243,15.1231181156092,8.18297495823023,0.6536258,-0.5012149,-0.2751948,341.7958,-80.99757,-8.207538,WAL
6826764028000,3.050037,2.39869226841793,14.7560713233261,8.14631937843176,0.7498371,-0.63438356,-0.23182335,341.87787,-81.09949,-7.883899,WAL
6826769048000,3.055057,2.30848525794983,14.2148299545724,8.06560798103891,0.8072584,-0.7415904,-0.17470746,341.9847,-81.19211,-7.56515,WAL
6826774022000,3.060031,2.19950380569539,13.6891123378651,7.97316568368547,0.8576548,-0.81306165,-0.1160644,342.10168,-81.27653,-7.2507563,WAL
6826779031000,3.06504,1.96595409623369,13.2264194217343,7.80130853175638,0.8723156,-0.8689558,-0.07147124,342.23285,-81.35537,-6.934456,WAL
6826784444000,3.070453,1.70882550602486,12.731730282648,7.60030304052704,0.8436049,-0.88208944,-0.015271631,342.36584,-81.4152,-6.6329203,WAL
6826789042000,3.075051,1.39533190194453,12.4182361899904,7.12304402754224,0.8005389,-0.84940815,0.015882496,342.49088,-81.464584,-6.33425,WAL
6826794074000,3.080083,1.05440806346249,12.0893322357291,6.58827476141181,0.75411314,-0.8032878,0.047647487,342.62036,-81.483574,-6.075523,WAL
6826799068000,3.085077,0.738487662851227,11.910153837622,5.92814260307601,0.6957755,-0.69913524,0.069027774,342.71442,-81.485596,-5.818809,WAL
6826804150000,3.090159,0.427821575463662,11.7307950721127,5.26139517284507,0.66645396,-0.5494733,0.10262536,342.7851,-81.48826,-5.6169515,WAL
6826809043000,3.095052,0.260624022892958,11.5943970690141,4.68060360760563,0.59773165,-0.35796702,0.1386664,342.8067,-81.46891,-5.415998,WAL
6826814006000,3.100015,0.0910345167804695,11.4560477353991,4.09150315015962,0.5143485,-0.17989981,0.17592919,342.79398,-81.467575,-5.273151,WAL
6826819049000,3.105058,0.0810500980338779,11.2047590017039,3.69099646296482,0.4279111,-0.04520403,0.20861048,342.73434,-81.45314,-5.1278977,WAL
6826823939000,3.109948,0.0857439520320738,10.9512906525008,3.32018193535131,0.3213151,0.030543262,0.23365596,342.63687,-81.41728,-4.9797378,WAL
6826829358000,3.115367,0.234184427473703,10.6057795495632,3.11148125522375,0.22021692,0.030543262,0.2666427,342.49918,-81.39557,-4.8743725,WAL
6826834070000,3.120079,0.374976635254056,10.300059461847,2.94655331648244,0.17104226,0.012217305,0.25961772,342.34567,-81.35797,-4.775425,WAL
6826839044000,3.125053,0.58452190330246,9.93174552345384,2.81388733714769,0.12980886,-0.028710667,0.25228736,342.16513,-81.32697,-4.685782,WAL
6826844080000,3.130089,0.824681255255453,9.53788428174485,2.69861083456827,0.12064589,-0.09162979,0.23793201,341.9983,-81.28961,-4.5983295,WAL
6826849073000,3.135082,1.01863485191844,9.18357184893638,2.53433607897265,0.13775012,-0.13255776,0.20066923,341.81268,-81.26319,-4.5052,WAL
6826854047000,3.140056,1.19141166910891,8.84735753465347,2.34755031089109,0.1966986,-0.15974127,0.17073683,341.64352,-81.243484,-4.412088,WAL
6826859036000,3.145045,1.29280118337854,8.50679984889578,1.92041691026734,0.30665436,-0.12675454,0.13103059,341.44223,-81.25583,-4.303836,WAL
6826864034000,3.150043,1.35307268698179,8.16371551801627,1.35479164300659,0.45662177,-0.004581489,0.0693332,341.2281,-81.2842,-4.2128954,WAL
6826869043000,3.155052,1.25316830820066,7.63811166746771,0.267981828797437,0.64843345,0.18142697,0.01740966,341.00525,-81.38061,-4.097989,WAL
6826874030000,3.160039,1.03318850241814,6.97817232502253,-1.20492664877341,0.850019,0.3839288,-0.041233405,340.7488,-81.50449,-4.0082703,WAL
6826879013000,3.165022,0.751225692047469,6.74235120194012,-2.37656937288753,1.0045679,0.70554936,-0.109650314,340.44385,-81.73434,-3.9272907,WAL
6826884042000,3.170051,0.419206471341343,6.82772756519598,-3.32993885337798,1.10139,1.2009611,-0.20525073,340.03882,-81.98287,-3.8835423,WAL
6826889043000,3.175052,0.105116907478088,7.28062442564741,-4.12339421195219,1.1450669,1.8564194,-0.2874121,339.5819,-82.40163,-3.9011753,WAL
6826894073000,3.180082,-0.197153447621514,8.04829536040837,-4.79030808446215,1.2012665,2.195755,-0.3295618,339.07706,-82.82858,-3.9343827,WAL
6826899017000,3.185026,-0.442494413293691,9.04780665148156,-5.32224795746825,1.2776246,2.8472428,-0.32436943,338.3354,-83.32661,-4.0621967,WAL
6826904041000,3.19005,-0.646161286972385,10.2795059250151,-5.7538278873211,1.3243558,3.3906076,-0.2519819,337.52585,-83.80039,-4.175633,WAL
6826909038000,3.195047,-0.818934335726049,11.7026153048532,-5.89369934447351,1.41904,3.843564,-0.13713925,336.5717,-84.29544,-4.326053,WAL
6826914038000,3.200047,-0.96736885088637,13.2890087951177,-5.79628919238593,1.4682146,4.183511,0.025045475,335.49112,-84.73132,-4.431158,WAL
6826919045000,3.205054,-1.15207933751137,14.7746990769231,-4.99333715475589,1.4501941,4.379293,0.2452624,334.32404,-85.11532,-4.49643,WAL
6826924044000,3.210053,-1.37468365035884,16.1490395384615,-3.44478510563024,1.391551,4.3698244,0.4896085,333.12048,-85.40826,-4.4866605,WAL
6826929022000,3.215031,-1.69126059938771,17.1640762773059,-1.41421808933439,1.284955,4.163047,0.7086037,331.92603,-85.592476,-4.40617,WAL
6826934093000,3.220102,-2.10850990109619,17.8451036648232,1.14203369864705,1.0186177,3.5973854,0.8381071,330.84842,-94.31628,-4.2653294,WAL
6826939040000,3.225049,-2.77851389458021,18.1159681712653,2.54327261886086,0.6579019,2.6233609,0.79626286,329.98987,-94.26507,-4.126977,WAL
6826944086000,3.230095,-3.74519577548285,17.9683468147418,2.79565759731967,0.35735616,1.7308867,0.5723807,329.28275,-94.24304,-4.003839,WAL
6826949014000,3.235023,-4.62478798572684,17.0610020549644,2.48392065717075,0.26236662,1.0155635,0.21197024,328.91855,-94.20351,-4.032751,WAL
6826954051000,3.24006,-5.44422345217222,15.1913702341111,1.4761091603827,0.3387248,0.42424592,-0.09987647,328.77325,-94.21342,-4.1072664,WAL
6826958971000,3.24498,-6.11902193758955,13.3117374332094,0.4365762757595,0.5018258,-0.02443461,-0.32528573,328.79434,-94.44087,-4.3796883,WAL
6826964047000,3.250056,-6.61717561528974,11.2882639383332,-0.722843485517366,0.7528914,-0.3381139,-0.51159966,328.94186,-94.74973,-4.7135863,WAL
6826968942000,3.254951,-7.08497292071006,9.37381418205833,-1.79073732550719,1.0873401,-0.4990769,-0.70096785,329.2125,-95.31242,-5.273837,WAL
6826974040000,3.260049,-7.51315062248521,7.55276952827557,-2.66772750891801,1.4123205,-0.5699373,-0.86406887,329.54288,-95.90968,-5.86044,WAL
6826979065000,3.265074,-7.87505039026788,5.93902596052975,-3.37731793582823,1.6832392,-0.61117065,-1.0238101,329.92065,-96.71122,-6.6109567,WAL
6826984088000,3.270097,-8.1018889089997,4.73243670206682,-3.73929475872379,1.8454239,-0.6200282,-1.1484267,330.3062,-97.559456,-7.3878274,WAL
6826988968000,3.274977,-8.31470559074609,3.63642106414982,-3.99953451458313,1.9257526,-0.63041294,-1.2076806,330.6834,-98.573204,-8.269535,WAL
6826994079000,3.280088,-8.51948491552944,2.67103426608228,-4.05316702396653,1.920255,-0.6606508,-1.208597,331.06073,-99.62486,-9.167881,WAL
6826999015000,3.285024,-8.67811048395698,1.94058268981381,-4.1099733919107,1.897042,-0.7452556,-1.2095132,331.44644,-100.7922,-10.144408,WAL
6827004127000,3.290136,-8.74890803384852,1.66624150825199,-4.18077131143348,1.8261817,-0.77579886,-1.2073752,331.81387,-101.96377,-11.120934,WAL
6827008987000,3.294996,-8.79798643781942,1.4682422405345,-4.23107665719762,1.6948457,-0.6805039,-1.2021828,332.16586,-103.19639,-12.155072,WAL
6827014597000,3.300606,-8.62065500681431,2.04600145848595,-4.07090566188245,1.5216653,-0.4841107,-1.1780536,332.48444,-104.41466,-13.182916,WAL
6827019017000,3.305026,-8.44623264781582,2.59293373429752,-3.91074143718024,1.3127494,-0.27122417,-1.1099422,332.7528,-105.63301,-14.218004,WAL
6827024026000,3.310035,-8.12057845619835,3.5510167553719,-3.60396615867769,1.1154399,-0.06078109,-1.0152581,332.95285,-106.8181,-15.2316065,WAL
6827029001000,3.31501,-7.76038590675349,4.49364009026047,-3.28454016020465,0.97127575,0.13041973,-0.9129381,333.0818,-107.90948,-16.17156,WAL
6827034108000,3.320117,-7.20987810068837,5.41721928206512,-2.88417074305116,0.89675015,0.2883284,-0.84299403,333.15176,-108.96399,-17.082075,WAL
6827039277000,3.325286,-6.64076953097632,6.35334415922802,-2.47204928605255,0.9251554,0.3933972,-0.8362745,333.18106,-109.87387,-17.875195,WAL
6827044104000,3.330113,-5.97102680376257,7.24300237609471,-2.00722781767759,1.0479393,0.51159966,-0.86009824,333.1595,-110.76671,-18.640635,WAL
6827049147000,3.335156,-5.25389311217778,8.11456208802963,-1.58327359868642,1.210735,0.5494733,-0.9129381,333.17007,-111.47723,-19.262506,WAL
6827054045000,3.340054,-4.4894794496,8.73535869893333,-1.41185965928889,1.3671165,0.56688297,-0.9914343,333.154,-112.20301,-19.882208,WAL
6827059024000,3.345033,-3.69178013517864,9.34160159521005,-1.26698861124853,1.484708,0.6411031,-1.0769554,333.06796,-112.785576,-20.355505,WAL
6827064046000,3.350055,-2.77123915531998,9.81367353867295,-1.28587153828033,1.536326,0.64965516,-1.1731668,332.9995,-113.38992,-20.844948,WAL
6827069016000,3.355025,-1.85929344624754,10.2693976383524,-1.32313011363816,1.572978,0.78801614,-1.2528846,332.84467,-113.84223,-21.163654,WAL
6827074040000,3.360049,-0.930014770709499,10.6392126545132,-1.50803757221127,1.5766432,0.9596693,-1.2861768,332.68143,-114.29972,-21.485418,WAL
6827079010000,3.365019,-0.0176009250414201,10.9946723218935,-1.69636416710059,1.5027285,1.1279627,-1.2614367,332.38858,-114.597885,-21.609194,WAL
6827084648000,3.370657,0.930223360489152,11.2662404366864,-1.9785815409073,1.421178,1.284955,-1.2012665,332.0572,-114.88778,-21.718067,WAL
6827089113000,3.375122,1.67116930553633,11.4683556297578,-2.19475231702422,1.3179418,1.3982705,-1.1181889,331.59155,-115.021324,-21.624876,WAL
6827094103000,3.380112,2.37984353094414,11.5344984127533,-2.34593609586752,1.2186762,1.4382823,-1.0641272,331.11282,-115.13474,-21.51702,WAL
6827099175000,3.385184,3.08987710130047,11.5910107579581,-2.49794975322205,1.1621711,1.4947872,-0.9660834,330.5171,-115.10787,-21.208937,WAL
6827104046000,3.390055,3.62409102625194,11.4914119498253,-2.62018509675854,1.0687088,1.6417004,-0.8765916,329.89636,-115.05529,-20.882153,WAL
6827109374000,3.395383,4.19957861447368,11.3731056374269,-2.73323461078947,1.0177015,1.7415768,-0.81306165,329.23215,-114.90611,-20.415283,WAL
6827114035000,3.400044,4.51717465701754,11.072911797271,-2.39823586614035,1.001819,1.7259997,-0.7425067,328.5779,-114.73656,-19.925957,WAL
6827119016000,3.405025,4.85657519078947,10.7521082105263,-2.04023785131579,1.0103711,1.568702,-0.6948592,327.90604,-114.5161,-19.347946,WAL
6827124040000,3.410049,4.82491765440495,10.5528203048944,-1.82880987875322,1.0106765,1.351234,-0.6087272,327.27765,-114.28294,-18.754375,WAL
6827129333000,3.415342,4.73089683626147,10.3505945360554,-1.63659712169882,1.0048733,1.1523973,-0.44959682,326.71133,-114.039795,-18.147484,WAL
6827134119000,3.420128,4.06556968818131,10.0844637126803,-1.83404902435849,0.9755518,1.0629056,-0.24801129,326.19305,-113.73043,-17.484072,WAL
6827138938000,3.424947,3.39565503573703,9.8164978878067,-2.03286237975276,0.9166033,1.1059716,-0.080634214,325.71442,-113.41113,-16.820848,WAL
6827144118000,3.430127,2.51829159089608,9.54755792241626,-2.18292523830518,0.86926126,1.1285735,0.06261369,325.2899,-113.06755,-16.126556,WAL
6827149049000,3.435058,1.65305058786144,9.29519556322168,-2.31361278440691,0.7761043,1.1878275,0.17165314,324.8609,-112.69362,-15.399174,WAL
6827154427000,3.440436,0.622506255526695,9.04796744155844,-2.47312407186147,0.69058317,1.2666291,0.27580565,324.44583,-112.43452,-14.779066,WAL
6827158992000,3.445001,-0.274206415448361,8.84519335992579,-2.61281293070501,0.6310238,1.366811,0.33933565,324.01978,-112.161736,-14.141076,WAL
6827164040000,3.450049,-1.20935951258418,8.69754856127185,-2.7582395745433,0.61391956,1.4782939,0.37110063,323.59567,-112.01976,-13.661915,WAL
6827169022000,3.455031,-2.11864637696258,8.57034300325862,-2.89957955900069,0.6203337,1.5903877,0.37598756,323.15173,-111.870865,-13.170242,WAL
6827174038000,3.460047,-2.82648465208997,8.61360784335191,-2.90430972669188,0.6395759,1.6865989,0.35979962,322.69873,-111.86761,-12.869905,WAL
6827179040000,3.465049,-3.47485590923567,8.70418894585987,-2.87093765509554,0.6731735,1.6957619,0.33658674,322.245,-111.87032,-12.57217,WAL
6827184034000,3.470043,-4.14747681873828,8.69883142304275,-2.76456956486326,0.7174612,1.6826283,0.29077184,321.77664,-112.02099,-12.486485,WAL
6827189062000,3.475071,-4.83203735581005,8.66555424365683,-2.63621443934248,0.75808376,1.6450601,0.23304509,321.31824,-112.17877,-12.411821,WAL
6827194118000,3.480127,-5.54031695210459,8.53382039572704,-2.48461949126276,0.7715228,1.5964963,0.19456059,320.85983,-112.41432,-12.50966,WAL
6827199075000,3.485084,-6.24098217294096,8.37379162636662,-2.32891608376458,0.80878556,1.5384641,0.11301007,320.4173,-112.67115,-12.632076,WAL
6827204049000,3.490058,-6.57266060903999,8.26160693091645,-2.25459519078886,0.85062987,1.4633276,0.039095376,320.01666,-112.99648,-12.848701,WAL
6827209042000,3.495051,-6.61234080689798,8.18720680270733,-2.24467517369431,0.88697636,1.3888022,-0.031154128,319.6334,-113.332344,-13.082846,WAL
6827214034000,3.500043,-6.65201305759037,8.11282157538509,-2.23475714338468,0.926988,1.3240504,-0.08979719,319.29263,-113.761154,-13.431542,WAL
6827219042000,3.505051,-6.69181246293242,8.03819793387272,-2.22480732451636,0.95172805,1.2608259,-0.116675265,318.97366,-114.19248,-13.78731,WAL
6827224026000,3.510035,-6.60778760218471,7.87347608043694,-2.28801045878848,0.9502009,1.2293663,-0.118202426,318.66586,-114.623764,-14.144791,WAL
6827229038000,3.515047,-6.46955808556107,7.66851564111222,-2.38334108782522,0.960891,1.174083,-0.11911872,318.3847,-115.059235,-14.507575,WAL
6827234098000,3.520107,-5.88665310860045,7.57438439402308,-2.44953354827892,0.9633345,1.1453724,-0.13561209,318.08508,-115.520744,-14.870343,WAL
6827239044000,3.525053,-5.12048590278134,7.53233827192031,-2.50092272731039,0.97158116,1.119716,-0.16493362,317.80252,-115.97979,-15.23302,WAL
6827244119000,3.530128,-4.58147102744492,7.55203941724005,-2.45643420896792,1.0128145,1.1160508,-0.18081611,317.50427,-116.460884,-15.571925,WAL
6827249067000,3.535076,-4.17849735794356,7.60241137696173,-2.36484930146888,1.0473285,1.1374311,-0.1881465,317.20825,-116.93707,-15.908221,WAL
6827254041000,3.54005,-3.77599985243742,7.70013132964427,-2.18743600131752,1.0885619,1.1704178,-0.19456059,316.87622,-117.3477,-16.118406,WAL
6827259042000,3.545051,-3.37312462440458,7.8311870277896,-1.94959402670518,1.1212431,1.2018774,-0.18600847,316.54572,-117.754364,-16.318958,WAL
6827264026000,3.550035,-2.9886524042726,8.02033653204447,-1.64854937508942,1.1148291,1.2281445,-0.18997909,316.17383,-118.109634,-16.43034,WAL
6827269032000,3.555041,-2.61327678051232,8.24741585384244,-1.30561359913968,1.0998629,1.2550226,-0.16554448,315.8036,-118.45618,-16.524864,WAL
6827274043000,3.560052,-2.21919879055454,8.49426027950437,-1.01123920918139,1.0809261,1.2687671,-0.13958271,315.41434,-118.71707,-16.534582,WAL
6827279027000,3.565036,-1.81198898238879,8.75603771683933,-0.759156983140362,1.0418307,1.2702943,-0.12797627,315.0282,-118.96156,-16.538284,WAL
6827284022000,3.570031,-1.40903474289829,9.05045804231228,-0.591351672566548,0.9960158,1.2550226,-0.11362094,314.63278,-119.0887,-16.447956,WAL
6827289044000,3.575053,-1.00776771494835,9.37051626758045,-0.486257892709575,0.9779953,1.2614367,-0.099265605,314.23718,-119.20647,-16.352053,WAL
6827293988000,3.579997,-0.657065411821885,9.71034640992409,-0.616649888178115,0.9654725,1.2663237,-0.073303826,313.82394,-119.21819,-16.168802,WAL
6827299062000,3.585071,-0.33317393548417,10.0792227339382,-0.94054136451583,0.91996306,1.2556335,-0.031154128,313.42096,-119.209755,-15.980751,WAL
6827304159000,3.590168,-0.0431026658450556,10.4148705406257,-1.22205525945832,0.8756753,1.2852604,0.016187929,312.99084,-119.10897,-15.697763,WAL
6827309048000,3.595057,0.187905879072013,10.6901146713206,-1.43340355771573,0.816116,1.4236214,0.06719518,312.5431,-118.98589,-15.395939,WAL
6827314024000,3.600033,0.27347708761392,10.9727141365041,-1.49710641880546,0.7360926,1.5170839,0.116980694,312.08646,-118.81462,-14.984007,WAL
6827319047000,3.605056,0.206325803148868,11.2605056418387,-1.40597250054841,0.63224554,1.5378532,0.1853976,311.62347,-118.616325,-14.554661,WAL
6827324038000,3.610047,-0.0791551034497948,11.4929573367704,-1.28468039861848,0.48930305,1.4877623,0.2761111,311.151,-118.36481,-14.049194,WAL
6827329037000,3.615046,-0.591975894487937,11.6702879662629,-1.13131344074482,0.33750305,1.4315627,0.3622431,310.6848,-118.08386,-13.536951,WAL
6827334051000,3.62006,-1.25269838890743,11.8185111978993,-1.02784419646608,0.1826487,1.4175128,0.42943826,310.22012,-117.74164,-13.015203,WAL
6827339632000,3.625641,-2.15513118724845,11.9496786682046,-0.97013042735349,0.022602014,1.4117095,0.48197266,309.77722,-117.36032,-12.494161,WAL
6827344055000,3.630064,-2.90131238281969,12.0147782173956,-0.911579691479307,-0.14294247,1.4407257,0.52412236,309.31775,-116.97432,-12.055955,WAL
6827349082000,3.635091,-3.7821135572351,12.0477490616378,-0.8315068851629,-0.29443705,1.4749341,0.5412266,308.85995,-116.55649,-11.622827,WAL
6827353987000,3.639996,-4.58274947275964,12.0686743489614,-0.737840403364985,-0.4147775,1.5503759,0.52198434,308.42722,-116.1631,-11.32488,WAL
6827359048000,3.645057,-5.32103894183976,12.0734685326409,-0.617988229243323,-0.4981606,1.5836681,0.47952923,307.99216,-115.74897,-11.037564,WAL
6827363982000,3.649991,-5.9347424470362,12.0478048610317,-0.529819679748496,-0.5308419,1.6038266,0.41630468,307.59723,-115.380554,-10.906557,WAL
6827369047000,3.655056,-6.38923690137094,11.971258368774,-0.486762299084722,-0.5329799,1.5610662,0.32467487,307.19754,-115.01503,-10.800846,WAL
6827373950000,3.659959,-6.73788882622901,11.8950050706746,-0.37036738494521,-0.5045747,1.5085317,0.1966986,306.8225,-114.71167,-10.846143,WAL
6827379039000,3.665048,-6.92407373087363,11.8117121537147,-0.105788719646124,-0.48808134,1.359786,0.07238753,306.4707,-114.4243,-10.92807,WAL
6827384018000,3.670027,-7.02868472879215,11.7312255946944,0.204638981778253,-0.46395215,1.2932017,-0.03390302,306.11557,-114.20962,-11.111804,WAL
6827389043000,3.675052,-7.00062705461082,11.6517289325624,0.60679785205325,-0.45723262,1.1557571,-0.08032878,305.809,-114.01226,-11.329854,WAL
6827393939000,3.679948,-6.92076133377171,11.5932760388515,1.02936200808152,-0.46853364,1.0198395,-0.13316862,305.51678,-113.82719,-11.611696,WAL
6827399081000,3.68509,-6.70818333122176,11.5784452327076,1.54844781145467,-0.5198463,0.91813046,-0.1518,305.2481,-113.64672,-11.89969,WAL
6827403968000,3.689977,-6.47596176619318,11.5846446051136,2.03659501732955,-0.6151413,0.8393288,-0.14049901,304.99872,-113.41727,-12.190616,WAL
6827409649000,3.695658,-6.12952967799765,11.6432716569357,2.5908865921826,-0.73914695,0.7819075,-0.093767814,304.7699,-113.17969,-12.477775,WAL
6827414009000,3.700018,-5.86158587611998,11.683072360148,2.97589678691079,-0.8848383,0.7305948,-0.07452556,304.53738,-112.848236,-12.730759,WAL
6827419060000,3.705069,-5.54594953544994,11.7160489755551,3.31979905091547,-1.0665708,0.655153,-0.032070424,304.33066,-112.48584,-12.967148,WAL
6827423996000,3.710005,-5.26154222014724,11.730865062399,3.56580772528282,-1.2825116,0.55955255,0.01038471,304.11002,-112.00196,-13.140334,WAL
6827429027000,3.715036,-5.058228931406,11.6832810531514,3.49226885117615,-1.5079209,0.45875978,0.058337633,303.91153,-111.49006,-13.303738,WAL
6827434346000,3.720355,-4.84809552285619,11.6300713868823,3.39113495878573,-1.7745636,0.3203988,0.099571034,303.7085,-110.865265,-13.401966,WAL
6827439048000,3.725057,-4.73334989651008,11.5402707925992,2.95709753755817,-2.0454822,0.20066923,0.12950343,303.5253,-110.21529,-13.494147,WAL
6827444021000,3.73003,-4.62827995643649,11.4444784944587,2.47887543629819,-2.3133466,0.009773844,0.14202617,303.38022,-109.52719,-13.5528555,WAL
6827449006000,3.735015,-4.59210279573743,11.3449909838022,1.91812819413659,-2.538145,-0.2507602,0.14996742,303.2833,-108.827614,-13.615195,WAL
6827454013000,3.740022,-4.55657621220273,11.2563188511783,1.36647307577209,-2.713158,-0.54000485,0.13072516,303.24017,-108.17038,-13.67869,WAL
6827458920000,3.744929,-4.53129193500484,11.30183097256,0.961924392430862,-2.8322768,-0.9193522,0.08582657,303.28885,-107.5348,-13.764062,WAL
6827463895000,3.749904,-4.52913961403405,11.4164870382027,0.584063876890341,-2.9013045,-1.353372,0.028405234,303.44516,-106.996735,-13.873127,WAL
6827468897000,3.754906,-4.62395993990499,11.8147316840855,0.33753125239905,-2.919936,-1.7730364,-0.043066,303.6969,-106.51667,-14.009086,WAL
6827473910000,3.759919,-4.72634944740253,12.2457659366591,0.0533406452862614,-2.9373455,-2.1682663,-0.12492194,304.06332,-106.13134,-14.170931,WAL
6827479007000,3.765016,-4.8653630522734,12.8353761650791,-0.411636230505745,-2.9385672,-2.4077253,-0.20097467,304.49698,-105.82253,-14.350412,WAL
6827483925000,3.769934,-4.96131971497439,13.377198319072,-0.920386243416692,-2.9761355,-2.5103507,-0.22876903,305.00867,-105.58658,-14.53117,WAL
6827488924000,3.774933,-4.83150060013056,13.7666554125741,-1.79546414552275,-2.9889636,-2.6633725,-0.27580565,305.5952,-105.43961,-14.733518,WAL
6827493923000,3.779932,-4.66272584758152,14.1070707828785,-2.69017502089449,-2.984993,-2.6716192,-0.28038713,306.1637,-105.36002,-14.9137,WAL
6827498961000,3.78497,-4.27297771053098,14.1736134769973,-3.70256923549404,-2.9422324,-2.5485299,-0.2312125,306.73026,-105.3295,-15.078975,WAL
6827503942000,3.789951,-3.87940552382344,14.2264618060021,-4.66767184095294,-2.8866436,-2.3790147,-0.16829337,307.2644,-105.32686,-15.194801,WAL
6827508959000,3.794968,-3.42529428392283,14.1890090675241,-5.38863189935691,-2.8139508,-2.1642957,-0.109650314,307.74133,-105.3423,-15.287201,WAL
6827513976000,3.799985,-2.95979116799442,14.1530055726947,-6.0794229566421,-2.7537806,-1.9376645,-0.052534413,308.1259,-105.31468,-15.293811,WAL
6827518969000,3.804978,-2.36457863120892,14.1339588836885,-6.41750384937263,-2.7217102,-1.702176,-0.027488936,308.43896,-105.29373,-15.290025,WAL
6827524000000,3.810009,-1.77060316384995,14.1276787040474,-6.7217462052616,-2.7614164,-1.4428637,-0.0033597588,308.64743,-105.18553,-15.18549,WAL
6827528943000,3.814952,-1.25656590635735,14.2772168969398,-6.58155418602172,-2.866485,-1.1661417,0.03604105,308.7796,-74.92478,-15.07304,WAL
6827534125000,3.820134,-0.714102287522168,14.4390861979675,-6.41021948480622,-3.004846,-0.91751957,0.086437434,308.80386,-75.13902,-14.853695,WAL
6827538963000,3.824972,-0.164776978517485,14.6514303898575,-5.95783394868985,-3.162144,-0.68875057,0.15974127,308.75427,-75.3587,-14.624983,WAL
6827544194000,3.830203,0.420554989907416,14.8795331285673,-5.44023420792211,-3.2943962,-0.44104472,0.22235495,308.60767,-75.67211,-14.298096,WAL
6827549002000,3.835011,0.864439141126277,15.072908621552,-4.65354839434953,-3.407101,-0.24617869,0.27366763,308.41272,-75.98373,-13.966218,WAL
6827553925000,3.839934,1.31894032175241,15.2709093603131,-3.84804626036079,-3.474907,-0.1386664,0.29626966,308.23907,-76.36797,-13.5446825,WAL
6827558959000,3.844968,1.65097726695947,15.3608678255141,-2.91739663609503,-3.447418,-0.07819075,0.3042109,308.0231,-76.736664,-13.127946,WAL
6827563945000,3.849954,1.97032713280096,15.4418970445199,-1.98794551619086,-3.336546,-0.061086524,0.30543262,307.78928,-77.08515,-12.721083,WAL
6827568991000,3.855,2.10975715999196,15.4700402433437,-1.3768018853612,-3.1603115,-0.10995574,0.2883284,307.62857,-77.45297,-12.25768,WAL
6827573906000,3.859915,2.23271709719683,15.4936863661208,-0.804565269717673,-2.9562824,-0.21319197,0.28863382,307.47504,-77.800285,-11.803083,WAL
6827578944000,3.864953,3.39866372328659,16.2166045988544,0.810096131720324,-2.6710083,-0.29810223,0.3549127,307.37878,-78.16307,-11.292491,WAL
6827583921000,3.86993,4.62250138794193,16.9791497115347,2.47639809095398,-2.5014932,-0.6585127,0.37384954,307.38495,-78.47993,-10.803828,WAL
6827589034000,3.875043,3.59742085190006,15.7802990976675,1.36544502052415,-2.0839667,-0.8546005,0.4111123,307.3895,-78.83531,-10.277328,WAL
6827593951000,3.87996,2.40445704044728,14.4474701537958,0.0408438666751114,-1.7693712,-1.0219775,0.41599923,307.47787,-79.15784,-9.763947,WAL
6827599049000,3.885058,1.58578177867931,13.4367865338162,-0.616438489513377,-1.5815301,-1.1490375,0.39736784,307.75446,-79.517685,-9.080024,WAL
6827603996000,3.890005,1.02407310427393,12.6626055150781,-0.855775203807413,-1.5732834,-1.1869112,0.3717115,308.0291,-79.82608,-8.419258,WAL
6827609033000,3.895042,0.452145351498531,11.8743399417238,-1.09946613364349,-1.7434094,-1.1120802,0.36774087,308.1406,-80.04679,-7.9786887,WAL
6827614024000,3.900033,-0.114559316776638,11.0932731407289,-1.34093157553585,-2.019215,-1.0622946,0.35124752,308.26126,-80.21553,-7.558411,WAL
6827619055000,3.905064,-0.687515707872285,10.5558875783666,-1.43342324216334,-2.2956316,-1.0659598,0.3313944,308.4312,-80.32295,-7.1341796,WAL
6827624008000,3.910017,-1.25210715801043,10.1025658670721,-1.47875541329279,-2.4507914,-1.2406673,0.30298916,308.6256,-80.364265,-6.723375,WAL
6827629020000,3.915029,-1.91990474152824,9.595746117165,-1.51576559869324,-2.4452937,-1.4132367,0.27000242,308.69864,-80.2998,-6.491984,WAL
6827634086000,3.920095,-2.70970171528239,9.02623290498339,-1.54262948026578,-2.3475552,-1.5964963,0.26542094,308.8183,-80.21205,-6.2575736,WAL
6827639040000,3.925049,-3.41892565611739,8.52993840686099,-1.7046070309538,-2.2525656,-1.915368,0.269697,309.10275,-80.02311,-6.101717,WAL
6827644039000,3.930048,-4.10243967948642,8.06002239498314,-1.93719162707714,-2.1358902,-2.1734586,0.25137106,309.41586,-79.85345,-5.9503217,WAL
6827649056000,3.935065,-4.69436907545162,7.69544166468118,-2.13218846970022,-2.0286834,-2.345417,0.19333886,309.83,-79.59926,-5.904613,WAL
6827654049000,3.940058,-5.2313238817303,7.39194546770823,-2.30494792737037,-1.9660698,-2.5170703,0.14355333,310.3106,-79.36411,-5.8517933,WAL
6827659035000,3.945044,-5.56947298401579,7.21005990942279,-2.5260848650222,-1.9318613,-2.7437012,0.11026118,310.83173,-79.09412,-5.912622,WAL
6827664717000,3.950726,-5.80034259522447,7.09730965960533,-2.81601403078441,-1.9236146,-2.9770517,0.12736541,311.3984,-78.84018,-5.964694,WAL
6827669044000,3.955053,-5.97615618334484,7.01144722895412,-3.03680310157869,-1.9281962,-3.1126637,0.13561209,312.0172,-78.60223,-6.0637226,WAL
6827674039000,3.960048,-6.17911178137149,6.91232940110508,-3.29167747380365,-1.8967366,-3.1352658,0.06566802,312.6679,-78.37399,-6.174477,WAL
6827679015000,3.965024,-6.06177978584071,6.60723390707965,-3.38900312035398,-1.7489072,-3.1047225,-0.035124753,313.37177,-78.21574,-6.2501335,WAL
6827684022000,3.970031,-5.66604148153525,6.12090494799642,-3.35085975751218,-1.6548339,-3.0360003,-0.105374254,314.0664,-78.054245,-6.339495,WAL
6827689029000,3.975038,-5.15104660666858,5.73350341339448,-3.24860356066686,-1.4886786,-2.968805,-0.24220806,314.80737,-78.00928,-6.4841456,WAL
6827694042000,3.980051,-4.52726149248113,5.4353709593962,-3.08807050924811,-1.3674219,-2.9480357,-0.34666604,315.54153,-77.97162,-6.644614,WAL
6827699005000,3.985014,-3.94666846081964,5.18017102355969,-2.98134087893486,-1.357648,-2.999043,-0.3866777,316.30038,-77.90132,-6.804487,WAL
6827704051000,3.99006,-3.40611443708177,4.97447334607009,-2.94307154939616,-1.3426818,-3.0451632,-0.3622431,317.0505,-77.854706,-6.9813776,WAL
6827708968000,3.994977,-2.9191766639384,4.76096514287098,-2.93204082151298,-1.2712106,-3.1016684,-0.3213151,317.92548,-77.79206,-7.07287,WAL
6827714040000,4.000049,-2.47691442713096,4.52101444314219,-2.96027035316738,-1.1869112,-3.1251867,-0.269697,318.79248,-77.74436,-7.1606727,WAL
6827718937000,4.004946,-2.05859140360233,4.24518518772389,-2.97996922094989,-1.0690142,-3.1062498,-0.24678956,319.66855,-77.724495,-7.1950903,WAL
6827724040000,4.010049,-1.64060101759911,3.86653509086335,-2.98488675067418,-0.926988,-3.0720413,-0.22876903,320.53503,-77.739845,-7.223767,WAL
6827728951000,4.01496,-1.2646580240427,3.52648676166879,-2.99763147537949,-0.7874053,-3.0231721,-0.25259277,321.44965,-77.7588,-7.2142467,WAL
6827734778000,4.020787,-0.876636547556557,3.17672078707276,-3.0304220033983,-0.6435465,-2.9309313,-0.27885997,322.33325,-77.815865,-7.211515,WAL
6827738960000,4.024969,-0.605411650979349,2.92155732366958,-3.02668544857029,-0.5002986,-2.7925704,-0.30573806,323.20447,-77.891884,-7.184644,WAL
6827744042000,4.030051,-0.291322432296664,2.60263609074662,-2.96386759938443,-0.35308012,-2.6239717,-0.33841935,324.0365,-77.99761,-7.1789265,WAL
6827749007000,4.035016,0.00204338022365039,2.30990004158098,-2.87766420790488,-0.18570304,-2.4165828,-0.37293324,324.82727,-78.1358,-7.1576843,WAL
6827754037000,4.040046,0.267401466169299,2.05780980627066,-2.73171731706757,-0.025961773,-2.2214115,-0.4034765,325.57092,-78.30106,-7.1569133,WAL
6827759009000,4.045018,0.523963879560336,1.80854931130115,-2.58556503011542,0.12217305,-2.019826,-0.43463063,326.26123,-78.49327,-7.1390724,WAL
6827764046000,4.050055,0.741618680218258,1.55546236575026,-2.42358927502623,0.25778514,-1.8173242,-0.48380527,326.89487,-78.70845,-7.1478834,WAL
6827769062000,4.055071,0.941598269545411,1.33631185508434,-2.26970947808063,0.38026363,-1.6126842,-0.54000485,327.46967,-78.93925,-7.138051,WAL
6827774042000,4.060051,1.08249863923949,1.23177286070714,-2.14244468345564,0.50518554,-1.3946054,-0.6017023,327.98233,-79.18685,-7.1557527,WAL
6827779012000,4.065021,1.22194427917687,1.14563758813327,-2.0139259455953,0.636827,-1.2779301,-0.6365216,328.4716,-79.44172,-7.155455,WAL
6827784054000,4.070063,1.35442980793729,1.1976855044292,-1.8719771189025,0.70371675,-1.0454959,-0.711658,328.86655,-79.6836,-7.1988482,WAL
6827789016000,4.075025,1.48149676866538,1.25906298897485,-1.7251959450677,0.84604836,-0.7984009,-0.7867944,329.22375,-79.94822,-7.2324357,WAL
6827794039000,4.080048,1.56964471710272,1.4451530966609,-1.49013468105467,1.0015136,-0.5757405,-0.86834496,329.52094,-80.20124,-7.297001,WAL
6827799066000,4.085075,1.64776618765409,1.64945369852843,-1.24496373062685,1.1554517,-0.3640757,-0.9636399,329.7533,-80.450035,-7.365429,WAL
6827804609000,4.090618,1.6528387874343,2.0197498277592,-0.894957804538939,1.2843442,-0.16218472,-1.0607675,329.92282,-80.685875,-7.4634757,WAL
6827809305000,4.095314,1.65037563372059,2.35040050580885,-0.582595768947574,1.416902,0.041233405,-1.1362094,330.03152,-80.90367,-7.561361,WAL
6827814040000,4.100049,1.57068886119301,2.87721841789515,-0.0867671860519379,1.4859297,0.26450464,-1.2153164,330.07416,-81.08114,-7.6915145,WAL
6827819374000,4.105383,1.47757741435353,3.47902038966769,0.487938452041329,1.5329664,0.48288897,-1.2718215,330.0768,-81.21365,-7.817189,WAL
6827824028000,4.110037,1.3240721795774,4.18431474673741,1.33844058527972,1.5161675,0.69913524,-1.3170254,330.0127,-81.300766,-7.9633303,WAL
6827829031000,4.11504,1.15905570136833,4.94249860329517,2.25272124118682,1.4159856,0.9071349,-1.3384057,329.9651,-81.32167,-8.086989,WAL
6827834061000,4.12007,0.910740016294513,6.0646556473869,3.36242669051058,1.2421945,1.1010846,-1.3384057,329.85678,-81.31131,-8.217861,WAL
6827838938000,4.124947,0.653057730837597,7.22656858463236,4.4774882862273,1.0173961,1.2782356,-1.3222178,329.69186,-81.273865,-8.349228,WAL
6827844036000,4.130045,0.478599379453095,8.81154962894037,5.54313176808773,0.7672467,1.4086553,-1.2596041,329.61926,-81.185104,-8.425925,WAL
6827848996000,4.135005,0.329764228066844,10.4352057231295,6.55791682695594,0.5381723,1.4327844,-1.1563679,329.52042,-81.0972,-8.48595,WAL
6827854050000,4.140059,0.283706597522453,12.5137305642614,7.56334038138743,0.39767328,1.3264939,-1.0015136,329.32352,-80.92648,-8.557799,WAL
6827858941000,4.14495,0.278871237885826,14.6848084548364,8.5255776054506,0.36713,1.1163563,-0.79137594,329.14954,-80.78497,-8.580627,WAL
