timestamp,rel_time,acc_x,acc_y,acc_z,gyro_x,gyro_y,gyro_z,azimuth,pitch,roll,label
4787175132000,0,-0.0564966689353963,9.85783346561433,-0.283683415932493,-0.030848695,-0.008246681,0.01985312,94.907455,-98.504974,-4.1137996,STD
4787180104000,0.004972,-0.0585262449443758,9.8576079526164,-0.2845854502637,-0.03481932,-0.009773844,0.02107485,95.055305,-98.45236,-4.103086,STD
4787185122000,0.00999,-0.0605745982052484,9.85738035321503,-0.285495830045276,-0.038179077,-0.015882496,0.011911872,95.20177,-98.40384,-4.095573,STD
4787190092000,0.01496,-0.0626033578119717,9.85715493093029,-0.286397501530815,-0.039095376,-0.019547688,0.01282817,95.34707,-98.35343,-4.084832,STD
4787195167000,0.020035,-0.0646749785371468,9.85692474620292,-0.287318222413935,-0.038179077,-0.008246681,0.0070249503,95.487976,-98.304924,-4.078221,STD
4787200138000,0.025006,-0.0667041463449981,9.85669927856158,-0.288220075322308,-0.04520403,-0.010079277,0.01282817,95.63282,-98.25251,-4.068582,STD
4787205107000,0.029975,-0.0687324977505932,9.85647390163344,-0.289121565385012,-0.038179077,-0.02076942,0.014660766,95.77535,-98.205284,-4.061511,STD
4787210111000,0.034979,-0.0707751361956723,9.85624693722442,-0.290029405246911,-0.047036625,-0.008857546,0.010079277,95.91073,-98.15261,-4.053818,STD
4787215118000,0.039986,-0.0728189992441357,9.85601983674561,-0.290937789377312,-0.053145275,-0.014660766,0.011301007,96.05319,-98.10137,-4.044894,STD
4787220077000,0.044945,-0.0748432686384496,9.85579491338344,-0.291837465211675,-0.050701816,-0.0125227375,0.011911872,96.18863,-98.05098,-4.0366573,STD
4787225138000,0.050006,-0.0769091745478312,9.85556536364842,-0.292755646175118,-0.044593163,-0.019242255,0.015271631,96.327194,-97.99963,-4.0276976,STD
4787230109000,0.054977,-0.0789383423556825,9.85533989600708,-0.293657499083491,-0.05100725,-0.020158553,0.01160644,96.46209,-97.94693,-4.020198,STD
4787235117000,0.059985,-0.080982613605274,9.85511275017168,-0.294566064636726,-0.05497787,-0.016187929,0.015271631,96.59668,-97.894966,-4.0096636,STD
4787240093000,0.064961,-0.0830138224187659,9.85488705574736,-0.295468824659269,-0.064751714,-0.011301007,0.005497787,96.72949,-97.84272,-4.0038953,STD
4787245164000,0.070032,-0.0850838103394286,9.85465705244638,-0.296388819851053,-0.05467244,-0.01038471,0.015882496,96.86196,-97.79116,-3.9912972,STD
4787250142000,0.07501,-0.0884435157003426,9.85566015019209,-0.295754890973938,-0.060170226,-0.01038471,0.011911872,96.96271,-97.71866,-3.9783711,STD
4787255185000,0.080053,-0.0934581406437545,9.85816751240785,-0.293247575884124,-0.05955936,-0.007941248,0.01282817,97.06243,-97.64901,-3.9612439,STD
4787260125000,0.084993,-0.0983703451292701,9.86062366337867,-0.290791471076731,-0.05497787,-0.0106901415,0.013439035,97.15955,-97.586685,-3.9508939,STD
4787265119000,0.089987,-0.103336245777178,9.86310666296335,-0.288308518160108,-0.053450707,0.0012217305,0.01038471,97.25113,-97.52515,-3.9408312,STD
4787270098000,0.094966,-0.0941342090900999,9.8585055518742,-0.292909536918208,-0.054367006,-0.0009162979,0.0061086523,97.29058,-97.42806,-3.9159195,STD
4787275114000,0.099982,-0.0751302465067748,9.84900337958659,-0.302411520690337,-0.048258353,0.008246681,0.01282817,97.324135,-97.33441,-3.888746,STD
4787280090000,0.104958,-0.0643418287689563,9.84765287471504,-0.298370359121816,-0.051618114,0.0076358155,0.016187929,97.34444,-97.231476,-3.8636887,STD
4787285116000,0.109984,-0.0595709845762712,9.85242381355932,-0.284057831525424,-0.04795292,0.008552114,0.020158553,97.36271,-97.13351,-3.8370109,STD
4787290096000,0.114964,-0.0694448903159041,9.85932771623094,-0.268140162750545,-0.044898596,0.0143553335,0.017104227,97.35204,-97.020935,-3.8036094,STD
4787295120000,0.119988,-0.0912830726833696,9.86806316430646,-0.250669622329339,-0.048258353,0.011911872,0.017715093,97.34495,-96.91005,-3.7694242,STD
4787300157000,0.125025,-0.109817332291505,9.86205957528637,-0.283250214885192,-0.04520403,0.013744468,0.019547688,97.33814,-96.80254,-3.735872,STD
4787305125000,0.129993,-0.12214760031825,9.83000074400042,-0.404086848242368,-0.04184427,0.005497787,0.017104227,97.33593,-96.69825,-3.704793,STD
4787310210000,0.135078,-0.134768255092002,9.79718690400663,-0.527769271877883,-0.041233405,0.011911872,0.026572637,97.33276,-96.59376,-3.6729217,STD
4787315167000,0.140035,-0.147071221800653,9.76519905644534,-0.648338352302908,-0.04428773,0.019242255,0.022602014,97.332245,-96.49484,-3.6466746,STD
4787320087000,0.144955,-0.155507723618537,9.76741963268293,-0.430668531339512,-0.027488936,0.008246681,0.018325957,97.25222,-96.35311,-3.6077585,STD
4787325473000,0.150341,-0.160539986902439,9.80767801219512,0.183267384365854,-0.03023783,0.020463986,0.022907447,97.166245,-96.21073,-3.5681844,STD
4787330065000,0.154933,-0.182734341122654,9.82942726940201,0.240471907109559,-0.03145956,0.014966198,0.027794369,97.05891,-96.11537,-3.5366957,STD
4787335072000,0.15994,-0.228780767500655,9.83779907830642,-0.266038761193365,-0.03145956,0.013439035,0.024129177,96.94936,-96.024254,-3.5072124,STD
4787340089000,0.164957,-0.260154123960396,9.84277617491749,-0.671482711287129,-0.034513887,0.01985312,0.022602014,96.873085,-95.82426,-3.4681392,STD
4787345124000,0.169992,-0.205449970618812,9.82785707941419,-0.482504735513614,-0.036957346,0.02443461,0.021991149,96.8009,-95.63298,-3.4315028,STD
4787350134000,0.175002,-0.169007351408535,9.823462276037,-0.256634227048642,-0.036651913,0.021685716,0.022602014,96.62906,-95.51749,-3.3986387,STD
4787355164000,0.180032,-0.197757771671143,9.85700461563712,0.107537832993136,-0.037873644,0.034208454,0.019547688,96.45526,-95.40716,-3.3679962,STD
4787360127000,0.184995,-0.224121719415808,9.8823011880216,0.281812938664703,-0.042455133,0.030543262,0.02443461,96.29768,-95.260185,-3.3260324,STD
4787365105000,0.189973,-0.242844678783505,9.87762035287187,-0.256472243351988,-0.04886922,0.025045475,0.01985312,96.14082,-95.12129,-3.2891676,STD
4787370090000,0.194958,-0.259661875050584,9.87314393696498,-0.722285000350195,-0.059864793,0.030848695,0.018936822,96.01436,-94.92591,-3.2470984,STD
4787375114000,0.199982,-0.266469645628582,9.86973998592147,-0.807382052603467,-0.04917465,0.022296581,0.019242255,95.89754,-94.74372,-3.2081578,STD
4787380698000,0.205566,-0.274036244137248,9.8659566135833,-0.901964445076052,-0.044898596,0.03970624,0.019242255,95.67844,-94.62707,-3.1741986,STD
4787385250000,0.210118,-0.263072238474561,9.86736776792856,-0.897624975792949,-0.058948494,0.036957346,0.01038471,95.47197,-94.51644,-3.1446486,STD
4787390166000,0.215034,-0.223660436472886,9.87612612194214,-0.761873255004186,-0.064446285,0.034513887,0.007330383,95.26495,-94.41299,-3.1145666,STD
4787395165000,0.220033,-0.188484023904476,9.88529967294924,-0.628840775176697,-0.0580322,0.03634648,0.01863139,95.02928,-94.31778,-3.0801303,STD
4787400097000,0.224965,-0.17330964158278,9.89541560741058,-0.517561904583423,-0.06688975,0.01863139,0.015882496,94.80447,-94.22703,-3.05224,STD
4787405059000,0.229927,-0.161385302075309,9.9009975538948,-0.426328926685829,-0.0580322,0.028099801,0.0061086523,94.59545,-94.12354,-3.018718,STD
4787410108000,0.234976,-0.156752427332567,9.89636458723771,-0.380000198608796,-0.0711658,0.0290161,0.008857546,94.398445,-94.01763,-2.984229,STD
4787415082000,0.23995,-0.15103694373297,9.89174510899183,-0.33051725640327,-0.06261369,0.029626964,0.00580322,94.22145,-93.91358,-2.951638,STD
4787420103000,0.244971,-0.141331597501261,9.88689284377838,-0.267432493229387,-0.080634214,0.033292156,0.008246681,94.04734,-93.806076,-2.9180439,STD
4787425096000,0.249964,-0.135302866232154,9.88080981626319,-0.227631953801986,-0.07147124,0.044898596,0.0125227375,93.885475,-93.710945,-2.8905993,STD
4787430107000,0.254975,-0.140267623608525,9.87088009414442,-0.257420523980964,-0.06658431,0.038179077,0.013133603,93.73138,-93.61758,-2.8647711,STD
4787435077000,0.259945,-0.142206649828089,9.86266552039627,-0.250263841451049,-0.067500606,0.051923547,0.006414085,93.58129,-93.523254,-2.8380675,STD
4787440096000,0.264964,-0.137538236435023,9.85799701194639,-0.161563969921329,-0.06872234,0.045814894,0.0012217305,93.44221,-93.434746,-2.812146,STD
4787445127000,0.269995,-0.132858661264569,9.85331734149184,-0.0726520245804196,-0.059864793,0.041233405,0.008857546,93.29835,-93.354805,-2.7859557,STD
4787450147000,0.275015,-0.128189317723388,9.8486479028749,0.0160655197668998,-0.061391957,0.042455133,0.002443461,93.15762,-93.28231,-2.76615,STD
4787455190000,0.280058,-0.123541165213874,9.84208506862563,0.0976791534350009,-0.06352998,0.048258353,0.0036651916,93.01753,-93.20225,-2.732009,STD
4787460215000,0.285083,-0.119066228422912,9.82866045917798,0.151378376235819,-0.056505036,0.040927973,0.015577064,92.8839,-93.12656,-2.6979325,STD
4787465368000,0.290236,-0.115394129648047,9.81646322951063,0.203238962676223,-0.056199603,0.04734206,0.0070249503,92.7706,-93.042274,-2.6691766,STD
4787470100000,0.294968,-0.119874353565002,9.81870338591201,0.22339996328522,-0.06047566,0.04886922,0.009468411,92.66371,-92.95833,-2.635234,STD
4787475100000,0.299968,-0.124608317974296,9.82107041507662,0.244702795712308,-0.064751714,0.053450707,0.0070249503,92.563995,-92.87865,-2.6057308,STD
4787480108000,0.304976,-0.129349856726644,9.82344123148789,0.26603971267128,-0.06078109,0.049785517,0.005192355,92.46884,-92.80463,-2.5765598,STD
4787485472000,0.31034,-0.135247906046613,9.82619487657293,0.28378638186016,-0.06658431,0.04337143,0.011911872,92.37576,-92.73326,-2.5467296,STD
4787490089000,0.314957,-0.14976244255389,9.83103315308021,0.24024277233833,-0.057726767,0.043982297,0.008246681,92.28412,-92.67265,-2.5213926,STD
4787495155000,0.320023,-0.16419757833822,9.83677281401062,0.187890283534194,-0.054061573,0.043982297,0.009468411,92.20011,-92.61272,-2.4960709,STD
4787500144000,0.325012,-0.171770076974404,9.84434507147951,0.115951534234408,-0.06291912,0.040317107,0.0070249503,92.11926,-92.56038,-2.4737394,STD
4787505001000,0.329869,-0.179142220866154,9.85171698058483,0.0459161553310088,-0.053450707,0.032070424,0.007330383,92.03462,-92.52007,-2.4559422,STD
4787510107000,0.334975,-0.175638969303483,9.86085448938979,-0.0124481954222764,-0.049480084,0.03176499,0.004886922,91.95093,-92.48489,-2.4402437,STD
4787515116000,0.339984,-0.165897834925373,9.87059582211392,-0.0611538764672556,-0.05131268,0.03359759,0.013133603,91.87105,-92.45123,-2.4220164,STD
4787520100000,0.344968,-0.159518866613409,9.87697491859642,-0.11605667953787,-0.051618114,0.037873644,0.011301007,91.77676,-92.434296,-2.415349,STD
4787525143000,0.350011,-0.154635071201335,9.881858810901,-0.174662202044494,-0.03268129,0.03573562,0.008857546,91.68581,-92.41849,-2.406859,STD
4787530097000,0.354965,-0.163589730805272,9.87290397003398,-0.219164991491093,-0.044593163,0.04337143,0.009468411,91.58679,-92.40344,-2.3972056,STD
4787535109000,0.359977,-0.178417952928638,9.85807544856348,-0.258706925755329,-0.043676864,0.03756821,0.007330383,91.49408,-92.39239,-2.3893461,STD
4787540079000,0.364947,-0.194839923624454,9.8641946419214,-0.29713194069869,-0.04428773,0.03268129,0.0067195175,91.393555,-92.38184,-2.3806095,STD
4787545157000,0.370025,-0.212175639082969,9.87719669325372,-0.336137307268514,-0.028710667,0.045814894,0.008552114,91.29133,-92.3724,-2.372056,STD
4787550143000,0.375011,-0.2186057112662,9.883265,-0.37759360487454,-0.034208454,0.040927973,0.004581489,91.19257,-92.36726,-2.3672569,STD
4787555218000,0.380086,-0.215383709517717,9.883265,-0.422701634399881,-0.036957346,0.038179077,0.004886922,91.091156,-87.63901,-2.3608994,STD
4787560148000,0.385016,-0.212253764962047,9.883265,-0.46652086308164,-0.030543262,0.040011674,0.0021380284,90.98147,-87.64345,-2.3561928,STD
4787565129000,0.389997,-0.209091441669595,9.883265,-0.510793394129073,-0.022907447,0.04550946,0.010079277,90.87327,-87.650734,-2.348511,STD
4787570082000,0.39495,-0.205946894938513,9.883265,-0.554817053289469,-0.03176499,0.039095376,-0.00061086525,90.769684,-87.65156,-2.3470857,STD
4787575138000,0.400006,-0.202736955856674,9.883265,-0.599756205462892,-0.03390302,0.04337143,0.00580322,90.66312,-87.659424,-2.3386912,STD
4787580107000,0.404975,-0.20033230273886,9.88170369450267,-0.605318415960849,-0.029321533,0.038789943,0.003970624,90.5692,-87.66577,-2.3319497,STD
4787585120000,0.409988,-0.198709185944959,9.87845739651092,-0.569609858358915,-0.035124753,0.045814894,0.008246681,90.47221,-87.675255,-2.321923,STD
4787590097000,0.414965,-0.197097725286023,9.8752344112516,-0.534157735641017,-0.025961773,0.041233405,0.009773844,90.36439,-87.68573,-2.3122706,STD
4787595184000,0.420052,-0.195450648659139,9.87194019264318,-0.497922061888566,-0.023823744,0.03573562,0.0036651916,90.256294,-87.694695,-2.30389,STD
4787600133000,0.425001,-0.193848253882954,9.86873533950909,-0.462669388524917,-0.032070424,0.028710667,0.008246681,90.146866,-87.70602,-2.2929685,STD
4787605168000,0.430036,-0.192218013895463,9.86547479484752,-0.426804120716073,-0.028710667,0.026267206,0.014049901,90.03913,-87.71577,-2.2836585,STD
4787610133000,0.435001,-0.188826437734673,9.86275612628037,-0.379286368571923,-0.02687807,0.035124753,0.007330383,89.92933,-87.72346,-2.2762299,STD
4787615113000,0.439981,-0.184106512067891,9.86039611539413,-0.322647253177792,-0.035430185,0.029321533,0.008857546,89.82579,-87.73477,-2.265081,STD
4787620096000,0.444964,-0.179383743072393,9.85803468281459,-0.265974017834628,-0.02443461,0.032070424,0.00580322,89.73187,-87.7428,-2.2570581,STD
4787625132000,0.45,-0.174610741936266,9.85564813365332,-0.208697996725221,-0.027488936,0.03023783,0.0076358155,89.642265,-87.75232,-2.2474694,STD
4787630107000,0.454975,-0.177291111917179,9.85207965406778,-0.152507773371423,-0.032986723,0.022602014,0.010995574,89.557106,-87.75233,-2.2474575,STD
4787635119000,0.459987,-0.186666821783377,9.847391703682,-0.0962535043842172,-0.026572637,0.029626964,0.01282817,89.469475,-87.752556,-2.2472744,STD
4787640079000,0.464947,-0.200603225913838,9.84269041715204,-0.0421031375387628,-0.038179077,0.02687807,0.01282817,89.40239,-87.75367,-2.2457538,STD
4787645131000,0.469999,-0.220037663146214,9.83783221751356,0.0113415620599518,-0.042455133,0.0290161,0.01160644,89.33302,-87.7549,-2.2440603,STD
4787650143000,0.475011,-0.236835751287549,9.84237329150198,0.0569536101757905,-0.04184427,0.027794369,0.018325957,89.26262,-87.7633,-2.2342837,STD
4787655223000,0.480091,-0.251257735753953,9.8567950701581,0.0954122486382411,-0.04184427,0.03268129,0.011911872,89.191216,-87.76681,-2.2288477,STD
4787660125000,0.484993,-0.256324445825841,9.8596122577028,0.123918983742802,-0.040011674,0.03756821,0.015882496,89.13046,-87.77169,-2.2210457,STD
4787665132000,0.49,-0.251480417378523,9.8499239984847,0.143295112706334,-0.06047566,0.029932396,0.016493361,89.0732,-87.77243,-2.2161787,STD
4787670088000,0.494956,-0.259045722235594,9.84093762921644,0.165287408485594,-0.055588737,0.030848695,0.016187929,89.02048,-87.77313,-2.2109532,STD
4787675144000,0.500012,-0.280312566648805,9.83243116681307,0.190807612898805,-0.06566802,0.034208454,0.017715093,88.97045,-87.77244,-2.205205,STD
4787680060000,0.504928,-0.298976079023735,9.82789899339454,0.212784810117555,-0.06719518,0.032375857,0.019242255,88.92521,-87.77122,-2.199251,STD
4787685105000,0.509973,-0.309794474903717,9.83871705038066,0.223603211645768,-0.08032878,0.040927973,0.019242255,88.877174,-87.76801,-2.1935112,STD
4787690068000,0.514936,-0.325406015054337,9.84683131658723,0.214849130653003,-0.07574729,0.04520403,0.018325957,88.83585,-87.76556,-2.186095,STD
4787695119000,0.519987,-0.348462477021926,9.85144270142993,0.177958798245949,-0.08093964,0.037873644,0.017104227,88.79656,-87.76058,-2.1790206,STD
4787700041000,0.524909,-0.36541540041514,9.85752754334554,0.145745203235653,-0.07696902,0.048563786,0.018325957,88.753235,-87.754524,-2.1728518,STD
4787705140000,0.530008,-0.370384071884412,9.86746509381359,0.120901830324583,-0.074830994,0.05100725,0.022296581,88.71543,-87.74754,-2.1663947,STD
4787710090000,0.534958,-0.372669460412351,9.87533994742526,0.0946068772530558,-0.07147124,0.06383542,0.024129177,88.667946,-87.73946,-2.1630163,STD
4787715707000,0.540575,-0.370028800376025,9.88062110205684,0.0602782708617152,-0.07880162,0.057421334,0.024129177,88.6263,-87.730865,-2.1591122,STD
4787720055000,0.544923,-0.367984721715183,9.88470913131412,0.0337052282073536,-0.07391469,0.055283304,0.026572637,88.57781,-87.72541,-2.1546416,STD
4787725114000,0.549982,-0.365606388241127,9.8894656492563,0.00278686970035836,-0.058948494,0.059864793,0.028099801,88.53024,-87.719894,-2.1505766,STD
4787730080000,0.554948,-0.366001922477275,9.88659129958106,-0.0410278848035728,-0.058948494,0.06169739,0.02565634,88.48505,-87.712944,-2.147084,STD
4787735075000,0.559943,-0.373564346949648,9.8639043420283,-0.120433395460438,-0.063224554,0.05589417,0.028710667,88.44161,-87.70883,-2.141729,STD
4787740072000,0.56494,-0.381129799419809,9.84120830060865,-0.199870700115564,-0.0580322,0.059253927,0.023823744,88.372734,-87.69959,-2.1433318,STD
4787745208000,0.570076,-0.387994483561662,9.83784203211499,-0.243647104208297,-0.06047566,0.06627888,0.025045475,88.30561,-87.69183,-2.1423135,STD
4787750075000,0.574943,-0.394212096350297,9.84095073787768,-0.273180755215767,-0.06383542,0.0571159,0.017104227,88.2434,-87.68111,-2.145227,STD
4787755172000,0.58004,-0.400723535097712,9.8442063518642,-0.304110079067231,-0.060170226,0.061391957,0.018936822,88.16401,-87.67988,-2.1459818,STD
4787760115000,0.584983,-0.407038238203162,9.8473636012139,-0.334104908927499,-0.058643065,0.070249505,0.021685716,88.0871,-87.676636,-2.148581,STD
4787765121000,0.589989,-0.413433424071233,9.8505610906423,-0.364482031784166,-0.062308256,0.0720821,0.017715093,88.01213,-87.67234,-2.1524322,STD
4787770114000,0.594982,-0.419812002385113,9.8537502765624,-0.394780268784433,-0.06047566,0.081855945,0.025350908,87.93339,-87.67298,-2.1521502,STD
4787775106000,0.599974,-0.41661969805947,9.85691394818653,-0.396276131301937,-0.05681047,0.07513642,0.025045475,87.857956,-87.66554,-2.1601372,STD
4787780104000,0.604972,-0.410301108391802,9.86007330569948,-0.388377899165704,-0.061391957,0.073303826,0.023518313,87.77948,-87.65964,-2.166099,STD
4787785080000,0.609948,-0.40401033164384,9.86321875647668,-0.380514433157322,-0.058643065,0.07880162,0.023518313,87.69068,-87.659874,-2.1732843,STD
4787790099000,0.614967,-0.39766519328009,9.86639138860104,-0.372583015171777,-0.061086524,0.08552113,0.028710667,87.603134,-87.66034,-2.1790855,STD
4787795146000,0.620014,-0.391284656654896,9.86958172020725,-0.364607349387149,-0.06383542,0.090713486,0.030543262,87.51557,-87.660446,-2.1855533,STD
4787800104000,0.624972,-0.385016635932147,9.87271579274611,-0.356772328392462,-0.06352998,0.09254608,0.024740042,87.42817,-87.66018,-2.1924722,STD
4787805156000,0.630024,-0.392600260743677,9.87051193563609,-0.338461856549641,-0.05955936,0.09315695,0.027794369,87.344986,-87.66116,-2.1992428,STD
4787810138000,0.635006,-0.406108655651189,9.86600904643262,-0.315947861902605,-0.073303826,0.10323623,0.033292156,87.25958,-87.659805,-2.2066247,STD
4787815109000,0.639977,-0.41577002336107,9.86278852551585,-0.291910893422154,-0.0729984,0.09743301,0.03481932,87.18239,-87.660774,-2.2117975,STD
4787820098000,0.644966,-0.422664163391852,9.86049043244673,-0.26663237837622,-0.06780604,0.105374254,0.032986723,87.09937,-87.6617,-2.2162285,STD
4787825106000,0.649974,-0.429584558916839,9.85818358736953,-0.241257593178779,-0.06383542,0.10354166,0.036651913,87.024864,-87.66174,-2.2200627,STD
4787830104000,0.654972,-0.436491135760666,9.85588134861238,-0.215933476482132,-0.061086524,0.112399206,0.032070424,86.946014,-87.65969,-2.2265956,STD
4787835107000,0.659975,-0.436244179655172,9.85024521400862,-0.196824017415948,-0.057421334,0.11881329,0.04184427,86.86928,-87.66319,-2.2277358,STD
4787840093000,0.664961,-0.425953247586207,9.83995460431034,-0.186533079974138,-0.0421497,0.12339478,0.048258353,86.79153,-87.66598,-2.2309244,STD
4787845210000,0.670078,-0.424071843909294,9.83672705950189,-0.171189947334529,-0.054061573,0.1301143,0.04642576,86.71887,-87.662994,-2.2353125,STD
4787850106000,0.674974,-0.428615696298091,9.83899879591046,-0.153014525917725,-0.06414085,0.1337795,0.04886922,86.64666,-87.66457,-2.2365105,STD
4787855113000,0.679981,-0.433262564948154,9.84132203614691,-0.134427039186937,-0.058643065,0.13591751,0.05681047,86.57012,-87.65662,-2.246842,STD
4787860116000,0.684984,-0.437905721300514,9.84364342038957,-0.115854401656653,-0.06047566,0.14905111,0.0571159,86.49045,-87.64646,-2.2582145,STD
4787865098000,0.689966,-0.442481805073314,9.84885447933024,-0.0994987778028569,-0.05497787,0.15515977,0.06047566,86.408646,-87.6371,-2.2691567,STD
4787870086000,0.694954,-0.447000699032258,9.8578924276795,-0.0859421261248699,-0.06719518,0.15210545,0.06536258,86.32686,-87.627365,-2.279087,STD
4787875084000,0.699952,-0.448582944072189,9.86640144341496,-0.0720335002027185,-0.067500606,0.15943582,0.06841691,86.246254,-87.61712,-2.2893472,STD
4787880107000,0.704975,-0.443685083078959,9.87374812111185,-0.0573399300087563,-0.070554934,0.16737708,0.067500606,86.16746,-87.606575,-2.2989273,STD
4787885084000,0.709952,-0.438832076078501,9.88102751886168,-0.0427809216760169,-0.07238753,0.17134771,0.06872234,86.09224,-87.59078,-2.3140843,STD
4787890080000,0.714948,-0.433960542428855,9.88833470615486,-0.0281663334440768,-0.07788532,0.17592919,0.06627888,86.01569,-87.57406,-2.3299484,STD
4787895095000,0.719963,-0.438491507839707,9.88530583543531,-0.0210374161566314,-0.06872234,0.17623462,0.06811147,85.94031,-87.56068,-2.3436456,STD
4787900138000,0.725006,-0.458139932418633,9.86565752369813,-0.0259495228142799,-0.06841691,0.17256944,0.070249505,85.86584,-87.54639,-2.3573534,STD
4787905166000,0.730034,-0.468232895759212,9.85350335315967,-0.0369754289926704,-0.06963864,0.18661933,0.0693332,85.79071,-87.532745,-2.369913,STD
4787910119000,0.734987,-0.465883755462559,9.85115416135103,-0.0557685857072108,-0.07391469,0.1881465,0.06841691,85.721245,-87.52017,-2.381319,STD
4787915098000,0.739966,-0.463522283720781,9.84879263782686,-0.0746603941630349,-0.070249505,0.18142697,0.06658431,85.64882,-87.504364,-2.3967957,STD
4787920063000,0.744931,-0.461167451987916,9.84643775445721,-0.0934990824504754,-0.06505715,0.19547687,0.06566802,85.57106,-87.489174,-2.411735,STD
4787925091000,0.749959,-0.456150960626634,9.84318926576271,-0.100041229447361,-0.0693332,0.18997909,0.06719518,85.50189,-87.474495,-2.4258018,STD
4787930073000,0.754941,-0.446908986325424,9.83856867186441,-0.0861782771633898,-0.069027774,0.19333886,0.06841691,85.4272,-87.46105,-2.4396904,STD
4787935081000,0.759949,-0.439065709694723,9.83978310962645,-0.0912883671655125,-0.070249505,0.18692477,0.06261369,85.3471,-87.45005,-2.4513462,STD
4787940107000,0.764975,-0.434371181576124,9.85386649790305,-0.138233680704574,-0.07941248,0.18448131,0.06658431,85.266,-87.44211,-2.4594386,STD
4787945095000,0.769963,-0.433488571479901,9.85904649141439,-0.177447058993548,-0.08307768,0.183565,0.067500606,85.18722,-87.43322,-2.4679673,STD
4787950104000,0.774972,-0.443011204995533,9.84000135364764,-0.196492311109677,-0.08002335,0.18325958,0.061391957,85.11009,-87.42389,-2.4770072,STD
4787955130000,0.779998,-0.446526599991312,9.8269984670335,-0.216661962939473,-0.080634214,0.1826487,0.056199603,85.02846,-87.41807,-2.4843614,STD
4787959998000,0.784866,-0.433025322528236,9.83149898214113,-0.239164077946713,-0.10048734,0.17348573,0.064751714,84.9504,-87.41361,-2.4891245,STD
4787964996000,0.789864,-0.418932728993818,9.83619652163718,-0.262651723096355,-0.093462385,0.17470746,0.06383542,84.86456,-87.4092,-2.4962246,STD
4787969990000,0.794858,-0.403639644632275,9.84129378703901,-0.288140205903858,-0.09682214,0.18753563,0.058643065,84.77917,-87.40408,-2.501848,STD
4787975000000,0.799868,-0.396620281198872,9.84760452045134,-0.319033288504937,-0.09315695,0.19058995,0.06261369,84.699036,-87.410965,-2.4981508,STD
4787980046000,0.804914,-0.410722097700987,9.85700591960508,-0.363689033808181,-0.09865474,0.19486602,0.061391957,84.61596,-87.41419,-2.4973972,STD
4787984985000,0.809853,-0.424524886385876,9.86620796289091,-0.407397857837654,-0.09468412,0.19364429,0.059864793,84.52962,-87.4248,-2.4907334,STD
4787989985000,0.814853,-0.438498148873109,9.87552365765284,-0.451646515490492,-0.09621128,0.20372356,0.06627888,84.43988,-87.43642,-2.482295,STD
4787994980000,0.819848,-0.446838136405694,9.88408287900356,-0.476965879679715,-0.08674286,0.22174409,0.07147124,84.3493,-87.4483,-2.4747388,STD
4787999990000,0.824858,-0.427324224611083,9.8889609430605,-0.408667231698017,-0.0720821,0.22907446,0.07422013,84.259964,-87.46141,-2.466176,STD
4788005077000,0.829945,-0.40973637875673,9.89180793568282,-0.348142951954968,-0.079107046,0.24037547,0.07666359,84.15468,-87.47999,-2.454686,STD
4788010100000,0.834968,-0.400318020186001,9.88709914977974,-0.319887856573666,-0.07788532,0.23335053,0.07544186,84.05369,-87.49916,-2.443631,STD
4788015077000,0.839945,-0.39773264013864,9.88241772302015,-0.295186499658887,-0.073303826,0.24556783,0.07574729,83.95318,-87.517975,-2.429998,STD
4788020113000,0.844981,-0.426594882368841,9.87760725304209,-0.285565750574506,-0.06383542,0.25045475,0.08246681,83.857895,-87.538124,-2.4151323,STD
4788025077000,0.849945,-0.451701594992761,9.8728921504681,-0.271360731718946,-0.05955936,0.25992316,0.08460484,83.765175,-87.56511,-2.39231,STD
4788030075000,0.854943,-0.460941016170254,9.86827234099025,-0.234402998770389,-0.049480084,0.25595254,0.08246681,83.67596,-87.592766,-2.3694324,STD
4788035065000,0.859933,-0.469029565578694,9.86481285422507,-0.199943165939127,-0.05589417,0.25289822,0.092240654,83.57951,-87.61933,-2.3457735,STD
4788040738000,0.865606,-0.466309845431017,9.87297190959151,-0.186344542481478,-0.048563786,0.26206118,0.09437868,83.48188,-87.643654,-2.3254673,STD
4788045098000,0.869966,-0.464219596912795,9.87924257438927,-0.175893282429415,-0.050701816,0.26175576,0.092240654,83.39373,-87.66579,-2.3054624,STD
4788050147000,0.875015,-0.461799031598919,9.88650417681217,-0.163790435639768,-0.05222898,0.25961772,0.09437868,83.304565,-87.68948,-2.2842243,STD
4788055214000,0.880082,-0.457960763060983,9.89053972516587,-0.143448433862856,-0.040927973,0.2565634,0.09468412,83.215385,-87.71657,-2.2597048,STD
4788060126000,0.884994,-0.44513481812233,9.87343857238935,-0.0707681028709443,-0.041233405,0.24862215,0.09773844,83.1293,-87.74374,-2.2345145,STD
4788065113000,0.889981,-0.43211303729801,9.85607630673453,0.00302196444515131,-0.03726278,0.2284636,0.09254608,83.047935,-87.77414,-2.2056115,STD
4788070099000,0.894967,-0.406543637873375,9.82605283559338,0.0787460162171514,-0.036651913,0.2098322,0.09437868,82.969444,-87.80633,-2.174781,STD
4788075057000,0.899925,-0.37990089545123,9.7949699359394,0.154233786258674,-0.03359759,0.1881465,0.08368854,82.89859,-87.83285,-2.1498814,STD
4788080104000,0.904972,-0.33656209952581,9.76903033133253,0.187155866503601,-0.04153884,0.17287487,0.08674286,82.841774,-87.86179,-2.1204073,STD
4788085055000,0.909923,-0.28912835952381,9.74531347619047,0.20612936547619,-0.042760566,0.15577064,0.09040806,82.79244,-87.88749,-2.0946043,STD
4788090087000,0.914955,-0.258704320992668,9.74998907257003,0.196854784926678,-0.05100725,0.15363261,0.09682214,82.74664,-87.91412,-2.0648134,STD
4788095153000,0.920021,-0.233620792036097,9.7636707965783,0.17861222036097,-0.06627888,0.13836098,0.09040806,82.7102,-87.93669,-2.0385618,STD
4788100153000,0.925021,-0.208864052047377,9.77717427467569,0.160607320473773,-0.08307768,0.14385876,0.10354166,82.67082,-87.969376,-2.0009074,STD
4788105082000,0.92995,-0.184458857766497,9.79048600338409,0.142858090164975,-0.09101892,0.15485434,0.113926366,82.63488,-87.99771,-1.9669564,STD
4788110132000,0.935,-0.185772816918711,9.79439516600621,0.0724799280218486,-0.09162979,0.17959438,0.118202426,82.60094,-88.03096,-1.9279337,STD
4788115106000,0.939974,-0.211281563327621,9.78929384609618,-0.0448603171789654,-0.09101892,0.1966986,0.119729586,82.56659,-88.06424,-1.8881205,STD
4788120099000,0.944967,-0.238605359931068,9.79055321033973,-0.0923041977075332,-0.093767814,0.20616703,0.12705997,82.52271,-88.1059,-1.8407351,STD
4788125084000,0.949952,-0.266812384771049,9.79525398434269,-0.101706540957164,-0.08399397,0.2171626,0.12705997,82.474236,-88.1452,-1.796552,STD
4788130102000,0.95497,-0.285745493452591,9.79573676365361,-0.10400852978886,-0.077579886,0.21624629,0.12980886,82.41428,-88.188156,-1.7529271,STD
4788135100000,0.959968,-0.298718763467498,9.79357473411031,-0.101846316012468,-0.06627888,0.20830505,0.1255328,82.354004,-88.229004,-1.7126892,STD
4788140105000,0.964973,-0.311710203328364,9.79140967651443,-0.0996810739254642,-0.060170226,0.19792034,0.124005646,82.28194,-88.252426,-1.6894289,STD
4788145138000,0.970006,-0.324774322573068,9.78923250670823,-0.0975037185960157,-0.061086524,0.17440203,0.11759156,82.21685,-88.27314,-1.6693892,STD
4788150062000,0.97493,-0.337699948496933,9.78582249386503,-0.0999542450613497,-0.054061573,0.16340645,0.10903945,82.15201,-88.29338,-1.651017,STD
4788155240000,0.980108,-0.351960503976227,9.77631526495399,-0.12372183885046,-0.04917465,0.13744467,0.10629055,82.09895,-88.3128,-1.6332785,STD
4788160132000,0.985,-0.363346320545474,9.7694877028143,-0.141362740986635,-0.062308256,0.12461651,0.10293079,82.04878,-88.324905,-1.6224225,STD
4788165076000,0.989944,-0.358201509157883,9.77977754047593,-0.120783484691948,-0.06291912,0.12339478,0.10415252,82.00324,-88.33849,-1.6112968,STD
4788170096000,0.994964,-0.35312938187156,9.78992187522936,-0.107769832458716,-0.06566802,0.12950343,0.103847094,81.957146,-88.34896,-1.6032597,STD
4788175081000,0.999949,-0.348519005464027,9.79914231994206,-0.116990570831482,-0.061086524,0.116675265,0.093462385,81.91735,-88.35718,-1.5979319,STD
4788180120000,1.004988,-0.342940533001555,9.80847454510109,-0.122673982048989,-0.048258353,0.121256754,0.08979719,81.8778,-88.36287,-1.5956923,STD
4788185101000,1.009969,-0.333667196920684,9.81774807484448,-0.113400641126555,-0.053145275,0.11362094,0.09865474,81.8458,-88.36828,-1.5927202,STD
4788190086000,1.014954,-0.324980464976469,9.82769689476319,-0.104713905240012,-0.063224554,0.12339478,0.10170906,81.79906,-88.37554,-1.5873476,STD
4788195113000,1.019981,-0.320159930868129,9.84215826554521,-0.0998933731450886,-0.070249505,0.11789699,0.09987647,81.75935,-88.38363,-1.5809538,STD
4788200091000,1.024959,-0.317957947779758,9.85357235016835,-0.097050282832244,-0.06261369,0.122783914,0.10354166,81.7154,-88.3949,-1.5713162,STD
4788205099000,1.029967,-0.33220650624282,9.84644817508418,-0.106549324122004,-0.058337633,0.13927728,0.11148291,81.670204,-88.40608,-1.5611848,STD
4788210150000,1.035018,-0.346577406561695,9.83926282996633,-0.116129926668845,-0.057421334,0.13133603,0.111177474,81.62588,-88.4204,-1.5469712,STD
4788215082000,1.03995,-0.360609732907506,9.83224676936027,-0.125484813178649,-0.054061573,0.12980886,0.122783914,81.57562,-88.4403,-1.5275786,STD
4788220081000,1.044949,-0.373935148971378,9.82668335039562,-0.135394367832373,-0.063224554,0.14202617,0.12492194,81.52435,-88.4564,-1.5114638,STD
4788225084000,1.049952,-0.378615497745433,9.83604375471329,-0.149435423928885,-0.053145275,0.14905111,0.13255776,81.47556,-88.47811,-1.4910041,STD
4788230317000,1.055185,-0.383517406539148,9.84451189157582,-0.159689698130426,-0.044898596,0.17134771,0.13255776,81.417755,-88.49479,-1.4757521,STD
4788235073000,1.059941,-0.388031515153617,9.83999816947473,-0.128090977423191,-0.058337633,0.16279559,0.1337795,81.3674,-88.51283,-1.4584439,STD
4788240336000,1.065204,-0.393330812498659,9.83810791575747,-0.0984949959878376,-0.05222898,0.17134771,0.13805555,81.30485,-88.532906,-1.4411714,STD
4788245152000,1.07002,-0.401580118311572,9.87110496673225,-0.131492243358254,-0.04153884,0.17134771,0.1386664,81.24787,-88.55132,-1.4250336,STD
4788250080000,1.074948,-0.410021268445716,9.90486939098551,-0.165256868574495,-0.039095376,0.17379116,0.13622294,81.19722,-88.56871,-1.4093432,STD
4788255160000,1.080028,-0.374140559645673,9.94212452010123,-0.202512217069989,-0.051618114,0.160963,0.14019357,81.151474,-88.58739,-1.3920938,STD
4788260136000,1.085004,-0.327752759922126,9.97923454287939,-0.23962245781758,-0.05497787,0.15332718,0.15302174,81.10411,-88.60797,-1.3734504,STD
4788265101000,1.089969,-0.319785633896694,9.98110722287948,-0.245245967853597,-0.04917465,0.16707164,0.15057829,81.04658,-88.63009,-1.3534714,STD
4788269999000,1.094867,-0.324740452145347,9.9711979175029,-0.240291165126228,-0.052534413,0.16340645,0.1459968,80.996796,-88.653885,-1.3311629,STD
4788275087000,1.099955,-0.321730955132285,9.98109726821319,-0.247181129475652,-0.040011674,0.16035213,0.14996742,80.9331,-88.68093,-1.3070135,STD
4788280089000,1.104957,-0.317139002137653,9.99487290663344,-0.256365011490606,-0.043982297,0.16982053,0.15607607,80.86759,-88.70574,-1.2841711,STD
4788285076000,1.109944,-0.304526637647931,9.98667818587911,-0.270081756357574,-0.042455133,0.172264,0.1591304,80.80627,-88.72996,-1.2622509,STD
4788290089000,1.114957,-0.28928099400868,9.97143276511061,-0.285327405303271,-0.022296581,0.17195857,0.15271631,80.743706,-88.752716,-1.2419435,STD
4788295113000,1.119981,-0.291437712007105,9.96118882060391,-0.324505756269982,-0.027794369,0.17562376,0.14630222,80.67875,-88.788246,-1.2077932,STD
4788300041000,1.124909,-0.296094764401026,9.9518745407539,-0.36641916946122,-0.02565634,0.18478674,0.15088372,80.61293,-88.8244,-1.1733499,STD
4788305099000,1.129967,-0.292862591855235,9.96637571677506,-0.407652092936504,-0.016798794,0.19150625,0.15851954,80.54557,-88.86,-1.1391286,STD
4788310141000,1.135009,-0.288068243841533,9.98555311383607,-0.448404043543663,-0.021685716,0.20891592,0.1600467,80.4732,-88.89348,-1.1063426,STD
4788315104000,1.139972,-0.283349015521025,10.0044300320459,-0.488517476876334,-0.007330383,0.22266038,0.16676621,80.39406,-91.066795,-1.0666487,STD
4788320087000,1.144955,-0.27861076955667,10.0233830208509,-0.528792560151914,0.004581489,0.2406809,0.17867808,80.30953,-91.027534,-1.0261438,WAL
4788325095000,1.149963,-0.304467722077059,10.0307364240661,-0.585961808400157,0.01740966,0.2666427,0.17654006,80.213806,-90.99288,-0.98884016,WAL
4788330097000,1.154965,-0.33725886966947,10.0354207241835,-0.646859666506943,0.039095376,0.2996294,0.18661933,80.1119,-90.95486,-0.9457766,WAL
4788335089000,1.159957,-0.403582802599282,10.0401691842946,-0.690208560187587,0.059253927,0.31337386,0.1853976,79.99667,-90.92742,-0.9081082,WAL
4788340094000,1.164962,-0.480105522071443,10.0449519507084,-0.728469892456595,0.077579886,0.35246924,0.18692477,79.86591,-90.9032,-0.8677284,WAL
4788345157000,1.170025,-0.529062717775,10.0667825623148,-0.747770345111111,0.116675265,0.410196,0.204029,79.71932,-90.8893,-0.82474315,WAL
4788350127000,1.174995,-0.568726672525,10.0932252632407,-0.760991649555556,0.14630222,0.45723262,0.21868975,79.56599,-90.886635,-0.7827692,WAL
4788355285000,1.180153,-0.587502108043011,10.0736792568817,-0.732975819569893,0.17287487,0.49388456,0.20891592,79.39771,-90.91123,-0.75165135,WAL
4788360105000,1.184973,-0.592465567827957,10.0290082224731,-0.68334122172043,0.22632557,0.51923543,0.19608775,79.22088,-90.95421,-0.71770257,WAL
4788365951000,1.190819,-0.55057601671746,10.0346143028903,-0.657420660096343,0.25167647,0.54336464,0.17379116,79.03486,-91.0165,-0.6941212,WAL
4788370100000,1.194968,-0.511513707888321,10.0502391301612,-0.645701937672041,0.2883284,0.56321776,0.14905111,78.84446,-91.10356,-0.67484677,WAL
4788375127000,1.199995,-0.443697027184725,10.0692211500888,-0.638252455390764,0.31642818,0.5723807,0.13744467,78.6654,-91.20462,-0.6636274,WAL
4788380108000,1.204976,-0.368382916200908,10.0880495660154,-0.633545341578844,0.35338554,0.5900958,0.12492194,78.479576,-91.32408,-0.658945,WAL
4788385101000,1.209969,-0.308093138578869,10.0847861586682,-0.638181231652716,0.39400807,0.6105598,0.112399206,78.29233,-91.45106,-0.6516106,WAL
4788390122000,1.21499,-0.254426680684524,10.0713697403274,-0.647125667764137,0.4334089,0.61086524,0.09101892,78.10704,-91.591,-0.64964515,WAL
4788395100000,1.219968,-0.194736807463409,10.0463203710645,-0.659324406917974,0.47769663,0.6160576,0.069027774,77.91464,-91.74122,-0.64197946,WAL
4788400142000,1.22501,-0.128640004666737,10.0107295954512,-0.674577505454354,0.5311473,0.6365216,0.0580322,77.71892,-91.90519,-0.63626224,WAL
4788405093000,1.229961,-0.0676651383495661,9.98742042376483,-0.701484564884009,0.5748242,0.655153,0.05131268,77.5208,-92.07917,-0.6280297,WAL
4788410121000,1.234989,-0.00797586896759341,9.97036644855676,-0.735592693377014,0.6264423,0.6722572,0.027183503,77.318,-92.270615,-0.62664145,WAL
4788415098000,1.239966,0.0522207005031447,9.95204895283019,-0.778100462578616,0.6933321,0.6936375,0.013133603,77.09106,-92.46172,-0.60449326,WAL
4788420079000,1.244947,0.114292364792887,9.93135852049447,-0.834999502580785,0.743423,0.7031059,-0.003970624,76.863625,-92.66269,-0.58916366,WAL
4788425108000,1.249976,0.174021415265447,9.94687974730598,-0.920120471655956,0.80939645,0.7247916,-0.014966198,76.62161,-92.890205,-0.566611,WAL
4788430120000,1.254988,0.230965301576866,9.99433295699456,-1.02926295304004,0.8762862,0.74220127,-0.03268129,76.37886,-93.130455,-0.5496354,WAL
4788435822000,1.26069,0.302971544953952,10.099792678069,-1.11389190349155,0.94042706,0.7452556,-0.037873644,76.12796,-93.389465,-0.513246,WAL
4788440124000,1.264992,0.361345392096954,10.2082008140876,-1.15558751792329,0.9663888,0.7504479,-0.054367006,75.87186,-93.65419,-0.4838136,WAL
4788445121000,1.269989,0.432286140755842,10.3629515962112,-1.23988021066449,1.0366384,0.7476991,-0.06994407,75.60629,-93.96325,-0.44452342,WAL
4788450142000,1.27501,0.506270409177806,10.5432887369459,-1.35548063610924,1.0977248,0.75716746,-0.08735373,75.33608,-94.27283,-0.40900037,WAL
4788455116000,1.279984,0.579520073127161,10.7449638001345,-1.46362532036112,1.1594223,0.754724,-0.106595986,75.0615,-94.60214,-0.36818555,WAL
4788460165000,1.285033,0.653824022041875,10.9771632464944,-1.56579318344218,1.212262,0.7593055,-0.13072516,74.782196,-94.94075,-0.33204466,WAL
4788465092000,1.28996,0.704149233744426,11.1875841051134,-1.63814178503937,1.2748758,0.77366084,-0.14782938,74.48709,-95.31071,-0.28699544,WAL
4788470079000,1.294947,0.717741730167916,11.3733487906271,-1.66532682519685,1.3457361,0.7816021,-0.17684549,74.19201,-95.69125,-0.2506329,WAL
4788475085000,1.299953,0.715545302056388,11.5334475287855,-1.6892055966877,1.4095715,0.79168135,-0.19394971,73.88095,-96.0939,-0.20319858,WAL
4788480101000,1.304969,0.668189955139984,11.6186868931388,-1.70341219037855,1.4566082,0.78893244,-0.23243423,73.57024,-96.50374,-0.16838832,WAL
4788485040000,1.309908,0.619456288379844,11.6805508109654,-1.72791242036288,1.4810427,0.77732605,-0.27488935,73.26129,-96.9175,-0.124333434,WAL
4788490131000,1.314999,0.561763129540479,11.6661277333596,-1.79041334369392,1.4984524,0.7715228,-0.3100141,72.9508,-97.33341,-0.0871874,WAL
4788495161000,1.320029,0.507349617449818,11.633200848882,-1.88120457878315,1.5005904,0.7703011,-0.3585779,72.6455,-97.74346,-0.06486632,WAL
4788500155000,1.325023,0.462582165285491,11.5337176680187,-2.07519693728549,1.5115861,0.7874053,-0.40408736,72.335785,-98.15153,-0.048709504,WAL
4788505061000,1.329929,0.420382850673907,11.415269950503,-2.26510964663046,1.5030339,0.81214535,-0.4437936,72.02096,-98.55535,-0.045070715,WAL
4788510125000,1.334993,0.381526575356539,11.2382576118579,-2.45939102321731,1.5033394,0.8258898,-0.48472157,71.703064,-98.9556,-0.051006153,WAL
4788515353000,1.340221,0.344547949969914,11.0538549867206,-2.65470448066189,1.5167783,0.84513205,-0.50518554,71.36418,-99.38279,-0.055502128,WAL
4788520060000,1.344928,0.342209636991389,10.8714666720614,-2.77863516618944,1.543351,0.88025683,-0.528093,71.01595,-99.804344,-0.06668314,WAL
4788525064000,1.349932,0.33972378227617,10.6775701081025,-2.91038556992427,1.5836681,0.90133166,-0.5390886,70.643845,-100.26203,-0.07457885,WAL
4788530106000,1.354974,0.33721905016703,10.4822011082062,-3.04313647632535,1.6245961,0.9049969,-0.54153204,70.26743,-100.71742,-0.080874585,WAL
4788535069000,1.359937,0.331002990274698,10.2995235019479,-3.12900620212766,1.6618589,0.9233228,-0.54183745,69.88937,-101.1793,-0.08500174,WAL
4788540068000,1.364936,0.307092060701229,10.1608398267905,-3.00466937234043,1.6850718,0.9272934,-0.52870387,69.516174,-101.638405,-0.08181203,WAL
4788545108000,1.369976,0.280476720640482,10.0349753889273,-2.85654045202803,1.6951511,0.93401295,-0.5177083,69.10591,-102.14489,-0.065202706,WAL
4788550144000,1.375012,0.242400102639889,9.97310112385276,-2.60428287330504,1.6719382,0.9239337,-0.5198463,68.70067,-102.63717,-0.04448502,WAL
4788555090000,1.379958,0.196419850693506,9.91573433162208,-2.3786346346573,1.6203201,0.9184359,-0.5186246,68.324425,-103.11577,-0.02726612,WAL
4788560138000,1.385006,0.100629356412681,9.87654743006395,-2.27413589709088,1.5558738,0.9034697,-0.51893,67.95424,-103.57333,-0.0077727544,WAL
4788565055000,1.389923,0.00732470895253536,9.83837746275781,-2.17234899284878,1.4987578,0.89858276,-0.52442783,67.61548,-103.977,0.0013523776,WAL
4788570097000,1.394965,-0.0794752893039836,9.7757745734783,-2.14846335292755,1.4269812,0.86315256,-0.52870387,67.29034,-104.34936,0.011430322,WAL
4788575086000,1.399954,-0.164634700458961,9.71190505846181,-2.13143148225648,1.3671165,0.8414669,-0.54000485,66.96299,-104.700745,0.02215884,WAL
4788580108000,1.404976,-0.257008432257247,9.58624562206547,-2.19879810966604,1.2977833,0.83169305,-0.5552765,66.66604,-105.01064,0.007941802,WAL
4788585038000,1.409906,-0.350676003391381,9.43533643657004,-2.30287305588008,1.2324207,0.86070913,-0.5525276,66.366066,-105.298,0.00055324537,WAL
4788590080000,1.414948,-0.4229444731732,9.29004677261336,-2.35103509449147,1.1817188,0.94989544,-0.5726862,66.05641,-105.561035,-0.021940274,WAL
4788595135000,1.420003,-0.491615471007613,9.14583765421533,-2.38994869912998,1.1099422,0.9605856,-0.58276546,65.76315,-105.79423,-0.041109204,WAL
4788600144000,1.425012,-0.559661569554116,9.00294082453071,-2.42850819381531,1.0280862,0.96852684,-0.5946773,65.451324,-106.038635,-0.0787265,WAL
4788605037000,1.429905,-0.626131835113717,8.86335324464514,-2.4661747155752,0.95172805,1.0054842,-0.61819565,65.129005,-106.25965,-0.11500849,WAL
4788610122000,1.43499,-0.688637231731929,8.69501777295163,-2.52460997301744,0.88697636,1.0461067,-0.63224554,64.805725,-106.45686,-0.14704219,WAL
4788615110000,1.439978,-0.746272403652517,8.51687280552813,-2.59272432181639,0.8228355,1.07665,-0.6536258,64.47544,-106.62953,-0.18158428,WAL
4788620101000,1.444969,-0.825172675247525,8.40501145428072,-2.67349645534848,0.7651087,1.0977248,-0.66981375,64.14132,-106.81755,-0.23581803,WAL
4788625120000,1.449988,-0.90915520470297,8.30703133721607,-2.75747896044457,0.6948592,1.0916162,-0.68691796,63.80749,-106.98142,-0.291343,WAL
4788630107000,1.454975,-0.961092949877457,8.27500848002549,-2.8629878290476,0.6444628,1.0861185,-0.70738196,63.4688,-107.15873,-0.3601736,WAL
4788635087000,1.459955,-1.00317250965394,8.26331972359198,-2.97519993963041,0.59773165,1.0601566,-0.70402217,63.140987,-107.315254,-0.42456505,WAL
4788640143000,1.465011,-1.04589424745111,8.25145258453017,-3.08912452418999,0.58276546,1.033584,-0.7098254,62.811497,-107.49038,-0.52043676,WAL
4788645259000,1.470127,-1.08912296789618,8.2394446170776,-3.20440106188912,0.5357288,1.0051788,-0.73884153,62.490562,-107.64198,-0.61883575,WAL
4788650153000,1.475021,-1.07677257967283,8.26061338061158,-3.27073095504229,0.516792,0.9639453,-0.7648033,62.186447,-107.803764,-0.72467333,WAL
4788655123000,1.479991,-1.0413813662701,8.29600482498373,-3.31939394853611,0.4877759,0.92179567,-0.77518797,61.891785,-107.94845,-0.8309814,WAL
4788660103000,1.484971,-0.967517463800905,8.33445895022624,-3.35320108978668,0.4636467,0.8891144,-0.7883216,61.586613,-108.12596,-0.956054,WAL
4788665103000,1.489971,-0.859182546757164,8.3757296892911,-3.37383629771601,0.42943826,0.852157,-0.79412484,61.295998,-108.291145,-1.0801644,WAL
4788670082000,1.49495,-0.786445129436047,8.41715309370155,-3.3310658871124,0.4120286,0.82436264,-0.7901542,61.006474,-108.46531,-1.2071271,WAL
4788675095000,1.499963,-0.73062126494186,8.45902087306202,-3.25663400949612,0.39920044,0.799928,-0.79381937,60.727024,-108.62995,-1.3345057,WAL
4788680103000,1.504971,-0.637344907876992,8.53195060002043,-3.16793488328566,0.37873647,0.7761043,-0.79412484,60.452503,-108.791916,-1.4445398,WAL
4788685096000,1.509964,-0.520098499361463,8.6247707658868,-3.07022950459747,0.35430184,0.75228053,-0.78954333,60.186993,-108.94714,-1.5504439,WAL
4788690098000,1.514966,-0.454293158535742,8.67584378065758,-2.99289015418641,0.32742378,0.72082096,-0.7800749,59.93974,-109.08711,-1.6539482,WAL
4788695114000,1.519982,-0.416349025289297,8.70430170601303,-2.92648798167457,0.31245756,0.7098254,-0.7528914,59.697754,-109.22125,-1.7461245,WAL
4788700141000,1.525009,-0.383409132584829,8.73639900977083,-2.88295579188133,0.28344148,0.6994407,-0.7293731,59.472153,-109.324524,-1.8228341,WAL
4788705068000,1.529936,-0.35407048875111,8.76992913101794,-2.85361720931782,0.22999077,0.6979135,-0.70249504,59.25239,-109.4145,-1.8872408,WAL
4788710094000,1.534962,-0.298266330023901,8.80627767608854,-2.82735056557207,0.19486602,0.6768387,-0.6774496,59.04382,-109.49518,-1.9632951,WAL
4788715106000,1.539974,-0.198507509107347,8.84618096695417,-2.8073986597215,0.1469131,0.66706485,-0.6365216,58.839165,-109.555336,-2.022938,WAL
4788720093000,1.544961,-0.1284466314939,8.8507454243595,-2.80511640123017,0.099571034,0.66798115,-0.59131753,58.64505,-109.59792,-2.0690475,WAL
4788725128000,1.549996,-0.0941303903786092,8.81152709475396,-2.82472582198048,0.052839845,0.6429357,-0.5503896,58.466568,-109.62615,-2.1059055,WAL
4788730093000,1.554961,-0.0809995888771628,8.76958333706147,-2.84789037486856,0.00580322,0.6374379,-0.5320636,58.282173,-109.643036,-2.1320624,WAL
4788735098000,1.559966,-0.0901635137457222,8.72376373664086,-2.87538208727655,-0.017715093,0.61758476,-0.48472157,58.11751,-109.651924,-2.141421,WAL
4788740072000,1.56494,-0.110556916943009,8.66172656901841,-2.91437896412657,-0.06719518,0.58184916,-0.43279803,57.95811,-109.64616,-2.1399722,WAL
4788745123000,1.569991,-0.149604745597029,8.5719163803681,-2.97295066674201,-0.108123146,0.5513059,-0.3903429,57.808586,-109.636024,-2.1289284,WAL
4788750160000,1.575028,-0.188544344276558,8.48235512116564,-3.03136002450759,-0.12461651,0.5155703,-0.3640757,57.66622,-109.6303,-2.1258254,WAL
4788755135000,1.580003,-0.256908478807885,8.43461631132602,-3.08896278060257,-0.14630222,0.46883908,-0.3399465,57.540985,-109.61162,-2.1154313,WAL
4788760117000,1.584985,-0.327894756436675,8.3902499196578,-3.14663918242514,-0.16126843,0.41386122,-0.32467487,57.431175,-109.59106,-2.1043572,WAL
4788765101000,1.589969,-0.390859870272324,8.410436103441,-3.27942455839139,-0.15668693,0.35185838,-0.3032946,57.332558,-109.58666,-2.0935974,WAL
4788770035000,1.594903,-0.450710368315389,8.45033671669833,-3.43403827599747,-0.1563815,0.30757064,-0.29657507,57.245583,-109.577774,-2.0860775,WAL
4788775128000,1.599996,-0.488702835947102,8.44388527930795,-3.45308204633589,-0.15974127,0.26358834,-0.28313604,57.164604,-109.5911,-2.1134036,WAL
4788780053000,1.604921,-0.521531763534851,8.42981545977926,-3.44839220443472,-0.16737708,0.19333886,-0.27305678,57.10421,-109.60335,-2.1451411,WAL
4788785102000,1.60997,-0.548020970332436,8.39919474090791,-3.48314465917889,-0.17348573,0.1459968,-0.26175576,57.04174,-109.63442,-2.176794,WAL
4788790092000,1.61496,-0.572908531446923,8.36601152243729,-3.52462389882823,-0.18661933,0.1020145,-0.25534168,56.998676,-109.66052,-2.2119832,WAL
4788795114000,1.619982,-0.587025362964554,8.33393490633727,-3.58602030378088,-0.19730948,0.081855945,-0.2406809,56.96648,-109.683754,-2.2472456,WAL
4788800142000,1.62501,-0.592197452158969,8.30290172309345,-3.66360174970999,-0.21960606,0.0571159,-0.21746802,56.949398,-109.698814,-2.2816746,WAL
4788805099000,1.629967,-0.600511965087179,8.2597643745641,-3.76131984644103,-0.23243423,0.044898596,-0.20005837,56.914806,-109.72241,-2.3379185,WAL
4788810090000,1.634958,-0.610316643815385,8.21074098092308,-3.86917141483077,-0.25503623,0.051618114,-0.17562376,56.88533,-109.73535,-2.3845794,WAL
4788815112000,1.63998,-0.606039083036009,8.18055460759002,-3.99403216159371,-0.2706133,0.06261369,-0.15454891,56.850117,-109.75633,-2.425226,WAL
4788820097000,1.644965,-0.596771811755799,8.1573864293895,-4.12377391113268,-0.2929099,0.092240654,-0.14049901,56.81039,-109.76788,-2.457258,WAL
4788825117000,1.649985,-0.634207093248639,8.1249728784029,-4.24680092994555,-0.3118467,0.10323623,-0.124311075,56.763985,-109.79329,-2.480398,WAL
4788830115000,1.654983,-0.693643840127997,8.08839662737606,-4.36567460511988,-0.3295618,0.15088372,-0.10629055,56.701992,-109.81158,-2.4918563,WAL
4788835089000,1.659957,-0.806991109433474,8.08763678537553,-4.50124046184358,-0.33536503,0.20219639,-0.10048734,56.622505,-109.8491,-2.4946725,WAL
4788840124000,1.664992,-0.960833608916099,8.11258428343537,-4.65092501603863,-0.35918877,0.24312437,-0.093767814,56.535824,-109.8751,-2.4883382,WAL
4788845102000,1.66997,-1.11878869259507,8.12745644609685,-4.77593576951577,-0.38759398,0.29046643,-0.08277224,56.41545,-109.91835,-2.4912817,WAL
4788850066000,1.674934,-1.29247714444502,8.1152248721762,-4.83709363911902,-0.39522982,0.33658674,-0.07269296,56.28651,-109.959755,-2.4879367,WAL
4788855132000,1.68,-1.4697345370864,8.10274196454485,-4.89950817727577,-0.41538838,0.37782016,-0.0720821,56.138298,-110.01312,-2.5044985,WAL
4788860113000,1.684981,-1.64401781240159,8.09046850167241,-4.96087549163794,-0.43096542,0.42241332,-0.083383106,55.978638,-110.064735,-2.5154977,WAL
4788865084000,1.689952,-1.80233707092147,8.0841349962307,-5.01088330805826,-0.44868052,0.44990227,-0.09560041,55.814648,-110.109344,-2.5231068,WAL
4788870098000,1.694966,-1.93588672057381,8.08764934673937,-5.04251338007758,-0.46028697,0.4810564,-0.11575896,55.638084,-110.15153,-2.5300612,WAL
4788875234000,1.700102,-2.07268588304179,8.09124920797043,-5.07491307092147,-0.45845437,0.5164866,-0.14263703,55.45596,-110.20335,-2.57911,WAL
4788880081000,1.704949,-2.2283530734499,8.0956919451298,-5.07870297230208,-0.441961,0.5338962,-0.16707164,55.27097,-110.25692,-2.6300526,WAL
4788885080000,1.709948,-2.40296484009869,8.10082742287063,-5.0684318023171,-0.42424592,0.5458081,-0.18692477,55.07819,-110.31243,-2.6822743,WAL
4788890099000,1.714967,-2.49913687179144,8.12337223596257,-5.05543351925134,-0.40408736,0.548557,-0.20861048,54.88329,-110.376,-2.7653499,WAL
4788895103000,1.719971,-2.57235668806341,8.15082972679526,-5.04170482161956,-0.38026363,0.5357288,-0.24709499,54.688126,-110.447464,-2.8563466,WAL
4788900060000,1.724928,-2.58585007517624,8.19572003437211,-4.99165467257524,-0.34666604,0.5308419,-0.28038713,54.49106,-110.520584,-2.9757059,WAL
4788905081000,1.729949,-2.57182354588458,8.24948835597258,-4.92386001696728,-0.3231477,0.51007247,-0.3191771,54.299454,-110.6002,-3.106752,WAL
4788910122000,1.73499,-2.55774114513588,8.30347085132967,-4.85579531692353,-0.29718593,0.48716503,-0.34880406,54.109257,-110.68309,-3.2551694,WAL
4788915124000,1.739992,-2.54376769372843,8.35703570786135,-4.78825720352958,-0.29352075,0.46609017,-0.38453966,53.92164,-110.76912,-3.4138541,WAL
4788920078000,1.744946,-2.50215486764899,8.44090412383857,-4.71887425077428,-0.28008172,0.44715336,-0.40958515,53.739677,-110.86661,-3.575739,WAL
4788925127000,1.749995,-2.4386217677053,8.54981823284843,-4.64626484476771,-0.28191432,0.44776422,-0.42638394,53.557312,-110.962715,-3.741117,WAL
4788930089000,1.754957,-2.35427755742447,8.65905047209128,-4.58619356922006,-0.28527406,0.44593164,-0.44104472,53.390068,-111.037224,-3.9139435,WAL
4788935085000,1.759953,-2.2415063724234,8.77182149651811,-4.54005989289694,-0.2837469,0.45540005,-0.47678033,53.217896,-111.11521,-4.0906377,WAL
4788940148000,1.765016,-2.13908855513688,8.87648920611916,-4.49550263280193,-0.27091873,0.46578476,-0.49602258,53.0574,-111.178474,-4.2523313,WAL
4788945124000,1.769992,-2.04700314785829,8.97241142190016,-4.45329689792271,-0.25289822,0.4822781,-0.5012149,52.892887,-111.2452,-4.412703,WAL
4788950118000,1.774986,-1.9579160940547,9.06676474435196,-4.42023729667063,-0.24923302,0.46883908,-0.48716503,52.73466,-111.28869,-4.551274,WAL
4788955145000,1.780013,-1.90067160476615,9.14309076327784,-4.47748168633571,-0.22296582,0.46395215,-0.49571714,52.56954,-111.3454,-4.689514,WAL
4788960169000,1.785037,-1.83236917719926,9.22048540692057,-4.54977265102183,-0.21960606,0.47067168,-0.50946164,52.408897,-111.37833,-4.805976,WAL
4788975082000,1.79995,-1.27515653427775,9.48582528843474,-5.24628836809104,-0.16401732,0.47952923,-0.42394048,51.947178,-111.518974,-5.082407,WAL
4788980064000,1.804932,-1.08900798019508,9.57446763334882,-5.47897403176962,-0.17195857,0.49571714,-0.37659842,51.797417,-111.56359,-5.145655,WAL
4788985114000,1.809982,-0.990255826276867,9.58590776666667,-5.69959355695811,-0.16768251,0.516792,-0.3481932,51.63776,-111.60627,-5.16658,WAL
4788990128000,1.814996,-0.920284068065574,9.5727878,-5.91388209901639,-0.1695151,0.54641896,-0.30390546,51.480076,-111.63987,-5.1665196,WAL
4788995088000,1.819956,-0.876503202215744,9.53329456101624,-6.1177765091212,-0.15668693,0.5684101,-0.2519819,51.280296,-111.72737,-5.1154647,WAL
4789000155000,1.825023,-0.851239923163265,9.47266308381924,-6.31988264657435,-0.12644911,0.6197228,-0.21105394,51.070477,-111.8147,-5.049669,WAL
4789005089000,1.829957,-0.834911029352631,9.49468791660752,-6.40028676155835,-0.099265605,0.6780604,-0.16920967,50.83489,-111.932175,-4.955405,WAL
4789010116000,1.834984,-0.822708199645138,9.56058300283889,-6.41981130234209,-0.058948494,0.7489208,-0.13836098,50.588177,-112.05677,-4.8476806,WAL
4789015108000,1.839976,-0.810590330956098,9.62601930092264,-6.43919990540404,-0.02443461,0.8185594,-0.1133155,50.299946,-112.20244,-4.7264876,WAL
4789020106000,1.844974,-0.798457897521038,9.69153424840312,-6.45861181207543,0.008246681,0.8597928,-0.095294975,50.006763,-112.35405,-4.5958967,WAL
4789025116000,1.849984,-0.825414983540877,9.9490940730915,-6.26888850135355,0.03940081,0.93492925,-0.089491755,49.68742,-112.50379,-4.4508243,WAL
4789030115000,1.854983,-0.868615189452265,10.286055633189,-5.99240730802202,0.04917465,0.97066486,-0.08552113,49.373325,-112.65272,-4.3030057,WAL
4789035104000,1.859972,-1.03000189529769,10.7389527129283,-5.67191583473163,0.08002335,0.9773844,-0.08002335,49.042347,-112.80291,-4.1488156,WAL
4789040103000,1.864971,-1.31551616482766,11.3148205346204,-5.30413455883958,0.1020145,0.9691377,-0.087659165,48.709053,-112.95112,-3.9968097,WAL
4789045102000,1.86997,-1.58408338723404,11.9753310136778,-4.77293671023303,0.105374254,0.9868528,-0.10751228,48.401844,-113.02719,-3.8505325,WAL
4789050946000,1.875814,-1.87894427234043,12.8429021224924,-3.96773985090172,0.099265605,0.89827734,-0.13500121,48.12625,-113.106926,-3.723509,WAL
4789055145000,1.880013,-2.01819084673467,13.2811469690152,-3.43859216935838,0.0888809,0.77824235,-0.1469131,47.909718,-113.10869,-3.6462948,WAL
4789060121000,1.884989,-2.13631546032987,13.6809533169988,-2.84342589810277,0.065973446,0.6392705,-0.1554652,47.72127,-113.10813,-3.5885313,WAL
4789065107000,1.889975,-2.15970069814955,13.9230272389656,-2.33408112635371,0.009162978,0.47739118,-0.15454891,47.64783,-112.974106,-3.5945737,WAL
4789070106000,1.894974,-2.06167169570757,13.9629650256332,-1.93470375252541,-0.0580322,0.27763826,-0.1301143,47.623596,-112.83681,-3.6156769,WAL
4789075105000,1.899973,-1.96364269326558,14.0029028123009,-1.5353263786971,-0.14172074,0.060170226,-0.10170906,47.696224,-112.58955,-3.6902704,WAL
4789080163000,1.905031,-1.70060321250126,13.6377804894476,-1.36142097571443,-0.23823744,-0.11178834,-0.07147124,47.81237,-112.32977,-3.7724738,WAL
4789085102000,1.90997,-1.40447168488337,13.1840303750379,-1.24678944398667,-0.32467487,-0.25350907,-0.03268129,47.98166,-112.05848,-3.8626258,WAL
4789090130000,1.914998,-1.00605685374136,12.4441828276069,-1.39598914082941,-0.40530908,-0.37110063,0.0021380284,48.220688,-111.70803,-3.954006,WAL
4789095159000,1.920027,-0.586335969684464,11.6433366169488,-1.6034373302915,-0.47983465,-0.4541783,0.05222898,48.492973,-111.34543,-4.0401726,WAL
4789100150000,1.925018,-0.222271768464908,10.8478514745449,-1.88595037458386,-0.5009095,-0.52106804,0.098043874,48.771904,-110.98951,-4.0973015,WAL
4789105065000,1.929933,0.125953704167235,10.0643441144748,-2.17919291965346,-0.5186246,-0.55680364,0.14569137,49.069378,-110.622314,-4.1453185,WAL
4789110120000,1.934988,0.390285880534557,9.31893549632829,-2.46207393383369,-0.49235737,-0.58246,0.1740966,49.333958,-110.326225,-4.1399937,WAL
4789115058000,1.939926,0.6200981875,8.6090708,-2.732741765,-0.46853364,-0.57451874,0.1994475,49.602604,-110.029816,-4.1247053,WAL
4789120605000,1.945473,0.786789115511107,8.1492209173959,-2.91262750403885,-0.44623706,-0.58246,0.20677789,49.8199,-109.81224,-4.068506,WAL
4789125072000,1.94994,0.914317498081546,7.80366008616213,-3.04838353874411,-0.41599923,-0.59498274,0.21319197,50.03709,-109.60734,-4.008287,WAL
4789130108000,1.954976,0.934415554520759,7.65582991868785,-3.03304000227576,-0.37965274,-0.59773165,0.22815818,50.208534,-109.467026,-3.9159338,WAL
4789135001000,1.959869,0.929611937667863,7.55975738099436,-2.9850037835879,-0.35277468,-0.59986967,0.2312125,50.380436,-109.33657,-3.8293014,WAL
4789140098000,1.964966,0.823978088802203,7.52708432216613,-2.78010610370812,-0.33017266,-0.6010914,0.2284636,50.51643,-109.249115,-3.7257597,WAL
4789145105000,1.969973,0.705145710073428,7.50507833887104,-2.55564489027077,-0.33475417,-0.59742624,0.23579398,50.6502,-109.163765,-3.6215446,WAL
4789150134000,1.975002,0.423873453542809,7.45576953694788,-2.20416909313377,-0.35308012,-0.58459806,0.2312125,50.779346,-109.08254,-3.5252895,WAL
4789155058000,1.979926,0.0833063938471844,7.39654052727653,-1.80930877096504,-0.3857614,-0.59498274,0.2180789,50.911045,-108.99865,-3.4341798,WAL
4789160127000,1.984995,-0.338202287429369,7.41047021939986,-1.36840261710697,-0.44226643,-0.6065892,0.20616703,51.04931,-108.88335,-3.383379,WAL
4789165116000,1.989984,-0.771644681161101,7.44381191877181,-0.925434027036188,-0.5170974,-0.63194007,0.17623462,51.189648,-108.757904,-3.3452504,WAL
4789170101000,1.994969,-1.17141644055441,7.56979559877599,-0.537282914499145,-0.57879484,-0.6444628,0.15057829,51.372208,-108.57812,-3.361033,WAL
4789175107000,1.999975,-1.56406120127801,7.72081289068491,-0.161897252254523,-0.6533204,-0.65576386,0.13500121,51.55939,-108.37832,-3.385105,WAL
4789180078000,2.004946,-1.97580887726358,7.95705492957747,0.193925531589537,-0.72082096,-0.6646214,0.1133155,51.794037,-108.105736,-3.4883292,WAL
4789185081000,2.009949,-2.40708967632108,8.26148877761305,0.538950223816584,-0.7828238,-0.6792821,0.09040806,52.03375,-107.82071,-3.5965846,WAL
4789190108000,2.014976,-2.72235505604069,8.59170293925727,0.716819555512907,-0.84879726,-0.67347896,0.07422013,52.329987,-107.468636,-3.7756188,WAL
4789195120000,2.019988,-2.98029029430957,8.93254539161309,0.813545191709049,-0.9239337,-0.65087694,0.06536258,52.6276,-107.107086,-3.9556153,WAL
4789200137000,2.025005,-3.16355246154399,9.25252748280464,0.778427944428703,-0.96944314,-0.6047566,0.06078109,52.97242,-106.7013,-4.1957827,WAL
4789205082000,2.02995,-3.29481690528693,9.55394962529514,0.656886758595627,-1.022283,-0.5503896,0.05681047,53.31186,-106.28761,-4.430391,WAL
4789210118000,2.034986,-3.30164923023232,9.77558494106407,0.478436773772503,-1.0412198,-0.4978552,0.06261369,53.6706,-105.85997,-4.686703,WAL
4789215103000,2.039971,-3.23923084347782,9.94843554198934,0.271976303139897,-1.0506883,-0.44593164,0.064751714,54.016968,-105.43932,-4.934285,WAL
4789220076000,2.044944,-3.07125715486708,10.0169222318217,0.0454037227716966,-1.0390818,-0.42149702,0.079107046,54.361702,-105.044,-5.180283,WAL
4789225085000,2.049953,-2.84622092731626,10.0309867910477,-0.193697279403831,-1.026559,-0.3680463,0.08552113,54.68541,-104.66586,-5.415107,WAL
4789230068000,2.054936,-2.42196804085546,9.91110312186578,-0.466051836716445,-0.9789116,-0.32284227,0.09987647,54.984123,-104.32793,-5.62172,WAL
4789235079000,2.059947,-1.86456930803835,9.70318496192847,-0.762446412357117,-0.93462384,-0.27458394,0.11575896,55.268726,-104.00827,-5.8164945,WAL
4789240083000,2.064951,-1.43716212687527,9.51781546042303,-0.960948826226559,-0.8680395,-0.23609942,0.12614368,55.507843,-103.73993,-5.9698067,WAL
4789245129000,2.069997,-1.17372687242695,9.35975385662887,-1.03471073378216,-0.81183994,-0.2144137,0.14385876,55.74055,-103.48991,-6.110776,WAL
4789250149000,2.075017,-0.975988195727375,9.25491248850037,-1.0354215375187,-0.763887,-0.20708331,0.15668693,55.901737,-103.28168,-6.1684356,WAL
4789255133000,2.080001,-0.819800977402767,9.18351258797681,-0.990796611340688,-0.7263188,-0.17592919,0.15485434,56.051014,-103.09201,-6.2219462,WAL
4789260161000,2.085029,-0.749340375324958,9.10768592493771,-0.917167167047342,-0.6966918,-0.1731803,0.15668693,56.188717,-102.918434,-6.242305,WAL
4789265105000,2.089973,-0.773918743481105,9.02903515915698,-0.813938069040698,-0.6646214,-0.1872302,0.15424347,56.322453,-102.76119,-6.263928,WAL
4789270103000,2.094971,-0.782739894688887,8.9977376735036,-0.691954243501627,-0.65179324,-0.18906279,0.14844026,56.441208,-102.59774,-6.26852,WAL
4789275091000,2.099959,-0.778029419512869,9.0071588501134,-0.555349961695099,-0.6704246,-0.21777347,0.14202617,56.571667,-102.43988,-6.27706,WAL
4789280128000,2.104996,-0.793047074952656,8.99939951789096,-0.44634048240008,-0.6914995,-0.25809056,0.1414153,56.71069,-102.27955,-6.29489,WAL
4789285083000,2.109951,-0.826154949765773,8.97575103588159,-0.3659355892425,-0.72418076,-0.30818152,0.13713925,56.86051,-102.11845,-6.318004,WAL
4789290076000,2.114944,-0.877651898273799,8.95773351922748,-0.307138727636301,-0.7657196,-0.35705075,0.1328632,57.031303,-101.94036,-6.349131,WAL
4789295104000,2.119972,-0.94760464648778,8.94538909605196,-0.270104916725346,-0.7984009,-0.41233405,0.1282817,57.218414,-101.76334,-6.3845754,WAL
4789300001000,2.124869,-1.01086191745757,8.93440423997406,-0.240176923432061,-0.83260936,-0.48747048,0.13744467,57.435272,-101.57402,-6.426727,WAL
4789305069000,2.129937,-1.0475873594206,8.9291576465247,-0.245423401836558,-0.84299403,-0.56046885,0.13836098,57.667126,-101.391556,-6.474813,WAL
4789310087000,2.134955,-1.08452154865885,8.93303346791178,-0.260916129548977,-0.850019,-0.63071835,0.14813483,57.928604,-101.2061,-6.531917,WAL
4789315082000,2.13995,-1.12253952282933,8.95679470176833,-0.298934138455196,-0.85154617,-0.67103547,0.15515977,58.202408,-101.02716,-6.590887,WAL
4789320066000,2.144934,-1.16083624514629,9.00703527399508,-0.338521927716708,-0.84696466,-0.7360926,0.15302174,58.50268,-100.847534,-6.6499276,WAL
4789325095000,2.149963,-1.2003455011576,9.12117308394859,-0.382421077633762,-0.84696466,-0.795652,0.16310102,58.81342,-100.670654,-6.7044377,WAL
4789330092000,2.15496,-1.23587301010909,9.23269304181818,-0.429282978650909,-0.82558435,-0.850019,0.1731803,59.131817,-100.5011,-6.7590213,WAL
4789335096000,2.159964,-1.24022958349091,9.32853783818182,-0.503344789829091,-0.8042041,-0.88514376,0.18142697,59.461254,-100.33741,-6.812338,WAL
4789340053000,2.164921,-1.24454523781818,9.42348241363636,-0.576710976481818,-0.78038037,-0.90285885,0.1908954,59.79847,-100.1888,-6.8662553,WAL
4789345146000,2.170014,-1.25969476220288,9.55573718502399,-0.618508282526504,-0.76174897,-0.8872818,0.18936823,60.134716,-100.05068,-6.9204903,WAL
4789350194000,2.175062,-1.27971302383559,9.67737314900724,-0.657220617572834,-0.75441855,-0.86284715,0.19547687,60.472576,-99.91801,-6.9697676,WAL
4789355146000,2.180014,-1.32371410299685,9.71257379179811,-0.701221650788644,-0.7333437,-0.8222246,0.19730948,60.780735,-99.80045,-7.018478,WAL
4789360470000,2.185338,-1.3697984083468,9.74871649405837,-0.745415858265995,-0.72234815,-0.77366084,0.18784106,61.075794,-99.69075,-7.066678,WAL
4789365105000,2.189973,-1.37823808284057,9.7360571585702,-0.703217485797129,-0.7131852,-0.72692966,0.16218472,61.357765,-99.59308,-7.1172314,WAL
4789370037000,2.194905,-1.38721855201065,9.72258664236144,-0.658315139946763,-0.70432764,-0.6731735,0.14752395,61.615498,-99.508286,-7.170261,WAL
4789375086000,2.199954,-1.42082982503444,9.66814582739618,-0.598909517299744,-0.69913524,-0.625526,0.12889257,61.859455,-99.43539,-7.2295246,WAL
4789380043000,2.204911,-1.45820215142688,9.60741599212753,-0.538179438132257,-0.6973027,-0.59315014,0.11636983,62.09111,-99.36959,-7.288976,WAL
4789385100000,2.209968,-1.49671865599841,9.50942610761259,-0.471656796468713,-0.6914995,-0.54733527,0.09896017,62.304367,-99.31005,-7.354792,WAL
4789390079000,2.214947,-1.53472823086887,9.40489985113591,-0.405140154551614,-0.70524395,-0.52015173,0.09285152,62.513023,-99.252,-7.419199,WAL
4789395117000,2.219985,-1.60211379270163,9.30494019033016,-0.356500379214965,-0.70738196,-0.4978552,0.08307768,62.7125,-99.20192,-7.4921565,WAL
4789400036000,2.224904,-1.67434359828274,9.20863328007768,-0.313162465697639,-0.7110472,-0.48349985,0.07238753,62.906002,-99.155685,-7.5650363,WAL
4789405075000,2.229943,-1.74071712745645,9.15036320700606,-0.263087076410355,-0.7079928,-0.47952923,0.06169739,63.104286,-99.11779,-7.6460195,WAL
4789410185000,2.235053,-1.80665156908863,9.09855751457992,-0.211281442996824,-0.7098254,-0.4746423,0.04642576,63.297726,-99.08711,-7.7291694,WAL
4789415107000,2.239975,-1.84659436417266,9.09996112631038,-0.166397261897225,-0.711658,-0.48563787,0.030848695,63.50158,-99.06999,-7.8245964,WAL
4789420050000,2.244918,-1.88065056733813,9.11455694676259,-0.122610684489209,-0.7076874,-0.49357912,0.02321288,63.703003,-99.05988,-7.9196787,WAL
4789425098000,2.249966,-1.87138969535504,9.15141263087759,-0.11873198513992,-0.70188415,-0.4999932,0.023823744,63.91549,-99.060326,-8.024398,WAL
4789430112000,2.25498,-1.85310754222349,9.19254737997335,-0.123302528195317,-0.70463306,-0.51007247,0.022602014,64.131096,-99.06697,-8.129455,WAL
4789435089000,2.259957,-1.81756507151899,9.23406952142162,-0.11424561645667,-0.70249504,-0.5204572,0.029321533,64.34286,-99.0687,-8.229833,WAL
4789440110000,2.264978,-1.77542617012658,9.27620827614411,-0.100199319577799,-0.6969972,-0.52198434,0.032070424,64.55491,-99.076744,-8.329205,WAL
4789445170000,2.270038,-1.70972428660829,9.29932889107547,-0.105594587740628,-0.6936375,-0.5119051,0.036957346,64.765526,-99.08452,-8.420567,WAL
4789450136000,2.275004,-1.63485124543934,9.31336811463151,-0.119633286502411,-0.68752885,-0.5006041,0.04428773,64.976105,-99.09606,-8.508238,WAL
4789455122000,2.27999,-1.5528037088763,9.33594913101983,-0.151072093767705,-0.70616025,-0.48472157,0.053145275,65.182594,-99.10185,-8.586078,WAL
4789460154000,2.285022,-1.46634302007554,9.36325236388102,-0.192027185393768,-0.70829827,-0.47678033,0.06872234,65.387985,-99.10998,-8.65802,WAL
4789465103000,2.289971,-1.37113444439453,9.40227009528785,-0.216004971832619,-0.72234815,-0.46670106,0.07238753,65.58336,-99.11198,-8.719326,WAL
4789470085000,2.294953,-1.26644893964058,9.45212028607251,-0.225975015194859,-0.7144069,-0.46395215,0.073303826,65.77831,-99.11598,-8.77575,WAL
4789475092000,2.29996,-1.20259141713045,9.4947020345372,-0.273418113838563,-0.700357,-0.46486846,0.0842994,65.95205,-99.0961,-8.804885,WAL
4789480133000,2.305001,-1.16448073087626,9.53281296950858,-0.344875607039668,-0.68569624,-0.46273044,0.09682214,66.12366,-99.080315,-8.832798,WAL
4789485085000,2.309953,-1.14156457849619,9.55827990873592,-0.427061047815111,-0.67164636,-0.4560109,0.10842858,66.28921,-99.05459,-8.844644,WAL
4789490094000,2.314962,-1.12849605564838,9.57570451489284,-0.518540771431166,-0.66523224,-0.47219884,0.116675265,66.46018,-99.03059,-8.8542595,WAL
4789495193000,2.320061,-1.12147001565173,9.57949864935459,-0.598215192074918,-0.6649268,-0.48258355,0.12705997,66.6169,-98.99944,-8.85068,WAL
4789500215000,2.325083,-1.12390457346495,9.56245664297646,-0.656644620266262,-0.6560693,-0.47678033,0.1423316,66.77278,-98.96869,-8.843991,WAL
4789505081000,2.329949,-1.12626350582637,9.54594401791952,-0.713259036351304,-0.659429,-0.4709771,0.1554652,66.917366,-98.93745,-8.832335,WAL
4789510106000,2.334974,-1.1286995179752,9.52889183113136,-0.771723368621615,-0.6579019,-0.4709771,0.1685988,67.061005,-98.905266,-8.817211,WAL
4789515050000,2.339918,-1.1475575956853,9.4999078051243,-0.81805850453186,-0.634689,-0.46517387,0.17837265,67.19894,-98.86691,-8.793977,WAL
4789520071000,2.344939,-1.18877738016954,9.45410809772359,-0.850118318841794,-0.62980205,-0.45448375,0.20097467,67.33448,-98.82355,-8.764564,WAL
4789525080000,2.349948,-1.23180823947883,9.40802431465798,-0.857663864423453,-0.63132924,-0.46181414,0.21960606,67.45788,-98.78358,-8.734495,WAL
4789530109000,2.354977,-1.27887187115092,9.36096084679696,-0.815829557314875,-0.6310238,-0.45356745,0.23640485,67.57262,-98.740326,-8.699795,WAL
4789535071000,2.359939,-1.32796207028554,9.31187041483244,-0.75312099962324,-0.6270532,-0.44257188,0.26083946,67.68475,-98.69803,-8.664649,WAL
4789540062000,2.36493,-1.38009129869126,9.25974054312909,-0.667818475615705,-0.6160576,-0.44990227,0.28038713,67.79871,-98.65479,-8.627643,WAL
4789545119000,2.369987,-1.42825550903347,9.20930212745582,-0.574740766790404,-0.6133087,-0.45356745,0.27977628,67.90852,-98.60615,-8.585755,WAL
4789550178000,2.375046,-1.47130435755751,9.16147012903544,-0.474293505178201,-0.6203337,-0.464563,0.2910773,68.02154,-98.55157,-8.536886,WAL
4789555134000,2.380002,-1.48769453795014,9.12369865096953,-0.389943167867036,-0.61575216,-0.49388456,0.28955013,68.15146,-98.51222,-8.502831,WAL
4789560164000,2.385032,-1.47389055361544,9.09609106667303,-0.32092319814691,-0.6377433,-0.5235115,0.28924468,68.28352,-98.47186,-8.466878,WAL
4789565093000,2.389961,-1.44928558440513,9.08519929289525,-0.274534231879622,-0.65026605,-0.55680364,0.29229903,68.44295,-98.43599,-8.434284,WAL
4789570120000,2.394988,-1.40422092691192,9.1032250617804,-0.265521286264158,-0.6795876,-0.6032294,0.28313604,68.613304,-98.406944,-8.406862,WAL
4789575093000,2.399961,-1.35376876727156,9.14518194043552,-0.267553561637489,-0.7119634,-0.634689,0.28221974,68.797935,-81.62703,-8.372249,WAL
4789580152000,2.40502,-1.2813640978971,9.27447643648591,-0.30892766536614,-0.7425067,-0.659429,0.2742785,68.9924,-81.65194,-8.343861,WAL
4789585092000,2.40996,-1.2230626693849,9.39974988630009,-0.350620017794967,-0.7651087,-0.6728681,0.2742785,69.19224,-81.685036,-8.303989,WAL
4789590106000,2.414974,-1.18726163462255,9.52505315750233,-0.395371280874185,-0.81122905,-0.691194,0.27030787,69.39889,-81.70884,-8.269215,WAL
4789595111000,2.419979,-1.15420747599962,9.64395273995672,-0.43829410223163,-0.84116143,-0.69913524,0.27030787,69.59729,-81.73938,-8.224685,WAL
4789600163000,2.425031,-1.13144804726691,9.7395424356948,-0.474709207216107,-0.86345804,-0.68386364,0.2687807,69.79255,-81.7621,-8.183654,WAL
4789605179000,2.430047,-1.11216005645714,9.83622447047619,-0.506737102797143,-0.8765916,-0.6908886,0.2782491,69.9869,-81.79029,-8.133969,WAL
4789610200000,2.435068,-1.12589866011429,9.95071283428571,-0.497578038474286,-0.86590147,-0.68416905,0.28252518,70.171326,-81.81164,-8.088302,WAL
4789615480000,2.440348,-1.14369675546434,10.0710555677784,-0.488163603114418,-0.8472701,-0.6765333,0.29229903,70.34666,-81.8442,-8.028227,WAL
4789620124000,2.444992,-1.21671835382247,10.1760237877886,-0.483599759173935,-0.8371908,-0.68386364,0.29443705,70.52288,-81.87083,-7.9714108,WAL
4789625436000,2.450304,-1.3015144540055,10.2929004149404,-0.475546840703025,-0.82772243,-0.68783426,0.30451632,70.69504,-81.89859,-7.911741,WAL
4789630124000,2.454992,-1.3879321264528,10.366972963428,-0.442625792549038,-0.79504114,-0.68477994,0.30604348,70.86578,-81.92213,-7.856249,WAL
4789635089000,2.459957,-1.47945596256645,10.4454222388634,-0.407759537411549,-0.7858781,-0.70463306,0.31429017,71.05216,-81.946976,-7.79603,WAL
4789640101000,2.464969,-1.5702927704584,10.5189217923033,-0.371701507753254,-0.7733554,-0.72387534,0.30757064,71.235886,-81.96647,-7.742075,WAL
4789645083000,2.469951,-1.66029780237691,10.5909258366346,-0.335699513782305,-0.75686204,-0.7476991,0.31642818,71.4246,-81.98962,-7.683434,WAL
4789650167000,2.475035,-1.81260177964208,10.5776589184736,-0.318922816710539,-0.75411314,-0.7663304,0.30757064,71.622086,-81.99037,-7.64428,WAL
4789655046000,2.479914,-1.98072590135404,10.5334157528643,-0.31007417434902,-0.7244862,-0.782213,0.3173445,71.82343,-81.99907,-7.598941,WAL
4789660209000,2.485077,-2.20963222980717,10.5022568823656,-0.339150805256921,-0.7107417,-0.8038987,0.32589662,72.040634,-81.99741,-7.5587945,WAL
4789665104000,2.489972,-2.45707861917484,10.4820572954864,-0.389650067747495,-0.68416905,-0.79901177,0.32650748,72.25256,-81.997185,-7.520057,WAL
4789670123000,2.494991,-2.68442885556876,10.4914381078111,-0.452665065823186,-0.6450737,-0.77518797,0.3304781,72.46664,-81.982185,-7.496086,WAL
4789675092000,2.49996,-2.90114100989011,10.5102825274725,-0.518620938021978,-0.6178902,-0.7415904,0.3378085,72.67424,-81.967705,-7.472358,WAL
4789680157000,2.505025,-3.05564148547626,10.5325497345661,-0.567289533004912,-0.59223384,-0.7180721,0.34422258,72.87426,-81.93359,-7.4755106,WAL
4789685082000,2.50995,-3.18283417593181,10.5552626980641,-0.608172881531349,-0.57848936,-0.6780604,0.33933565,73.0581,-81.8994,-7.4807534,WAL
4789690104000,2.514972,-3.18617157532147,10.6105358312385,-0.660651972709562,-0.5580254,-0.6609562,0.33078352,73.2307,-81.85494,-7.50128,WAL
4789695126000,2.519994,-3.12339684237165,10.6826104895582,-0.718776699275355,-0.5500842,-0.6356053,0.3203988,73.38821,-81.80903,-7.5240183,WAL
4789700173000,2.525041,-3.06030961075123,10.7550439424732,-0.777190776331819,-0.54244834,-0.6035349,0.31215215,73.53416,-81.75356,-7.561893,WAL
4789705101000,2.529969,-2.99870987280286,10.8257695331142,-0.834227545052693,-0.5186246,-0.6200282,0.27916542,73.68647,-81.692375,-7.608386,WAL
4789710192000,2.53506,-2.88918853003388,10.9291043293973,-0.899069313697505,-0.50426924,-0.64873886,0.2507602,73.83864,-81.63748,-7.648361,WAL
4789715112000,2.53998,-2.7440467618852,11.0548939628299,-0.96680218935209,-0.50426924,-0.6569856,0.23762658,73.98887,-81.57984,-7.692286,WAL
4789720110000,2.544978,-2.69213841836243,11.2340276790433,-1.00927852009837,-0.48991394,-0.6569856,0.21227567,74.12644,-81.5446,-7.722274,WAL
4789725096000,2.549964,-2.71055858443437,11.4504659527438,-1.03230389598804,-0.48075095,-0.61117065,0.19822577,74.25202,-81.508514,-7.7527003,WAL
4789730129000,2.554997,-2.84111922222222,11.6975375555556,-0.990667502222222,-0.45631635,-0.548557,0.18020524,74.36179,-81.49639,-7.764613,WAL
4789735201000,2.560069,-3.08449942756681,11.9750761828411,-0.883921769338959,-0.41783184,-0.4700608,0.14538592,74.45325,-81.47853,-7.7862387,WAL
4789740113000,2.564981,-3.37959905863316,12.2427941690463,-0.708147698442795,-0.3747658,-0.4007276,0.10354166,74.52421,-81.46536,-7.807865,WAL
4789745105000,2.569973,-3.88015278107748,12.5112731090805,-0.284952385684371,-0.3387248,-0.33414328,0.04795292,74.57372,-81.44289,-7.8440175,WAL
4789750157000,2.575025,-4.30278127300906,12.7454716126328,0.111987681352958,-0.27916542,-0.2660318,-0.03940081,74.618225,-81.37851,-7.9266768,WAL
4789755126000,2.579994,-4.18217813589044,12.736194273126,0.302169309992202,-0.21227567,-0.2321288,-0.14630222,74.654945,-81.30043,-8.028573,WAL
4789760158000,2.585026,-4.0437456770505,12.7251762634274,0.484839673891176,-0.12797627,-0.20525073,-0.23151793,74.725044,-81.14475,-8.193415,WAL
4789765096000,2.589964,-3.73040793828933,12.6966909288224,0.556052802195563,-0.038789943,-0.15851954,-0.29779682,74.78154,-80.97787,-8.378714,WAL
4789770765000,2.595633,-3.35874772898508,12.6621824594911,0.621500858294823,0.052839845,-0.0870483,-0.35979962,74.8451,-80.80557,-8.56844,WAL
4789775085000,2.599953,-3.03606621977186,12.6299144980989,0.617467346273764,0.14080444,-0.03390302,-0.39003745,74.901276,-80.6376,-8.761897,WAL
4789780414000,2.605282,-2.63510728506042,12.5860539138833,0.617466650223618,0.22907446,0.028099801,-0.40317106,74.94007,-80.50066,-8.928193,WAL
4789785078000,2.609946,-2.25683207607765,12.509549046817,0.664219759657436,0.31490102,0.07727446,-0.40591997,74.96751,-80.37008,-9.094702,WAL
4789790084000,2.614952,-1.85081884791131,12.4274342602531,0.714401163136359,0.42210788,0.13194689,-0.39370266,74.97981,-80.30429,-9.203149,WAL
4789795126000,2.619994,-1.57014242707291,12.2110547582671,0.8364214446178,0.5338962,0.17592919,-0.35705075,74.979706,-80.252716,-9.30202,WAL
4789800000000,2.624868,-1.30906801121578,11.9912022536061,0.960088278216073,0.6441574,0.23060162,-0.32925636,74.95956,-80.21026,-9.397053,WAL
4789805223000,2.630091,-1.14977690134963,11.6195324923227,1.11359385844499,0.7849618,0.2687807,-0.31215215,74.929,-80.22403,-9.438741,WAL
4789810124000,2.634992,-1.01665788057702,11.2523076322249,1.26048375455257,0.9083566,0.30695978,-0.28496864,74.88026,-80.25075,-9.468604,WAL
4789815082000,2.63995,-0.908283102908354,10.7442337877182,1.40440820090399,0.96852684,0.3717115,-0.27550024,74.82558,-80.29944,-9.471418,WAL
4789820001000,2.644869,-0.80549065666251,10.2155869563591,1.54635973586866,1.0821478,0.43951756,-0.26633725,74.755844,-80.35964,-9.466306,WAL
4789825081000,2.649949,-0.716965423451957,9.69786277224199,1.7384801252669,1.1960741,0.5002986,-0.27366763,74.68479,-80.41089,-9.461637,WAL
4789830058000,2.654926,-0.63215444069395,9.19370831761566,1.93166068781139,1.2977833,0.56138515,-0.29352075,74.59126,-80.457726,-9.457679,WAL
4789835098000,2.659966,-0.528121049985019,8.78521147911526,2.10466285847727,1.3939945,0.6087272,-0.31215215,74.5026,-80.49535,-9.455035,WAL
4789840755000,2.665623,-0.408769631083891,8.34122421695453,2.29562519252732,1.4993688,0.63346726,-0.33414328,74.40008,-80.52015,-9.457817,WAL
4789845091000,2.669959,-0.301065003174777,8.03897198791607,2.32361974491926,1.5980235,0.64965516,-0.35430184,74.305855,-80.52782,-9.466317,WAL
4789850096000,2.674964,-0.169427312215753,7.70724544831374,2.30255756349555,1.6890424,0.6649268,-0.38362336,74.20206,-99.48183,-9.481825,WAL
4789855127000,2.679995,-0.0250811671882086,7.58109406260475,2.0727662805876,1.781894,0.6960809,-0.42394048,74.12162,-99.513504,-9.507424,WAL
4789860112000,2.68498,0.120827522040816,7.50578630700976,1.79506914685004,1.8396207,0.73914695,-0.45875978,74.0301,-99.56218,-9.537401,WAL
4789865106000,2.689974,0.320624458586989,7.64901870162886,1.48416866313581,1.8677205,0.7825184,-0.49327368,73.93161,-99.6216,-9.563295,WAL
4789870084000,2.694952,0.535004453664435,7.85387063955231,1.16498071589887,1.8701639,0.7840455,-0.5439755,73.82899,-99.706276,-9.600835,WAL
4789875081000,2.699949,0.716360314576032,8.24869468818542,0.914363108366309,1.8741345,0.77213365,-0.59559363,73.6753,-99.79892,-9.623947,WAL
4789880079000,2.704947,0.887725041613906,8.69965442430752,0.684373569485585,1.8832976,0.7290677,-0.63132924,73.52625,-99.91261,-9.653604,WAL
4789885080000,2.709948,1.04968641607143,9.35722410714286,0.464817165714286,1.9208658,0.64812803,-0.6609562,73.34047,-100.03563,-9.661649,WAL
4789890105000,2.714973,1.20723345141369,10.1306369122024,0.249980309761905,1.9590448,0.5644395,-0.68477994,73.163704,-100.1803,-9.674871,WAL
4789895116000,2.719984,1.28517664701493,10.8968713870778,0.0732027629772192,2.0033326,0.4792238,-0.70616025,72.9887,-100.35648,-9.678465,WAL
4789900152000,2.72502,1.31832686865672,11.6640615314218,-0.0830767290023566,2.031127,0.40500367,-0.72784597,72.82999,-100.55568,-9.686267,WAL
4789905101000,2.729969,1.29457048975768,12.2711720233494,-0.129572981399784,2.033876,0.37293324,-0.7626653,72.64331,-100.757126,-9.661138,WAL
4789910172000,2.73504,1.23263269975473,12.795260843471,-0.105750755700186,2.0378466,0.26511553,-0.7852673,72.495605,-100.97881,-9.639662,WAL
4789915086000,2.739954,1.17467723860823,13.1268819072484,0.0135668296976837,2.035403,0.14477506,-0.8173377,72.3549,-101.235695,-9.621397,WAL
4789920059000,2.744927,1.11761797202476,13.3265898616214,0.208519295226038,1.9911152,-0.010079277,-0.84971356,72.25113,-101.5036,-9.612695,WAL
4789925094000,2.749962,1.04675423171156,13.3509277135474,0.333941287734818,1.9486601,-0.1591304,-0.88514376,72.183876,-101.77787,-9.614896,WAL
4789930091000,2.754959,0.96589344920982,13.2320144109929,0.400532498763542,1.8961257,-0.27122417,-0.91599244,72.1463,-102.05405,-9.628832,WAL
4789935090000,2.759958,0.856848785412335,13.0180327387387,0.39233051011781,1.8390098,-0.32925636,-0.93737274,72.182556,-102.33625,-9.675044,WAL
4789940091000,2.764959,0.724087583496683,12.7240614723295,0.321208427937828,1.7968601,-0.31887165,-0.95325524,72.22698,-102.61569,-9.729102,WAL
4789945093000,2.769961,0.556187392753825,12.4469316752434,0.232507284141864,1.7718146,-0.26358834,-0.9437868,72.29475,-102.89263,-9.794541,WAL
4789950219000,2.775087,0.351358253355851,12.178703005762,0.125215843848202,1.7794504,-0.172264,-0.93279123,72.34532,-103.16678,-9.860321,WAL
4789954978000,2.779846,0.128243047115443,11.9505654708092,0.0102642688839476,1.7898352,-0.06536258,-0.9129381,72.3823,-103.46387,-9.941388,WAL
4789959988000,2.784856,-0.139691676582394,11.7313465597523,-0.126138860960707,1.8176296,0.06383542,-0.8772025,72.384895,-103.75453,-10.007015,WAL
4789965076000,2.789944,-0.376959034627956,11.5372189288598,-0.292925815585464,1.8194622,0.21899518,-0.8533788,72.35459,-104.07475,-10.091055,WAL
4789969982000,2.79485,-0.575698491174774,11.3746139403961,-0.478114869004038,1.8124372,0.37659842,-0.8155051,72.28635,-104.38198,-10.151153,WAL
4789974973000,2.799841,-0.772992567776639,11.2129967173156,-0.680488068182377,1.7889189,0.54183745,-0.7819075,72.16453,-104.70545,-10.220434,WAL
4789979994000,2.804862,-0.96513610317623,11.0553398895492,-0.902192103168033,1.7562376,0.69913524,-0.743423,72.00029,-105.010254,-10.265896,WAL
4789984977000,2.809845,-1.13121794400808,10.9089588878693,-1.09611990016517,1.7278323,0.8503244,-0.7098254,71.810005,-105.36446,-10.319393,WAL
4789989966000,2.814834,-1.27151138906221,10.7730500679024,-1.26271834899982,1.6994271,0.9822713,-0.68325275,71.581085,-105.698746,-10.351992,WAL
4789994983000,2.819851,-1.41192318776914,10.6547249225478,-1.39954828130981,1.6728544,1.1016954,-0.66767573,71.29559,-106.05426,-10.384623,WAL
4789999983000,2.824851,-1.55034389151715,10.5783548069179,-1.46637209510566,1.6557503,1.1930199,-0.6554584,70.98232,-106.394646,-10.400073,WAL
4790004990000,2.829858,-1.68019660307309,10.4874268982558,-1.50713796877076,1.6459764,1.2223413,-0.6423248,70.638954,-106.753876,-10.418398,WAL
4790010123000,2.834991,-1.79247554237957,10.3598367827035,-1.48672363554817,1.6511687,1.2681563,-0.63621616,70.26678,-107.10503,-10.423804,WAL
4790015053000,2.839921,-1.86158563895614,10.2283703076999,-1.46561537184957,1.640784,1.2754866,-0.61544675,69.95098,-107.50627,-10.449846,WAL
4790020063000,2.844931,-1.87110732341734,10.0807840991268,-1.44181121040881,1.629483,1.2831224,-0.6102544,69.622284,-107.9017,-10.470109,WAL
4790024991000,2.849859,-1.88390925096986,9.91663021008654,-1.41837534786631,1.6105462,1.2953397,-0.589485,69.32113,-108.309395,-10.504275,WAL
4790030075000,2.854943,-1.90328200668457,9.71321710951955,-1.39415936529394,1.5919148,1.3041973,-0.5681047,69.019684,-108.70428,-10.530913,WAL
4790034980000,2.859848,-1.89928634270009,9.4022515171504,-1.4097488471416,1.5699236,1.2932017,-0.5500842,68.73563,-109.100784,-10.559747,WAL
4790040055000,2.864923,-1.85226564195251,8.86365073878628,-1.49951564353562,1.5323554,1.2534955,-0.52656585,68.45976,-109.47574,-10.577812,WAL
4790045120000,2.869988,-1.79752028008888,8.36221129264638,-1.58967022901142,1.4669929,1.2076806,-0.4914411,68.21051,-109.852325,-10.596924,WAL
4790050153000,2.875021,-1.67297874580642,8.18785314985272,-1.68432181379257,1.3973542,1.1798862,-0.4447099,67.97052,-110.204315,-10.603738,WAL
4790055082000,2.87995,-1.55101069047594,8.01709787748437,-1.77701755418325,1.3377949,1.1924089,-0.40591997,67.70243,-110.56682,-10.596191,WAL
4790060108000,2.884976,-1.42664237112294,7.84298223558472,-1.87153749559196,1.2754866,1.2287555,-0.37140608,67.43969,-110.89742,-10.573714,WAL
4790065104000,2.889972,-1.31145651777242,7.67646343244873,-1.95504716630479,1.2162327,1.2889256,-0.3286455,67.196175,-111.22844,-10.540625,WAL
4790070070000,2.894938,-1.22540384471251,7.53304217756333,-2.00285415142742,1.1297953,1.3677273,-0.30390546,66.939804,-111.52774,-10.495405,WAL
4790075120000,2.899988,-1.15212779345902,7.3975837441516,-2.04430367102732,1.0543534,1.4431691,-0.27000242,66.62204,-111.832146,-10.391277,WAL
4790080108000,2.904976,-1.12455810604079,7.2964950342247,-2.06268346263948,0.979217,1.5247196,-0.24373524,66.28483,-112.1077,-10.273625,WAL
4790085092000,2.90996,-1.1050720937887,7.19936992083084,-2.08489774443779,0.9049969,1.5818355,-0.21288654,65.94993,-112.39945,-10.137889,WAL
4790090105000,2.914973,-1.12904278402237,7.1226634617835,-2.12804508697823,0.82741696,1.6096299,-0.1872302,65.60568,-112.66439,-9.991458,WAL
4790095866000,2.920734,-1.16344910630301,7.05383671256746,-2.19709270003855,0.7504479,1.6267341,-0.15790866,65.26167,-112.92536,-9.828402,WAL
4790100104000,2.924972,-1.20256487420971,7.04210199444873,-2.2870589539707,0.6783658,1.6374242,-0.13897185,64.91678,-113.1625,-9.660166,WAL
4790105171000,2.930039,-1.25206144462901,7.02729466334441,-2.39045273828904,0.62796944,1.6447546,-0.13652839,64.57672,-113.40714,-9.500335,WAL
4790110199000,2.935067,-1.32760468538206,7.00507606312292,-2.45266477250831,0.57360244,1.6471981,-0.13683382,64.24016,-113.62714,-9.336967,WAL
4790115054000,2.939922,-1.4005486857512,6.98362194536729,-2.51273625741971,0.535118,1.6493362,-0.12461651,63.90077,-113.856705,-9.175437,WAL
4790120082000,2.94495,-1.45146644127207,6.94655132907303,-2.59294925945024,0.4596761,1.6178766,-0.1160644,63.572693,-114.05986,-9.019684,WAL
4790125073000,2.949941,-1.49941774415128,6.90819037689607,-2.6744665394362,0.40561453,1.5885551,-0.11575896,63.24728,-114.25533,-8.863963,WAL
4790130084000,2.954952,-1.5253241,6.86134679090909,-2.73374304545455,0.33200526,1.5491543,-0.105374254,62.947292,-114.44592,-8.718475,WAL
4790135034000,2.959902,-1.54884794825328,6.81429919265582,-2.79020011423184,0.25778514,1.5115861,-0.10262536,62.656826,-114.62001,-8.5794,WAL
4790140131000,2.964999,-1.53125552639185,6.76873543710051,-2.84083927350625,0.18020524,1.4822645,-0.09468412,62.375557,-114.78935,-8.447151,WAL
4790145108000,2.969976,-1.50917871622974,6.72458190898564,-2.88940824664196,0.10598512,1.4434745,-0.07544186,62.11111,-114.93594,-8.317891,WAL
4790150148000,2.975016,-1.4579069684144,6.67149421214993,-2.92079401316067,0.040317107,1.4184291,-0.06078109,61.855392,-115.08228,-8.192004,WAL
4790154997000,2.979865,-1.39923621263424,6.6177124818067,-2.9452401614024,-0.028710667,1.387275,-0.043066,61.616646,-115.20369,-8.06702,WAL
4790160110000,2.984978,-1.32205074304859,6.50071870381074,-2.94225806992433,-0.10720685,1.3445144,-0.022907447,61.390537,-115.31779,-7.932922,WAL
4790165086000,2.989954,-1.24385078680828,6.37472995851035,-2.93356923630231,-0.18295415,1.2932017,-0.002443461,61.17946,-115.411064,-7.8009863,WAL
4790170102000,2.99497,-1.1760177110407,6.22967731009559,-2.90703152518526,-0.24923302,1.2189816,0.015577064,60.9837,-115.49086,-7.663062,WAL
4790175084000,2.999952,-1.11452701085812,6.07595053288583,-2.87116192778434,-0.310625,1.1478158,0.03970624,60.80614,-115.54882,-7.526823,WAL
4790180101000,3.004969,-1.03069607297935,5.93886885651918,-2.82628798943953,-0.3820962,1.0424415,0.046731193,60.65177,-115.594315,-7.391253,WAL
4790185108000,3.009976,-0.941111956415929,5.80685026725664,-2.77913834557522,-0.43249258,0.9294315,0.05222898,60.52277,-115.627335,-7.2625937,WAL
4790190131000,3.014999,-0.882999539208059,5.72025366259725,-2.79134008047078,-0.49571714,0.8014552,0.052534413,60.419666,-115.635544,-7.137434,WAL
4790195147000,3.020015,-0.835086845790944,5.64838452866547,-2.8224833818472,-0.55771995,0.6954701,0.04642576,60.34166,-115.63136,-7.0267673,WAL
4790200093000,3.024961,-0.787842790439856,5.57751835314183,-2.85319206777379,-0.61941737,0.643852,0.03848451,60.277264,-115.612724,-6.9174647,WAL
4790205085000,3.029953,-0.740159344359665,5.50599309066427,-2.88418635813884,-0.6722572,0.5296202,0.03634648,60.257782,-115.58092,-6.831423,WAL
4790210121000,3.034989,-0.731385736478734,5.53718818480712,-2.94187381070227,-0.7031059,0.42730024,0.028710667,60.25576,-115.53576,-6.7394524,WAL
4790215125000,3.039993,-0.736125826211672,5.60354954005935,-3.0082350669634,-0.73914695,0.33444872,0.023823744,60.28171,-115.476425,-6.6628275,WAL
4790220103000,3.044971,-0.754322607247706,5.69598286437634,-3.10743165145423,-0.8008443,0.22540927,0.018325957,60.316113,-115.414825,-6.582814,WAL
4790225125000,3.049993,-0.777792624770642,5.79925098657037,-3.22008761989069,-0.84116143,0.13927728,0.017715093,60.368874,-115.35099,-6.5138936,WAL
4790230170000,3.055038,-0.811152063118438,5.96800842070454,-3.33690765184967,-0.89369583,0.03726278,0.014660766,60.448723,-115.27474,-6.4625745,WAL
4790235075000,3.059943,-0.848027127307428,6.1616026244137,-3.45214227857914,-0.94225967,-0.055283304,0.008857546,60.54794,-115.19054,-6.423355,WAL
4790240144000,3.065012,-0.894795885002906,6.43777975857392,-3.60614183305561,-0.96791595,-0.12461651,0.010995574,60.661335,-115.097755,-6.378498,WAL
4790245191000,3.070059,-0.946304866818446,6.75619871441581,-3.7793993484596,-0.9954049,-0.1994475,0.0106901415,60.798847,-114.99382,-6.3492966,WAL
4790250139000,3.075007,-1.00134893575161,7.1272050897633,-3.96635548945589,-0.98929626,-0.26633725,0.011301007,60.951553,-114.89124,-6.318596,WAL
4790254970000,3.079838,-1.05823865116303,7.53017405164464,-4.16072871265498,-0.958753,-0.30176744,0.019547688,61.115623,-114.78941,-6.2928224,WAL
4790259997000,3.084865,-1.17982701145511,7.93943397770898,-4.39639492266254,-0.91629785,-0.31948254,0.019242255,61.282803,-114.68974,-6.2715254,WAL
4790265039000,3.089907,-1.34426931785346,8.34306506976264,-4.65551620685243,-0.8695667,-0.28588495,0.020463986,61.445763,-114.60058,-6.2475023,WAL
4790269990000,3.094858,-1.52212125447856,8.74497277896596,-4.93257610593545,-0.79504114,-0.22693644,0.01985312,61.606163,-114.52716,-6.214974,WAL
4790275031000,3.099899,-1.71157165852055,9.15702717531639,-5.2262240739429,-0.7199047,-0.13194689,0.0009162979,61.745052,-114.4689,-6.180986,WAL
4790279987000,3.104855,-1.91163002314214,9.58119322354115,-5.52683490946633,-0.64904433,-0.016187929,-0.021991149,61.85786,-114.44322,-6.1539907,WAL
4790284986000,3.109854,-2.12175232942643,10.0205397506234,-5.837242840399,-0.539394,0.112704635,-0.028405234,61.941177,-114.44832,-6.116904,WAL
4790289962000,3.11483,-2.29714152195767,10.501778973545,-6.06270140502645,-0.41905355,0.2706133,-0.03970624,61.985004,-114.481514,-6.065859,WAL
4790295033000,3.119901,-2.45416787405448,11.0204420062708,-6.23876134769743,-0.25473082,0.41783184,-0.04795292,61.99758,-114.55503,-6.0042834,WAL
4790299985000,3.124853,-2.54709839495253,11.5433935322869,-6.28788080247204,-0.06688975,0.48563787,-0.047036625,61.974365,-114.66828,-5.950716,WAL
4790305106000,3.129974,-2.59780539232071,12.0965606887865,-6.24639338607012,0.051618114,0.59315014,-0.03756821,61.904102,-114.80329,-5.8771987,WAL
4790310107000,3.134975,-2.60555029307937,12.6324913864873,-6.1578810033679,0.28710666,0.6423248,-0.03145956,61.84522,-115.00724,-5.8194423,WAL
4790315115000,3.139983,-2.56615344362871,13.1643477742068,-6.01506759123113,0.49449542,0.6414085,-0.03145956,61.774124,-115.22941,-5.7557387,WAL
4790320074000,3.144942,-2.46536806786099,13.5280020314745,-5.95606856546336,0.6844745,0.6044512,-0.044898596,61.732395,-115.443146,-5.6847777,WAL
4790325118000,3.149986,-2.30487062400323,13.7448901814386,-5.97341954498922,0.8063421,0.54244834,-0.058948494,61.697937,-115.687996,-5.6194296,WAL
4790330041000,3.154909,-2.08016087135231,13.7013260440391,-6.09843195373665,0.86406887,0.5458081,-0.08124508,61.68603,-115.89983,-5.549867,WAL
4790335099000,3.159967,-1.67506196135231,13.0031769190391,-6.50353095373665,0.8436049,0.569021,-0.11301007,61.680553,-116.11809,-5.49357,WAL
4790340318000,3.165186,-1.29309250700151,12.3145540431264,-6.90159300177518,0.75533485,0.6035349,-0.13133603,61.665596,-116.3074,-5.41412,WAL
4790345138000,3.170006,-1.29550258249883,11.9916037251606,-7.07270841241581,0.6478226,0.6612616,-0.14294247,61.633526,-116.48128,-5.337931,WAL
4790350152000,3.17502,-1.29800966103483,11.6556549919073,-7.25071104082911,0.5522222,0.7464773,-0.14263703,61.487633,-116.73165,-5.195613,WAL
4790355152000,3.18002,-1.30050973935154,11.3206442886232,-7.42821665352686,0.46028697,0.86437434,-0.13805555,61.318398,-116.94644,-5.0473504,WAL
4790360155000,3.185023,-1.37962893836105,10.7782071220309,-7.5849728405582,0.3903429,0.9786061,-0.12797627,61.132565,-117.13191,-4.8850975,WAL
4790365110000,3.189978,-1.71777434117181,9.53834048159145,-7.66950943646081,0.3622431,1.0665708,-0.112704635,60.926296,-117.29874,-4.7128835,WAL
4790370102000,3.19497,-1.99915655688992,8.47638648325635,-7.66445717627021,0.3643811,1.1328496,-0.09162979,60.6446,-117.5262,-4.5181108,WAL
4790375090000,3.199958,-2.03593028929946,8.18679305254042,-7.28752608308314,0.38056904,1.1508701,-0.08368854,60.35692,-117.745,-4.3218145,WAL
4790380105000,3.204973,-2.03457761831279,7.95903974546937,-6.90047368862813,0.40011674,1.1646146,-0.080634214,59.99577,-118.05627,-4.18507,WAL
4790385096000,3.209964,-1.74439506241392,8.21024270895252,-6.45437203947082,0.41508293,1.1630874,-0.07666359,59.641323,-118.36527,-4.0463476,WAL
4790390104000,3.214972,-1.45322410670533,8.46230130264589,-6.00675090964117,0.40317106,1.1120802,-0.076052725,59.319324,-118.64022,-3.9267168,WAL
4790395137000,3.220005,-1.26713861310264,9.18537566938076,-5.59033741826655,0.41538838,1.0409144,-0.07391469,59.008163,-118.92198,-3.8092756,WAL
4790400330000,3.225198,-1.10338650503948,10.0056440184228,-5.16282883825909,0.40958515,0.9663888,-0.099265605,58.711205,-119.192245,-3.7066612,WAL
4790405105000,3.229973,-1.12567387222926,11.021948706989,-4.75719842959353,0.42210788,0.93462384,-0.12736541,58.472015,-119.37622,-3.5430655,WAL
4790410433000,3.235301,-1.15136251609397,12.143189549439,-4.30272979922861,0.42424592,0.82436264,-0.21074851,58.313446,-119.45843,-3.3989685,WAL
4790415114000,3.239982,-1.18672905495266,12.9291121336781,-3.87440180411992,0.4025602,0.6942484,-0.2434298,58.171154,-119.53618,-3.2608652,WAL
4790420068000,3.244936,-1.22415820118338,13.760870408047,-3.4210933470021,0.37751472,0.5329799,-0.29016098,58.11903,-119.48998,-3.1843925,WAL
4790425114000,3.249982,-1.21079743396635,14.3378384975746,-2.84888400999071,0.30390546,0.31673363,-0.3145956,58.111485,-119.42714,-3.1397908,WAL
4790430052000,3.25492,-1.17663171316957,14.7917548082361,-2.24366236437197,0.17592919,0.061391957,-0.31123585,58.15123,-119.34493,-3.1300855,WAL
4790435100000,3.259968,-1.0455265530711,14.6074300043369,-1.90002596907716,-0.017104227,-0.19975294,-0.29229903,58.30324,-119.08368,-3.1590736,WAL
4790440087000,3.264955,-0.886568908199697,14.2268949951589,-1.64473034847201,-0.24129178,-0.40958515,-0.23976462,58.510494,-118.78524,-3.207527,WAL
4790445158000,3.270026,-0.595641958072546,13.3437471522048,-1.54696758285918,-0.45234573,-0.5708536,-0.18906279,58.82285,-118.3446,-3.2831469,WAL
4790450048000,3.274916,-0.281598203500305,12.3635500804715,-1.49462694467588,-0.62949663,-0.70371675,-0.13469578,59.187435,-117.863144,-3.3678858,WAL
4790455157000,3.280025,0.182449753543073,11.2482427062326,-1.433078446447,-0.7583892,-0.8368854,-0.07819075,59.58942,-117.33615,-3.442399,WAL
4790460211000,3.285079,0.672418024632791,10.1241981957126,-1.37063155148869,-0.84329945,-0.945314,-0.016187929,60.027237,-116.7843,-3.5141242,WAL
4790465117000,3.289985,1.09558779066194,9.32929329373522,-1.39418954615839,-0.8775079,-1.0283916,0.058337633,60.461353,-116.27353,-3.5445087,WAL
4790470085000,3.294953,1.51268828853428,8.58882297458629,-1.43636826743499,-0.850019,-1.0900891,0.12736541,60.92656,-115.76472,-3.5705888,WAL
4790475095000,3.299963,1.79946095715983,8.09553186096257,-1.57435767468806,-0.77121735,-1.1139128,0.18784106,61.356693,-115.31872,-3.5272534,WAL
4790480104000,3.304972,2.04648536267578,7.67749018538324,-1.74062403374926,-0.64568454,-1.1261301,0.24404067,61.8088,-114.89847,-3.4746876,WAL
4790485088000,3.309956,2.05719450053254,7.40129326307692,-1.82388869313609,-0.5235115,-1.0748174,0.3042109,62.20395,-114.555534,-3.3699477,WAL
4790490627000,3.315495,1.98395548272189,7.14495686461538,-1.88666490047337,-0.42394048,-1.0164797,0.3549127,62.60536,-114.24378,-3.254691,WAL
4790495182000,3.32005,1.75729361078498,7.0494583885632,-1.79727656008048,-0.3381139,-0.93828905,0.40286562,62.95508,-114.01065,-3.0906816,WAL
4790500161000,3.325029,1.46827749290143,6.97365098620827,-1.66461344517091,-0.2910773,-0.883922,0.43249258,63.297653,-113.796776,-2.9161081,WAL
4790505092000,3.32996,1.18204763202901,6.89857440436208,-1.53322926770171,-0.27947086,-0.77304995,0.49296826,63.600838,-113.6115,-2.7058406,WAL
4790510137000,3.335005,0.889200410755167,6.82176212380763,-1.39880761381161,-0.29443705,-0.68203104,0.5348125,63.89346,-113.435295,-2.492063,WAL
4790515111000,3.339979,0.367744853407393,6.88885928073142,-0.982750624380653,-0.33567044,-0.59498274,0.57543504,64.16611,-113.25808,-2.250528,WAL
4790520101000,3.344969,-0.252393867109713,7.01570564978372,-0.447176259457334,-0.40775254,-0.54092115,0.59315014,64.42289,-113.07209,-2.002261,WAL
4790525205000,3.350073,-0.986731211627537,7.22505839952248,0.144318998627139,-0.4908302,-0.50915617,0.5910121,64.70771,-112.84078,-1.8095629,WAL
4790530102000,3.35497,-1.73787697022185,7.46299901118186,0.732172207147831,-0.59498274,-0.50762904,0.5674938,64.98334,-112.58813,-1.6214147,WAL
4790535088000,3.359956,-2.50407410524741,7.78373876219074,1.25377350010475,-0.70829827,-0.5225952,0.50823987,65.32378,-112.22592,-1.531492,WAL
4790540093000,3.364961,-3.27393028332003,8.14714919584996,1.73672681592179,-0.8341365,-0.5580254,0.41905355,65.66295,-111.8372,-1.4620512,WAL
4790545127000,3.369995,-3.98415630696215,8.52400959011571,1.98283667848598,-1.003957,-0.6310238,0.32162055,66.08632,-111.30542,-1.5367019,WAL
4790550105000,3.374973,-4.65264908601687,8.90266610492253,2.09970604067464,-1.1688906,-0.7281514,0.20677789,66.51378,-110.74735,-1.6435858,WAL
4790555177000,3.380045,-5.07290520015508,9.21590392362121,1.94447333027043,-1.3164146,-0.8323039,0.09560041,67.010956,-110.0562,-1.8938658,WAL
4790560107000,3.384975,-5.32460136376854,9.47675334399535,1.62870876557139,-1.4248432,-0.8866709,-0.016493361,67.50495,-109.343956,-2.1726758,WAL
4790565111000,3.389979,-5.32568966764558,9.6516040767374,1.20883801062557,-1.4853189,-0.91599244,-0.10751228,68.0393,-108.58568,-2.566786,WAL
4790570100000,3.394968,-5.11906358181635,9.75251404032988,0.709091114955245,-1.5250251,-0.9166033,-0.18325958,68.563934,-107.82868,-2.9785383,WAL
4790575098000,3.399966,-4.74916615265265,9.7434851001001,0.260668410355355,-1.5302174,-0.9184359,-0.21563543,69.071846,-107.13204,-3.4235346,WAL
4790580096000,3.404964,-4.25087315721722,9.64765958178178,-0.146590337674675,-1.5204436,-0.9049969,-0.23671028,69.56271,-106.461464,-3.8727436,WAL
4790585084000,3.409952,-3.71212494978252,9.50777419632266,-0.526421451047845,-1.4892895,-0.86437434,-0.2565634,70.003006,-105.893555,-4.281021,WAL
4790590093000,3.414961,-3.13834112787663,9.33231956227758,-0.886814623867141,-1.4676038,-0.788627,-0.25167647,70.42523,-105.35361,-4.6737437,WAL
4790595115000,3.419983,-2.54965192516589,9.14853155224324,-1.1997442934535,-1.4278975,-0.75411314,-0.2302962,70.81421,-104.90407,-4.9805174,WAL
4790600088000,3.424956,-1.95533601897593,8.95985996107755,-1.46860145862137,-1.3765849,-0.6588182,-0.21044308,71.16355,-104.484184,-5.268049,WAL
4790605086000,3.429954,-1.4654655863324,8.81789828409641,-1.65194306666344,-1.3451253,-0.5555819,-0.1563815,71.478615,-104.12137,-5.440162,WAL
4790610133000,3.435001,-1.07246701556481,8.71964861697803,-1.75487128470622,-1.2822062,-0.47555858,-0.10567969,71.774475,-103.79138,-5.5973253,WAL
4790615096000,3.439964,-0.725180816596107,8.60841084199438,-1.81435718844302,-1.2186762,-0.43096542,-0.01863139,72.065445,-103.498276,-5.6111507,WAL
4790620085000,3.444953,-0.423208763739968,8.47899464044944,-1.82394359598716,-1.1594223,-0.42180246,0.09132435,72.34778,-103.21832,-5.601192,WAL
4790625073000,3.449941,-0.159296239117647,8.41491152702703,-1.82053727710652,-1.0806206,-0.4428773,0.19883664,72.63628,-102.95766,-5.49806,WAL
4790630074000,3.454942,0.059613342867647,8.42918803040541,-1.80150167424483,-1.0100657,-0.47616947,0.27488935,72.9274,-102.706604,-5.378495,WAL
4790635068000,3.459936,0.221721683837822,8.47692928172513,-1.74691502292557,-0.95386606,-0.52778757,0.3494149,73.22212,-102.44794,-5.1949053,WAL
4790640103000,3.464971,0.312764635894862,8.56797206866739,-1.64628857405346,-0.9068295,-0.5815437,0.40530908,73.52608,-102.20531,-5.005588,WAL
4790645085000,3.469953,0.345248917770735,8.63779573053241,-1.52253883109381,-0.8597928,-0.6377433,0.4474588,73.84028,-101.959435,-4.7820277,WAL
4790650093000,3.474961,0.301822039422311,8.68122258167331,-1.36620207629482,-0.82650065,-0.689056,0.4746423,74.16575,-101.72542,-4.5595636,WAL
4790655072000,3.47994,0.226805057728095,8.72942087150005,-1.17570318468008,-0.80970186,-0.74128497,0.48716503,74.51122,-101.481224,-4.3319893,WAL
4790660094000,3.484962,0.0373549543617588,8.79598469328223,-0.858246273788992,-0.79412484,-0.82986045,0.48472157,74.87717,-101.251755,-4.1152973,WAL
4790665041000,3.489909,-0.245630033914015,8.85131358514796,-0.500724614736646,-0.8014552,-0.9092729,0.4654793,75.2689,-101.00336,-3.9164298,WAL
4790670103000,3.494971,-0.728332829101061,8.88740329927415,-0.0450892558831194,-0.81245077,-0.95630956,0.43463063,75.67056,-100.76572,-3.7329173,WAL
4790675053000,3.499921,-1.13428265442579,8.91875677899087,0.337116198952094,-0.8378017,-0.97249746,0.39064834,76.08646,-100.47512,-3.5947175,WAL
4790680130000,3.504998,-1.26079118035304,8.933640177644,0.45122193065762,-0.9016371,-0.97249746,0.3286455,76.50443,-100.18153,-3.477509,WAL
4790685001000,3.509869,-1.38216660477527,8.94791968027141,0.560697806004796,-0.9654725,-0.9783007,0.27183503,76.95388,-99.81927,-3.4386466,WAL
4790690108000,3.514976,-1.50942266975665,8.96289102494771,0.675477788636294,-1.042747,-1.0021244,0.22235495,77.40351,-99.44894,-3.416674,WAL
4790695090000,3.519958,-1.67084754820634,9.01247933471687,0.740963152534835,-1.1148291,-1.0088439,0.20005837,77.8466,-99.073616,-3.402472,WAL
4790700103000,3.524971,-1.93178933281945,9.15481108212274,0.684030404032019,-1.1450669,-1.003957,0.13744467,78.28763,-98.70689,-3.4135036,WAL
4790705100000,3.529968,-2.13086480961558,9.26317872941293,0.601933700566206,-1.212873,-0.979217,0.084910266,78.71773,-98.28187,-3.4597192,WAL
4790710103000,3.534971,-2.1499023502533,9.27269720154962,0.444873910789709,-1.2663237,-0.91354895,0.034513887,79.13129,-97.87353,-3.518421,WAL
4790715110000,3.539978,-2.14845701105104,9.26932408879318,0.306529785437552,-1.3100005,-0.82802784,-0.007330383,79.51951,-97.488266,-3.617708,WAL
4790720070000,3.544938,-2.08316653986988,9.22579716860625,0.228181270015578,-1.353372,-0.7556403,-0.045814894,79.889885,-97.115944,-3.7244024,WAL
4790725187000,3.550055,-2.01429123120432,9.17698734127741,0.14530453605402,-1.3775011,-0.71837753,-0.07269296,80.222466,-96.78181,-3.8350518,WAL
4790730106000,3.554974,-1.92946534005932,9.08218209596441,0.0405196020747802,-1.387275,-0.68875057,-0.064751714,80.53582,-96.4647,-3.940546,WAL
4790735075000,3.559943,-1.84730334976838,8.99160087348002,-0.0546964860138969,-1.3836098,-0.66920286,-0.04184427,80.83414,-96.1789,-4.035124,WAL
4790740091000,3.564959,-1.78240065677475,8.92669832570932,-0.0964196475935148,-1.3631458,-0.65240407,-0.0076358155,81.12494,-95.91541,-4.119701,WAL
4790745105000,3.569973,-1.71598360412422,8.86996807061616,-0.136381651756503,-1.3240504,-0.64812803,0.024129177,81.39608,-95.67118,-4.1784935,WAL
4790750140000,3.575008,-1.63491084183562,8.88904390337257,-0.160226582134309,-1.2873985,-0.6597345,0.057726767,81.66741,-95.44598,-4.224344,WAL
4790755171000,3.580039,-1.55441825574718,8.91303125236217,-0.184289180077975,-1.2305881,-0.70005155,0.105068825,81.939255,-95.23806,-4.2450423,WAL
4790760118000,3.584986,-1.48053509891753,8.98691449995413,-0.210365579027612,-1.171945,-0.7272351,0.15057829,82.210556,-95.04939,-4.255017,WAL
4790765048000,3.589916,-1.40690583609761,9.06054385322448,-0.236352368358866,-1.108415,-0.74464476,0.19272798,82.48687,-94.869385,-4.240125,WAL
4790770078000,3.594946,-1.33508743088322,9.17023794269907,-0.231003330934598,-1.0393872,-0.7620544,0.23854288,82.770386,-94.70304,-4.2112155,WAL
4790775066000,3.599934,-1.26429745103734,9.28350181189488,-0.221564652171508,-0.9950995,-0.77518797,0.26328292,83.05639,-94.55191,-4.1765456,WAL
4790780167000,3.605035,-1.25882395524194,9.38432454989919,-0.194693005196573,-0.9431759,-0.7846564,0.30268374,83.34211,-94.393524,-4.109297,WAL
4790785003000,3.609871,-1.26349264524194,9.47769883739919,-0.166680850571573,-0.9236283,-0.7675522,0.32467487,83.62196,-94.24753,-4.041255,WAL
4790790110000,3.614978,-1.27208346990373,9.51842329096177,-0.119108124202262,-0.8918633,-0.7470882,0.33078352,83.90109,-94.10184,-3.9574974,WAL
4790795102000,3.61997,-1.2810202183849,9.54970179399944,-0.0699557136068791,-0.8918633,-0.7165449,0.32742378,84.1702,-93.96488,-3.8725038,WAL
4790800132000,3.625,-1.29389610074583,9.53997962178607,-0.0327180931533857,-0.9089675,-0.6872234,0.33292156,84.434875,-93.83666,-3.7850893,WAL
4790805048000,3.629916,-1.30775671209028,9.51687876368989,-0.00037686914435721,-0.929126,-0.6774496,0.32498032,84.69417,-93.727104,-3.7048798,WAL
4790810131000,3.634999,-1.30194020129755,9.4660790501327,-0.00722708579268652,-0.9440922,-0.68569624,0.31673363,84.940155,-93.6297,-3.6258585,WAL
4790815079000,3.639947,-1.28796605317999,9.40552502437826,-0.0305171870638946,-0.9618073,-0.7125743,0.310625,85.186966,-86.44862,-3.5505967,WAL
4790820074000,3.644942,-1.29315578886776,9.39349079544637,-0.099133756733258,-0.98715824,-0.745561,0.3051272,85.438774,-86.503555,-3.4814558,WAL
4790825093000,3.649961,-1.3079780512412,9.40584263776533,-0.190537455155779,-1.0079277,-0.7788532,0.2932153,85.696724,-86.53499,-3.4174898,WAL
4790830106000,3.654974,-1.32278259423344,9.41817971398468,-0.281831884363211,-1.0268645,-0.7993172,0.3051272,85.9567,-86.55289,-3.3485024,WAL
4790835081000,3.659949,-1.33747491447808,9.43042327157321,-0.372434275208408,-1.0473285,-0.81581056,0.3042109,86.223404,-86.543236,-3.287794,WAL
4790840086000,3.664954,-1.35505299563926,9.48678012363427,-0.507049425878858,-1.0742066,-0.81245077,0.3155119,86.488365,-86.51888,-3.2215354,WAL
4790845133000,3.670001,-1.37358241232509,9.55626561759632,-0.655285252746789,-1.1154399,-0.7993172,0.33383787,86.75335,-86.473495,-3.1547647,WAL
4790850138000,3.675006,-1.38224093102014,9.64678468459866,-0.791350102817434,-1.1646146,-0.77518797,0.34422258,86.97895,-86.41791,-3.0832295,WAL
4790855137000,3.680005,-1.38676725446724,9.74636294970218,-0.922612206684315,-1.1872166,-0.7538077,0.37415496,87.19975,-86.353004,-3.0025852,WAL
4790860105000,3.684973,-1.38259583302912,9.80562024858757,-1.02214308382225,-1.2183707,-0.73548174,0.4025602,87.39041,-86.27322,-2.9265943,WAL
4790865106000,3.689974,-1.37218871073446,9.83684118079096,-1.10019655536723,-1.2366967,-0.73823065,0.41874814,87.579735,-86.182724,-2.8472722,WAL
4790870073000,3.694941,-1.36609329230621,9.87546825243749,-1.15099740464331,-1.2544118,-0.7498371,0.44532076,87.75129,-86.09834,-2.759878,WAL
4790875093000,3.699961,-1.36145234858577,9.91723713360363,-1.19276594658751,-1.2574661,-0.7816021,0.4801401,87.92821,-86.00807,-2.6672602,WAL
4790880109000,3.704977,-1.33417862024503,9.93758077666198,-1.22275764537056,-1.2473868,-0.8194757,0.49632803,88.10264,-85.91896,-2.5735345,WAL
4790885044000,3.709912,-1.29620984629444,9.94707264802169,-1.246488067142,-1.2211196,-0.86070913,0.51007247,88.28574,-85.83063,-2.4725373,WAL
4790890109000,3.714977,-1.24831826196686,9.98209633748407,-1.19415242558094,-1.1667526,-0.87781334,0.516792,88.44841,-85.74091,-2.3675218,WAL
4790895105000,3.719973,-1.19671495564271,10.0290084786744,-1.10501930833415,-1.1096367,-0.91751957,0.51251596,88.6284,-85.6521,-2.2633567,WAL
4790900136000,3.725004,-1.16366295830704,10.100350325413,-0.995467044351216,-1.069625,-0.9621128,0.5036584,88.805214,-85.56938,-2.15199,WAL
4790905068000,3.729936,-1.14174311598292,10.1836454607388,-0.877100033131613,-0.9914343,-1.003957,0.49327368,88.991646,-85.504524,-2.0445554,WAL
4790910153000,3.735021,-1.15696606033676,10.2818350271282,-0.772451436351731,-0.9147707,-1.0494665,0.4801401,89.194275,-85.43151,-1.9301634,WAL
4790915072000,3.73994,-1.21082652838582,10.3895565767592,-0.689212579523958,-0.8356637,-1.0876455,0.46914452,89.40539,-85.37398,-1.82049,WAL
4790920068000,3.744936,-1.31827282212502,10.4646152003145,-0.617559112551602,-0.77213365,-1.1163563,0.45265114,89.62784,-85.30445,-1.7102324,WAL
4790925084000,3.749952,-1.46936313334971,10.5118308763515,-0.556178684401415,-0.72051555,-1.1328496,0.43310347,89.85599,-85.24762,-1.6064115,WAL
4790930092000,3.75496,-1.6984968233157,10.522056990518,-0.531696803792794,-0.6743952,-1.1414018,0.41722095,90.09015,-85.18819,-1.5055503,WAL
4790935080000,3.759948,-1.99887150486076,10.4982177458828,-0.541232501646871,-0.6291912,-1.1203269,0.42302418,90.31836,-85.13974,-1.4069864,WAL
4790940065000,3.764933,-2.41320343251818,10.4658110621282,-0.548188331791143,-0.6020077,-1.0897835,0.42760566,90.547646,-85.08243,-1.3344818,WAL
4790945086000,3.769954,-2.93986532444528,10.4249494805023,-0.552728518062506,-0.550695,-1.0467176,0.43951756,90.76525,-85.043465,-1.260847,WAL
4790950002000,3.77487,-3.46528859489014,10.4040826082443,-0.579308019965733,-0.5366451,-0.9810496,0.4550946,90.95651,-84.99272,-1.2201943,WAL
4790955056000,3.779924,-4.0213997951925,10.4138386314251,-0.642724208133441,-0.50885075,-0.91507614,0.4538729,91.134636,-84.95882,-1.183122,WAL
4790960075000,3.784943,-4.47480375061656,10.4599539307105,-0.724187688443922,-0.4792238,-0.8393288,0.44929138,91.285614,-84.92009,-1.2129682,WAL
4790965053000,3.789921,-4.78273489933451,10.5579320589156,-0.831497038187512,-0.44165558,-0.7663304,0.43218717,91.419334,-84.88961,-1.2485653,WAL
4790969935000,3.794803,-4.97682448185484,10.6642894166667,-0.957848035591398,-0.42485678,-0.6728681,0.39522982,91.51696,-84.85539,-1.3645532,WAL
4790974985000,3.799853,-4.96753827073733,10.7942968571429,-1.12964395456221,-0.40194935,-0.61666846,0.3268129,91.60736,-84.825516,-1.4947,WAL
4790979950000,3.804818,-4.83045429460057,10.9435684496369,-1.28453797455005,-0.36254853,-0.6337727,0.25228736,91.68272,-84.80331,-1.6743639,WAL
4790984984000,3.809852,-4.32303758541206,11.1566839867382,-1.40124374878434,-0.35430184,-0.65209866,0.17684549,91.746704,-84.76396,-1.8733374,WAL
4790989963000,3.814831,-3.77758912418462,11.3559771296699,-1.50728883619292,-0.31429017,-0.7144069,0.13988814,91.81962,-84.75757,-2.077391,WAL
4790995035000,3.819903,-3.14389576012058,11.5384037056731,-1.59850232470844,-0.29229903,-0.7883216,0.08155051,91.906006,-84.72587,-2.3054028,WAL
4790999954000,3.824822,-2.63184367813528,11.6664003880544,-1.60822516739845,-0.25503623,-0.8405506,0.036651913,92.00267,-84.73945,-2.4654584,WAL
4791005099000,3.829967,-2.30338840549285,11.7014354098302,-1.45932545599502,-0.20005837,-0.874759,0.0030543262,92.1178,-84.74769,-2.6347482,WAL
4791010104000,3.834972,-2.06860802544892,11.7566794017544,-1.30893606547988,-0.14385876,-0.8848383,-0.00061086525,92.2398,-84.812874,-2.7083535,WAL
4791015066000,3.839934,-2.48054712055728,11.9724567596491,-1.11767861749226,-0.108123146,-0.84482664,-0.021380283,92.35803,-84.87264,-2.7949643,WAL
4791020079000,3.844947,-2.89878964408448,12.2088255544392,-0.923827068402707,-0.054367006,-0.7742717,-0.0580322,92.47703,-84.94723,-2.8260744,WAL
4791025062000,3.84993,-3.32443521539881,12.5317294718064,-0.728127942823457,-0.02076942,-0.72326446,-0.10934488,92.58943,-85.01524,-2.8671644,WAL
4791030104000,3.854972,-3.72744481589163,12.7872308416903,-0.500019288234735,0.013133603,-0.6844745,-0.15271631,92.6953,-85.03503,-2.974252,WAL
4791035067000,3.859935,-4.030151090093,12.7968407589972,-0.173288695391832,0.07727446,-0.65484756,-0.2144137,92.79014,-85.05091,-3.0992515,WAL
4791040111000,3.864979,-4.22312840076239,12.7691450228717,0.165397657781449,0.18448131,-0.6044512,-0.2828306,92.87819,-85.01389,-3.2927594,WAL
4791045089000,3.869957,-4.06935846245724,12.6293542583325,0.519534507480207,0.33200526,-0.53786683,-0.37751472,92.95507,-84.971535,-3.507231,WAL
4791050190000,3.875058,-3.88200009267482,12.4511895979462,0.837300443876773,0.46609017,-0.4605924,-0.45814893,93.034134,-84.86665,-3.7695308,WAL
4791055086000,3.879954,-3.59769121615648,12.1577092325672,0.984040549954034,0.59650993,-0.3368922,-0.5323691,93.08311,-84.75696,-4.052509,WAL
4791060129000,3.884997,-3.29408609665727,11.8274298330648,1.12965437990334,0.729984,-0.16035213,-0.6065892,93.118256,-84.62282,-4.3303294,WAL
4791065109000,3.889977,-2.93874524647604,11.3568433993153,1.24490006375352,0.8573494,0.015577064,-0.66675943,93.119545,-84.48308,-4.6204295,WAL
4791070105000,3.894973,-2.60101101645322,10.8788864973319,1.40476191017432,0.9819659,0.19700404,-0.7101309,93.077896,-84.355286,-4.8820796,WAL
4791075087000,3.899955,-2.35489972906439,10.3739339466382,1.7781722034863,1.112691,0.34880406,-0.72326446,92.995094,-84.22654,-5.147596,WAL
4791080110000,3.904978,-2.10676303766453,9.86482582497332,2.15465552410174,1.2666291,0.4999932,-0.72295904,92.87185,-84.13158,-5.36693,WAL
4791085102000,3.90997,-1.9114807847427,9.31380144188148,2.49826764762675,1.4514158,0.569021,-0.7110472,92.72876,-84.040344,-5.5813804,WAL
4791090094000,3.914962,-1.72048752002283,8.75901160682013,2.83932694716066,1.649947,0.70616025,-0.7031059,92.52283,-83.94662,-5.7930083,WAL
4791095114000,3.919982,-1.49107810001052,8.38852721856917,2.85212821690689,1.7241671,0.850019,-0.69974613,92.32206,-83.85605,-5.9636354,WAL
4791100131000,3.924999,-1.25349773511836,8.05995858390321,2.79146933520253,1.8869628,0.98532563,-0.7101309,92.08437,-83.76745,-6.1313105,WAL
4791105198000,3.930066,-0.988156464298366,8.05701702243653,2.52635349693958,1.9947804,1.1081096,-0.74036866,91.837944,-83.66433,-6.283533,WAL
4791110103000,3.934971,-0.729294292875418,8.08012969907499,2.25362376780161,2.0625865,1.2147056,-0.784351,91.55803,-83.54482,-6.4379807,WAL
4791115107000,3.939975,-0.338389549842169,8.43495376730069,2.02857776721975,2.0980167,1.2858714,-0.8384125,91.24291,-83.43829,-6.5608034,WAL
4791120003000,3.944871,0.0600924326426548,8.82394800121408,1.81510528191016,2.1383338,1.2928963,-0.90133166,90.9164,-96.698814,-6.693439,WAL
4791125081000,3.949949,0.57113963325969,9.6738220246124,1.54327831713178,2.193617,1.2577715,-0.94897914,90.552216,-96.79995,-6.764219,WAL
4791130068000,3.954936,1.0848323432345,10.5623715681202,1.27023446158915,2.2950208,1.1820242,-0.97310835,90.1979,-96.93611,-6.8417172,WAL
4791135108000,3.959976,1.51495023331296,11.4566138706776,1.10205282750961,2.4113905,1.067487,-0.9954049,89.8097,-96.98446,-6.7969623,WAL
4791140116000,3.964984,1.9253714450489,12.3444637889452,0.955473827691233,2.5079072,0.8885035,-1.0143417,89.461815,-97.07552,-6.761127,WAL
4791145158000,3.970026,2.26147979607458,13.0608095691855,0.905135133631011,2.5622742,0.6808093,-1.0629056,89.148575,-97.19896,-6.698784,WAL
4791150176000,3.975044,2.53586729515568,13.635308566063,0.930858948799179,2.5830436,0.43554693,-1.1316279,88.892815,-97.37708,-6.652998,WAL
4791155098000,3.979966,2.78881757984024,14.1662955143998,1.04063266594492,2.575408,0.1695151,-1.2348641,88.68996,-97.58761,-6.5901165,WAL
4791160137000,3.985005,3.01199734737229,14.6380161447341,1.33989627540992,2.513405,-0.13469578,-1.3399329,88.56124,-97.84298,-6.5569596,WAL
4791165081000,3.989949,3.25763575062887,15.0369216340944,1.52816032177825,2.3924537,-0.4868596,-1.4343116,88.52348,-98.10569,-6.526426,WAL
4791170073000,3.994941,3.54440620387964,15.3468187734133,1.5651629905089,2.271197,-0.8454375,-1.5079209,88.56616,-98.39494,-6.5326715,WAL
4791175898000,4.000766,3.81499088377943,15.472697985811,1.42451370470816,2.1471913,-1.169807,-1.5647314,88.71985,-98.64887,-6.5567746,WAL
4791180111000,4.004979,3.94943779907557,15.3382515233796,1.14694588542406,2.0289888,-1.3976597,-1.6105462,88.94031,-98.90043,-6.610756,WAL
4791185087000,4.009955,3.96939974728144,15.0534756846652,0.849809631178514,1.9324722,-1.4953982,-1.6218473,89.2212,-99.12823,-6.661769,WAL
4791190057000,4.014925,3.83978145654991,14.6333335680346,0.586103447367828,1.8952094,-1.5882497,-1.6102408,89.5591,-99.35114,-6.7299767,WAL
4791195091000,4.019959,3.59791675627407,14.1519058141091,0.337102424297284,1.8616118,-1.5824465,-1.5662584,89.87461,-99.593056,-6.78953,WAL
4791200150000,4.025018,3.14613144248936,13.5626199979728,0.121031187247517,1.8680259,-1.4767667,-1.5241088,90.18267,-99.83321,-6.8487844,WAL
4791205046000,4.029914,2.65027448003214,13.0013285409803,-0.135104544297509,1.8854356,-1.3002267,-1.4853189,90.452156,-100.1219,-6.925534,WAL
4791210097000,4.034965,2.03808800377662,12.4377285651868,-0.480066786457312,1.915368,-1.0555751,-1.4361442,90.66837,-100.40161,-6.9817963,WAL
4791215051000,4.039919,1.41119207853367,11.9319349465062,-0.799123346804852,1.9272798,-0.7693848,-1.3698653,90.81581,-100.73641,-7.0693955,WAL
4791220071000,4.044939,0.732355272089066,11.4967830076937,-1.09067506856445,1.9349157,-0.4615087,-1.3139712,90.88372,-101.06442,-7.1339016,WAL
4791225084000,4.049952,0.0293404353580987,11.0797151955893,-1.37140677557007,1.9504927,-0.183565,-1.2657127,90.85334,-101.4644,-7.2343626,WAL
4791230111000,4.054979,-0.795284059475431,10.7447117394283,-1.60333235285301,1.96271,0.07086037,-1.2125676,90.74059,-101.8482,-7.302311,WAL
4791235041000,4.059909,-1.53503857896646,10.4794461740707,-1.77792299244485,2.010663,0.30390546,-1.135904,90.515114,-102.288475,-7.392469,WAL
4791240104000,4.064972,-2.13093455309761,10.3573359168933,-1.83165133219502,2.0421226,0.4792238,-1.0454959,90.23514,-102.709755,-7.450764,WAL
4791245121000,4.069989,-2.62686157369926,10.2454678327952,-1.86167821188192,2.091908,0.61941737,-0.9450085,89.9408,-103.23592,-7.598271,WAL
4791250182000,4.07505,-2.93090577083026,10.1515720428967,-1.84379327284133,2.119397,0.7263188,-0.8509353,89.60911,-103.740135,-7.7077923,WAL
4791255095000,4.079963,-3.19447422437204,10.0538364490064,-1.81194962032684,2.1270328,0.81581056,-0.7644979,89.31153,-104.313126,-7.8961306,WAL
4791260109000,4.084977,-3.2913532726319,9.91820580167457,-1.70053867183496,2.1233675,0.88514376,-0.7021896,88.992714,-104.86716,-8.05242,WAL
4791265090000,4.089958,-3.36344910293755,9.78051739759655,-1.61143245981923,2.0992384,0.9416488,-0.634689,88.69539,-105.4324,-8.233147,WAL
4791270100000,4.094968,-3.31909629747329,9.62774687479458,-1.62621669400164,2.0744984,1.0033462,-0.5723807,88.38082,-105.9766,-8.386511,WAL
4791275072000,4.09994,-3.24479742240692,9.44713110216779,-1.64482186375036,2.0289888,1.0403035,-0.49449542,88.08258,-106.488075,-8.531101,WAL
4791280107000,4.104975,-3.06198913665792,9.16120017235346,-1.67763364750656,1.981036,1.1047498,-0.39920044,87.76556,-106.9711,-8.641912,WAL
4791285072000,4.10994,-2.81965168668138,8.83075142778056,-1.71250900543576,1.89918,1.1688906,-0.35735616,87.44748,-107.44168,-8.74636,WAL
4791290070000,4.114938,-2.2580038051048,8.24990192293652,-1.76051311372982,1.8530598,1.3191634,-0.2932153,87.097,-107.88328,-8.802536,WAL
