timestamp,rel_time,acc_x,acc_y,acc_z,gyro_x,gyro_y,gyro_z,azimuth,pitch,roll,label
7033292526000,0,1.50959623181158,-9.57966829595546,-0.344533018370317,-0.22052236,-0.13713925,-0.008857546,118.364365,-61.469933,23.877977,STD
7033297581000,0.005055,1.50111272765589,-9.5871822320479,-0.354470837921853,-0.22266038,-0.1282817,0.0018325958,118.417984,-60.87999,24.416147,STD
7033303499000,0.010973,1.49118090221704,-9.59597896276899,-0.366105262472988,-0.21991149,-0.11728613,-0.0021380284,118.47012,-60.28804,24.95677,STD
7033307567000,0.015041,1.48435382112795,-9.60202578611698,-0.374102700640277,-0.22296582,-0.10293079,0.0030543262,118.51239,-59.682228,25.508888,STD
7033312524000,0.019998,1.47603478451078,-9.60939405144047,-0.383847858210398,-0.21746802,-0.08246681,0.0021380284,118.545815,-59.07274,26.063805,STD
7033317514000,0.024988,1.46766036596738,-9.61681136916576,-0.393657891753853,-0.21594086,-0.064446285,0.0036651916,118.5701,-58.45246,26.626757,STD
7033322535000,0.030009,1.45923392197811,-9.62427476641999,-0.403528869393469,-0.21166481,-0.040317107,-0.0027488936,118.582115,-57.827694,27.191902,STD
7033327533000,0.035007,1.45084607751319,-9.63170397563662,-0.41335463044561,-0.21013765,-0.016798794,0.0015271631,118.58231,-57.191845,27.76568,STD
7033332507000,0.039981,1.44249851081281,-9.63909751037922,-0.423133208971691,-0.19914207,0.004276057,-0.005497787,118.5722,-56.554497,28.339413,STD
7033337523000,0.044997,1.43408045802449,-9.64655347545137,-0.432994356918378,-0.1957823,0.016798794,-0.00061086525,118.55009,-55.904366,28.922867,STD
7033342528000,0.050002,1.42568086587825,-9.65399308972292,-0.442833879540621,-0.19181168,0.037873644,-0.0009162979,118.51405,-55.25106,29.5068,STD
7033347578000,0.055052,1.41720575292351,-9.66149959363328,-0.452761869399227,-0.17165314,0.06414085,-0.0021380284,118.465866,-54.591732,30.096567,STD
7033352563000,0.060037,1.40883972558105,-9.66890947917647,-0.462562073249752,-0.1695151,0.08307768,0.0012217305,118.40634,-53.921448,30.692509,STD
7033357530000,0.065004,1.40050390656199,-9.67629260886414,-0.472326890205732,-0.16065755,0.092240654,-0.0027488936,118.335815,-53.24932,31.290754,STD
7033362524000,0.069998,1.39212277505783,-9.6837158723351,-0.48214478750353,-0.1600467,0.12003502,-0.004886922,118.24571,-52.56723,31.892744,STD
7033367506000,0.07498,1.38376178243594,-9.69112129856904,-0.491939093538298,-0.15760323,0.1255328,-0.010079277,118.15312,-51.880634,32.500137,STD
7033372673000,0.080147,1.37509031537907,-9.69880171554029,-0.50209709821145,-0.15882497,0.14263703,-0.008552114,118.039696,-51.18473,33.110508,STD
7033377524000,0.084998,1.36694917222194,-9.70601241860349,-0.511633866291469,-0.14782938,0.16768251,-0.008857546,117.91461,-50.484936,33.72321,STD
7033382500000,0.089974,1.35859824904119,-9.71340892621892,-0.521416376694722,-0.16554448,0.17684549,-0.014660766,117.78109,-49.774284,34.340206,STD
7033387572000,0.095046,1.35008621480228,-9.72094813173047,-0.531387617202217,-0.16157386,0.1881465,-0.011911872,117.6288,-49.05853,34.961746,STD
7033392528000,0.100002,1.3417688564253,-9.72831491061755,-0.541130808833752,-0.16157386,0.19883664,-0.011911872,117.46543,-48.334297,35.58518,STD
7033397549000,0.105023,1.33334241243604,-9.73577830787178,-0.551001786473369,-0.16920967,0.20341812,-0.006414085,117.289314,-47.599953,36.215134,STD
7033402634000,0.110108,1.32480856107467,-9.74333683705677,-0.56099858418248,-0.17348573,0.22082779,-0.004581489,117.09565,-46.859505,36.846123,STD
7033407553000,0.115027,1.31655329758469,-9.75064861779638,-0.570669036086338,-0.17745635,0.21960606,0.006414085,116.8934,-46.1069,37.487118,STD
7033412521000,0.119995,1.30821580032545,-9.75803323392047,-0.580435818980904,-0.17654006,0.22968534,0.0067195175,116.671486,-45.349182,38.126675,STD
7033417511000,0.124985,1.29984138178204,-9.76545055164575,-0.590245852524358,-0.18112154,0.23609942,0.021991149,116.434906,-44.57625,38.77761,STD
7033422545000,0.130019,1.29139312067032,-9.77293327257343,-0.600142387365591,-0.18600847,0.17898351,0.051923547,116.200714,-43.792336,39.44299,STD
7033427527000,0.135001,1.28303212804843,-9.78033869880736,-0.609936693400359,-0.14110987,0.13164146,0.049480084,115.95044,-43.011578,40.105747,STD
7033432499000,0.139973,1.27468791782842,-9.78772926067713,-0.619711340049268,-0.12858713,0.15210545,0.05955936,115.67493,-42.207775,40.781445,STD
7033437531000,0.145005,1.26624301319708,-9.79520900873196,-0.629603943013328,-0.15790866,0.18997909,0.0580322,115.39666,-41.400864,41.460674,STD
7033442768000,0.150242,1.26699243732137,-9.79536064158058,-0.62655161446796,-0.17256944,0.23854288,0.03390302,115.09431,-40.593792,42.13548,STD
7033447556000,0.15503,1.27042318095549,-9.79330220017657,-0.619918839381992,-0.18325958,0.27763826,0.029626964,114.76224,-39.771763,42.813457,STD
7033452610000,0.160084,1.27404452145818,-9.79112940091679,-0.612917576791249,-0.18570304,0.2919936,0.029321533,114.45381,-38.943913,43.524315,STD
7033457653000,0.165127,1.27765798013547,-9.78896133074126,-0.60593155240559,-0.1777618,0.2950479,0.03390302,114.117,-38.108738,44.234043,STD
7033462573000,0.170047,1.2811833056743,-9.78684614032611,-0.599115918858606,-0.17104226,0.3023783,0.0421497,113.75325,-37.265182,44.9441,STD
7033467561000,0.175035,1.28475735522463,-9.78470171557189,-0.592206085498371,-0.16218472,0.31673363,0.03756821,113.36685,-36.418125,45.652447,STD
7033472570000,0.180044,1.28834645189617,-9.7825482625659,-0.585267161019338,-0.15974127,0.3359759,0.03726278,112.95154,-35.561123,46.363308,STD
7033477563000,0.185037,1.29192408409441,-9.78040168822793,-0.578350401202247,-0.15363261,0.34483343,0.03359759,112.51344,-34.701126,47.072464,STD
7033482553000,0.190027,1.29549956670391,-9.77825640364021,-0.571437797259269,-0.14905111,0.3472769,0.04062254,112.04408,-33.832077,47.78241,STD
7033487603000,0.195077,1.29911804108827,-9.77608532404743,-0.564442075834011,-0.14935656,0.36163223,0.043676864,111.54352,-32.958775,48.48692,STD
7033492570000,0.200044,1.30267704351741,-9.77394992754498,-0.557561333592574,-0.13530666,0.3707952,0.03634648,111.01782,-32.082523,49.19028,STD
7033497660000,0.205134,1.30632417908501,-9.77176165128215,-0.550510200512462,-0.12156218,0.3717115,0.038789943,110.45826,-31.196817,49.894196,STD
7033502671000,0.210145,1.30991470881571,-9.76960733844266,-0.543568505450687,-0.11453723,0.38087448,0.038179077,109.86541,-30.308798,50.590687,STD
7033507579000,0.215053,1.31343143599956,-9.76749730702853,-0.536769495400159,-0.09621128,0.37751472,0.036957346,109.24499,-29.417755,51.286926,STD
7033512513000,0.219987,1.31696679295252,-9.76537609777886,-0.529934467773976,-0.08124508,0.3820962,0.03726278,108.585396,-28.521381,51.976967,STD
7033517567000,0.225041,1.32058813345521,-9.76320329851908,-0.522933205183233,-0.073303826,0.3930918,0.036651913,107.89094,-27.621603,52.661846,STD
7033522578000,0.230052,1.32417866318591,-9.76104898567958,-0.515991510121457,-0.05131268,0.39187005,0.030543262,107.16497,-26.721632,53.34218,STD
7033527561000,0.235035,1.32774913008834,-9.75890671050912,-0.509088603218078,-0.04550946,0.3903429,0.03390302,106.394745,-25.813356,54.016796,STD
7033532538000,0.240012,1.33131529781328,-9.75676701483916,-0.502194008062928,-0.042455133,0.39187005,0.033292156,105.58785,-24.90531,54.682438,STD
7033537621000,0.245095,1.33495741767382,-9.75458174799359,-0.495152572022416,-0.040927973,0.38453966,0.034208454,104.742096,-23.991962,55.34385,STD
7033542568000,0.250042,1.33850208951133,-9.75245494982617,-0.488299535608406,-0.039095376,0.37782016,0.029626964,103.85485,-23.076233,55.995396,STD
7033547651000,0.255125,1.34214420937187,-9.7502696829806,-0.481258099567894,-0.039095376,0.37751472,0.035430185,102.91899,-22.153372,56.640198,STD
7033552652000,0.260126,1.34572757380676,-9.74811966930862,-0.474330257419831,-0.032986723,0.37384954,0.028710667,101.94654,-21.231956,57.27354,STD
7033557606000,0.26508,1.34927726135134,-9.74598986172394,-0.467467523966222,-0.018936822,0.37293324,0.029626964,100.919464,-20.304302,57.897724,STD
7033562581000,0.270055,1.35284199601712,-9.74385102588748,-0.460575699393814,-0.022907447,0.3594942,0.026572637,99.852,-19.374434,58.511093,STD
7033567572000,0.275046,1.3564181951562,-9.74170531138301,-0.453661710159465,-0.023518313,0.35033122,0.022296581,98.7315,-18.44351,59.11028,STD
7033572575000,0.280049,1.36000299265025,-9.73955443787753,-0.44673109742866,-0.024740042,0.33658674,0.022907447,97.56245,-17.508497,59.699253,STD
7033577563000,0.285037,1.36357704220059,-9.73741001312331,-0.439821264068425,-0.022602014,0.3417791,0.01282817,96.341545,-16.574892,60.267593,STD
7033582546000,0.29002,1.36714750910302,-9.73526773795284,-0.432918357165046,-0.014049901,0.34330627,0.015271631,95.06333,-15.635935,60.825027,STD
7033587565000,0.295039,1.37074377107037,-9.73310998577934,-0.4259655797723,-0.02107485,0.32895094,0.008246681,93.7399,-14.6981,61.363514,STD
7033592563000,0.300037,1.37432498591651,-9.73096126185761,-0.419041893498352,-0.007330383,0.33322698,0.005497787,92.347786,-13.759968,61.878387,STD
7033597618000,0.305092,1.37794704294878,-9.72878803268108,-0.412039245616237,-0.017715093,0.33750305,0.0076358155,90.90163,-12.816827,62.375153,STD
7033602588000,0.310062,1.38150819496666,-9.72665134642838,-0.405154347500686,-0.01038471,0.33353242,0.004886922,89.40085,-11.877852,62.84926,STD
7033607568000,0.315042,1.38507651228034,-9.72451036100816,-0.398255596471422,-0.0076358155,0.33414328,0.006414085,63.11249,-10.934076,63.297783,STD
7033612546000,0.32002,1.38864339653487,-9.72237023542146,-0.3913596160249,0.0106901415,0.33353242,0.018936822,63.51013,-9.989764,63.722897,STD
7033617554000,0.325028,1.39223177667683,-9.72021721233222,-0.384422076837238,0.013133603,0.34055737,0.02076942,63.88896,-9.045442,64.11759,STD
7033622567000,0.330041,1.39582373946669,-9.71806203965922,-0.37747761119272,0.02107485,0.34574974,0.01985312,64.23682,-8.100785,64.48533,STD
7033628061000,0.335535,1.39976035298504,-9.71570007702898,-0.369866820398587,0.027183503,0.3417791,0.019242255,64.55925,-7.155288,64.82378,STD
7033632557000,0.340031,1.40298186998149,-9.71376717131627,-0.363638550393051,0.03176499,0.3359759,0.028099801,64.853134,-6.208218,65.13054,STD
7033637564000,0.345038,1.40656953359387,-9.71161457814378,-0.35670239649676,0.028099801,0.33628133,0.026572637,65.12077,-5.2639256,65.40318,STD
7033642561000,0.350035,1.4139510091552,-9.71056608668844,-0.361450137294962,0.030848695,0.32742378,0.032986723,65.35592,-4.316927,65.647224,STD
7033647599000,0.355073,1.42337604563377,-9.71008276714284,-0.372325175561594,0.039095376,0.31887165,0.032375857,65.56181,-3.373032,65.85571,STD
7033652641000,0.360115,1.43280856526953,-9.70959906385803,-0.38320884823733,0.04062254,0.3222314,0.04550946,65.7278,-2.4167457,66.00836,STD
7033657568000,0.365042,1.44202594413612,-9.70912639307574,-0.393844281651323,0.019547688,0.32620203,0.04520403,65.867096,-1.4637748,66.125465,STD
7033662571000,0.370045,1.45138550298929,-9.70864643124831,-0.404643768838294,0.016187929,0.3295618,0.05497787,65.966545,-0.50851935,66.20444,STD
7033667560000,0.375034,1.4607188707923,-9.70816781250814,-0.4154130355934,0.015882496,0.33292156,0.061086524,66.03828,0.4459544,66.24395,STD
7033672568000,0.380042,1.47008778359196,-9.70768737100668,-0.426223315791751,0.009162978,0.33169982,0.04886922,66.080666,1.3971885,66.24571,STD
7033677575000,0.385049,1.47945482560232,-9.70720702544003,-0.437031437387826,0.00030543262,0.3213151,0.04642576,66.08853,2.350502,66.21091,STD
7033682552000,0.390026,1.48876574393376,-9.70672955791751,-0.447774800915621,-0.007330383,0.31245756,0.05589417,66.06476,3.301734,66.1383,STD
7033687626000,0.3951,1.49825812882702,-9.70624278471895,-0.45872754886419,-0.011301007,0.30390546,0.051618114,66.01207,4.246441,66.03228,STD
7033692564000,0.400038,1.50749608637589,-9.70576905865382,-0.469386726903219,-0.025961773,0.2947425,0.042455133,65.9309,5.191292,65.89271,STD
7033698249000,0.405723,1.51813152352965,-9.70522366928964,-0.481658380842441,-0.024740042,0.29718593,0.044898596,65.81414,6.133317,65.71668,STD
7033702608000,0.410082,1.52628629407551,-9.70480548947637,-0.49106772816365,-0.035124753,0.28405234,0.043066,65.67487,7.071182,65.514465,STD
7033707566000,0.41504,1.53556166741032,-9.70432984471515,-0.501770078248199,-0.04734206,0.2706133,0.03848451,65.505745,8.005157,65.279106,STD
7033712544000,0.420018,1.54487445653106,-9.70385228125783,-0.51251560037827,-0.04337143,0.18936823,0.06536258,65.30058,8.942165,65.03094,STD
7033717562000,0.425036,1.55426207722369,-9.70337088040832,-0.523347466599381,-0.016187929,0.15821409,0.06811147,65.070885,9.866029,64.74546,STD
7033722580000,0.430054,1.56364969791631,-9.70288947955882,-0.534179332820492,-0.0421497,0.17531833,0.05100725,64.8229,10.792695,64.43894,STD
7033727564000,0.435038,1.57297371177284,-9.70241134049267,-0.544937806564219,-0.06169739,0.21594086,0.03145956,41.919285,11.710758,64.1069,STD
7033732545000,0.440019,1.58229211326147,-9.70193348923094,-0.555689804501117,-0.07544186,0.22968534,0.021685716,40.311203,12.624116,63.752422,STD
7033737613000,0.445087,1.59177327341895,-9.70144729164121,-0.56662960083603,-0.07452556,0.26542094,0.01740966,38.794746,13.529116,63.360477,STD
7033742565000,0.450039,1.60103742201797,-9.7009722224888,-0.577318999306923,-0.089491755,0.2742785,0.015577064,37.342495,14.430117,62.950974,STD
7033747596000,0.45507,1.61044936297146,-9.70048957448684,-0.588178927357623,-0.08368854,0.25870144,0.0106901415,35.962074,15.321191,62.51985,STD
7033752611000,0.460085,1.61983137129619,-9.70000846144175,-0.599004317771906,-0.060170226,0.24465153,0.00030543262,34.65268,16.204292,62.06914,STD
7033757605000,0.465079,1.62917409304569,-9.69952936302756,-0.609784377538393,-0.06688975,0.23335053,0.00030543262,34.0207172005627,16.6463217188505,61.8373796603698,STD
7033762563000,0.470037,1.63844946638049,-9.69905371826633,-0.620486727622943,-0.064446285,0.21777347,-0.00061086525,33.39331,17.085165,61.60729,STD
7033767626000,0.4751,1.64792127259149,-9.69856800035062,-0.631415730946475,-0.065973446,0.2003638,-0.0067195175,32.20057,17.952934,61.13373,STD
7033772569000,0.480043,1.65716858408683,-9.69809379461146,-0.642085701996884,-0.06169739,0.1740966,-0.009468411,31.052475,18.814953,60.653347,STD
7033777562000,0.485036,1.66650943504703,-9.69761479213207,-0.652863603161095,-0.067500606,0.1572978,-0.011301007,29.961308,19.670525,60.162495,STD
7033782510000,0.489984,1.67576610048887,-9.69714010671889,-0.663544367222884,-0.053450707,0.14721853,-0.01038471,28.918505,20.516891,59.663757,STD
7033787555000,0.495029,1.68520423249251,-9.69665611562966,-0.674434515705449,-0.052534413,0.13683382,-0.01985312,27.92812,21.355461,59.160053,STD
7033792533000,0.500007,1.69451702161326,-9.69617855217234,-0.685180037835519,-0.05009095,0.13561209,-0.016493361,26.984339,22.189138,58.643913,STD
7033797503000,0.504977,1.70381484441962,-9.69570175619346,-0.695908291147381,-0.048563786,0.1386664,-0.02076942,26.095161,23.01139,58.123783,STD
7033802589000,0.510063,1.71332967878445,-9.69521383177725,-0.706886942323262,-0.03940081,0.13408493,-0.028405234,25.250952,23.825516,57.597664,STD
7033807603000,0.515077,1.72270981631989,-9.69473281466696,-0.71771017413527,-0.032375857,0.13988814,-0.03573562,24.460205,24.631536,57.063213,STD
7033812518000,0.519992,1.73190474571492,-9.69426129510233,-0.72831970432195,-0.019242255,0.14110987,-0.038179077,23.71141,25.42797,56.52534,STD
7033817513000,0.524987,1.74124933825371,-9.69378210075333,-0.739101922690713,-0.002443461,0.14508049,-0.03359759,23.008991,26.215889,55.981194,STD
7033822535000,0.530009,1.75064444210352,-9.69330031616461,-0.749942423320928,0.0030543262,0.14294247,-0.038179077,22.34908,26.993233,55.4366,STD
7033827527000,0.535001,1.75998342227443,-9.69282140962003,-0.760718165882863,0.009468411,0.14813483,-0.038179077,21.729954,27.763678,54.884884,STD
7033832502000,0.539976,1.76929059902728,-9.69234413396712,-0.771457212206105,0.029626964,0.15577064,-0.048563786,21.152527,28.520617,54.334267,STD
7033837550000,0.545024,1.77873434339882,-9.69185985507348,-0.782353836495497,0.040927973,0.15393804,-0.057726767,20.60845,29.270664,53.782433,STD
7033842604000,0.550078,1.75743529146144,-9.69278902039776,-0.771517702953025,0.067500606,0.14355333,-0.06291912,20.099411,30.007666,53.231247,STD
7033847539000,0.555013,1.72553725890377,-9.69420668995411,-0.753087728731665,0.10567969,0.14538592,-0.07147124,19.62975,30.73136,52.681026,STD
7033852584000,0.560058,1.69292822663357,-9.69565595903451,-0.734246954679635,0.1432479,0.14202617,-0.093462385,19.032742,31.420807,52.22996,STD
7033857538000,0.565012,1.66090738503465,-9.69707908669047,-0.715746024123886,0.17440203,0.13561209,-0.102319926,18.472015,32.100174,51.77279,STD
7033862534000,0.570008,1.62861507081821,-9.69851427961924,-0.6970882427237,0.19700404,0.13072516,-0.122478485,17.954332,32.759857,51.319843,STD
7033867519000,0.574993,1.59639385657303,-9.69994631259562,-0.678471541306581,0.23365596,0.12156218,-0.13164146,17.465967,33.407673,50.86451,STD
7033872534000,0.580008,1.56397873331534,-9.701386963624,-0.659742803572007,0.23793201,0.12186762,-0.13652839,17.015368,34.044777,50.409824,STD
7033877525000,0.584999,1.53171873726765,-9.70282072021078,-0.641103694891397,0.26389378,0.1301143,-0.14813483,16.598684,34.664104,49.957287,STD
7033882505000,0.589979,1.49952984119122,-9.70425131684515,-0.622505666193854,0.2706133,0.14172074,-0.15515977,16.213047,35.27756,49.502964,STD
7033887518000,0.594992,1.46712764520103,-9.70569139333673,-0.60378439754711,0.2764165,0.17348573,-0.17348573,15.871067,35.87504,49.050068,STD
7033892526000,0.6,1.43475776737959,-9.70713003348632,-0.585081801619942,0.2657264,0.16462818,-0.17073683,15.541516,36.47011,48.597107,STD
7033897547000,0.605021,1.40230386231939,-9.70857240812511,-0.566330656621877,0.27488935,0.14935656,-0.1600467,15.248961,37.052708,48.143887,STD
7033902633000,0.610107,1.36942982106543,-9.71003345520993,-0.547336766269325,0.27030787,0.14996742,-0.15363261,14.983477,37.630386,47.69091,STD
7033907550000,0.615024,1.33764813391527,-9.71144595393507,-0.528974013838438,0.28405234,0.14660765,-0.15485434,14.73312,38.19903,47.240555,STD
7033912526000,0.62,1.30548509237384,-9.71287540149584,-0.510390923316555,0.27397305,0.14844026,-0.15149458,14.505297,38.766506,46.78806,STD
7033917515000,0.624989,1.27323802359365,-9.71430858354581,-0.491759283723775,0.27550024,0.129198,-0.13652839,14.287681,39.327244,46.33735,STD
7033922536000,0.63001,1.24078411853346,-9.7157509581846,-0.47300813872571,0.2874121,0.13164146,-0.12675454,14.099799,39.880524,45.886433,STD
7033927523000,0.634997,1.20854997702078,-9.71718356569777,-0.454383968220761,0.28527406,0.13530666,-0.11911872,13.922768,40.431557,45.436428,STD
7033932508000,0.639982,1.17632876277559,-9.71861559867414,-0.435767266803642,0.28527406,0.13041973,-0.11362094,13.761178,40.976315,44.987595,STD
7033937542000,0.645016,1.14379083047665,-9.72006170780214,-0.416967572734679,0.28099802,0.13194689,-0.101098195,13.619354,41.518745,44.53658,STD
7033942529000,0.650003,1.11155668896396,-9.72149431531532,-0.39834340222973,0.2733622,0.13500121,-0.09682214,13.494143,42.05391,44.08967,STD
7033947535000,0.655009,1.07919973841002,-9.7229323809281,-0.379648275390392,0.26145032,0.15027285,-0.08124508,13.387415,42.58944,43.638256,STD
7033952828000,0.660302,1.04498772496975,-9.72445289257182,-0.359881334447401,0.26389378,0.13072516,-0.08552113,13.287255,43.11327,43.197662,STD
7033957532000,0.665006,1.0145827918084,-9.72580420312766,-0.342314039870444,0.23426682,0.122783914,-0.08155051,13.209247,43.64099,42.75164,STD
7033962521000,0.669995,0.982335723028217,-9.72723738517763,-0.323682400277664,0.2180789,0.112704635,-0.089491755,13.140341,44.155975,42.315857,STD
7033967516000,0.67499,0.950049872445531,-9.72867229083801,-0.305028353421394,0.19364429,0.09590584,-0.096516706,13.079897,44.669193,41.88398,STD
7033972531000,0.680005,0.917634749187839,-9.73011294186639,-0.286299615686819,0.17715092,0.08552113,-0.1001819,13.0327015,45.175186,41.457546,STD
7033977533000,0.685007,0.885303653168901,-9.73154985840558,-0.267619427023142,0.14538592,0.082161374,-0.11148291,12.997298,45.67436,41.0399,STD
7033982502000,0.689976,0.853185857063723,-9.73297729508754,-0.249062478308666,0.113926366,0.06383542,-0.112399206,12.965035,46.170155,40.626656,STD
7033987544000,0.695018,0.820596215694773,-9.73442570236274,-0.230232907888382,0.08155051,0.0693332,-0.1160644,12.954423,46.65861,40.219357,STD
7033992526000,0.7,0.788394392350841,-9.73585687353391,-0.211627410103009,0.052534413,0.07666359,-0.10751228,12.948948,47.14607,39.81443,STD
7033997504000,0.704978,0.75621842354191,-9.73728689563148,-0.193036850493296,0.028099801,0.079107046,-0.11148291,12.957428,47.62508,39.41791,STD
7034002599000,0.710073,0.723286209584196,-9.73875052813191,-0.174009349245508,-0.009162978,0.084910266,-0.10934488,12.979618,48.10523,39.02066,STD
7034007616000,0.71509,0.690858159059004,-9.74019175369709,-0.155273142423104,-0.028710667,0.09682214,-0.094989546,13.01509,48.581444,38.62467,STD
7034012520000,0.719994,0.659160499147594,-9.74160051793303,-0.136958939063113,-0.054367006,0.115453534,-0.07666359,13.065156,49.05659,38.230316,STD
7034017519000,0.724993,0.626848794029907,-9.74303657266701,-0.118289954031182,-0.07544186,0.12339478,-0.06261369,13.125027,49.52899,37.83755,STD
7034023324000,0.730798,0.589327400109488,-9.74470416573177,-0.0966109266036236,-0.076052725,0.1459968,-0.050701816,13.204981,49.99934,37.442387,STD
7034027526000,0.735,0.56216721109078,-9.74591126755057,-0.0809183730720821,-0.089186326,0.16035213,-0.044898596,13.293728,50.468002,37.04984,STD
7034032524000,0.739998,0.529861969606843,-9.74734703501615,-0.0622531225840658,-0.09437868,0.17806722,-0.0290161,13.398604,50.93502,36.6542,STD
7034037495000,0.744969,0.497731246234164,-9.74877504623491,-0.043688704781759,-0.10751228,0.19394971,-0.02687807,13.517254,51.394897,36.2649,STD
7034042502000,0.749976,0.481579757977316,-9.73722357239387,-0.0278802038932123,-0.110872045,0.19853121,-0.02107485,13.644667,51.85275,35.87488,STD
7034047525000,0.754999,0.471948737189335,-9.72036929789428,-0.0131928968081326,-0.1160644,0.20952678,-0.007941248,13.786821,52.30767,35.485893,STD
7034052493000,0.759967,0.462423172531821,-9.70369957149293,0.00133358967378584,-0.106901415,0.2275473,-0.014660766,14.057278,52.861412,34.93522,STD
7034057506000,0.76498,0.452811325585743,-9.68687885119301,0.0159916566491999,-0.115453534,0.25137106,-0.00030543262,14.329376,53.418533,34.38314,STD
7034062479000,0.769953,0.443276174007278,-9.67019234769182,0.0305327631859512,-0.10842858,0.267559,-0.009773844,14.606033,53.957226,33.848015,STD
7034067602000,0.775076,0.433453414800264,-9.65300253119541,0.0455124713676879,-0.10873401,0.27152961,-0.01282817,14.8835125,54.495132,33.31546,WAL
7034072549000,0.780023,0.423968115210747,-9.63640326861339,0.0599775536193084,-0.098043874,0.27947086,-0.014660766,15.1668415,55.02138,32.792877,WAL
7034077561000,0.785035,0.41435818564886,-9.61958590373344,0.0746326965837558,-0.09132435,0.26939157,-0.025350908,15.445092,55.53712,32.28336,WAL
7034082550000,0.790024,0.404792355923349,-9.60284571351276,0.0892205872959723,-0.07941248,0.26847526,-0.03145956,15.727438,56.044518,31.780708,WAL
7034087562000,0.795036,0.395182426361461,-9.58602834863281,0.10387573026042,-0.07147124,0.26175576,-0.041233405,16.004303,56.540302,31.29162,WAL
7034093025000,0.800499,0.384707756529739,-9.56769768934726,0.11984960217079,-0.082161374,0.24862215,-0.058948494,16.278475,57.025597,30.815332,WAL
7034097602000,0.805076,0.375931889090641,-9.55233993215342,0.13323280036478,-0.058948494,0.23487769,-0.06719518,16.548985,57.499527,30.347818,WAL
7034102450000,0.809924,0.366636410535965,-9.53607285614824,0.14740840553071,-0.06994407,0.23548855,-0.07727446,16.820063,57.965424,29.893778,WAL
7034107456000,0.81493,0.35703798527922,-9.5192756237881,0.162046004429358,-0.06688975,0.24190263,-0.083383106,17.087648,58.41955,29.449306,WAL
7034112440000,0.819914,0.347481742474661,-9.50255221066725,0.176619275086742,-0.06658431,0.24740042,-0.09712757,17.355127,58.863388,29.01757,WAL
7034117474000,0.824948,0.337829630460586,-9.48566102654801,0.191338746292454,-0.071776666,0.2489276,-0.11728613,17.622986,59.297325,28.596827,WAL
7034122430000,0.829904,0.328327074413356,-9.46903156518627,0.205830144642773,-0.076358154,0.25717425,-0.122478485,17.893358,59.724876,28.182486,WAL
7034127445000,0.834919,0.318711392698897,-9.45220413404642,0.22049405964012,-0.07452556,0.25442538,-0.13225232,18.161003,60.13917,27.782894,WAL
7034132448000,0.839922,0.309118719594722,-9.43541696794618,0.235122886505869,-0.07880162,0.25228736,-0.14721853,18.430748,60.54537,27.39286,WAL
7034137436000,0.84491,0.299554807253402,-9.41868013314547,0.249707853207119,-0.09040806,0.25259277,-0.15882497,18.699408,60.944134,27.011631,WAL
7034142441000,0.849915,0.289958299380847,-9.4018862562053,0.2643425280948,-0.087964594,0.23976462,-0.16768251,18.962635,61.332497,26.641485,WAL
7034147509000,0.854983,0.280240996304301,-9.38488098780714,0.279161415673375,-0.089491755,0.22937989,-0.17165314,19.225769,61.71458,26.27973,WAL
7034152491000,0.859965,0.270688588268123,-9.36816428552623,0.293728838308826,-0.09254608,0.20250183,-0.183565,19.479397,62.086132,25.930763,WAL
7034157420000,0.864894,0.261237801594032,-9.35162542050363,0.308141288363048,-0.10720685,0.17623462,-0.19120082,19.728676,62.453236,25.588581,WAL
7034162419000,0.869893,0.251652798026618,-9.33485167608327,0.32275841918493,-0.12461651,0.17287487,-0.19700404,19.976143,62.812454,25.255617,WAL
7034167420000,0.874894,0.242063959690824,-9.31807122082297,0.337381398028745,-0.12461651,0.16065755,-0.19700404,20.21176,63.16516,24.931007,WAL
7034172414000,0.879888,0.232488543044362,-9.30131425350245,0.351983908795795,-0.13469578,0.13988814,-0.20616703,20.443542,63.51099,24.617094,WAL
7034177434000,0.884908,0.222863274408951,-9.28447004526275,0.366662443847975,-0.14172074,0.12034045,-0.21685717,20.671074,63.850464,24.309914,WAL
7034182447000,0.889921,0.213251427462873,-9.26764932496284,0.381320510823389,-0.16126843,0.09101892,-0.2180789,20.888302,64.18676,24.00974,WAL
7034187421000,0.894895,0.203714358500218,-9.25095946604167,0.395864541371107,-0.17501289,0.05100725,-0.22510384,21.096327,64.51326,23.721102,WAL
7034192421000,0.899895,0.194127437548614,-9.23418236620134,0.410484596203955,-0.18203785,0.032070424,-0.22143865,21.30073,64.83809,23.43546,WAL
7034197487000,0.904961,0.184413969240449,-9.21718380864312,0.425297635760597,-0.18997909,0.025045475,-0.21746802,21.496416,65.15711,23.158167,WAL
7034202479000,0.909953,0.174842387362367,-9.20043355216253,0.439894298505714,-0.19456059,0.02076942,-0.21991149,21.68694,65.47031,22.887424,WAL
7034207428000,0.914902,0.16535325300447,-9.18382757874057,0.454365228779267,-0.20891592,0.0009162979,-0.21471913,21.86965,65.782936,22.619354,WAL
7034212426000,0.9199,0.155770166821246,-9.16705718974018,0.468979435590183,-0.1994475,-0.019547688,-0.20555615,22.050528,66.08869,22.355875,WAL
7034217424000,0.924898,0.146187080638023,-9.15028680073978,0.483593642401098,-0.2144137,-0.026267206,-0.19608775,22.229094,66.39438,22.095858,WAL
7034222419000,0.929893,0.136609746607371,-9.13352647799929,0.498199077179114,-0.22602014,-0.056199603,-0.19303341,22.394066,66.69417,21.841597,WAL
7034227433000,0.934907,0.126995982277102,-9.1167024022794,0.512860068165495,-0.23273966,-0.09743301,-0.1881465,22.552969,66.99262,21.589464,WAL
7034232438000,0.939912,0.117399474404547,-9.09990852533923,0.527494743053176,-0.24617869,-0.13713925,-0.17867808,22.70296,67.28953,21.340813,WAL
7034237487000,0.944961,0.107718601627617,-9.08296700992047,0.542258074423387,-0.24587326,-0.15668693,-0.17287487,22.846746,67.58072,21.097055,WAL
7034242444000,0.949918,0.104812373699071,-9.09603069556247,0.512685113185515,-0.27152961,-0.17989981,-0.15607607,22.976952,67.87572,20.853504,WAL
7034247439000,0.954913,0.104097162896936,-9.11915583386161,0.468103647835058,-0.28313604,-0.2134974,-0.14263703,23.098501,68.164604,20.614618,WAL
7034252469000,0.959943,0.103376940607699,-9.14244301016686,0.423209799844507,-0.30634892,-0.25503623,-0.13988814,23.183064,68.47626,20.308058,WAL
7034257433000,0.964907,0.102666168551283,-9.16542462908917,0.378905016260989,-0.33200526,-0.28802297,-0.12767084,23.258696,68.79065,20.000952,WAL
7034262428000,0.969902,0.101950957749148,-9.18854976738831,0.334323550910532,-0.35277468,-0.32070425,-0.12095132,23.321888,69.10119,19.701082,WAL
7034267440000,0.974914,0.101233312796135,-9.21175360986185,0.289590356849172,-0.3594942,-0.34147367,-0.12186762,23.37877,69.409164,19.405598,WAL
7034272431000,0.979905,0.100518674735383,-9.23486022953173,0.245044592371868,-0.3839288,-0.36071593,-0.129198,23.426733,69.715904,19.11601,WAL
7034277763000,0.985237,0.0997552104717222,-9.25954556234675,0.197455328458226,-0.39461896,-0.39522982,-0.1328632,23.464369,70.017815,18.831696,WAL
7034282419000,0.989893,0.0990885395018041,-9.28110124681538,0.155899512107529,-0.40103304,-0.41233405,-0.13103059,23.502308,70.316246,18.552626,WAL
7034287434000,0.994908,0.0983704649927536,-9.30431897826087,0.111139542391304,-0.42088616,-0.42210788,-0.13561209,23.53341,70.60936,18.281916,WAL
7034292427000,0.999901,0.0976555405613101,-9.32743485724538,0.0665759274774235,-0.43493605,-0.4364632,-0.1459968,23.559193,70.89661,18.017565,WAL
7034297413000,1.004887,0.096941618427287,-9.35051832862867,0.0220747890915614,-0.44532076,-0.4560109,-0.14172074,23.581268,71.18328,17.755226,WAL
7034302508000,1.009982,0.0962120890905747,-9.37410643265953,-0.0233991980877339,-0.45845437,-0.48258355,-0.1337795,23.598354,71.46495,17.499735,WAL
7034307484000,1.014958,0.0954995988100094,-9.39714360746965,-0.0678110842907123,-0.4783075,-0.50610185,-0.13164146,23.611832,71.74304,17.249401,WAL
7034312476000,1.01995,0.0947848175639116,-9.42025485679684,-0.112365773986305,-0.49938235,-0.5375614,-0.13164146,23.616255,72.01921,17.002644,WAL
7034317475000,1.024949,0.0940690340203935,-9.44339851372526,-0.156982940209916,-0.50579643,-0.5503896,-0.122783914,23.62045,72.29403,16.757004,WAL
7034322486000,1.02996,0.0933515322527261,-9.46659772654148,-0.201707209052987,-0.5198463,-0.58368176,-0.12705997,23.611338,72.56304,16.520634,WAL
7034327506000,1.03498,0.0926327418169468,-9.48983860627355,-0.246511804860654,-0.5311473,-0.6026186,-0.12217305,23.603935,72.832405,16.283072,WAL
7034332466000,1.03994,0.0919225425019138,-9.5128017065666,-0.290780887571018,-0.5546656,-0.6197228,-0.12644911,23.589521,73.09561,16.054113,WAL
7034337494000,1.044968,0.0912026065833682,-9.5360796235572,-0.335656885124992,-0.5546656,-0.63346726,-0.12675454,23.572256,73.35525,15.826915,WAL
7034342485000,1.049959,0.0904879685226163,-9.55918624322708,-0.380202649602296,-0.5516113,-0.65087694,-0.13500121,23.551252,73.60852,15.607487,WAL
7034348035000,1.055509,0.0896932898535773,-9.58488084133724,-0.429737611102805,-0.5390886,-0.64904433,-0.13927728,23.533844,73.85718,15.390583,WAL
7034352559000,1.060033,0.0890455193493013,-9.60582541104001,-0.470115298639435,-0.52687126,-0.6609562,-0.14935656,23.509659,74.09706,15.182089,WAL
7034357541000,1.065015,0.0883321699566613,-9.62889036379403,-0.514580736152144,-0.47952923,-0.6395759,-0.15607607,23.497837,74.328156,14.976573,WAL
7034362522000,1.069996,0.0876189637493671,-9.65195068689074,-0.559037248446564,-0.43493605,-0.60048056,-0.16157386,23.489828,74.55169,14.776962,WAL
7034367515000,1.074989,0.0869040393179236,-9.67506656587525,-0.603600863360445,-0.39064834,-0.56321776,-0.16829337,23.48938,74.765015,14.582655,WAL
7034372541000,1.080015,0.0861843897700696,-9.69833522355122,-0.648459010477842,-0.35033122,-0.5375614,-0.17837265,23.498444,74.968704,14.393694,WAL
7034377526000,1.085,0.0854706108213923,-9.7214140652772,-0.692951223645416,-0.3051272,-0.52381694,-0.18875736,23.515959,75.16279,14.20956,WAL
7034382502000,1.089976,0.0847581205408269,-9.74445124008732,-0.737363109848394,-0.25259277,-0.49021935,-0.20677789,23.547815,75.34466,14.032815,WAL
7034387551000,1.095025,0.0840351777300201,-9.76782637988159,-0.782426536986424,-0.19517145,-0.4633413,-0.22937989,23.5824,75.51502,13.863438,WAL
7034392528000,1.100002,0.083322544264109,-9.79086818434902,-0.826847348407691,-0.1386664,-0.44532076,-0.24923302,23.624577,75.67386,13.701015,WAL
7034397573000,1.105047,0.0826001741946853,-9.81422480551402,-0.871875074672567,-0.08735373,-0.44043383,-0.26236662,23.670828,75.82113,13.545812,WAL
7034402596000,1.11007,0.0818809542028686,-9.83747957421805,-0.9167064461351,-0.04917465,-0.44165558,-0.2938262,23.720873,75.95159,13.404101,WAL
7034407619000,1.115093,0.081161734211052,-9.86073434292207,-0.961537817597632,-0.022907447,-0.45020768,-0.3115413,23.76953,76.07628,13.265026,WAL
7034412522000,1.119996,0.080459696460728,-9.88343355274804,-1.00529816286556,-0.0021380284,-0.46303585,-0.33078352,23.816563,76.18673,13.138044,WAL
7034418126000,1.1256,0.0796572857830174,-9.90937815235333,-1.05531508615364,0.008246681,-0.48380527,-0.35796702,23.858587,76.28653,13.0211735,WAL
7034422537000,1.130011,0.0790256952228136,-9.92979957077926,-1.09468422402368,-0.002443461,-0.47311515,-0.36926803,23.905449,76.38334,12.907151,WAL
7034427545000,1.135019,0.0783086230111835,-9.95298489462353,-1.13938171721189,-0.01038471,-0.46700647,-0.3820962,23.944904,76.46923,12.803993,WAL
7034432498000,1.139972,0.077599425993571,-9.97591558731535,-1.18358832339423,-0.009773844,-0.50610185,-0.40561453,23.974089,76.547554,12.70987,WAL
7034437604000,1.145078,0.0768683216180551,-9.9995546175767,-1.2291604879747,-0.017104227,-0.49235737,-0.4111123,24.019724,76.62708,12.614832,WAL
7034442533000,1.150007,-0.0347195635655217,-10.0244631488167,-1.18653455352242,-0.0106901415,-0.46517387,-0.40286562,24.057579,76.70107,12.524875,WAL
7034447541000,1.155015,-0.211386471033244,-10.050963258219,-1.0937844473248,-0.007941248,-0.45906523,-0.40225476,24.093033,76.77109,12.440475,WAL
7034452556000,1.16003,-0.376039635809935,-10.0700225917927,-0.986287034470842,-0.0070249503,-0.45173484,-0.37720928,23.919024,76.961945,12.297298,WAL
7034457610000,1.165084,-0.527620022492441,-10.0804760758099,-0.860841165598272,0.014049901,-0.44623706,-0.3662137,23.750982,77.141655,12.160867,WAL
7034462519000,1.169993,-0.649917292315893,-10.1386773017769,-0.785449404483712,0.020463986,-0.441961,-0.35430184,23.530855,77.3758,11.947423,WAL
7034467511000,1.174985,-0.758463241757157,-10.228345547384,-0.738255509565647,0.03970624,-0.46395215,-0.3484986,23.309769,77.601715,11.738419,WAL
7034472533000,1.180007,-0.818291380628355,-10.3604457173891,-0.673973722081925,0.070249505,-0.46609017,-0.3472769,23.008945,77.868324,11.456603,WAL
7034477524000,1.184998,-0.842052490554782,-10.522021775005,-0.597938184211573,0.101098195,-0.47861293,-0.3378085,22.70584,78.12716,11.1800375,WAL
7034482518000,1.189992,-0.836973159224528,-10.6738825146226,-0.539427190686792,0.121256754,-0.50640726,-0.3313944,22.36726,78.40377,10.875006,WAL
7034488003000,1.195477,-0.807239890116038,-10.8324598153302,-0.489871726649057,0.15699236,-0.5421429,-0.3277292,22.02953,78.66601,10.578315,WAL
7034492497000,1.199971,-0.748742945414069,-10.9319565864253,-0.473457344397942,0.19547687,-0.61422503,-0.32742378,21.686663,78.91866,10.290568,WAL
7034497534000,1.205008,-0.643742038121104,-11.0083209351934,-0.483002890485802,0.24587326,-0.70829827,-0.32834008,21.3317,79.155495,10.012821,WAL
7034502534000,1.210008,-0.542801072352546,-11.0688783896824,-0.505660555887246,0.29657507,-0.7892379,-0.31123585,20.972338,79.37649,9.749726,WAL
7034507612000,1.215086,-0.444738168333053,-11.109737901025,-0.546520105628466,0.3371976,-0.8573494,-0.2919936,20.592678,79.58224,9.496978,WAL
7034512652000,1.220126,-0.3490126146254,-11.1520216609486,-0.587738069755089,0.3576616,-0.92485,-0.2602286,20.192165,79.76492,9.271394,WAL
7034517509000,1.224983,-0.27691193277462,-11.214508669939,-0.635805184296786,0.3643811,-0.95478237,-0.2443461,19.784992,79.93545,9.053596,WAL
7034522524000,1.229998,-0.20679909913713,-11.2645520250143,-0.685140834032429,0.3576616,-1.0256428,-0.2312125,19.345308,80.0879,8.8645735,WAL
7034527534000,1.235008,-0.171614693319482,-11.1980928829952,-0.732053371040495,0.3659083,-1.0858129,-0.20280726,18.900974,80.237144,8.674187,WAL
7034532493000,1.239967,-0.136788452111953,-11.1323102711643,-0.778488355276624,0.3753767,-1.1252137,-0.18478674,18.444145,80.373184,8.508229,WAL
7034537497000,1.244971,-0.143009288273438,-11.0350526007326,-0.862747891633502,0.3747658,-1.144456,-0.16584991,17.976297,80.50953,8.341137,WAL
7034542523000,1.249997,-0.171600336866647,-10.9206880879121,-0.967581728182358,0.3830125,-1.1667526,-0.15607607,17.497198,80.63833,8.178708,WAL
7034547546000,1.25502,-0.187822605260038,-10.855799033652,-1.05540257491396,0.4071417,-1.1566733,-0.13744467,17.019331,80.76103,8.028341,WAL
7034552601000,1.260075,-0.197078962673996,-10.8187738166348,-1.1340816685086,0.4361578,-1.1313224,-0.12522738,16.540274,80.87645,7.8824496,WAL
7034557598000,1.265072,-0.126229107070465,-10.840079834083,-1.15767278923538,0.46822822,-1.0772609,-0.111177474,16.07114,80.99739,7.733764,WAL
7034562523000,1.269997,0.00576905942128936,-10.9060787721139,-1.13881587244378,0.5137377,-1.0375546,-0.0842994,15.605818,81.11226,7.582568,WAL
7034567509000,1.274983,0.190636199701249,-11.0575025817491,-1.09916355524172,0.57696223,-1.0079277,-0.056199603,15.152001,81.2251,7.4309688,WAL
7034572537000,1.280011,0.420804165589354,-11.2824396250951,-1.04162155011407,0.63713247,-0.9767735,-0.042760566,14.71116,81.32823,7.279723,WAL
7034577521000,1.284995,0.61493010653747,-11.5516025181404,-0.981437567537669,0.6979135,-0.9642508,-0.024740042,14.266836,81.401375,7.147092,WAL
7034582515000,1.289989,0.795085711027954,-11.8407995730571,-0.919805409591594,0.7733554,-0.960891,-0.017715093,13.82982,81.45688,7.0179687,WAL
7034587540000,1.295014,0.982345925113524,-12.0562107257651,-0.854716297543929,0.86070913,-0.94989544,0.0018325958,13.3891735,81.46853,6.9188876,WAL
7034592530000,1.300004,1.1710459030997,-12.2354758600197,-0.788671278155972,0.9392053,-0.9392053,0.017715093,12.949726,81.463646,6.823292,WAL
7034597516000,1.30499,1.38087896490114,-12.3337009646291,-0.751882659259931,1.0054842,-0.9370673,0.044898596,12.499492,81.42074,6.750384,WAL
7034603575000,1.311049,1.64927359658081,-12.4021155701977,-0.725569476237983,1.0705414,-0.9202685,0.08979719,12.055465,81.36549,6.6718388,WAL
7034607526000,1.315,1.8605257393007,-12.4037600769231,-0.70524140965035,1.1273518,-0.9166033,0.14813483,11.597789,81.27163,6.6172123,WAL
7034612520000,1.319994,2.16153212963037,-12.3655367692308,-0.676574153386613,1.185384,-0.9080512,0.22876903,11.143582,81.173775,6.5473423,WAL
7034617501000,1.324975,2.43837531106175,-12.2610955227519,-0.670067303206934,1.2308935,-0.8915578,0.2733622,10.670165,81.03131,6.518536,WAL
7034622531000,1.330005,2.68888713132178,-12.0732116711809,-0.69094327460455,1.2608259,-0.8888089,0.34422258,10.190678,80.89744,6.463792,WAL
7034627529000,1.335003,2.87566863961984,-11.8221032893834,-0.639894973041261,1.3356569,-0.9068295,0.4364632,9.677076,80.70983,6.450777,WAL
7034632501000,1.339975,3.02136405228558,-11.5307127406583,-0.542764751715345,1.4013249,-0.9120218,0.5342017,9.16356,80.5288,6.419363,WAL
7034637597000,1.345071,3.1458720602246,-11.2002483791731,-0.409231280948443,1.4844025,-0.90010995,0.63224554,8.621951,80.308914,6.411637,WAL
7034642528000,1.350002,3.23747393078101,-10.8434826003063,-0.240490779525268,1.565953,-0.8738427,0.7180721,8.077531,80.087166,6.3835073,WAL
7034647593000,1.355067,3.40403520810811,-10.3037063487819,0.0507703821726304,1.6664404,-0.8368854,0.79901177,7.517193,79.81309,6.3679137,WAL
7034652504000,1.359978,3.63677678918919,-9.60995749505139,0.449116514920061,1.7730364,-0.80878556,0.88056225,6.9551244,79.52953,6.3323617,WAL
7034657496000,1.36497,3.77809941146904,-9.14930529484412,0.733860975619656,1.8451185,-0.80573124,0.93737274,6.380999,79.18812,6.3087935,WAL
7034662507000,1.369981,3.76566586501425,-9.082992960532,0.825040385530702,1.9104811,-0.77121735,0.9950995,5.8156047,78.83104,6.266056,WAL
7034667578000,1.375052,3.7842251404819,-9.04074236507771,0.902370562442891,1.9743165,-0.74006325,1.0516045,5.2104483,78.34166,6.2732444,WAL
7034673306000,1.38078,4.20192449902994,-9.30967217419422,0.79937616339418,2.0430388,-0.7125743,1.0803152,4.6062346,77.83433,6.2787437,WAL
7034677485000,1.384959,4.46224659030235,-9.52226468808299,0.735720679028627,2.121535,-0.6542367,1.1078042,4.013973,77.2936,6.271618,WAL
7034682539000,1.390013,4.52451897418784,-9.87254679663879,0.724044622290125,2.2241604,-0.56230146,1.108415,3.432316,76.725655,6.2692313,WAL
7034687606000,1.39508,4.58695153634609,-10.2237299078482,0.712338532164683,2.3316727,-0.4908302,1.0906999,2.8055487,76.12169,6.335636,WAL
7034692567000,1.400041,4.62241636288253,-10.614488453307,0.679933423461994,2.4410176,-0.40225476,1.0567969,2.2045345,75.49049,6.407476,WAL
7034697509000,1.404983,4.64577694807502,-11.0256345575518,0.637884335965449,2.525317,-0.27183503,0.98929626,1.6328447,74.83428,6.493689,WAL
7034702550000,1.410024,4.61028956812958,-11.3217986775747,0.642817868529058,2.5702155,-0.19272798,0.90194255,1.0662783,74.17417,6.604049,WAL
7034707500000,1.414974,4.54284209357557,-11.5448943161869,0.673947485088103,2.5555549,-0.113926366,0.8567385,0.53283906,73.51096,6.717814,WAL
7034712523000,1.419997,4.39591281102397,-11.6218868130719,0.59696264746841,2.5057693,-0.09315695,0.81183994,0.010302443,72.86863,6.852497,WAL
7034717516000,1.42499,4.23154554748971,-11.6635575135802,0.495101209884774,2.4791965,-0.09101892,0.77946407,359.5033,72.22881,6.9948087,WAL
7034722533000,1.430007,4.06638821499395,-11.7054285138707,0.39275015193222,2.395508,-0.118507855,0.73792523,359.00693,71.63128,7.135864,WAL
7034727515000,1.434989,3.90238306640039,-11.7470074103123,0.291113123684338,2.2653937,-0.11362094,0.74372846,358.51627,71.063614,7.2718587,WAL
7034732508000,1.439982,3.76633652973934,-11.6093046062401,0.184673126920024,2.1474967,-0.0870483,0.7458665,358.02582,70.51869,7.421847,WAL
7034737632000,1.445106,3.64036292902844,-11.3815830778041,0.0732349588382701,2.0097466,-0.046120327,0.7470882,357.53894,70.022316,7.569467,WAL
7034742629000,1.450103,3.54936249151299,-11.0751632100932,0.0640656654417014,1.8726074,-0.0106901415,0.74067414,357.11115,69.63132,7.642778,WAL
7034747515000,1.454989,3.47513317424152,-10.7364921014277,0.101180301309042,1.7531832,0.0021380284,0.74372846,356.6863,69.27855,7.7129893,WAL
7034752600000,1.460074,3.3796149357516,-10.3884405628388,0.145846884270084,1.627345,-0.0021380284,0.7620544,356.27185,68.97435,7.762325,WAL
7034757534000,1.465008,3.27714638245441,-10.0530890576639,0.192423489236077,1.5512923,0.024740042,0.7874053,355.86734,68.69365,7.806459,WAL
7034762468000,1.469942,3.13232652413793,-9.74637048606287,0.312890499310345,1.4688255,0.07147124,0.8210029,355.46542,68.43041,7.8380065,WAL
7034767519000,1.474993,2.95609887586207,-9.4512911773278,0.485019870689655,1.3790283,0.07971791,0.86101454,355.05624,68.19615,7.864171,WAL
7034772463000,1.479937,2.75687852312446,-9.17587575369316,0.628333582904316,1.3200798,0.08735373,0.904386,354.6645,67.95999,7.865596,WAL
7034777530000,1.485004,2.4663897663416,-8.93692587708796,0.693927803472048,1.2950343,0.15760323,0.9605856,354.28558,67.746826,7.848296,WAL
7034782490000,1.489964,2.20343878811189,-8.71741513095995,0.795042363064209,1.2675453,0.21044308,0.9960158,353.92795,67.517944,7.791913,WAL
7034787539000,1.495013,2.03949458041958,-8.56371753655436,1.07682150012715,1.207986,0.2171626,1.0231993,353.57062,67.31108,7.7238317,WAL
7034792479000,1.499953,1.86993614936508,-8.46973612063492,1.33274187281746,1.1722504,0.22174409,1.0684034,353.26886,67.11247,7.5780673,WAL
7034797526000,1.505,1.67333887630952,-8.51768662619048,1.54372424747024,1.149343,0.23762658,1.0861185,352.9705,66.9266,7.434809,WAL
7034802522000,1.509996,1.44110152214349,-8.52664125863596,1.72160279379982,1.1472049,0.24251351,1.1108584,352.68088,66.70786,7.250852,WAL
7034807526000,1.515,1.10924542091151,-8.43402998751912,1.81807261269023,1.1545353,0.22479841,1.146594,352.38452,66.494774,7.0648117,WAL
7034812763000,1.520237,0.761937187068202,-8.3371064809566,1.9190343316209,1.1850786,0.19792034,1.1899655,352.11633,66.26347,6.826254,WAL
7034817503000,1.524977,0.57139837963184,-8.34512595043997,1.81629704807323,1.1774428,0.1872302,1.2241739,351.8426,66.04116,6.5863395,WAL
7034822468000,1.529942,0.398266142997876,-8.37398140356023,1.66721090854658,1.1575897,0.14630222,1.2669345,351.5457,65.81661,6.3448234,WAL
7034827525000,1.534999,0.301778622003784,-8.17386702858281,1.78910025554228,1.138042,0.11362094,1.2983941,351.31137,65.59566,6.0055976,WAL
7034832480000,1.539954,0.226163718204362,-7.92339254347177,1.97341159928294,1.0601566,0.077579886,1.3264939,351.0583,65.394936,5.6679173,WAL
7034837599000,1.545073,0.183277701663512,-7.75857080266959,2.00721339601554,0.977079,-0.14996742,1.3179418,350.7727,65.23368,5.3216496,WAL
7034842464000,1.549938,0.150790584694691,-7.62398132154597,2.00257238276721,0.9630291,-0.33658674,1.3509285,350.47833,65.07373,4.964291,WAL
7034847559000,1.555033,0.121753449693298,-7.57615873744794,2.08184767145021,0.9779953,-0.5109888,1.3637567,350.1318,64.87375,4.63494,WAL
7034852511000,1.559985,0.0948180010299129,-7.55371254585384,2.18061100821658,0.98563105,-0.6377433,1.3396275,349.7479,64.67551,4.330436,WAL
7034857622000,1.565096,0.137772563096669,-7.43648356332892,2.12283479839055,0.9669997,-0.7877107,1.2913691,349.31094,64.46577,4.0552807,WAL
7034862486000,1.56996,0.208947444873179,-7.28464392123867,1.99946499009881,0.9584476,-0.9092729,1.2311989,348.85196,64.24707,3.8084228,WAL
7034867546000,1.57502,0.288592527912568,-7.09837686259314,1.93559871703924,0.9392053,-0.9978484,1.1594223,348.3653,64.01122,3.5927577,WAL
7034872527000,1.580001,0.369162353180328,-6.90406144590164,1.89768348360656,0.9062186,-1.1154399,1.0833695,347.8476,63.779068,3.4186592,WAL
7034877557000,1.585031,0.435868514462897,-6.64212464305234,1.84701310575993,0.90285885,-1.1890492,0.99265605,347.31146,63.544727,3.300038,WAL
7034882575000,1.590049,0.496482019810805,-6.35421043199496,1.79145075486651,0.8875872,-1.1939361,0.90224797,346.77295,63.3223,3.2117584,WAL
7034887618000,1.595092,0.548477048246258,-6.13047634114657,1.79244235529511,0.84482664,-1.1866057,0.8060367,346.20844,63.09089,3.1864402,WAL
7034892542000,1.600016,0.597306784441307,-5.92627936364492,1.80575954343406,0.79779,-1.1722504,0.72143185,345.6559,62.865818,3.1845045,WAL
7034897557000,1.605031,0.62443594079182,-5.76020334551652,1.84745744900367,0.752586,-1.1475104,0.64751714,345.09927,62.631435,3.2268956,WAL
7034902603000,1.610077,0.641329703592029,-5.61238288793917,1.9023621362087,0.70371675,-1.1065824,0.57635134,344.5628,62.41263,3.2884629,WAL
7034907559000,1.615033,0.636592912252154,-5.49655740704548,1.95332496741193,0.63529986,-1.0931433,0.50518554,344.01758,62.184517,3.391215,WAL
7034912554000,1.620028,0.600072777919075,-5.42351709479769,2.00027938381503,0.56688297,-1.0534371,0.46609017,343.4967,61.973,3.4964323,WAL
7034917540000,1.625014,0.563462491105769,-5.40469370115385,2.05438067709615,0.5357288,-0.98990715,0.40011674,342.9868,61.73821,3.6329927,WAL
7034922567000,1.630041,0.526429693846154,-5.42783916923077,2.11455899076923,0.47128254,-0.94134337,0.33567044,342.49072,61.534714,3.7762504,WAL
7034928396000,1.63587,0.4724629464084,-5.5034583156285,2.17712095781425,0.40408736,-0.8940013,0.28863382,342.01898,61.327374,3.9166417,WAL
7034932543000,1.640017,0.42792577295341,-5.58443494851667,2.21760927425833,0.33017266,-0.84665924,0.24953845,341.56973,61.14156,4.064546,WAL
7034937598000,1.645072,0.372461187242654,-5.66836799544658,2.26577674516443,0.26267207,-0.77824235,0.22815818,341.1457,60.966007,4.199412,WAL
7034942547000,1.650021,0.317124799392878,-5.73753872101576,2.31189046590776,0.19425514,-0.698219,0.20799962,340.74408,60.81318,4.3349576,WAL
7034947569000,1.655043,0.237997397671669,-5.81067406775315,2.38380652802345,0.109650314,-0.6236934,0.19975294,340.36792,60.68865,4.446748,WAL
7034952590000,1.660064,0.132872363917718,-5.88712858477591,2.48415303172016,0.05009095,-0.5329799,0.19792034,340.01974,60.578247,4.5478206,WAL
7034957515000,1.664989,0.0131597210924701,-5.94707978426922,2.56958111018455,-0.03268129,-0.45723262,0.17928895,339.69843,60.499058,4.628475,WAL
7034962576000,1.67005,-0.130336437640778,-5.99012855137669,2.6413292884437,-0.08979719,-0.36468655,0.15271631,339.40677,60.430664,4.695984,WAL
7034967503000,1.674977,-0.238120081742542,-6.00143370741721,2.76013961473406,-0.1591304,-0.2779437,0.12980886,339.15408,60.383415,4.7243986,WAL
7034972570000,1.680044,-0.304526909711705,-5.9704439243226,2.9505058478241,-0.23304509,-0.22602014,0.10170906,338.9211,60.353054,4.7524652,WAL
7034977479000,1.684953,-0.358826686686391,-5.92477287827557,3.13142971863905,-0.32711834,-0.19608775,0.07666359,338.7323,60.345684,4.7334003,WAL
7034982554000,1.690028,-0.379368650073964,-5.82206311496196,3.30603636989645,-0.41386122,-0.19272798,0.058948494,338.55292,60.35622,4.716431,WAL
7034987520000,1.694994,-0.381579065946688,-5.72877663014504,3.44106001489612,-0.50793445,-0.18600847,0.038789943,338.3981,60.351807,4.680885,WAL
7034992550000,1.700024,-0.348533267318698,-5.64852239847119,3.50715157271658,-0.60903263,-0.19486602,0.010079277,338.24417,60.37244,4.654183,WAL
7034998162000,1.705636,-0.318213434858546,-5.57805900516692,3.59553372376967,-0.713796,-0.16584991,-0.008552114,338.1045,60.37448,4.62042,WAL
7035002609000,1.710083,-0.30271700110252,-5.54706617001728,3.68463820573092,-0.80878556,-0.17440203,-0.03726278,337.9592,60.40016,4.603116,WAL
7035007491000,1.714965,-0.280590391436717,-5.52384959643621,3.78355630864474,-0.8762862,-0.1731803,-0.047036625,337.81836,60.421112,4.591513,WAL
7035012539000,1.720013,-0.206753124274514,-5.60753197990021,3.89677347561348,-0.9089675,-0.16982053,-0.07666359,337.68356,60.45605,4.5927186,WAL
7035017540000,1.725014,-0.130619979302367,-5.70706564019016,4.01503139793998,-0.9801333,-0.18387043,-0.096516706,337.5379,60.489067,4.602291,WAL
7035022550000,1.730024,-0.0355822432104586,-5.91139663196989,4.1718436536595,-1.0436633,-0.19242255,-0.11056661,337.39908,60.52743,4.6159644,WAL
7035027507000,1.734981,0.0446834632677,-6.1383241152,4.3282329716,-1.10139,-0.20891592,-0.1142318,337.24854,60.564396,4.6526413,WAL
7035032552000,1.740026,0.0156944699922,-6.5683276272,4.4973353176,-1.1249083,-0.20922135,-0.11911872,337.1037,60.60825,4.690872,WAL
7035037526000,1.745,-0.012281111638494,-7.01349690038239,4.66314028710658,-1.1636983,-0.22571471,-0.13255776,336.9406,60.657215,4.756732,WAL
7035042490000,1.749964,-0.0355869592521816,-7.61944876409452,4.82162018501814,-1.1600331,-0.24709499,-0.13530666,336.77753,60.70069,4.820092,WAL
7035047603000,1.755077,-0.0644223055398779,-8.25908942925047,4.97166796930852,-1.1453724,-0.2837469,-0.12461651,336.61978,60.769417,4.8683553,WAL
7035052547000,1.760021,-0.140231745251676,-9.03139808611028,4.9858821795757,-1.1071932,-0.32375857,-0.10934488,336.457,60.830135,4.9182878,WAL
7035057535000,1.765009,-0.217032200835646,-9.82604461449247,4.99163129817605,-1.0302242,-0.37048978,-0.08368854,336.28714,60.917927,4.9482346,WAL
7035062498000,1.769972,-0.29712783314433,-10.7966156443299,4.89740120618557,-0.9089675,-0.4456262,-0.03145956,336.09488,60.98414,4.976691,WAL
7035067630000,1.775104,-0.379974645752661,-11.8123394301065,4.78735719500547,-0.7309003,-0.54305923,0.036651913,335.88446,61.10257,4.97249,WAL
7035072483000,1.779957,-0.458583366896826,-12.908236975873,4.54228306090936,-0.49541172,-0.59589905,0.12675454,335.65567,61.172962,4.955184,WAL
7035077697000,1.785171,-0.541811915059899,-13.9856133567618,4.3154360820452,-0.22266038,-0.6209445,0.24862215,335.38495,61.312565,4.8931465,WAL
7035082490000,1.789964,-0.605304360449549,-13.9153182136347,4.49344167349389,0.0571159,-0.5900958,0.38698313,335.09958,61.385612,4.8078423,WAL
7035112425000,1.819899,-1.00185064727183,-13.4762852260467,5.60518742354946,1.2718215,-0.73273283,1.0680978,332.73505,61.655502,3.493696,WAL
7035117424000,1.824898,-1.06807195636903,-13.4029688437199,5.79084357870322,1.3927728,-0.6783658,1.072374,332.3095,61.53686,3.2113774,WAL
7035122446000,1.82992,-0.838839920561685,-12.0448279327984,6.19914300601805,1.4575244,-0.6032294,1.0262536,331.93234,61.31811,2.914627,WAL
7035127425000,1.834899,-0.590142616048144,-10.6052532085256,6.62001532908726,1.4443909,-0.548557,0.95814216,331.56534,61.085114,2.631111,WAL
7035132435000,1.839909,-0.280255168858599,-8.2037952846287,6.98394450682955,1.389413,-0.49571714,0.86467975,331.2486,60.71306,2.3887656,WAL
7035137399000,1.844873,0.0306981061756445,-5.76189739505579,7.34062624249711,1.2794572,-0.47555858,0.7476991,330.94858,60.3637,2.1757,WAL
7035142451000,1.849925,-0.033307942763098,-4.75356205362566,6.96538277828398,1.151481,-0.45875978,0.6081163,330.68747,59.853825,2.0390768,WAL
7035147420000,1.854894,-0.159773418455581,-4.00831911161731,6.47307070842825,0.9957104,-0.45356745,0.45478916,330.44644,59.390156,1.9388897,WAL
7035152505000,1.859979,-0.230900038365292,-3.45899802002142,5.90461091397965,0.84207773,-0.44318274,0.28496864,330.2162,58.64593,1.9711884,WAL
7035157419000,1.864893,-0.281312924919122,-2.99519943424746,5.33494539646492,0.68477994,-0.410196,0.1142318,330.02365,57.9542,2.037399,WAL
7035162470000,1.869944,-0.174230379612335,-2.87307295080764,4.99921700323054,0.56169057,-0.37293324,-0.00580322,329.85452,57.284306,2.124187,WAL
7035167439000,1.874913,-0.048449360246696,-2.79853600504161,4.70106922016642,0.44043383,-0.3042109,-0.079107046,329.7308,56.6625,2.2287369,WAL
7035172473000,1.879947,0.36589624774942,-2.74985447726218,4.30491905800464,0.29016098,-0.23793201,-0.12736541,329.62878,56.113472,2.3513038,WAL
7035177412000,1.884886,0.823959963851508,-2.70691103564007,3.8993419100575,0.10995574,-0.17348573,-0.1695151,329.56326,55.609413,2.4760242,WAL
7035182448000,1.889922,1.20642685234997,-3.70542615484575,4.10276917462553,-0.1282817,-0.033292156,-0.21288654,329.52225,55.20635,2.6147804,WAL
7035187451000,1.894925,1.57239078867771,-4.86985691097113,4.4069469095923,-0.4343252,-0.03023783,-0.27885997,329.48218,54.873787,2.7773902,WAL
7035192484000,1.899958,1.74912279043204,-7.03648928565792,4.27968760729927,-0.7788532,-0.13927728,-0.39400807,329.3839,54.66364,3.0644069,WAL
7035197451000,1.904925,1.88988432703689,-9.34966988557901,4.07792951751825,-1.0574077,-0.2049453,-0.5320636,329.3174,54.517822,3.361487,WAL
7035202657000,1.910131,1.87783654495087,-11.149257242631,3.17834104733442,-1.2873985,-0.28893927,-0.66553766,329.20657,54.57164,3.7453785,WAL
7035207605000,1.915079,1.83472695990721,-12.7356894860808,2.18682095144651,-1.5268577,-0.31612277,-0.70249504,329.10526,54.700027,4.134548,WAL
7035212509000,1.919983,1.7145006016434,-13.7219865428175,0.940955167656668,-1.6560557,-0.2910773,-0.6930266,328.92188,55.161457,4.553404,WAL
7035217543000,1.925017,1.54745398227898,-14.4044909901,-0.486099957261657,-1.8997909,-0.059864793,-0.56321776,328.7696,55.712,4.912553,WAL
7035222503000,1.929977,1.63079001434796,-15.4438492888724,-1.16487413781486,-2.0693061,0.355829,-0.34788775,328.52368,56.60654,5.2135262,WAL
7035227527000,1.935001,1.87112933202253,-16.727363551387,-1.39498620617494,-2.1383338,0.7800749,-0.13408493,328.32056,57.519337,5.435633,WAL
7035232564000,1.940038,1.85117235070822,-17.5138362776204,-0.948673576543909,-2.0555615,1.1016954,0.09865474,328.05588,58.680008,5.5476894,WAL
7035237674000,1.945148,1.73644149459803,-18.1305139927713,-0.250727663327147,-1.7693712,1.2819008,0.29260445,327.85077,59.7754,5.569043,WAL
7035242568000,1.950042,1.61312145894014,-18.3274343684985,0.720715338524043,-1.2904528,1.2287555,0.4364632,327.58813,60.87997,5.5644464,WAL
7035247572000,1.955046,1.48144083063788,-18.365057671737,1.84000064962905,-0.627664,1.0057896,0.52534413,327.33618,61.815495,5.518231,WAL
7035252605000,1.960079,1.66228776504658,-16.9233092093965,2.66690212215472,0.027794369,0.79045963,0.56596667,327.13052,62.54529,5.406542,WAL
7035257571000,1.965045,1.9993766872418,-14.7514937739976,3.33144866196841,0.35124752,0.5510005,0.56321776,326.87427,63.152355,5.315495,WAL
7035262539000,1.970013,2.52270190180008,-12.6748064887016,3.64581803263118,0.28771752,0.5198463,0.5018258,326.71463,63.527466,5.1853957,WAL
7035267570000,1.975044,3.14087904197625,-10.6172917524895,3.7980557843355,-0.043982297,0.6206391,0.364992,326.544,63.867435,5.091629,WAL
7035272678000,1.980152,3.48808160574899,-9.03539964246964,3.87616646076113,-0.4428773,0.74036866,0.15332718,326.42935,63.996845,5.1049595,WAL
7035277532000,1.985006,3.64240696979757,-7.84972878392713,3.90251468022672,-0.7535023,0.7809912,-0.08246681,326.34222,64.18153,5.1563735,WAL
7035282517000,1.989991,3.77697464014112,-6.66844966816934,3.82467106656213,-0.9416488,0.7312057,-0.29443705,326.24158,64.23486,5.3927183,WAL
7035288269000,1.995743,3.71759172269698,-5.63194704723638,2.79356700540964,-1.0781772,0.7861836,-0.48533243,326.20972,64.341576,5.662501,WAL
7035292518000,1.999992,3.66205112515217,-4.89087503971137,2.00569427845572,-1.2452488,0.93279123,-0.6563747,326.17978,64.340996,6.0492015,WAL
7035297532000,2.005006,3.44991531231102,-4.32517962084233,0.747022007159827,-1.4758505,1.0821478,-0.82863873,326.19626,64.372536,6.4731216,WAL
7035302713000,2.010187,3.22330493411292,-3.77498537219075,-0.551962143774895,-1.6734654,1.2357804,-1.0009027,326.21204,64.437065,6.961634,WAL
7035307534000,2.015008,2.92382975218345,-3.67375432601864,-1.74142676893203,-1.822211,1.3078625,-1.0870347,326.26028,64.52916,7.460604,WAL
7035312464000,2.019938,2.61758361094464,-3.57023450489677,-2.95778449596474,-1.8863518,1.4172074,-1.2415836,326.2768,64.69262,8.029287,WAL
7035317508000,2.024982,2.1822459425054,-3.71022451313175,-4.07751700443844,-1.9578232,1.4819591,-1.3778065,326.30542,64.87074,8.610927,WAL
7035322906000,2.03038,1.70180261362629,-3.96159399837518,-5.17849768329025,-1.9315559,1.4694363,-1.5100589,326.3564,65.00192,9.225698,WAL
7035327523000,2.034997,1.42014532474151,-4.77799212496307,-5.26830131694978,-1.8396207,1.3298537,-1.6346754,326.35577,65.33184,9.831123,WAL
7035332533000,2.040007,1.11451330886263,-5.66388222983752,-5.36574905457903,-1.670411,1.1276573,-1.690875,326.28476,65.77816,10.406378,WAL
7035337676000,2.04515,0.927160827604352,-8.17055890157867,-4.14836658685337,-1.491122,0.893085,-1.6728544,326.1562,66.16237,11.013042,WAL
7035342474000,2.049948,0.775525754807349,-10.8016317682394,-2.77135642042454,-1.3329079,0.64996064,-1.6022996,325.95358,66.47831,11.641255,WAL
7035347521000,2.054995,0.647250857360004,-12.3461181628119,-1.80600013650258,-1.1899655,0.37323865,-1.4703526,325.63828,66.82486,12.199657,WAL
7035352626000,2.0601,0.540288148738865,-13.0159085494609,-1.182050977173,-1.151481,0.102319926,-1.2962561,325.23016,67.14714,12.747035,WAL
7035358229000,2.065703,0.422891075985831,-13.7510379395478,-0.497234691233005,-1.2269229,-0.12889257,-1.0800097,324.96622,67.596886,13.036712,WAL
7035362566000,2.07004,0.332019916869302,-14.3200645618586,0.0328470921190812,-1.3613132,-0.28893927,-0.8356637,324.6238,68.06002,13.284427,WAL
7035367555000,2.075029,-0.32714802971819,-14.2095650779011,0.332654782432868,-1.4850134,-0.32284227,-0.5983425,324.2343,68.55016,13.478962,WAL
7035372577000,2.080051,-1.17139546333049,-13.8490484732897,0.533448776096404,-1.5448782,-0.22449298,-0.37201694,323.8166,69.07329,13.607536,WAL
7035377557000,2.085031,-1.42188794093866,-12.9430212840989,0.44537183698589,-1.5467108,-0.042760566,-0.15974127,323.54007,69.59123,13.561663,WAL
7035382576000,2.09005,-1.3545484604223,-11.7309099316522,0.200063548580006,-1.4932601,0.21594086,-0.0027488936,323.30386,70.122955,13.45763,WAL
7035387850000,2.095324,-1.1538554082923,-10.7513799717236,0.19283535567911,-1.4300356,0.48716503,0.087964594,323.20456,70.71077,13.170677,WAL
7035392716000,2.10019,-0.909562380984909,-9.98148697863384,0.30017622370135,-1.4123205,0.7101309,0.13836098,323.15915,71.30526,12.845245,WAL
7035397560000,2.105034,-0.650771686452472,-9.23923398566672,0.375497875059764,-1.4104879,0.77854776,0.17073683,323.13474,71.85393,12.550598,WAL
7035403164000,2.110638,-0.235326077985683,-8.56022589007824,0.228081690266689,-1.378112,0.77579886,0.15332718,323.1554,72.38336,12.25097,WAL
7035407517000,2.114991,0.087378192830864,-8.03279508349426,0.113573722314466,-1.3261884,0.77488256,0.13041973,323.2279,72.81004,12.021378,WAL
7035412526000,2.12,0.524465058833248,-7.56150557340174,-0.104017187963674,-1.312444,0.7330383,0.07819075,323.29138,73.221985,11.810663,WAL
7035417489000,2.124963,0.982935168100564,-7.14693143954849,-0.352761593919754,-1.258077,0.659429,0.04886922,323.3459,73.60901,11.6047325,WAL
7035422546000,2.13002,1.34456066720425,-6.9481004566328,-0.449896528414282,-1.210735,0.61208695,0.011301007,323.37973,73.90966,11.516275,WAL
7035428019000,2.135493,1.70125052118952,-6.80640189987881,-0.503644306803393,-1.1682798,0.5519168,-0.036651913,323.3912,74.18604,11.445111,WAL
7035432547000,2.140021,1.881950866546,-6.83456402268477,-0.605199283266968,-1.133155,0.49602258,-0.094989546,323.35294,74.38741,11.484707,WAL
7035437626000,2.1451,2.02867962711916,-6.93727406826546,-0.747037153248869,-1.1102476,0.5039638,-0.14996742,323.31796,74.565384,11.537103,WAL
7035442566000,2.15004,1.99978527506341,-7.15062552368875,-0.835633476133712,-1.094976,0.56230146,-0.18295415,323.26532,74.6675,11.669648,WAL
7035447582000,2.155056,1.87794990714213,-7.4284101483007,-0.898987881701329,-1.1249083,0.593761,-0.20677789,323.20892,74.75418,11.815845,WAL
7035452675000,2.160149,1.69129500440639,-7.76140902106985,-1.04759249037425,-1.162782,0.6267477,-0.22540927,323.1534,74.82184,11.99091,WAL
7035457571000,2.165045,1.48378581187223,-8.10425007860304,-1.22803526751491,-1.1991285,0.70554936,-0.22968534,323.1198,74.88117,12.164386,WAL
7035462530000,2.170004,1.25187995551549,-8.44273286380993,-1.29647293491727,-1.2345587,0.8222246,-0.23457226,323.11124,74.973625,12.306677,WAL
7035467609000,2.175083,0.999080945911116,-8.78323811731014,-1.28615450574883,-1.2623531,0.9230174,-0.25503623,323.12112,75.05404,12.451435,WAL
7035472523000,2.179997,0.841568350381508,-8.95604241337523,-1.14167307280072,-1.2614367,0.9795224,-0.2574797,323.13818,75.199646,12.536983,WAL
7035477547000,2.185021,0.716316805821364,-9.06833693114901,-0.93867920967684,-1.244027,0.95203346,-0.27275133,323.16122,75.3255,12.631191,WAL
7035482564000,2.190038,0.642014460839245,-9.22568771016086,-0.754910527229493,-1.2073752,0.906524,-0.3005457,323.20914,75.484886,12.673222,WAL
7035487682000,2.195156,0.622426434395045,-9.43625897142572,-0.58841243028874,-1.1930199,0.90041536,-0.3286455,323.26114,75.628296,12.719798,WAL
7035492647000,2.200121,0.586896782117319,-9.60472965840056,-0.375111136693556,-1.1722504,0.8790351,-0.36163223,323.33865,75.75807,12.745185,WAL
7035497853000,2.205327,0.532278163513594,-9.74375853002689,-0.0970527920107559,-1.144456,0.820392,-0.3848451,323.40387,75.87082,12.777565,WAL
7035502542000,2.210016,0.483743343620506,-9.83480976993895,0.0958803667661595,-1.1047498,0.79290307,-0.3933972,323.49884,75.966675,12.801976,WAL
7035507566000,2.21504,0.432454209340052,-9.8954244589592,0.240422497251672,-1.0864239,0.7287622,-0.40866885,323.56653,76.04636,12.837912,WAL
7035512496000,2.21997,0.374812857667636,-9.9294356515537,0.296485103212793,-1.0360274,0.64965516,-0.42058071,323.66614,76.10554,12.86022,WAL
7035517536000,2.22501,0.304644430773215,-9.92505003643467,0.221931148206433,-0.9819659,0.57696223,-0.43951756,323.749,76.15205,12.890372,WAL
7035522457000,2.229931,0.250825552968435,-9.90785763847704,0.145891328854678,-0.91751957,0.50426924,-0.4709771,323.83615,76.183655,12.9167,WAL
7035527546000,2.23502,0.260896612196105,-9.83232475342253,0.0527340382285478,-0.86315256,0.44257188,-0.48899764,323.90494,76.206795,12.945921,WAL
7035532473000,2.239947,0.270647075708529,-9.75919633434933,-0.0374577422617141,-0.82527894,0.40561453,-0.49021935,323.94983,76.23731,12.967119,WAL
7035537620000,2.245094,0.2808329161182,-9.68280259110399,-0.131676758738957,-0.8051204,0.3924809,-0.50640726,323.98407,76.2532,12.99839,WAL
7035542461000,2.249935,0.290260319168877,-9.57218934620297,-0.32160532558601,-0.7987063,0.36102137,-0.5164866,324.01276,76.26627,13.029575,WAL
7035547598000,2.255072,0.299926508965517,-9.36919886590038,-0.746917520191571,-0.7849618,0.32803464,-0.5045747,324.03674,76.27681,13.059006,WAL
7035552521000,2.259995,0.310289598252962,-9.22054569991733,-1.06239481430146,-0.77640975,0.3378085,-0.49510628,324.03882,76.28345,13.101076,WAL
7035557573000,2.265047,0.323621653166161,-9.18054965582805,-1.16016324174704,-0.786489,0.35888332,-0.49418998,324.03424,76.28909,13.142191,WAL
7035562478000,2.269952,0.332137532262002,-9.15042604780309,-1.24345954719284,-0.7883216,0.3753767,-0.48899764,323.9761,76.30725,13.190603,WAL
7035567556000,2.27503,0.302460340895037,-9.19494170056957,-1.22862096183889,-0.7834347,0.39645153,-0.4718934,323.92514,76.32454,13.234428,WAL
7035572530000,2.280004,0.274901395104395,-9.24193210787433,-1.19293995407835,-0.8002335,0.41386122,-0.46273044,323.8617,76.338264,13.283438,WAL
7035577562000,2.285036,0.25573635920859,-9.30901034887652,-1.03482837041559,-0.82558435,0.42241332,-0.44898596,323.8014,76.352905,13.325735,WAL
7035582534000,2.290008,0.236871303682785,-9.37376411431335,-0.880466074529981,-0.84604836,0.43096542,-0.44257188,323.75745,76.36932,13.360644,WAL
7035587568000,2.295042,0.218221531326886,-9.42971332427466,-0.735930382588008,-0.8539896,0.42088616,-0.44104472,323.71054,76.38377,13.393045,WAL
7035592589000,2.300063,0.199200047048969,-9.48142158634021,-0.593391795695876,-0.8753699,0.3903429,-0.4373795,323.68884,76.39877,13.416053,WAL
7035597553000,2.305027,0.175637762659596,-9.48613413867962,-0.470867905061459,-0.8866709,0.36865717,-0.44257188,323.667,76.40759,13.44108,WAL
7035602578000,2.310052,0.149774669182124,-9.49090385920506,-0.352614739636148,-0.883922,0.3454443,-0.4465425,323.6642,76.41602,13.458888,WAL
7035607572000,2.315046,0.0930296736410915,-9.49563270417243,-0.324242242606288,-0.8765916,0.33567044,-0.4456262,323.6591,76.42172,13.476807,WAL
7035613344000,2.320818,0.0284388063554298,-9.48703509790712,-0.309216543980958,-0.8436049,0.35155296,-0.44501534,323.6774,76.42414,13.491276,WAL
7035617557000,2.325031,-0.0150503737445433,-9.42904948962544,-0.363578011064403,-0.8060367,0.36102137,-0.45875978,323.69107,76.42057,13.509678,WAL
7035622469000,2.329943,-0.065755062244678,-9.36144319770053,-0.426958862313842,-0.7684685,0.36346483,-0.47800204,323.71722,76.423096,13.518862,WAL
7035627549000,2.335023,-0.0432287054368689,-9.33583538628714,-0.421985467289162,-0.74097955,0.3857614,-0.50610185,323.75226,76.41728,13.5343,WAL
7035632522000,2.339996,-0.00201040166217906,-9.32209591359746,-0.399086416278488,-0.73792523,0.37018433,-0.51068336,323.7769,76.41146,13.548602,WAL
7035637564000,2.345038,0.2119252794883,-9.2604194289708,-0.302314942551253,-0.73426,0.31398472,-0.50793445,323.7916,76.40622,13.562006,WAL
7035642458000,2.349932,0.483685275195693,-9.18277341809899,-0.180993518656036,-0.7067711,0.23609942,-0.52534413,323.7956,76.3926,13.582422,WAL
7035647629000,2.355103,0.513587161678535,-9.2618765861463,-0.300331607085915,-0.679893,0.11789699,-0.5323691,323.7807,76.37279,13.608097,WAL
7035652511000,2.359985,0.474672357263479,-9.37862108517525,-0.477610147489133,-0.66156703,0.07360926,-0.56688297,323.765,76.339455,13.646188,WAL
7035657549000,2.365023,0.403144973691317,-9.53980276485251,-0.636973035612796,-0.6469063,0.10903945,-0.5870415,323.75928,76.25452,13.733841,WAL
7035662536000,2.37001,0.313856266056294,-9.72334073265476,-0.780827038969672,-0.6560693,0.17287487,-0.6105598,323.74878,76.15985,13.830971,WAL
7035667559000,2.375033,0.237961250844168,-9.87660582961382,-0.8071577354706,-0.65148777,0.25228736,-0.62125,323.7242,76.07813,13.91582,WAL
7035672566000,2.38004,0.168170249029691,-10.0161877360761,-0.783894103826897,-0.6560693,0.31337386,-0.6227771,323.7129,75.99303,14.003395,WAL
7035677557000,2.385031,0.140694410788342,-10.1007160852365,-0.698821418729097,-0.65576386,0.3640757,-0.6178902,323.70212,75.9304,14.068176,WAL
7035683091000,2.390565,0.135630100114668,-10.1614874960344,-0.567149235451505,-0.6618725,0.38912117,-0.59986967,323.70178,75.87098,14.128763,WAL
7035687595000,2.395069,0.117567959460262,-10.2269161629455,-0.477202377806227,-0.6545421,0.38759398,-0.5671884,323.7204,104.16432,14.16431,WAL
7035692570000,2.400044,0.088290234260549,-10.3098703646047,-0.389369201188038,-0.605062,0.38423425,-0.5290093,323.74606,104.19315,14.192778,WAL
7035697568000,2.405042,0.0597444976625755,-10.3654451420222,-0.320601947325151,-0.5729916,0.37843102,-0.4841107,323.79926,104.20769,14.206751,WAL
7035702603000,2.410077,0.0315626031174752,-10.4030207790766,-0.26423815823495,-0.5497787,0.38026363,-0.44684792,323.85394,104.2135,14.211944,WAL
7035707563000,2.415037,0.0115868790213154,-10.4422661356697,-0.249509157864618,-0.49327368,0.39370266,-0.38637227,323.9352,104.191574,14.189908,WAL
7035712542000,2.420016,-0.0021480001106097,-10.4834706473356,-0.267822326216035,-0.41599923,0.42332962,-0.32253686,324.022,104.15826,14.156696,WAL
7035717574000,2.425048,-0.0205325688298934,-10.4728897371613,-0.306212379430695,-0.34666604,0.45906523,-0.269697,324.1351,104.10539,14.104328,WAL
7035722569000,2.430043,-0.0439289050164335,-10.4027007769735,-0.367042850681796,-0.29229903,0.47433686,-0.2302962,324.25098,104.03899,14.038481,WAL
7035727541000,2.435015,-0.109967492089492,-10.3116177655902,-0.418381776032598,-0.22235495,0.47739118,-0.19394971,324.37073,103.95531,13.955234,WAL
7035732550000,2.440024,-0.236230487920632,-10.1902108730512,-0.457231936007289,-0.16035213,0.44868052,-0.17104226,324.48563,76.13399,13.865952,WAL
7035737550000,2.445024,-0.384132366764356,-10.0618044321782,-0.491436223455446,-0.0983493,0.4120286,-0.1423316,324.59824,76.233986,13.765408,WAL
7035742569000,2.450043,-0.560215722776238,-9.92379311311881,-0.519990283470297,-0.043676864,0.35888332,-0.129198,324.69775,76.33373,13.664341,WAL
7035747560000,2.455034,-0.734782004452964,-9.84295764641699,-0.548298332031849,-0.015882496,0.28710666,-0.11301007,324.77655,76.456924,13.539186,WAL
7035753351000,2.460825,-0.936491762026934,-9.83750648982601,-0.581008026757102,0.021685716,0.22143865,-0.113926366,324.8423,76.57581,13.417174,WAL
7035757496000,2.46497,-1.04943951096794,-9.88412011207672,-0.608203303212466,0.04642576,0.16462818,-0.11209377,324.88937,76.72253,13.266679,WAL
7035762570000,2.470044,-1.14166426330037,-10.01517589092,-0.647034765607831,0.07819075,0.12705997,-0.106901415,324.92426,76.86626,13.117888,WAL
7035767474000,2.474948,-1.19870917782609,-10.1582852809783,-0.734707663423913,0.10262536,0.084910266,-0.10873401,324.9431,77.035645,12.942685,WAL
7035772568000,2.480042,-1.20312803826087,-10.3350401597826,-0.91146221923913,0.12186762,0.053450707,-0.1328632,324.95636,77.19593,12.775282,WAL
7035777459000,2.484933,-1.17441515128492,-10.527840435438,-1.04135034317909,0.14202617,-0.029626964,-0.14080444,324.96667,77.37416,12.589069,WAL
7035782550000,2.490024,-0.968847397206704,-10.8516091460947,-0.964262428691894,0.160963,-0.092240654,-0.11362094,324.97638,77.551025,12.402825,WAL
7035787552000,2.495026,-0.757560291319615,-11.194673831886,-0.85772265456296,0.16065755,-0.118202426,-0.07574729,324.9416,77.73463,12.212924,WAL
7035792566000,2.50004,-0.521866359388333,-11.6026058483104,-0.671887022348499,0.14721853,-0.11942416,-0.019242255,324.89874,77.92695,12.013846,WAL
7035797576000,2.50505,-0.282533006146249,-12.0252438798883,-0.494012828747007,0.122783914,-0.09621128,0.016798794,324.8649,78.09669,11.835886,WAL
7035802599000,2.510073,-0.0233917208200319,-12.5243308435754,-0.35484438009577,0.116980694,-0.07727446,0.077579886,324.83136,78.284706,11.63881,WAL
7035807526000,2.515,0.166177919141068,-12.9694203973556,-0.253186065527388,0.15882497,-0.10262536,0.1600467,324.83185,78.45073,11.457445,WAL
7035812524000,2.519998,-0.000366545869370724,-13.1740323263744,-0.343595915548265,0.23304509,-0.16707164,0.20952678,324.8268,78.61793,11.272628,WAL
7035817531000,2.525005,-0.166612996427975,-13.3364255365902,-0.423708866420111,0.3378085,-0.1994475,0.23060162,324.84222,78.76019,11.104228,WAL
7035822928000,2.530402,-0.341888750348454,-13.2322759297685,-0.441490465528088,0.41691554,-0.17654006,0.23854288,324.8534,78.90317,10.930297,WAL
7035827563000,2.535037,-0.492417399490834,-13.1428311590406,-0.456761488664177,0.48563787,-0.14202617,0.26267207,324.8556,79.07992,10.717418,WAL
7035832552000,2.540026,-0.654442735104929,-13.0465550077653,-0.473198842369883,0.56077427,-0.12522738,0.30787608,324.8586,79.25067,10.50192,WAL
7035837593000,2.545067,-0.817504364812273,-12.9663926758175,-0.498206602331449,0.65118235,-0.14660765,0.3436117,324.8656,79.41085,10.287333,WAL
7035842545000,2.550019,-0.970671424125959,-13.0716951465482,-0.613081881822769,0.75869465,-0.1777618,0.39003745,324.87338,79.569,10.062268,WAL
7035847577000,2.555051,-1.10116981159973,-13.1579053998833,-0.728927887134105,0.88086766,-0.22510384,0.4251622,324.8851,79.75985,9.787828,WAL
7035852587000,2.560061,-1.00318519335602,-13.0552547240105,-0.836244372157931,1.0525209,-0.25961772,0.4361578,324.89197,79.92714,9.513646,WAL
7035857740000,2.565214,-0.880386161095286,-12.9312763759278,-0.946151994343029,1.2592987,-0.28893927,0.45723262,324.88043,80.10426,9.207368,WAL
7035862564000,2.570038,-0.50505217507322,-12.5976466972919,-1.04346080786359,1.461495,-0.3323107,0.4859433,324.85638,80.24616,8.90359,WAL
7035867695000,2.575169,-0.0961847488347364,-12.2401651954807,-1.13871584092158,1.6850718,-0.35888332,0.5152648,324.8054,80.331764,8.621161,WAL
7035872575000,2.580049,0.41319786738148,-11.8674460603456,-1.12629188416482,1.9144517,-0.40530908,0.573297,324.7367,80.37644,8.330027,WAL
7035877460000,2.584934,0.92310239201595,-11.4943450408507,-1.11385519794417,2.1514673,-0.45937067,0.63621616,324.60852,80.31325,8.110216,WAL
7035882607000,2.590081,1.50158266074189,-11.0959148400309,-0.978025833674652,2.3536637,-0.4859433,0.7257079,324.47247,80.20939,7.872269,WAL
7035887539000,2.595013,2.06735433462133,-10.7126500347759,-0.813769508983771,2.5014932,-0.52381694,0.83169305,324.31476,80.0591,7.6194515,WAL
7035892591000,2.600065,2.60099660948018,-10.4288143556065,-0.510532847289385,2.6160305,-0.54092115,0.9398162,324.08298,79.779434,7.4606104,WAL
7035897499000,2.604973,3.10182482354113,-10.1947823725354,-0.164165649193388,2.6703975,-0.5742133,0.98807454,323.8293,79.465355,7.2970734,WAL
7035902582000,2.610056,3.55170158957789,-10.098625111809,0.104081122243216,2.7528641,-0.6209445,1.0873401,323.50443,79.0273,7.212972,WAL
7035907517000,2.614991,3.96019326349749,-10.0653758592965,0.327326595127638,2.826168,-0.6600399,1.1548407,323.16223,78.56402,7.133094,WAL
7035912522000,2.619996,4.25612586529377,-10.1388574840914,0.329409066909038,2.9043589,-0.6921103,1.2095132,322.77148,77.97002,7.138695,WAL
7035917539000,2.625013,4.5046601912356,-10.2560905643178,0.240311862281866,2.967278,-0.7312057,1.2272283,322.3539,77.35853,7.1469984,WAL
7035922577000,2.630051,4.65502480769538,-10.3757034951029,-0.153785938137118,2.989269,-0.7440339,1.2327261,321.88928,76.661766,7.2355604,WAL
7035927547000,2.635021,4.75491813210074,-10.4946243795723,-0.691306463371977,2.9681942,-0.68477994,1.2519683,321.41992,75.96506,7.322395,WAL
7035932534000,2.640008,4.75627768909091,-10.7885740809917,-1.21903250743802,2.899472,-0.48166725,1.2733486,320.92957,75.27021,7.4599934,WAL
7035937589000,2.645063,4.70737796787879,-11.1753266071625,-1.74803895371901,2.8115072,-0.19883664,1.2681563,320.46976,74.59009,7.597092,WAL
7035942566000,2.65004,4.59626167367479,-11.5811436357036,-2.12138506222775,2.7091873,0.111177474,1.2556335,319.9699,74.0031,7.7565255,WAL
7035947607000,2.655081,4.41861497870711,-12.0180582104426,-2.34704433680756,2.5900686,0.43096542,1.2296717,319.54922,73.44576,7.9048233,WAL
7035952601000,2.660075,4.19799805690341,-12.3346843161062,-2.40342141459117,2.4669793,0.7107417,1.1963795,319.157,73.01765,8.0319,WAL
7035957576000,2.66505,3.93179840610293,-12.5292149946277,-2.28567930247126,2.3533583,0.95111716,1.1435398,318.84656,72.61456,8.15179,WAL
7035962566000,2.67004,3.61093280415815,-12.6695932269939,-1.91996373626449,2.2308798,1.1200215,1.0943651,318.60388,72.31011,8.217666,WAL
7035967550000,2.675024,3.25768116298569,-12.7764980613497,-1.40403043292434,2.1817052,1.1902709,1.0528263,318.40628,72.01128,8.284293,WAL
7035972623000,2.680097,2.89755130991876,-12.8261188423428,-0.778378045826898,2.2000313,1.2061534,1.0094548,318.2909,71.73828,8.292097,WAL
7035977562000,2.685036,2.5465144235182,-12.8308626797713,-0.0952792066573062,2.205529,1.1856894,0.97310835,318.18915,71.47739,8.306097,WAL
7035982523000,2.689997,2.28628358624793,-12.772381685848,0.632785646591242,2.1496348,1.1707232,0.9300423,318.1881,71.192406,8.236004,WAL
7035987655000,2.695129,2.08974835808056,-12.6621305289184,1.41892628897103,2.094657,1.1026118,0.8772025,318.16968,70.901855,8.185101,WAL
7035992561000,2.700035,1.92847727924565,-12.5200925845222,2.16388014570061,2.0387628,1.0259482,0.84421575,318.242,70.56671,8.049329,WAL
7035997593000,2.705067,1.78721142675396,-12.3411551758843,2.92200699885675,2.0143282,0.75777835,0.79412484,318.2468,70.23148,7.956582,WAL
7036002586000,2.71006,1.65622329787406,-12.1280430338125,3.32285930858473,1.9682078,0.4089743,0.7415904,318.2905,69.82175,7.834215,WAL
7036008185000,2.715659,1.52051630255112,-11.845773059425,3.34457240969832,1.8982637,0.04337143,0.72234815,318.25592,69.42704,7.74413,WAL
7036012523000,2.719997,1.379173594392,-11.618129723672,3.19100878526744,1.8115209,-0.21685717,0.74281216,318.19604,68.941795,7.6525264,WAL
7036017509000,2.724983,1.18474478739589,-11.3485802700352,2.86401476094762,1.7321084,-0.36926803,0.7852673,318.0664,68.480606,7.5855193,WAL
7036022534000,2.730008,0.88196125946073,-11.0020680504004,2.42738105108368,1.6939293,-0.45753807,0.84329945,317.89163,68.03039,7.5113153,WAL
7036027552000,2.735026,0.362947701905812,-10.504239020792,1.77420073608846,1.6526959,-0.552833,0.88789266,317.67255,67.61147,7.44712,WAL
7036032526000,2.74,-0.151514919711998,-10.0107751719932,1.1267477893395,1.6102408,-0.6261369,0.93279123,317.4402,67.25772,7.3405013,WAL
7036037516000,2.74499,-0.493938327395223,-9.56495330886342,0.769964695717036,1.5848899,-0.66920286,0.98563105,317.18576,66.91917,7.2301955,WAL
7036042626000,2.7501,-0.729441116563129,-9.14104820430484,0.598689938739172,1.5598444,-0.6789767,1.0280862,316.91797,66.59875,7.1185718,WAL
7036047474000,2.754948,-0.943770340187647,-8.73250710926505,0.491333617281079,1.5012014,-0.6780604,1.0818423,316.7149,66.42519,6.854987,WAL
7036052527000,2.760001,-1.14713620691947,-8.29266943539875,0.500792480677287,1.4679092,-0.7122689,1.1148291,316.49762,66.25144,6.5960083,WAL
7036057525000,2.764999,-1.30164462270178,-7.86841149405837,0.52010735695028,1.4587462,-0.7867944,1.1175779,316.29736,66.09574,6.292391,WAL
7036062550000,2.770024,-1.33366895391197,-7.47039461507748,0.565856449306968,1.4511104,-0.86101454,1.1163563,316.08557,65.94759,5.990346,WAL
7036067519000,2.774993,-1.33618016414319,-7.07557313245764,0.627883429936829,1.4627168,-0.9166033,1.1178834,315.88812,65.77207,5.658819,WAL
7036072557000,2.780031,-1.1958822957786,-6.66919298846887,0.773019162450617,1.4721853,-0.95325524,1.1026118,315.67914,65.5943,5.343281,WAL
7036078205000,2.785679,-0.998593648326917,-6.26439711983022,0.963133180304017,1.4798211,-0.98715824,1.0900891,315.45544,65.37585,5.0393367,WAL
7036082599000,2.790073,-0.763913192063962,-6.05256173358997,1.16666135194354,1.4761559,-1.0125091,1.0720685,315.22833,65.1541,4.7485204,WAL
7036097533000,2.805007,0.0354346164483536,-5.35374448563825,1.84770513441588,1.3826935,-1.0488557,1.0170907,314.3736,64.26732,4.1579757,WAL
7036102535000,2.810009,0.316328358880469,-5.28027997400992,1.99463420279657,1.3084733,-1.1016954,0.99204516,314.04178,63.950584,4.0419245,WAL
7036107416000,2.81489,0.590427190709968,-5.20859259271087,2.13800900942715,1.2336423,-1.1643091,0.9618073,313.64783,63.577377,4.030801,WAL
7036112445000,2.819919,0.821699161997269,-5.23907587951519,2.1644989948788,1.1490375,-1.2263119,0.9324858,313.24774,63.23147,4.0356264,WAL
7036117454000,2.824928,1.02224810039683,-5.28844966468254,2.17070493015873,1.0577132,-1.2968669,0.9111055,312.83664,62.912373,4.0580482,WAL
7036122448000,2.829922,1.07443980978175,-5.3738541494246,2.1469814484127,0.9651671,-1.3197744,0.87017757,312.3579,62.56534,4.2069592,WAL
7036127436000,2.83491,1.11828117839763,-5.46022913103858,2.11943552367952,0.8781188,-1.328021,0.8399397,311.81845,62.235207,4.436942,WAL
7036132431000,2.839905,1.09935492083086,-5.55486061649852,2.06265665216617,0.78893244,-1.3319917,0.8078693,311.28775,61.93671,4.6797547,WAL
7036137428000,2.844902,1.07364045712289,-5.6453968916936,2.0122937729234,0.7076874,-1.3069462,0.7623598,310.74847,61.67199,4.9478073,WAL
7036142443000,2.849917,0.981352104690366,-5.69573594523539,2.02487853630885,0.6178902,-1.280679,0.72509706,310.21942,61.43975,5.220203,WAL
7036147487000,2.854961,0.88853008082802,-5.74636609200804,2.03753607300201,0.5412266,-1.251052,0.66859204,309.70428,61.2484,5.4942546,WAL
7036152540000,2.860014,0.751682388944462,-5.73426690364837,1.98851396875609,0.4569272,-1.1979067,0.6105598,309.21368,61.087154,5.7684264,WAL
7036157861000,2.865335,0.601677797925632,-5.70201220371355,1.92425424106668,0.37140608,-1.151481,0.5522222,308.74304,60.948833,6.050463,WAL
7036162521000,2.869995,0.564993172017794,-5.57469490184227,1.90914879732605,0.28802297,-1.0922271,0.48472157,308.31866,60.84129,6.3015733,WAL
7036167516000,2.87499,0.525671346607998,-5.43822496131715,1.89295744722209,0.19700404,-1.0430524,0.41050145,307.92932,60.772243,6.5204463,WAL
7036172534000,2.880008,0.486168459739858,-5.3011266306755,1.87669154235288,0.113926366,-0.98563105,0.3368922,307.57056,60.722248,6.743935,WAL
7036177459000,2.884933,0.447397690942411,-5.16656918180939,1.86072709805619,0.0067195175,-0.92149025,0.27366763,307.2387,60.7018,6.972476,WAL
7036182503000,2.889977,0.495275219846547,-5.04785878951407,1.86519944219949,-0.105374254,-0.84879726,0.21288654,306.92822,60.700016,7.209339,WAL
7036187513000,2.894987,0.561013000390939,-4.9339134600475,1.87396447106321,-0.226631,-0.8011498,0.17592919,306.6366,60.728313,7.4468164,WAL
7036192500000,2.899974,0.631749311264391,-4.84618424860197,1.89925069042969,-0.2959642,-0.7147123,0.09773844,306.39825,60.745995,7.6769805,WAL
7036197477000,2.904951,0.705243996977796,-4.77268959358553,1.93354824726562,-0.41905355,-0.61269784,0.029626964,306.18262,60.809242,7.9018364,WAL
7036202541000,2.910015,0.767767816940321,-4.73013105890276,1.99400497223479,-0.56382865,-0.49938235,-0.032986723,305.98343,60.868404,8.159897,WAL
7036207500000,2.914974,0.823799348775932,-4.70211531736309,2.0640444235965,-0.7079928,-0.40011674,-0.093767814,305.81876,60.95383,8.418597,WAL
7036212525000,2.919999,0.87797214420753,-4.66702581902527,2.16137141497054,-0.84299403,-0.29657507,-0.15790866,305.67758,61.0457,8.704086,WAL
7036217552000,2.925026,0.930860245770498,-4.62856156259862,2.27195552463797,-0.9795224,-0.19761491,-0.20555615,305.56958,61.169647,8.983244,WAL
7036222505000,2.929979,0.956149671715763,-4.62245736745424,2.45927172473255,-1.1172725,-0.094989546,-0.25900686,305.49106,61.29521,9.283805,WAL
7036227556000,2.93503,0.96841263052274,-4.63226774986564,2.68981531445013,-1.2727377,-0.0009162979,-0.2996294,305.4435,61.453598,9.575846,WAL
7036232506000,2.93998,0.980430378710135,-4.64188196347412,2.91574894523653,-1.4077389,0.04734206,-0.3381139,305.42188,61.598576,9.889249,WAL
7036237568000,2.945042,0.992720043624195,-4.65171371080464,3.1467946096892,-1.5216653,0.06291912,-0.36010507,305.4226,61.76978,10.194787,WAL
7036242565000,2.950039,0.869797666201717,-4.71571789833203,3.36170488557355,-1.6438384,0.056505036,-0.39675698,305.44006,61.965164,10.504642,WAL
7036247650000,2.955124,0.694043807296137,-4.80121985204838,3.57545954666407,-1.7406605,0.03573562,-0.43982297,305.46414,62.17161,10.8158655,WAL
7036252595000,2.960069,0.46542630291265,-4.98987709060916,3.73708644118056,-1.8252654,-0.008552114,-0.49754974,305.53983,62.291515,11.146781,WAL
7036257564000,2.965038,0.210064484648713,-5.2263232250323,3.87895413171023,-1.8765781,-0.05955936,-0.5647449,305.62036,62.41276,11.486822,WAL
7036262539000,2.970013,-0.225403512525855,-5.9360051134646,3.94855667669053,-1.8887954,-0.11759156,-0.63194007,305.75876,62.51648,11.77389,WAL
7036267552000,2.975026,-0.755330623904137,-6.89082882065434,3.98197548027049,-1.8668042,-0.172264,-0.70707655,305.89862,62.606613,12.079557,WAL
7036272677000,2.980151,-1.01840050430702,-7.64956652639128,4.06008972080977,-1.8102992,-0.21624629,-0.77946407,306.07797,62.70979,12.297778,WAL
7036277571000,2.985045,-1.13364245164741,-8.26803138640275,4.15612483403,-1.7397442,-0.25045475,-0.8200866,306.25354,62.790855,12.528248,WAL
7036282496000,2.98997,-1.23496403321444,-8.97891927150651,4.27455359347461,-1.6215417,-0.26725355,-0.8414669,306.49265,62.990253,12.567947,WAL
7036287709000,2.995183,-1.28210159583508,-10.0945078342426,4.48929096553714,-1.4880677,-0.36651915,-0.82894415,306.69806,63.16032,12.624996,WAL
7036292516000,2.99999,-1.30762778341673,-11.1747300793424,4.66222079306648,-1.3023647,-0.47158796,-0.80970186,306.91,63.350945,12.614831,WAL
7036297779000,3.005253,-1.29218724958644,-12.4820202085673,4.79089128132339,-1.2113458,-0.58184916,-0.73731434,307.0811,63.534763,12.604114,WAL
7036302468000,3.009942,-1.26834123588657,-13.6343326152723,4.90688012078387,-0.95264435,-0.66981375,-0.61117065,307.2187,63.70174,12.534102,WAL
7036307559000,3.015033,-1.2224062086678,-14.8608000340117,5.03549813943848,-0.6606508,-0.7263188,-0.42455134,307.31366,63.84973,12.446225,WAL
7036312457000,3.019931,-1.19526201943629,-15.93143673165,5.22215416441574,-0.29077184,-0.7293731,-0.21655174,307.3468,64.01933,12.293226,WAL
7036317535000,3.025009,-1.23333678193384,-16.616783351145,5.66001438040712,0.10842858,-0.69913524,0.012217305,307.34378,64.12895,12.101533,WAL
7036322468000,3.029942,-1.28217887389725,-17.1564547353399,6.0421150902958,0.5045747,-0.6951646,0.29260445,307.263,64.26181,11.830646,WAL
7036327559000,3.035033,-1.39350438118319,-17.0653704839647,6.21416367841204,0.84513205,-0.7275405,0.5467244,307.15173,64.323204,11.526682,WAL
7036333190000,3.040664,-1.39611145905058,-16.6504693281807,6.22930763651331,1.0873401,-0.8026769,0.7516697,307.0449,64.31827,11.149686,WAL
7036337628000,3.045102,-1.21339969318577,-15.8418720606421,5.9727337572487,1.2296717,-0.8689558,0.88147855,306.90234,64.26215,10.7537365,WAL
7036342565000,3.050039,-0.992725430139998,-14.9006818442393,5.67367470753915,1.2696834,-0.8897252,0.9569204,306.76572,64.14983,10.32348,WAL
7036347658000,3.055132,-0.532443830713471,-13.3731536654568,5.18304483323654,1.246776,-0.86559606,0.9923506,306.60373,64.017006,9.896117,WAL
7036352531000,3.060005,-0.072906027792249,-11.9210612978611,4.75136587674714,1.1838568,-0.7467828,0.9944886,306.43365,63.84185,9.531339,WAL
7036357539000,3.065013,0.521269738967598,-10.4889456400889,4.54822879720457,1.094976,-0.52626044,0.9755518,306.29022,63.676334,9.162126,WAL
7036362519000,3.069993,1.08878359558746,-9.23995096653162,4.46063685704598,1.0170907,-0.2593123,0.9282097,306.14972,63.461544,8.90287,WAL
7036367720000,3.075194,1.60643897900299,-8.4985633956315,4.73701210618284,0.94225967,0.002443461,0.852157,306.06915,63.26467,8.636718,WAL
7036372855000,3.080329,2.10633301190164,-7.8064923695455,5.01457050720548,0.8677341,0.26328292,0.768163,306.04407,62.985153,8.489964,WAL
7036377557000,3.085031,2.3150789250126,-8.0606173922201,5.37306922090094,0.73731434,0.44257188,0.6429357,306.0776,62.73296,8.354488,WAL
7036382964000,3.090438,2.53423644066242,-8.41903724252886,5.73797660422915,0.5757405,0.48258355,0.47036624,306.1836,62.351112,8.373266,WAL
7036387669000,3.095143,2.49048527052541,-9.47392778519797,5.52408179162801,0.4266894,0.40591997,0.2770274,306.3205,61.994175,8.422104,WAL
7036392568000,3.100042,2.47536926570092,-10.4917150111571,5.22947249174015,0.39553526,0.17501289,0.16249016,306.45984,61.59843,8.542026,WAL
7036397595000,3.105069,2.639974115395,-11.0591689587907,4.50174544502429,0.41874814,-0.048258353,-0.05681047,306.61832,61.208744,8.743981,WAL
7036403236000,3.11071,2.83318979988977,-11.6689531859269,3.70141026979607,0.5751296,-0.2910773,-0.29718593,306.64713,60.923504,8.969404,WAL
7036407565000,3.115039,3.1073930183171,-11.737503771817,3.32818926888664,0.8793405,-0.3436117,-0.35796702,306.67392,60.593033,9.203863,WAL
7036412462000,3.119936,3.41757392860555,-11.815048751975,2.90599863792026,0.94806284,-0.4111123,-0.45204028,306.52426,60.42955,9.575611,WAL
7036417540000,3.125014,3.49104569123783,-11.7244091502086,2.67784293365786,1.0094548,-0.40561453,-0.49388456,306.38235,60.18733,9.938869,WAL
7036422487000,3.129961,3.47221937309756,-11.5737988999603,2.53193886977946,0.95294976,-0.36774087,-0.4801401,306.23782,59.957596,10.308255,WAL
7036427562000,3.135036,3.17691462420646,-11.4349440553829,2.3450249949044,0.8350528,-0.24648413,-0.41080686,306.0177,59.787685,10.733532,WAL
7036432549000,3.140023,2.78105528217952,-11.3044901102006,2.14709530040501,0.68569624,-0.03268129,-0.30024028,305.82462,59.647457,11.117671,WAL
7036437872000,3.145346,2.32385640908248,-11.0944066329935,2.01580981322212,0.5589417,0.2510656,-0.16523905,305.658,59.549713,11.449932,WAL
7036442529000,3.150003,1.90592554701884,-10.8739594742045,1.94232752287097,0.44135013,0.49205196,-0.038179077,305.52286,59.499672,11.725844,WAL
7036447487000,3.154961,1.64362240889762,-10.4768889941935,1.86222322957903,0.3005457,0.68019843,0.059253927,305.45612,59.539696,11.8683605,WAL
7036452588000,3.160062,1.47259495189138,-9.98049213312271,1.7787951571514,0.09132435,0.8347474,0.10842858,305.43347,59.6356,11.960726,WAL
7036457566000,3.16504,1.44461865091709,-9.43914950809825,1.6623674406307,-0.1908954,0.9272934,0.0842994,305.4885,59.802464,11.954719,WAL
7036462564000,3.170038,1.70645589920626,-8.77685580585648,1.47240709348922,-0.4642576,1.0186177,0.03726278,305.58072,60.0215,11.922651,WAL
7036467551000,3.175025,1.95470500792798,-8.25952735716701,1.32172033880434,-0.7107417,1.0726794,-0.05131268,305.7229,60.27242,11.881897,WAL
7036473021000,3.180495,2.21003881853178,-7.87913159749329,1.2070806087735,-0.9230174,1.1004738,-0.17165314,305.89273,60.571594,11.854849,WAL
7036477549000,3.185023,2.3718417944687,-7.71309340786026,0.908834765202329,-1.0989466,1.0806206,-0.2996294,306.04938,60.865326,11.924806,WAL
7036482520000,3.189994,2.49310981884098,-7.70010042947598,0.350136308467067,-1.2635747,1.074512,-0.35735616,306.22278,61.19807,12.003484,WAL
7036487526000,3.195,2.55271085675428,-7.72910072555012,-0.159182213088631,-1.3426818,1.058324,-0.48258355,306.3842,61.4866,12.201221,WAL
7036492626000,3.2001,2.41339040137531,-7.89329931968215,-0.507482933809902,-1.484708,1.0439687,-0.6053675,306.55,61.815502,12.414038,WAL
7036497477000,3.204951,2.23105785294118,-8.08327527058823,-0.817295935294118,-1.5766432,1.0198395,-0.71929383,306.62436,62.190197,12.715093,WAL
7036502536000,3.21001,1.9053499207458,-8.37335949968487,-1.08193371323529,-1.6181821,0.97402465,-0.8188649,306.69885,62.55634,13.0474825,WAL
7036507455000,3.214929,1.54168785139079,-8.67561333223979,-1.30674715569142,-1.6032158,0.91996306,-0.8894198,306.732,62.97055,13.384311,WAL
7036512525000,3.219999,1.0831264721185,-9.0231540450343,-1.4805177641018,-1.5598444,0.8720101,-0.9624182,306.76068,63.352215,13.750498,WAL
7036517504000,3.224978,0.722141828237729,-9.44290290754977,-1.60666458905973,-1.5210545,0.8347474,-1.0503827,306.76984,63.782444,14.078953,WAL
7036522506000,3.22998,0.519122199278533,-10.0047483916815,-1.65387847001774,-1.4504995,0.7611381,-1.1203269,306.75455,64.16367,14.429051,WAL
7036527457000,3.234931,0.318963240046337,-10.5750430423406,-1.59081149689819,-1.3698653,0.6579019,-1.1414018,306.7194,64.598724,14.700445,WAL
7036532506000,3.23998,0.11653269486432,-11.1869352435775,-1.29176638485252,-1.3075571,0.54000485,-1.1157454,306.65363,64.996765,14.9847,WAL
7036537554000,3.245028,-0.0933617849600356,-11.7808129526165,-0.983252658933624,-1.2461652,0.40958515,-1.0464121,306.5425,65.42899,15.212461,WAL
7036542630000,3.250104,-0.328991579399446,-12.3193951815214,-0.641829852143634,-1.178359,0.25442538,-0.94989544,306.37927,65.83431,15.436683,WAL
7036547484000,3.254958,-0.546977607528859,-12.710828157013,-0.342680227058024,-1.1640037,0.113926366,-0.83077675,306.2213,66.263115,15.568935,WAL
7036552529000,3.260003,-0.744403274542854,-12.6269226278476,-0.140318949806518,-1.1585059,0.0061086523,-0.70616025,306.0158,66.67971,15.682515,WAL
7036557496000,3.26497,-0.920337492475661,-12.4408735191238,0.0454149091027469,-1.1749994,-0.06811147,-0.58276546,305.82544,67.12173,15.6985445,WAL
7036562555000,3.270029,-1.0424709346662,-11.9312821729833,0.192817314418029,-1.2043208,-0.090713486,-0.46609017,305.60815,67.57143,15.687661,WAL
7036567549000,3.275023,-1.16303515888039,-11.428238254694,0.338325836288856,-1.2269229,-0.0729984,-0.35613444,305.43085,68.02429,15.611555,WAL
7036572843000,3.280317,-1.17362841194805,-10.6909003162338,0.52353418898052,-1.2299771,-0.048258353,-0.26419923,305.24133,68.48477,15.511855,WAL
7036577491000,3.284965,-1.16544143804685,-10.0645841777847,0.673234980173751,-1.2363913,-0.027488936,-0.20433442,305.05048,68.952095,15.392314,WAL
7036582747000,3.290221,-1.02878694651722,-9.63900310176854,0.704470264567173,-1.2406673,0.032070424,-0.15577064,304.9328,69.38784,15.241153,WAL
7036587588000,3.295062,-0.902922335882718,-9.24702479336022,0.73323929267763,-1.2819008,0.056199603,-0.13591751,304.86273,69.77531,15.102391,WAL
7036592541000,3.300015,-0.686335436111408,-8.8385084907694,0.722718295496745,-1.3035865,0.10720685,-0.12675454,304.81415,70.16016,14.94937,WAL
7036597525000,3.304999,-0.390914806167965,-8.42084492956995,0.676877196275744,-1.3261884,0.14721853,-0.12950343,304.76816,70.54644,14.795697,WAL
7036602529000,3.310003,-0.112382571191812,-8.09023309447889,0.620905288426336,-1.3457361,0.19639318,-0.14263703,304.75565,70.87629,14.6860695,WAL
7036607565000,3.315039,0.158165746583998,-7.80544558458813,0.559201278387954,-1.3765849,0.24190263,-0.17104226,304.75397,71.200966,14.580721,WAL
7036612530000,3.320004,0.415843483779023,-7.62853632425941,0.459150007846277,-1.3994923,0.2779437,-0.2180789,304.75894,71.46197,14.545763,WAL
7036617555000,3.325029,0.671101982402922,-7.5129472429944,0.333928838410729,-1.409877,0.30818152,-0.2678644,304.77652,71.71132,14.517792,WAL
7036622566000,3.33004,0.855615441386492,-7.48183850867797,0.194850925976396,-1.4300356,0.35369098,-0.28985557,304.79175,71.90767,14.553136,WAL
7036627551000,3.335025,0.997657684320143,-7.5007775535059,0.048073992534464,-1.4633276,0.410196,-0.3109304,304.82098,72.08775,14.599733,WAL
7036632528000,3.340002,1.09095613175332,-7.64959019586868,-0.0615100309234607,-1.4941764,0.47219884,-0.32589662,304.8499,72.22816,14.699601,WAL
7036637640000,3.345114,1.15446639340385,-7.88897504001597,-0.149447308398363,-1.5155567,0.54519725,-0.32925636,304.8983,72.35932,14.798083,WAL
7036642573000,3.350047,1.14074127015916,-8.07669620044259,-0.152194526847391,-1.518611,0.6035349,-0.33658674,304.92572,72.4693,14.927933,WAL
7036647567000,3.355041,1.07968083209635,-8.2395242336369,-0.103346210401736,-1.5128077,0.6203337,-0.3323107,304.9611,72.57076,15.053043,WAL
7036652528000,3.360002,0.998079691327855,-8.39806176113754,-0.0579837978319637,-1.4987578,0.6291912,-0.34238997,305.00705,72.664,15.183895,WAL
7036658293000,3.365767,0.830920499178201,-8.57119067063149,-0.0161939997945502,-1.4816537,0.65118235,-0.33536503,305.06018,72.7485,15.306478,WAL
7036662562000,3.370036,0.705496677190509,-8.68376580229505,0.00379048959350384,-1.4819591,0.6914995,-0.3304781,305.1393,72.83708,15.40633,WAL
7036667568000,3.375042,0.556306013316153,-8.79565864076631,0.0131149077286784,-1.4743233,0.7501425,-0.31429017,305.22913,72.915955,15.498815,WAL
7036672460000,3.379934,0.417980810093392,-8.90982892325652,0.0704839777092681,-1.4596626,0.77640975,-0.31306845,305.3372,73.00879,15.561418,WAL
7036677559000,3.385033,0.289096879424424,-9.03871286427774,0.229110356226576,-1.4245378,0.79381937,-0.30757064,305.45877,73.09406,15.616335,WAL
7036682490000,3.389964,0.198778747294541,-9.14604659267535,0.339224011474645,-1.3933836,0.7641924,-0.30482176,305.57736,73.20066,15.638557,WAL
7036687601000,3.395075,0.165494365212745,-9.22687973382553,0.377263296770935,-1.3747523,0.75136423,-0.31764993,305.706,73.29362,15.662896,WAL
7036692494000,3.399968,0.121548876841972,-9.25782190767645,0.418803294447465,-1.3322971,0.73456544,-0.32742378,305.87103,73.39148,15.6577425,WAL
7036697564000,3.405038,0.0487331904149405,-9.18500665226357,0.473415049644765,-1.3087788,0.6945538,-0.34697145,306.02567,73.47683,15.660704,WAL
7036702516000,3.40999,-0.0149292581232247,-9.12223662740184,0.516255465480368,-1.2767084,0.65484756,-0.38820487,306.1918,73.549934,15.663961,WAL
7036707551000,3.415025,-0.0451418045418755,-9.09705952422724,0.511220044845447,-1.2632693,0.63591075,-0.40500367,306.35165,73.618645,15.666852,WAL
7036712475000,3.419949,-0.0924688183470605,-9.07534504345356,0.536469793677932,-1.2250903,0.6365216,-0.43279803,306.5265,73.66981,15.674775,WAL
7036717555000,3.425029,-0.193794571447505,-9.0615276165862,0.651612689900597,-1.2030991,0.56291234,-0.44226643,306.67316,73.71763,15.684656,WAL
7036722538000,3.430012,-0.314807858882894,-9.04414916127098,0.718068141606715,-1.1884383,0.47219884,-0.44440445,306.8228,73.7576,15.69701,WAL
7036728239000,3.435713,-0.587576499000799,-9.00050643405276,0.505308598896882,-1.17897,0.4034765,-0.44929138,306.95706,73.78971,15.713849,WAL
7036732535000,3.440009,-0.765018963721244,-8.95586121590143,0.368565557510829,-1.1847731,0.3707952,-0.43799037,307.11,73.832695,15.710239,WAL
7036737626000,3.4451,-0.821334910848012,-8.83853642814515,0.335714597337569,-1.1713341,0.34697145,-0.43890667,307.2454,73.86657,15.712732,WAL
7036742568000,3.450042,-0.87038219274582,-8.74032215131765,0.30165991843015,-1.1737776,0.3145956,-0.43310347,307.32962,73.95506,15.669445,WAL
7036747561000,3.455035,-0.85683247259847,-8.81710361584963,0.242944422012846,-1.1670581,0.25717425,-0.44837508,307.40005,74.032104,15.634032,WAL
7036752944000,3.460418,-0.843446923281677,-8.90373223281677,0.177831787400729,-1.1209377,0.19303341,-0.42210788,307.45264,74.122765,15.581567,WAL
7036757563000,3.465037,-0.85957645443938,-9.0650275443938,0.0810545322432088,-1.0977248,0.16218472,-0.39370266,307.49872,74.20703,15.533837,WAL
7036762519000,3.469993,-0.876882788368277,-9.23809088368277,-0.0227835445181404,-1.087951,0.1459968,-0.3753767,307.5403,74.29409,15.482098,WAL
7036767556000,3.47503,-0.891467580228216,-9.3527349439834,-0.0894894978838174,-1.0812315,0.12797627,-0.35643986,307.5727,74.38442,15.42344,WAL
7036772470000,3.479944,-0.904781563672199,-9.44593318955111,-0.142745361221426,-1.0641272,0.12583824,-0.3381139,307.6057,74.47508,15.360726,WAL
7036777559000,3.485033,-0.869179419635264,-9.49978547032746,-0.156556911782368,-1.040609,0.12675454,-0.33536503,307.60757,74.578926,15.285842,WAL
7036782577000,3.490051,-0.806233986605542,-9.52883728876574,-0.146872995897229,-1.0235047,0.118507855,-0.32925636,307.60724,74.68377,15.206491,WAL
7036787580000,3.495054,-0.782106232463261,-9.5544597376787,-0.0893889538962311,-1.0005972,0.09285152,-0.32803464,307.6068,74.79073,15.122818,WAL
7036792566000,3.50004,-0.777332687004899,-9.57832753973808,-0.00823837007097871,-0.9789116,0.06261369,-0.3286455,307.60428,74.893616,15.039834,WAL
7036798082000,3.505556,-0.728276306492344,-9.55353749940346,-0.0282914772211175,-0.96577793,-0.007330383,-0.34238997,307.59436,74.97696,14.973366,WAL
7036802588000,3.510062,-0.672500780443428,-9.5149237942931,-0.0840670005820243,-0.94042706,-0.03604105,-0.3481932,307.58936,75.05757,14.906229,WAL
7036807562000,3.515036,-0.619687728983308,-9.49073226100152,-0.124265976024279,-0.9117164,-0.048258353,-0.35185838,307.58902,75.12908,14.844657,WAL
7036812543000,3.520017,-0.571430682336874,-9.47625485978756,-0.153220193934244,-0.9062186,-0.058643065,-0.3753767,307.5824,75.19008,14.791952,WAL
7036817550000,3.525024,-0.539575412929094,-9.47781387951807,-0.127871085688327,-0.8906415,-0.07513642,-0.39522982,307.57162,75.23475,14.754083,WAL
7036822574000,3.530048,-0.515817807019554,-9.48731710843373,-0.075604378487063,-0.86498517,-0.099265605,-0.40500367,307.55704,75.27288,14.720966,WAL
7036827556000,3.53503,-0.476389545602816,-9.51556080965309,-0.0231615242095525,-0.82711154,-0.109650314,-0.43218717,307.54486,75.28889,14.708423,WAL
7036832544000,3.540018,-0.428356254171946,-9.55398721809955,0.0296750993737556,-0.81183994,-0.12736541,-0.4560109,307.52475,75.30108,14.698264,WAL
7036837603000,3.545077,-0.376438911398563,-9.59080601805786,0.036096107594251,-0.79076505,-0.13713925,-0.4801401,307.524,75.29843,14.701548,WAL
7036842551000,3.550025,-0.324049711686014,-9.62573240648609,0.0186330387440575,-0.7504479,-0.15302174,-0.5155703,307.51733,104.71517,14.714974,WAL
7036847553000,3.555027,-0.252340943305049,-9.68591044123886,-0.0275399232346203,-0.72082096,-0.16371189,-0.54153204,307.52338,104.740974,14.740114,WAL
7036852570000,3.560044,-0.16060959487378,-9.77254521902843,-0.103982712884493,-0.6771441,-0.16065755,-0.5552765,307.52966,104.773224,14.771504,WAL
7036857558000,3.565032,-0.0754009396726053,-9.8788522280052,-0.180284756080472,-0.6392705,-0.10293079,-0.58246,307.55817,104.82518,14.822469,WAL
7036862565000,3.570039,0.00618931405765188,-9.99883780902813,-0.257075578050245,-0.6230826,-0.08368854,-0.59620446,307.5769,104.87651,14.872705,WAL
7036867686000,3.57516,0.0651966474664752,-10.0819226592057,-0.329132188016242,-0.591623,-0.067500606,-0.59956425,307.60214,104.9436,14.938608,WAL
7036872509000,3.579983,0.106367337914034,-10.1368170640784,-0.393175485223334,-0.5897904,-0.05681047,-0.5870415,307.63184,105.0091,15.002721,WAL
7036877524000,3.584998,0.15747829998511,-10.1554952545166,-0.418631178914036,-0.58093286,-0.025350908,-0.57910025,307.65427,105.08466,15.076607,WAL
7036882509000,3.589983,0.21434594189994,-10.1460171236847,-0.413892202568989,-0.57910025,0.010995574,-0.5540548,307.6817,105.15074,15.140851,WAL
7036887553000,3.595027,0.248749721488509,-10.1325084779951,-0.442456890332518,-0.5934556,0.040317107,-0.52503866,307.71332,105.21872,15.206243,WAL
7036892566000,3.60004,0.265182958130073,-10.1160752756724,-0.496451815278729,-0.5928447,0.06566802,-0.49632803,307.75494,105.278496,15.263528,WAL
7036897556000,3.60503,0.281540797914914,-10.0997174700489,-0.550199007674817,-0.5946773,0.092240654,-0.47555858,307.81348,105.34306,15.325473,WAL
7036902583000,3.610057,0.298019928295355,-10.0832383740831,-0.604344726347188,-0.5687156,0.109650314,-0.45112398,307.877,105.397,15.377129,WAL
7036907559000,3.615033,0.265469618352801,-10.0360894713918,-0.750479595862205,-0.5119051,0.12736541,-0.44440445,307.94858,105.44874,15.427048,WAL
7036912534000,3.620008,0.180575237339141,-9.95591154994061,-0.995730041392793,-0.45173484,0.1328632,-0.42424592,308.02185,105.48836,15.465308,WAL
7036917519000,3.624993,0.0604218802236266,-9.86148987797764,-1.19740346524064,-0.38240165,0.12705997,-0.39828414,308.08063,105.53197,15.507161,WAL
7036922568000,3.630042,-0.104125073958192,-9.74865785979582,-1.34784638524064,-0.310625,0.12339478,-0.376293,308.1418,105.5691,15.54358,WAL
7036927558000,3.635032,-0.27595539698356,-9.61124862922496,-1.32819639867661,-0.2687807,0.089491755,-0.34116822,308.12845,105.584885,15.555243,WAL
7036932530000,3.640004,-0.460720390092923,-9.43620813295211,-1.06077340077198,-0.23457226,-0.076358154,-0.32986724,308.07593,105.600174,15.566699,WAL
7036937591000,3.645065,-0.687356477303371,-9.30996924269663,-0.989940540269663,-0.14996742,-0.23090707,-0.30787608,307.99054,105.5798,15.541242,WAL
7036942566000,3.65004,-0.957350383507572,-9.24945311910112,-1.16683308877968,-0.10903945,-0.20250183,-0.27763826,307.91278,105.554985,15.5110235,WAL
7036947451000,3.654925,-1.23020011796637,-9.26597543190088,-1.26309785057528,-0.12980886,-0.18325958,-0.2565634,307.8604,105.49899,15.45398,WAL
7036952601000,3.660075,-1.5309056248992,-9.41147850496607,-1.23399733725047,-0.12675454,-0.20616703,-0.23060162,307.80646,105.43253,15.3878,WAL
7036957452000,3.664926,-1.70935708513433,-9.55399739542289,-1.17060218535821,-0.11728613,-0.19456059,-0.2144137,307.73135,105.32253,15.274434,WAL
7036962564000,3.670038,-1.69474317420896,-9.7147502121393,-1.03420555622388,-0.11728613,-0.18967366,-0.19333886,307.65125,105.205795,15.153972,WAL
7036967467000,3.674941,-1.592676615791,-9.8672896611395,-0.907872587279476,-0.10445796,-0.2003638,-0.17715092,307.59552,105.029655,14.97533,WAL
7036972575000,3.680049,-1.309720893512,-10.0229150030849,-0.785258452448665,-0.07544186,-0.1957823,-0.1563815,307.55048,104.848755,14.792532,WAL
7036977476000,3.68495,-1.03623588776306,-10.1897966227592,-0.672175396492596,-0.052839845,-0.15699236,-0.15271631,307.55298,104.66364,14.609053,WAL
7036982524000,3.689998,-0.748924226656274,-10.4111684395947,-0.568554794583009,-0.037873644,-0.10598512,-0.14874569,307.56448,104.47523,14.422961,WAL
7036987584000,3.695058,-0.480800808998649,-10.6293635226703,-0.489485139658499,-0.020158553,-0.09285152,-0.1414153,307.61475,104.3278,14.281274,WAL
7036992560000,3.700034,-0.283122790985915,-10.8316384507042,-0.494082299295775,0.016493361,-0.096516706,-0.15974127,307.6772,104.18857,14.148404,WAL
7036997487000,3.704961,-0.0875198343352601,-11.1212744913295,-0.511999337572254,0.07147124,-0.10140363,-0.17837265,307.7692,104.08943,14.057908,WAL
7037002589000,3.710063,0.114217851929535,-11.9865051590972,-0.615109708991651,0.16371189,-0.09162979,-0.19792034,307.86487,103.99724,13.974496,WAL
7037007893000,3.715367,0.325243089150641,-12.8783574919872,-0.712313364583333,0.26419923,-0.054367006,-0.20066923,307.96375,103.93497,13.920406,WAL
7037012542000,3.720016,0.539293954557292,-13.4892940182292,-0.574072201822917,0.3191771,-0.01740966,-0.15149458,308.06497,103.86563,13.857814,WAL
7037017876000,3.72535,0.776977802561688,-14.1741482242419,-0.423353848756828,0.3475823,0.052839845,-0.022602014,308.16653,103.77921,13.776084,WAL
7037022535000,3.730009,0.806392775098889,-14.4094680922961,-0.469577420907892,0.32711834,0.16554448,0.13836098,308.28986,103.67335,13.672829,WAL
7037027480000,3.734954,0.837613431719721,-14.6592334384065,-0.518638499312488,0.3378085,0.24556783,0.22937989,308.45767,76.43187,13.567712,WAL
7037032505000,3.739979,0.600672797079694,-14.4656476033479,-0.73213088216885,0.40591997,0.26633725,0.2846632,308.63657,76.56585,13.429874,WAL
7037037634000,3.745108,0.30574164867631,-14.1796535927948,-0.982375501419214,0.5338962,0.23304509,0.32406402,308.81833,76.71304,13.274018,WAL
7037042490000,3.749964,0.0038467248238728,-13.8405057490942,-1.08772325732689,0.7021896,0.20830505,0.35460728,308.99835,76.868095,13.104509,WAL
7037047477000,3.754951,-0.318203280344203,-13.455969201087,-1.12617696231884,0.85062987,0.16737708,0.3753767,309.15903,77.02001,12.930791,WAL
7037053016000,3.76049,-0.475737274738032,-13.179532079926,-0.982906607900144,0.9850202,0.10934488,0.40622538,309.25757,77.21193,12.712466,WAL
7037057508000,3.764982,-0.528770793990138,-13.0115920100678,-0.797289313591535,1.1291844,0.023823744,0.43279803,309.335,77.39234,12.494858,WAL
7037062494000,3.769968,-0.380336184151109,-12.8945132251002,-0.624845671445607,1.2727377,-0.053450707,0.47128254,309.40533,77.6054,12.231874,WAL
7037067536000,3.77501,-0.144356021439742,-12.8048409273776,-0.464379169672564,1.4477507,-0.082161374,0.50579643,309.4653,77.80105,11.967982,WAL
7037072511000,3.779985,0.209764868001255,-12.6327783895265,-0.443192652182568,1.6285667,-0.12889257,0.5119051,309.54178,77.97014,11.700509,WAL
7037077518000,3.784992,0.626842872103659,-12.4177898780488,-0.490490151646341,1.7278323,-0.1881465,0.53786683,309.60498,78.12513,11.423048,WAL
7037082499000,3.789973,1.10455555565576,-12.1303645663371,-0.496927297996306,1.964848,-0.2648101,0.571159,309.65988,78.18574,11.186664,WAL
7037092596000,3.80007,2.20819436257014,-11.3915995386809,-0.395992280182136,2.3600779,-0.47525316,0.636827,309.62262,78.12635,10.794881,WAL
7037097527000,3.805001,2.71209420964953,-11.0744901083617,-0.339520749975163,2.509129,-0.5900958,0.68325275,309.52502,77.99834,10.635235,WAL
7037102440000,3.809914,3.21102340052004,-10.766905944312,-0.226577082712893,2.595872,-0.6377433,0.73639804,309.35507,77.74384,10.571936,WAL
7037107455000,3.814929,3.71575641834236,-10.4651072650054,-0.0288466298526544,2.6435194,-0.6056729,0.7870999,309.16592,77.45933,10.501632,WAL
7037112445000,3.819919,4.11569681561485,-10.2653333785511,0.101007327105317,2.7046058,-0.5540548,0.8454375,308.9089,77.05058,10.535259,WAL
7037117469000,3.824943,4.43788788282265,-10.1432908558239,0.179114271488433,2.7601945,-0.5027421,0.8924741,308.6501,76.62744,10.561208,WAL
7037122692000,3.830166,4.68101690598802,-10.1336144407186,0.146622632828743,2.7910433,-0.46731192,0.9129381,308.3619,76.09059,10.683263,WAL
7037127442000,3.834916,4.84899340299401,-10.1926329536926,0.0512846608477046,2.780353,-0.45723262,0.9224065,308.0694,75.55133,10.79841,WAL
7037132430000,3.839904,4.90363224004444,-10.3288385810067,-0.170810592059994,2.7522533,-0.45906523,0.9392053,307.7521,74.94741,10.980726,WAL
7037137457000,3.844931,4.87107514238238,-10.5195304513574,-0.482428274216211,2.7091873,-0.42821655,0.94806284,307.43854,74.349075,11.163416,WAL
7037142443000,3.849917,4.76385546849563,-10.7472425012562,-0.827616642766556,2.6658158,-0.3662137,0.9477574,307.06863,73.74536,11.388654,WAL
7037147447000,3.854921,4.58566962104311,-11.0121130565772,-1.20806736340569,2.6367998,-0.22540927,0.9294315,306.72662,73.1512,11.611099,WAL
7037152495000,3.859969,4.33625375537098,-11.2309995705086,-1.40297138970602,2.576935,0.00030543262,0.90133166,306.36063,72.627045,11.822771,WAL
7037157528000,3.865002,4.02586613239384,-11.406436375735,-1.42996165659356,2.4846945,0.19730948,0.86162543,306.0278,72.11661,12.035213,WAL
7037162450000,3.869924,3.68713049180281,-11.5377304447434,-1.33870346612531,2.4205534,0.35521814,0.84238315,305.7154,71.69818,12.196973,WAL
7037167503000,3.874977,3.28254946528926,-11.6074857355372,-1.05503170743802,2.3393085,0.42852196,0.81306165,305.43912,71.29855,12.364131,WAL
7037172459000,3.879933,2.91740774859609,-11.6312274200818,-0.751094892761472,2.2962425,0.5363397,0.7987063,305.2611,70.964745,12.437044,WAL
7037177521000,3.884995,2.61786305914584,-11.5519363992731,-0.381069012786915,2.209805,0.6389651,0.78038037,305.10535,70.65476,12.513752,WAL
7037182535000,3.890009,2.33351857078589,-11.4669807776544,0.00602462221234843,2.1361957,0.7504479,0.7556403,305.0868,70.37564,12.479728,WAL
7037187636000,3.89511,2.13907202049431,-11.3313200533185,0.557710044265482,2.087632,0.8155051,0.7464773,305.0833,70.11048,12.442937,WAL
7037192952000,3.900426,1.9423744846195,-11.1894481373896,1.12739582119725,2.0350976,0.820392,0.745561,305.1589,69.841675,12.334261,WAL
7037197493000,3.904967,1.90357682719243,-11.0575363209028,1.49985318665358,1.9715676,0.829555,0.7480045,305.25208,69.58463,12.223347,WAL
7037204294000,3.911768,1.85098785856325,-10.8653467271213,2.064584017595,1.922393,0.83077675,0.75228053,305.4369,69.28128,12.056525,WAL
7037207536000,3.91501,1.87684774497657,-10.8233242640292,2.39752982311296,1.8371773,0.77946407,0.7415904,305.60672,68.99724,11.898727,WAL
7037212498000,3.919972,1.91642725033837,-10.7590073418011,2.90711559947944,1.8139644,0.5888741,0.7528914,305.79736,68.65268,11.73005,WAL
7037217504000,3.924978,1.74069454441879,-10.4570871238789,2.8491998217121,1.7886134,0.3222314,0.7620544,305.94937,68.32553,11.578757,WAL
7037222535000,3.930009,1.50537343976556,-10.0891307474469,2.63527161379984,1.7724255,0.09621128,0.7831292,306.05414,68.00531,11.437218,WAL
7037227526000,3.935,1.21055295225423,-9.78224825907192,2.2193990914669,1.7275269,-0.09468412,0.81214535,306.105,67.62291,11.325296,WAL
7037232499000,3.939973,0.86490965649879,-9.5256345688366,1.63285288100946,1.6743816,-0.22907446,0.84879726,306.10516,67.25337,11.223404,WAL
7037237626000,3.9451,0.53005036645552,-9.29726191104051,1.19391932547657,1.6096299,-0.2742785,0.9114109,306.08984,66.938515,11.075309,WAL
7037242591000,3.950065,0.213750481661041,-9.08954232208102,0.830410488453137,1.5381587,-0.23732115,0.97494096,306.05566,66.6447,10.925203,WAL
7037247519000,3.954993,-0.0228192571290414,-8.80674997733953,0.634963076619892,1.4498887,-0.20799962,1.0338894,305.96542,66.45912,10.71924,WAL
7037252539000,3.960013,-0.232497479580923,-8.48767464596568,0.502774644136721,1.3912456,-0.14996742,1.0626001,305.8891,66.286865,10.502251,WAL
7037257546000,3.96502,-0.396833888051543,-8.18099888350826,0.506968665851605,1.2922854,-0.10842858,1.1093313,305.813,66.21405,10.209881,WAL
7037262532000,3.970006,-0.530809661415359,-7.8832746318196,0.601247899957394,1.1969905,-0.10781772,1.1496484,305.73865,66.154274,9.91526,WAL
7037267505000,3.974979,-0.628662869327455,-7.6808380229622,0.740178190605009,1.1389582,-0.13591751,1.16492,305.68112,66.12111,9.580654,WAL
7037272534000,3.980008,-0.709979030334865,-7.52272316848326,0.902810545640184,1.1029172,-0.24007004,1.180497,305.5986,66.10656,9.2491455,WAL
7037277521000,3.984995,-0.751877558420804,-7.3334757468747,1.06723755732388,1.0867293,-0.35827246,1.1691961,305.5279,66.07179,8.906107,WAL
7037282510000,3.989984,-0.760913710704492,-7.11660799771158,1.23440651610402,1.0885619,-0.46089783,1.1520919,305.4322,66.03735,8.57595,WAL
7037287527000,3.995001,-0.730833451697229,-6.91213842884067,1.42672375063162,1.0946705,-0.54367006,1.149343,305.34192,65.97106,8.2389145,WAL
7037292529000,4.000003,-0.647871561790954,-6.72669422172983,1.65120888367971,1.097114,-0.61666846,1.1481212,305.22842,65.898544,7.921904,WAL
7037297527000,4.005001,-0.544011273349866,-6.56782288746156,1.89256162593989,1.0937542,-0.6588182,1.1496484,305.09467,65.77595,7.621892,WAL
7037302535000,4.010009,-0.415557985937903,-6.43936950069438,2.15422567656978,1.0531317,-0.70646566,1.135293,304.9423,65.65734,7.340566,WAL
7037307520000,4.014994,-0.273953426042648,-6.32923676239269,2.37121213472722,1.0122037,-0.74128497,1.1093313,304.77533,65.48088,7.098674,WAL
7037312521000,4.019995,-0.114794378222099,-6.24081517687621,2.53479233799502,0.9611965,-0.77518797,1.0885619,304.59808,65.31541,6.869463,WAL
7037317491000,4.024965,0.0356138497588126,-6.1542476789152,2.69693667024992,0.89919364,-0.8026769,1.063211,304.40012,65.09626,6.7013264,WAL
7037322530000,4.030004,0.167277964897959,-6.06998243361345,2.86020016026411,0.8258898,-0.8594874,1.0323622,304.19086,64.8924,6.5514474,WAL
7037327515000,4.034989,0.273522158745122,-6.00676034401081,2.95391922230561,0.7467828,-0.93828905,0.9935723,303.94308,64.65384,6.4811068,WAL
7037332541000,4.040015,0.350588950639448,-5.96822702350645,2.9635525147103,0.68416905,-1.0341948,0.95722586,303.68362,64.43136,6.429395,WAL
7037337535000,4.045009,0.369552622916139,-5.9241005166066,2.8722248453297,0.6047566,-1.162782,0.9074403,303.39862,64.19265,6.4512267,WAL
7037342583000,4.050057,0.317757458385117,-5.8723052930749,2.65562695071589,0.5494733,-1.2504412,0.8671232,303.10883,63.966694,6.4872355,WAL
7037347501000,4.054975,0.265795679412612,-5.81317402994529,2.46554382119205,0.48838675,-1.2999213,0.816116,302.76883,63.750713,6.581627,WAL
7037352592000,4.060066,0.209641895663691,-5.73830246812554,2.30176196821192,0.44073927,-1.3072516,0.7684685,302.42938,63.54836,6.689747,WAL
7037357468000,4.064942,0.165190793817927,-5.64547300986565,2.1398700145378,0.3848451,-1.2956452,0.72295904,302.07095,63.403904,6.795822,WAL
7037362561000,4.070035,0.140739884975937,-5.49876744447564,1.95893324927812,0.32895094,-1.289842,0.6609562,301.72354,63.27142,6.918709,WAL
7037367475000,4.074949,0.16044908633876,-5.3538641564339,1.83730887716752,0.27366763,-1.244027,0.634689,301.38196,63.182587,7.0210524,WAL
7037372576000,4.08005,0.280229616661436,-5.19575366849745,1.83251765935661,0.25534168,-1.1899655,0.57604593,301.06107,63.094456,7.1445346,WAL
7037378074000,4.085548,0.400777455498508,-5.03921059703483,1.80705481962189,0.17195857,-1.1505647,0.5375614,300.72934,63.060352,7.263606,WAL
7037382516000,4.08999,0.485434523546269,-4.9333894719204,1.75626057172139,0.1001819,-1.1294898,0.49174652,300.41934,63.024925,7.393814,WAL
7037387542000,4.095016,0.578835732985554,-4.82118442704655,1.71944415987159,0.038789943,-1.0793989,0.44043383,300.11243,62.984512,7.5727425,WAL
7037392527000,4.100001,0.66504427657504,-4.73018652270265,1.73860160288925,-0.042455133,-1.0122037,0.38026363,299.82678,62.966286,7.7582808,WAL
7037397484000,4.104958,0.754419089581351,-4.65061408943863,1.75497212460514,-0.12583824,-0.9505063,0.3213151,299.5296,62.951595,7.9906936,WAL
7037402652000,4.110126,0.858019910513796,-4.59881361750714,1.76439037434824,-0.22785273,-0.8857546,0.25961772,299.26303,62.959415,8.226773,WAL
7037407513000,4.114987,0.954707000689793,-4.56017798535439,1.78950714871539,-0.31978795,-0.79717916,0.20586158,299.0076,62.959732,8.500829,WAL
7037412583000,4.120057,1.05178670482855,-4.56988589748076,1.8962948410077,-0.42302418,-0.72173727,0.14355333,298.779,62.983826,8.781561,WAL
7037417506000,4.12498,1.13953788596959,-4.58245083886256,2.00450659784755,-0.54336464,-0.6203337,0.093462385,298.56915,63.012104,9.098928,WAL
7037422535000,4.130009,1.19660159344392,-4.61098266777251,2.13765523206951,-0.66981375,-0.516792,0.05100725,298.3909,63.062374,9.414436,WAL
7037427519000,4.134993,1.24429845938278,-4.64066584644102,2.27182926630164,-0.79351395,-0.40500367,0.0018325958,298.2384,63.10015,9.767433,WAL
7037432503000,4.139977,1.239546764888,-4.67867955124938,2.41913184525635,-0.926988,-0.28496864,-0.047036625,298.1252,63.16592,10.109643,WAL
7037437585000,4.145059,1.23047318428373,-4.72306882207431,2.56646518962845,-1.0711522,-0.17654006,-0.10048734,298.04895,63.223755,10.46814,WAL
7037442557000,4.150031,1.19736063240612,-4.79875475372541,2.69418513137294,-1.2067643,-0.07086037,-0.16279559,298.01544,63.30227,10.818533,WAL
7037448203000,4.155677,1.14902234599609,-4.89887717480469,2.86042094999023,-1.3594806,0.09743301,-0.22724187,298.04422,63.381245,11.154046,WAL
7037452559000,4.160033,1.08384016591797,-5.01294567089844,3.04374571979492,-1.5259414,0.2144137,-0.2941316,298.0997,63.483704,11.491019,WAL
7037457509000,4.164983,1.01391809596121,-5.14631961257895,3.25255901426919,-1.6487253,0.2510656,-0.36377025,298.19992,63.583942,11.80888,WAL
7037462520000,4.169994,0.996841556578596,-5.32989267840939,3.4702850697091,-1.7476854,0.26511553,-0.40561453,298.33307,63.70663,12.117793,WAL
7037467519000,4.174993,0.979805910924295,-5.51302613601993,3.68748972968597,-1.7828102,0.26328292,-0.42485678,298.5209,63.812687,12.387488,WAL
7037472543000,4.180017,0.741880741037556,-5.87549889183776,3.96033143381072,-1.8295414,0.2452624,-0.46181414,298.71762,63.929047,12.665992,WAL
7037477461000,4.184935,0.463580740320481,-6.26700567701552,4.23863152318478,-1.8454239,0.20708331,-0.50610185,298.91373,64.033264,12.947046,WAL
7037482537000,4.190011,0.121785652275992,-6.77298840198488,4.58419295412098,-1.8460348,0.1160644,-0.56199604,299.13553,64.10605,13.217067,WAL
7037487512000,4.194986,-0.224966261429112,-7.29086474177694,4.9354479857845,-1.7910569,-0.01160644,-0.61178154,299.3437,64.15529,13.498307,WAL
