timestamp,rel_time,acc_x,acc_y,acc_z,gyro_x,gyro_y,gyro_z,azimuth,pitch,roll,label
571097279000,0,-8.6727524137577,6.13485920985626,1.15228456673511,1.4123205,-0.26267207,1.1337659,50.75931,-37.38218,-38.470238,WAL
571102011000,0.004732,-8.26508577857632,5.96647524435318,1.91001255030801,1.5497651,-0.3042109,1.3014483,50.381268,-37.984177,-38.45679,WAL
571107325000,0.010046,-7.82159096878745,5.76843118147691,2.74302268470215,1.606881,-0.4334089,1.5170839,49.984222,-38.591183,-38.452335,WAL
571112033000,0.014754,-7.7580202736165,5.38700626367642,3.06882308864998,1.6355917,-0.72112644,1.7467692,49.622425,-39.24225,-38.36737,WAL
571116992000,0.019713,-7.69106040162143,4.98524624511808,3.41199305534015,1.6982054,-1.1233811,1.9150625,49.42268,-39.87097,-38.101673,WAL
571122016000,0.024737,-8.35474132478566,4.43232618667186,3.23723680962588,1.8170186,-1.5775595,1.921782,49.325523,-40.51645,-37.768387,WAL
571127064000,0.029785,-9.32971678589244,3.81531255003897,2.84159454719408,1.9801197,-1.9013181,1.6523905,49.34644,-41.141506,-37.423756,WAL
571132380000,0.035101,-9.6672120315498,4.12071399922856,2.7998762050539,2.10046,-2.2073615,1.38025,49.579834,-41.663113,-37.03401,WAL
571137572000,0.040293,-9.68688319523292,4.84853226669963,2.92773620149342,2.307849,-2.2821925,1.1731668,49.88945,-42.170086,-36.687923,WAL
571142109000,0.04483,-9.79548139540508,5.45540993186215,2.37758995320435,2.4346035,-2.2910502,1.0143417,50.317707,-42.44518,-36.625996,WAL
571147044000,0.049765,-9.95263856892382,6.10308934706771,1.4965556019347,2.683531,-2.1157317,0.92485,50.74756,-42.736523,-36.617687,WAL
571152010000,0.054731,-10.5216147563432,6.74930310733537,0.5237990765426,2.950479,-1.8704693,0.68752885,51.19962,-43.07384,-36.607967,WAL
571157021000,0.059742,-11.3175687442986,7.39838453192813,-0.504307907242571,3.1902437,-1.5118915,0.37782016,51.602814,-43.396965,-36.68519,WAL
571162023000,0.064744,-11.5748364583375,7.87534840982295,-0.690453587687306,3.2769866,-0.89858276,0.077579886,51.791664,-43.831635,-36.897926,WAL
571167013000,0.069734,-11.5079129562869,8.24820877693308,-0.37017610553266,3.1951306,-0.23915374,-0.111177474,51.899197,-44.201214,-37.2141,WAL
571172011000,0.074732,-11.1438886743713,8.68668106305473,0.310001310759985,3.0274482,0.31490102,-0.24007004,51.769222,-44.569344,-37.7567,WAL
571177144000,0.079865,-10.5848648253513,9.1775313066753,1.23261808733266,2.7635543,0.79351395,-0.28771752,51.471703,-44.83481,-38.380814,WAL
571182018000,0.084739,-9.80936786644951,9.66523496612378,1.30748680296417,2.3026567,1.3381003,-0.29810223,51.004047,-45.02181,-39.004566,WAL
571187021000,0.089742,-8.73250063517915,10.1906629546145,0.464721566471227,1.7935003,1.8460348,-0.19822577,50.374123,-45.145267,-39.633827,WAL
571192014000,0.094735,-7.79337909847943,10.6170727254025,-0.232430311359571,1.426065,2.1160371,-0.063224554,49.718002,-45.287846,-40.072758,WAL
571197023000,0.099744,-6.93523549604452,10.9841669131385,-0.842665749811171,1.2302825,2.1224513,0.06658431,48.96501,-45.3932,-40.490067,WAL
571201996000,0.104717,-6.28063527092773,11.2154290951172,-0.7503334833375,1.144456,1.998751,0.20433442,48.053402,-45.716747,-40.693924,WAL
571207010000,0.109731,-5.75074796551758,11.3607969025391,-0.1969997875125,1.0699304,1.7391334,0.31856623,47.179058,-46.02459,-40.838165,WAL
571212016000,0.114737,-5.43830026894573,11.4950086194744,0.25482927443339,1.0836749,1.5060883,0.4382958,46.25886,-46.529972,-40.778004,WAL
571216985000,0.119706,-5.29933883908972,11.6195948739301,0.62379623161011,1.0250319,1.2009611,0.54275376,45.459694,-47.022648,-40.651127,WAL
571221995000,0.124716,-5.3137144761104,11.6069842963696,1.15593170289643,0.9379836,0.8026769,0.5748242,44.852848,-47.567207,-40.37295,WAL
571227058000,0.129779,-5.44801519640914,11.4870729836779,1.81784266482046,0.8979719,0.38545597,0.537256,44.373554,-48.100506,-40.062344,WAL
571232011000,0.134732,-5.61839591462498,11.5880144518108,2.19524377641005,0.86834496,0.04642576,0.49877146,44.062412,-48.63777,-39.683216,WAL
571237030000,0.139751,-5.82291177148229,11.8686289965367,2.35695400959826,0.8350528,-0.09590584,0.44868052,43.844513,-49.142883,-39.31,WAL
571242014000,0.144735,-5.97037236188753,12.1480413796088,2.12354574571149,0.82527894,-0.32406402,0.42363504,43.868793,-49.577354,-38.938225,WAL
571247025000,0.149746,-6.06893233643032,12.4296416919315,1.53687849779951,0.7861836,-0.43218717,0.35918877,43.910843,-49.97208,-38.598457,WAL
571252012000,0.154733,-6.28138359404104,12.4831901529203,0.850268535248619,0.7663304,-0.37384954,0.26175576,43.99597,-50.341896,-38.27353,WAL
571257003000,0.159724,-6.61619504991121,12.2945639840667,0.0533234408563535,0.73548174,-0.24037547,0.129198,44.10122,-50.670803,-37.983276,WAL
571262011000,0.164732,-6.79077429572864,12.0423772788945,-0.593280782964824,0.698219,-0.11484267,0.0015271631,44.127705,-51.000874,-37.724567,WAL
571267011000,0.169732,-6.77152439623116,11.715129540201,-1.05527753673367,0.6392705,-0.03848451,-0.099571034,44.135025,-51.287445,-37.507137,WAL
571272064000,0.174785,-6.92614482399963,11.1002677134899,-1.35319012546653,0.57635134,0.015271631,-0.17959438,44.03581,-51.49219,-37.410023,WAL
571277053000,0.179774,-7.27214209466159,10.1776084176957,-1.45965078137592,0.5155703,0.028405234,-0.26267207,43.93503,-51.65508,-37.34589,WAL
571281915000,0.184636,-7.47355850087371,9.44964839277204,-1.48515424271247,0.4868596,0.048563786,-0.376293,43.781654,-51.75635,-37.356106,WAL
571287037000,0.189758,-7.35180420778396,9.10386559015091,-1.31956835325655,0.4541783,0.102319926,-0.5158757,43.620384,-51.815746,-37.398094,WAL
571291988000,0.194709,-7.25929867552923,8.6781678021946,-1.10762962710818,0.44012842,0.2312125,-0.63804877,43.442184,-51.690952,-37.623573,WAL
571297022000,0.199743,-7.22652859671781,8.02276378180229,-0.765883226191494,0.4334089,0.4474588,-0.71837753,43.217236,-51.534435,-37.87623,WAL
571301959000,0.20468,-7.21675632213439,7.35168670964427,-0.411159172490119,0.44623706,0.63224554,-0.7855727,42.988438,-51.322002,-38.173508,WAL
571307007000,0.209728,-7.28363483992095,6.56825097667984,0.0187750967588933,0.4859433,0.7290677,-0.8491027,42.71451,-51.087337,-38.4899,WAL
571311977000,0.214698,-7.31729613946588,5.82310579960435,0.388490612443126,0.53023106,0.8078693,-0.8735373,42.433475,-50.77055,-38.8755,WAL
571316994000,0.219715,-7.22700056053412,5.17202584039565,0.554824875556874,0.57971114,0.8735373,-0.82436264,42.119553,-50.45862,-39.25277,WAL
571321983000,0.224704,-7.1072478570273,4.60081393852376,0.687736749787664,0.6310238,0.9443977,-0.70432764,41.846558,-50.059757,-39.70314,WAL
571327085000,0.229806,-6.85034539110212,4.35873306632963,0.677855893650152,0.7287622,1.0647382,-0.60048056,41.529686,-49.674023,-40.13953,WAL
571332019000,0.23474,-6.58152620069808,4.1665295504363,0.620209406945899,0.82558435,1.1285735,-0.5439755,41.243477,-49.242016,-40.614155,WAL
571337023000,0.239744,-6.23444465619546,4.12471231012216,0.386033909144852,0.9392053,1.251052,-0.528093,40.889145,-48.829674,-41.068077,WAL
571342623000,0.245344,-5.8389494341421,4.08219525106082,0.122821952873463,0.9755518,1.4654657,-0.5332854,40.4788,-48.431606,-41.502487,WAL
571347030000,0.249751,-5.38893422240235,4.13270744978784,-0.106777587805462,1.0082331,1.5344934,-0.5317582,40.077526,-48.03955,-41.92361,WAL
571351989000,0.25471,-4.90924583525081,4.18175675694513,-0.370128018998724,0.9984592,1.6377298,-0.5036584,39.533493,-47.700317,-42.286236,WAL
571357001000,0.259722,-4.73962149222539,4.13935032678905,-0.695241192250908,0.93492925,1.702176,-0.41722095,38.97735,-47.374542,-42.62381,WAL
571362161000,0.264882,-4.56479814162598,4.10820078567301,-1.0102285872173,0.8338311,1.7913623,-0.30726522,38.320568,-132.86563,-42.86394,WAL
571367021000,0.269742,-4.39786026477035,4.22876737708479,-1.07051181029192,0.6844745,1.9694295,-0.19730948,37.60483,-133.08464,-43.069515,WAL
571372192000,0.274913,-4.22757507440758,4.3629844107109,-1.1340936292891,0.4886922,2.1169536,-0.07544186,36.804535,-133.25363,-43.209564,WAL
571377070000,0.279791,-4.15672640132701,4.56224557840758,-1.18722993759242,0.2968805,2.2241604,0.048258353,35.954884,-133.39276,-43.30528,WAL
571381974000,0.284695,-4.08550010104265,4.76256881874882,-1.24064946525118,0.1518,2.3426683,0.16401732,35.030792,-133.45567,-43.309704,WAL
571387282000,0.290003,-4.25799360036915,4.87734648928465,-1.18399641002694,0.01740966,2.5079072,0.28069258,34.0572,-133.4823,-43.264523,WAL
571392006000,0.294727,-4.42951434377931,4.97213416435199,-1.12531827832984,-0.06688975,2.6508498,0.36987892,33.05838,-133.48398,-43.180984,WAL
571396989000,0.29971,-4.62518323003221,5.27661031970612,-1.16476565235507,-0.12217305,2.7226264,0.44165558,32.02279,-133.41336,-43.01155,WAL
571401956000,0.304677,-4.82146831219807,5.59736869181763,-1.2126400638587,-0.16310102,2.7394252,0.53969944,30.97279,-133.3102,-42.79648,WAL
571406980000,0.309701,-4.95787451594655,5.90384113952989,-1.21191210819272,-0.21105394,2.8047879,0.6444628,29.91326,-133.19682,-42.56031,WAL
571411963000,0.314684,-5.08819675738808,6.20637509308495,-1.20725774416268,-0.2275473,2.7980683,0.77091193,28.899273,-133.05174,-42.28414,WAL
571417022000,0.319743,-5.00309837577492,6.50350764965188,-1.19857053006199,-0.22388211,2.797152,0.9034697,27.880548,-132.8609,-41.949993,WAL
571422103000,0.324824,-4.88707615164521,6.80052478572246,-1.18928875213162,-0.21899518,2.751337,1.0567969,26.911886,-132.63167,-41.571358,WAL
571427076000,0.329797,-4.68803299482423,6.88059167331147,-1.16392608562058,-0.19394971,2.6697865,1.1884383,25.991713,-132.35071,-41.136314,WAL
571432003000,0.334724,-4.47041255047658,6.9096076988931,-1.13491000954187,-0.15088372,2.6041186,1.2428054,25.11002,-132.05557,-40.680065,WAL
571436982000,0.339703,-4.07108454294211,6.81581953568596,-1.09455461284695,-0.12370021,2.4678955,1.2284501,24.30145,-131.67944,-40.14829,WAL
571441981000,0.344702,-3.63448160542228,6.69717752735924,-1.05184348984933,-0.087659165,2.303573,1.1395692,23.5452,-131.31978,-39.63043,WAL
571446945000,0.349666,-3.47825732194824,6.60029649872631,-1.09107487034848,-0.01740966,2.1303926,1.0928379,22.857067,-130.92181,-39.075813,WAL
571451951000,0.354672,-3.38544218487874,6.50748120863053,-1.14969495691869,0.016187929,1.9498819,1.1184943,22.244734,-130.53572,-38.541042,WAL
571457322000,0.360043,-3.29830294299139,6.27870384253024,-1.1970741752545,0.03848451,1.806634,1.1267409,21.675629,-130.11935,-37.97605,WAL
571461917000,0.364638,-3.22555405379796,6.06428602176977,-1.23536308324197,0.004276057,1.707063,1.1166617,21.167248,-129.70584,-37.423027,WAL
571466875000,0.369596,-3.03214670567116,5.78821937063801,-1.26909227413675,-0.04520403,1.6035212,1.0852021,20.705902,-129.30418,-36.882725,WAL
571471897000,0.374618,-2.73519778648525,5.46927425222959,-1.29658758058541,-0.124005646,1.5097535,1.0616838,20.284857,-128.90382,-36.35454,WAL
571476881000,0.379602,-2.42112850661222,5.01405340560858,-1.10696885140018,-0.21624629,1.3469579,1.0256428,19.914734,-128.54248,-35.8738,WAL
571481908000,0.384629,-2.09900929788448,4.51666348659845,-0.85590533054905,-0.31978795,1.1349876,0.9120218,19.590813,-128.20502,-35.436436,WAL
571486913000,0.389634,-1.69045683000388,4.17090363154577,-0.692989509595617,-0.40622538,0.93218035,0.7528914,19.299137,-127.88249,-35.02343,WAL
571491934000,0.394655,-1.2521321969744,3.87246979429791,-0.557761675418929,-0.42271876,0.7452556,0.5687156,19.064678,-127.59784,-34.66757,WAL
571496899000,0.39962,-1.17078749564751,3.75620860818661,-0.872214363221021,-0.40011674,0.6444628,0.3390302,18.868233,-127.36148,-34.389023,WAL
571501931000,0.404652,-1.24400563660738,3.71744606297256,-1.38904868617392,-0.36987892,0.66523224,0.090713486,18.676186,-127.18016,-34.173424,WAL
571506919000,0.40964,-1.36507914589966,3.92998122685256,-1.93818631028653,-0.31887165,0.7293731,-0.08124508,18.487085,-126.99733,-33.95937,WAL
571511944000,0.414665,-1.54470345015918,4.44243860444615,-2.53517280468767,-0.27672195,0.81122905,-0.204029,18.267729,-126.86969,-33.797195,WAL
571516931000,0.419652,-1.85778016463905,4.83453106436759,-2.99127500318721,-0.25137106,0.895223,-0.30573806,17.939781,-126.85771,-33.677658,WAL
571521917000,0.424638,-2.24665482771969,5.16099385093505,-3.37054773113815,-0.21197024,0.97524637,-0.39584067,17.576714,-126.88104,-33.5805,WAL
571526972000,0.429693,-2.7037179854302,5.43172021031699,-3.63212884827722,-0.15149458,1.0097603,-0.4822781,17.131195,-126.94339,-33.459694,WAL
571531939000,0.43466,-3.18604752244536,5.66586076653869,-3.82412417968104,-0.10567969,1.044885,-0.5207626,16.657133,-127.019775,-33.34025,WAL
571536960000,0.439681,-3.74583215694674,6.06653844355954,-3.85999020843151,-0.07452556,1.0577132,-0.54183745,16.144932,-127.18024,-33.26253,WAL
571541985000,0.444706,-4.35024508655438,6.56787321695064,-3.79908031991043,-0.023518313,1.0140363,-0.44532076,15.65118,-127.32744,-33.16025,WAL
571546938000,0.449659,-5.01125379790557,7.04362980699063,-3.8502501134944,0.022296581,0.8729264,-0.31612277,15.188611,-127.550415,-33.1267,WAL
571552021000,0.454742,-5.74014086937351,7.51762992283667,-3.98887271267683,0.07360926,0.73273283,-0.1142318,14.763205,-127.73516,-33.046684,WAL
571556949000,0.45967,-6.38286819380598,8.00891202924355,-4.29963889859717,0.10629055,0.66645396,0.21777347,14.441366,-127.87741,-32.966026,WAL
571561987000,0.464708,-6.93995563138017,8.56079293546995,-4.89317167505126,0.019547688,0.6249151,0.5140431,14.182393,-127.96567,-32.84961,WAL
571566975000,0.469696,-7.47359654823485,8.87183907570323,-5.29159455380404,-0.053145275,0.53969944,0.6453791,14.0105,-128.09009,-32.793682,WAL
571571957000,0.474678,-7.9915157500472,8.984430206532,-5.53028803332075,-0.049785517,0.4783075,0.66889745,13.873963,-128.16261,-32.688663,WAL
571576955000,0.479676,-8.46732024477643,9.11499779878813,-5.87259282930422,-0.015271631,0.4783075,0.6365216,13.722693,-128.26851,-32.5838,WAL
571582062000,0.484783,-8.89141412536565,9.27339482908483,-6.3682202966987,0.00580322,0.54733527,0.52687126,13.571828,-128.38077,-32.491123,WAL
571586996000,0.489717,-9.33958415698128,9.3493563824103,-6.73956751435257,0.050396383,0.6215554,0.3295618,13.40838,-128.61995,-32.513214,WAL
571591984000,0.494705,-9.82864014567083,9.35401415113105,-7.01437051903276,0.11575896,0.6432411,0.03970624,13.222366,-128.90265,-32.57997,WAL
571597047000,0.499768,-9.95754463155875,9.2634357694964,-7.1331383738705,0.1414153,0.6554584,-0.10751228,12.983711,-129.26717,-32.68442,WAL
571601978000,0.504699,-9.67216720441247,9.06865346503597,-7.06972088929497,0.07269296,0.8582657,-0.07941248,12.673026,-129.6347,-32.78106,WAL
571606919000,0.50964,-9.39216924241839,8.83961610450068,-6.95428954402163,-0.18387043,0.97585726,-0.017715093,12.3684435,-130.0802,-32.98017,WAL
571611989000,0.51471,-9.11549237937029,8.54418210218273,-6.7432649698474,-0.4447099,0.8405506,-0.0143553335,12.08409,-130.49586,-33.175125,WAL
571616939000,0.51966,-8.83030659595862,8.28287145383351,-6.44325380238809,-0.62888575,0.7495316,-0.03940081,11.754684,-130.8382,-33.300568,WAL
571621966000,0.524687,-8.50448379996133,8.08272317180702,-5.91262865456831,-0.7858781,0.6606508,-0.082161374,11.470715,-131.13077,-33.434444,WAL
571626962000,0.529683,-8.16433258007754,7.96682163376081,-5.30739708977035,-0.8927795,0.6188065,-0.108123146,11.209349,-131.37923,-33.56002,WAL
571631982000,0.534703,-7.76764598180734,8.12931961765583,-4.43755370772443,-0.9193522,0.52687126,-0.15821409,10.983784,-131.62024,-33.711803,WAL
571636971000,0.539692,-7.45442245329593,8.34779624731183,-3.67109578354371,-0.8857546,0.3640757,-0.18784106,10.828105,-131.78922,-33.86325,WAL
571641979000,0.5447,-7.42751607775596,8.76932983870968,-3.24956233262272,-0.75655663,0.15118915,-0.1881465,10.71399,-131.9681,-34.032513,WAL
571646949000,0.54967,-7.39808267901208,9.22287104558808,-2.8151769758677,-0.59559363,0.006414085,-0.18234327,10.69902,-132.01729,-34.174484,WAL
571651978000,0.554699,-7.33520152066152,10.1084483439234,-2.18112480338374,-0.47678033,-0.14080444,-0.1572978,10.753437,-132.07503,-34.33538,WAL
571656959000,0.55968,-7.29320918932749,11.008467909905,-1.50902961928838,-0.3717115,-0.301462,-0.099265605,10.919218,-132.04716,-34.473373,WAL
571661987000,0.564708,-7.31520852704678,11.9896386478436,-0.690653680005482,-0.301462,-0.5900958,-0.0033597588,11.180189,-132.01846,-34.62567,WAL
571667066000,0.569787,-7.33764403106877,12.9880904013049,0.0910947129830157,-0.2932153,-1.010982,0.13041973,11.62957,-131.82085,-34.720356,WAL
571671956000,0.574677,-7.36189348840099,14.0405175585128,0.285090511413007,-0.33078352,-1.4752395,0.29016098,12.199346,-131.60402,-34.81823,WAL
571676977000,0.579698,-7.38493397706328,15.0156695486381,0.369704361927094,-0.40653083,-1.9113973,0.45998153,13.039008,-131.16403,-34.848583,WAL
571681978000,0.584699,-7.39474220495597,15.2412594046693,-0.356105029577104,-0.49418998,-2.0998492,0.63132924,13.960322,-130.69565,-34.85094,WAL
571686983000,0.589704,-7.31764885732136,15.381604674346,-1.0638071262007,-0.5448918,-1.9495764,0.7715228,14.977452,-130.07648,-34.722324,WAL
571691999000,0.59472,-6.82058225583756,15.1096247563452,-1.68279567715736,-0.50793445,-1.713477,0.8445212,16.01967,-129.45943,-34.56914,WAL
571696945000,0.599666,-6.29908000750025,14.7610048957525,-2.32203224549886,-0.48288897,-1.4785993,0.8414669,16.928177,-128.85858,-34.335228,WAL
571701979000,0.6047,-5.5269968548294,13.787508513777,-3.19482198778474,-0.5335908,-1.1902709,0.76083267,17.7222,-128.27847,-34.07609,WAL
571706959000,0.60968,-4.76006679552877,12.8489123895801,-3.99239368406882,-0.59681535,-0.8060367,0.59895337,18.297508,-127.74714,-33.75409,WAL
571712663000,0.615384,-3.85210953114308,12.0046715995334,-4.2844266746598,-0.6441574,-0.50335294,0.4184427,18.783997,-127.25499,-33.448517,WAL
571717070000,0.619791,-3.16385006040816,11.3754254089054,-4.45775472844156,-0.6365216,-0.18753563,0.32467487,19.003426,-126.8473,-33.096237,WAL
571721957000,0.624678,-2.56471682591837,10.962978929128,-4.0018925124026,-0.52442783,-0.060170226,0.3277292,19.175875,-126.47702,-32.76459,WAL
571726989000,0.62971,-1.94780697612245,10.5382949335807,-3.53250461162338,-0.38453966,0.112704635,0.3454443,19.169987,-126.13117,-32.37898,WAL
571731983000,0.634704,-1.68148837393011,9.82443932928425,-2.89868698404037,-0.3210097,0.21410827,0.40500367,19.15258,-125.78427,-31.982605,WAL
571737023000,0.639744,-1.45147317228555,9.07125178303121,-2.2402122555784,-0.24801129,0.26358834,0.44898596,19.098806,-125.46127,-31.581863,WAL
571741991000,0.644712,-1.22936566803469,8.26550831814057,-1.77941264454976,-0.2098322,0.3277292,0.5112942,19.048756,-125.06471,-31.115246,WAL
571746920000,0.649641,-1.01040961711203,7.44680325713421,-1.37957963981043,-0.18936823,0.4615087,0.57451874,18.966373,-124.66925,-30.631357,WAL
571751980000,0.654701,-0.733162737931288,6.82184520122699,-1.1285566906184,-0.13255776,0.66523224,0.636827,18.8951,-124.275986,-30.169516,WAL
571756933000,0.659654,-0.446037133457669,6.27475444539877,-0.930672882880982,-0.04520403,0.95233893,0.691194,18.76054,-123.87894,-29.677048,WAL
571761992000,0.664713,-0.264581057593944,5.76944565461279,-0.642497239543623,0.059253927,1.3289373,0.75319684,18.558706,-123.50044,-29.185326,WAL
571766975000,0.669696,-0.3113614843895,5.37960891842937,-0.185088666733907,0.17592919,1.6982054,0.75441855,18.269667,-123.139854,-28.672905,WAL
571771948000,0.674669,-0.509858050903575,5.20979578907746,0.498930107953352,0.31031954,1.9260582,0.7257079,17.915947,-122.79285,-28.138117,WAL
571776999000,0.67972,-0.872181342432919,5.26941851718024,1.43454970944837,0.43127087,1.9275852,0.6844745,17.51885,-122.46646,-27.593596,WAL
571782621000,0.685342,-1.33734694737595,5.24634599204292,2.33266180570407,0.5305365,1.7327193,0.63713247,17.140734,-122.17595,-27.100754,WAL
571787009000,0.68973,-1.75814080801073,5.14490453366115,2.8999820691283,0.5861252,1.4135422,0.5742133,16.795643,-121.9129,-26.633642,WAL
571791992000,0.694713,-2.22088593985953,5.06791314152766,3.43159937322212,0.5821546,1.10139,0.5766568,16.600138,-121.61641,-26.261665,WAL
571796983000,0.699704,-2.59856860577505,5.20779571497415,3.32435616753487,0.4016439,0.79443026,0.7031059,16.5041,-121.2854,-25.902355,WAL
571801962000,0.704683,-2.95451362846169,5.32706444283404,3.12318893755812,0.10873401,0.5235115,0.9260717,16.566713,-120.934105,-25.661951,WAL
571806961000,0.709682,-3.10935313142308,5.2496447671417,2.00544083187791,-0.16249016,0.26328292,1.1817188,16.730343,-120.51989,-25.405682,WAL
571811990000,0.714711,-3.24279751157601,5.14151663305439,0.924315439191074,-0.49174652,0.032986723,1.4474452,16.986404,-120.04779,-25.161333,WAL
571816983000,0.719704,-3.21167540674105,4.81251066262204,0.168491236492794,-0.79779,-0.16371189,1.7253889,17.3267,-119.47739,-24.863298,WAL
571822526000,0.725247,-3.1728938076041,4.44264129954737,-0.665397349933615,-1.0586295,-0.28008172,1.9691241,17.64604,-118.94349,-24.523504,WAL
571826977000,0.729698,-3.09571869670086,4.09535347956146,-1.27851044944679,-1.2880094,-0.312763,2.071444,18.000998,-118.34227,-24.157288,WAL
571832290000,0.735011,-3.00127144399045,3.67842207903069,-1.99340296985054,-1.3860532,-0.3640757,2.2950208,18.365627,-117.75097,-23.712315,WAL
571836985000,0.739706,-2.86606802544441,3.25690541917396,-2.24790365186168,-1.602605,-0.36468655,2.350915,18.709772,-117.13333,-23.28729,WAL
571841990000,0.744711,-2.72193743762271,2.80755698837888,-2.5192084257628,-1.6395624,-0.33017266,2.4083362,19.03665,-116.58452,-22.814888,WAL
571846934000,0.749655,-2.50332615504458,2.35060055466917,-2.30259065476302,-1.6865989,-0.3023783,2.4080307,19.359335,-116.012344,-22.348225,WAL
571852056000,0.754777,-2.24551904604411,1.87181589619897,-1.87905038366025,-1.7397442,-0.29718593,2.3631322,19.673712,-115.43966,-21.882206,WAL
571856951000,0.759672,-1.94827370482728,1.69782618139947,-1.06499137492914,-1.8240436,-0.35521814,2.3038783,19.996756,-114.949326,-21.443983,WAL
571861959000,0.76468,-1.60842845168291,1.71906648892826,0.0554356345659876,-1.9935588,-0.56169057,2.240043,20.355598,-114.46024,-21.033762,WAL
571866945000,0.769666,-1.28954243432999,2.1477521946095,0.362746882912012,-2.2715025,-0.80664754,2.204002,20.791641,-113.94428,-20.648447,WAL
571871965000,0.774686,-0.974172931311499,2.69850620934544,0.435876048496459,-2.607173,-0.9975429,2.17804,21.262325,-113.41808,-20.290897,WAL
571881960000,0.784681,-0.346260942731853,3.79507720083662,0.581478839336407,-3.0109549,-0.96883225,1.997224,22.19578,-111.89636,-19.482534,WAL
571886980000,0.789701,0.0046465648317231,4.36065992296422,0.979569367881941,-2.8787024,-0.81245077,1.856114,22.639448,-111.0141,-18.9941,WAL
571891986000,0.794707,0.381297016280922,4.93581525516509,1.62089311413526,-2.5405886,-0.6933321,1.7272215,23.047428,-110.19387,-18.529453,WAL
571896984000,0.799705,0.700243596682243,5.67620014775701,1.85044495224299,-2.1517727,-0.64934975,1.6175711,23.415535,-109.34418,-17.968086,WAL
571901928000,0.804649,0.990328381479751,6.48253764358256,1.89469518975078,-1.8035797,-0.4633413,1.5485435,23.692654,-108.567474,-17.421572,WAL
571906935000,0.809656,1.05942606060848,7.37572327661845,1.92738183634913,-1.4908166,-0.19242255,1.5515977,23.952599,-107.69047,-16.77003,WAL
571911915000,0.814636,1.05466870759102,8.28913560240399,1.95592595445387,-1.2208142,0.043982297,1.6539177,24.157557,-106.851494,-16.10801,WAL
571916901000,0.819622,0.983111397445545,8.81525831975248,2.03006593609901,-1.0418307,0.13805555,1.8637499,24.330704,-105.89448,-15.294333,WAL
571921882000,0.824603,0.888651812079208,9.20726573217822,2.11980254712871,-1.0268645,0.17715092,1.9941696,24.43862,-104.957344,-14.47803,WAL
571926902000,0.829623,0.752159360119048,10.1208040084325,1.99429405039683,-1.0855075,0.07788532,2.2617285,24.562153,-103.89276,-13.519096,WAL
571931897000,0.834618,0.600298575297619,11.2312859169147,1.7854854093254,-1.1496484,-0.06352998,2.5320365,24.673775,-102.81668,-12.537825,WAL
571936896000,0.839617,0.463245323575332,11.5690854418423,1.50976750897736,-1.2223413,-0.21197024,2.9593368,24.810577,-101.6433,-11.457001,WAL
571941925000,0.844646,0.331655806850117,11.5831841118267,1.20429187669789,-1.4581354,-0.44318274,3.441004,24.997013,-100.40398,-10.305574,WAL
571946901000,0.849622,0.197263652845596,11.2992767171091,0.132072749144543,-1.8555032,-0.45356745,3.6377025,25.14781,-99.15621,-9.122498,WAL
571952137000,0.854858,0.0535720024644753,10.838618379646,-1.4147256739823,-2.057394,0.78954333,3.4245105,24.985249,-97.95225,-7.9499364,WAL
571957288000,0.860009,-0.0543695367869767,10.0425634696434,-2.11287231175194,-1.5097535,2.0158553,3.5225544,24.82526,-83.298225,-6.6982436,WAL
571962017000,0.864738,-0.0964985789293023,8.72720108885788,-1.34986851966925,-1.1743884,1.9911152,3.7852266,24.651865,-84.45904,-5.492317,WAL
571966958000,0.869679,-0.138079558825791,8.00067576890466,-0.773156019830425,-1.2547172,1.8161024,3.5772269,24.234758,-85.4837,-4.4579554,WAL
571972078000,0.874799,-0.176753125226264,8.4212509328601,-0.574953985087252,-1.0671816,1.568091,3.2213979,23.857666,-86.54086,-3.4136374,WAL
571976947000,0.879668,-0.199543534533493,8.48057190191387,-0.202143940035885,-1.1050552,1.3558154,3.0424144,23.494434,-87.466835,-2.4359257,WAL
571981972000,0.884693,-0.194746537897727,7.85216539772727,0.555781303011364,-1.3744467,1.2431108,2.7852402,23.177317,-88.19124,-1.5970355,WAL
571986956000,0.889677,-0.126601546643761,7.25225887685489,1.63970651252863,-1.8237382,0.8744536,2.733011,22.991173,-88.63995,-0.7720507,WAL
571991950000,0.894671,0.0734498471138333,6.69973601628324,3.41635332139229,-1.89918,0.011911872,2.6047294,22.979704,-88.63991,-0.05287591,WAL
571996929000,0.89965,0.313089142824825,5.67850201024884,4.51229506526999,-1.7479908,-1.2434162,2.3603833,23.133484,-88.04727,0.6066218,WAL
572001983000,0.904704,0.646332240916691,3.58859168494148,4.11240346686338,-2.2067506,-2.193617,2.0546453,23.441069,-87.19082,1.2099571,WAL
572006945000,0.909666,0.973020788885628,2.54603368889541,3.40641805512181,-2.8325822,-2.0607538,1.572978,23.663965,-85.93981,1.720404,WAL
572011988000,0.914709,1.30378183863614,4.09116028939438,1.88019207194012,-2.6407704,-1.4559973,1.2134838,24.015882,-84.821365,2.1779733,WAL
572016951000,0.919672,1.60555298489687,5.47693171688814,0.681049217839151,-2.228131,-0.9428705,0.6808093,24.39187,-83.703705,2.5506136,WAL
572021999000,0.92472,1.83566984939508,6.45013430530543,0.441344141893098,-2.043955,0.27152961,0.5204572,24.38817,-82.57674,2.8891246,WAL
572027019000,0.92974,1.95860536483308,7.74536064962631,0.543544611039362,-1.7201965,1.174083,0.56596667,24.487017,-82.023056,3.2197719,WAL
572032019000,0.93474,1.73433535985052,10.1073531757848,1.76032873161734,-1.1914927,1.5247196,0.6606508,24.401655,-81.58954,3.4933689,WAL
572037970000,0.940691,1.39773158956576,12.4598370575437,3.02901018825149,-0.6401868,1.1575897,0.7309003,24.314491,-81.32676,3.811383,WAL
572042042000,0.944763,1.0791362990587,13.4883459345529,3.66966375919545,-0.8045095,0.52626044,0.65484756,24.20491,-81.022,4.1069474,WAL
572047351000,0.950072,0.650159382298915,14.8220717091567,4.43632174035625,-1.1756102,-0.11759156,0.5589417,24.12941,-80.64633,4.3059254,WAL
572052022000,0.954743,-0.0221468475647091,15.838831276649,3.62291425969942,-1.5537357,-0.61636305,0.552833,24.192305,-80.234184,4.5226316,WAL
572056966000,0.959687,-0.733746505121069,16.9150160982466,2.76196658588923,-1.8545868,-0.9669997,0.66981375,24.34696,-79.68127,4.62206,WAL
572061992000,0.964713,-1.04655511292628,16.9681593484787,1.86720063595058,-1.9636264,-1.2385293,0.77274454,24.626728,-79.10067,4.7381463,WAL
572066928000,0.969649,-1.25892285905657,16.7799245802532,0.983944056902185,-1.9165897,-1.4095715,0.87781334,24.975239,-78.48697,4.9025674,WAL
572071993000,0.974714,-1.38879852773613,16.5925106930285,0.244158306184408,-1.7171422,-1.434617,0.960891,25.451454,-78.20648,4.925487,WAL
572076987000,0.979708,-1.50083596026987,16.4087682741754,-0.454955787574963,-1.4602734,-1.357648,1.0299188,25.94108,-77.941124,4.9883537,WAL
572081983000,0.984704,-1.61557163635308,16.343859858885,-0.974359467828107,-1.2470814,-1.1731668,1.0616838,26.48662,-77.884476,5.033285,WAL
572086918000,0.989639,-1.72992884570267,16.3255628162021,-1.41806535603949,-1.1160508,-0.9437868,1.0626001,26.99121,-77.857124,5.0893006,WAL
572092013000,0.994734,-1.88360862326336,16.7600814479262,-1.68248108880438,-1.0424415,-0.68844515,1.0134255,27.520292,-78.00515,5.1157837,WAL
572096944000,0.999665,-2.05121981892303,17.4209484593855,-1.83572552768482,-1.0024298,-0.4709771,0.9440922,27.989151,-78.162415,5.13219,WAL
572101978000,1.004699,-2.43942303402442,17.9452927105936,-1.98823592141437,-0.94042706,-0.30757064,0.88300574,28.466326,-78.43133,5.110171,WAL
572107497000,1.010218,-2.97982582271135,18.4406614937991,-2.15335904072707,-0.86009824,-0.16279559,0.9193522,28.876019,-78.68994,5.0929723,WAL
572111991000,1.014712,-3.48822474532772,18.7213589368911,-1.89184562761293,-0.66523224,-0.052534413,0.8875872,29.303913,-79.05649,5.0036545,WAL
572116978000,1.019699,-4.09632341365146,18.9540235789415,-1.34720079195084,-0.36651915,-0.036957346,0.60231316,29.715975,-79.47231,4.8609295,WAL
572121983000,1.024704,-4.33207376376239,17.586784490129,-0.822881917650434,-0.1826487,-0.10873401,0.47769663,30.160616,-79.956955,4.67258,WAL
572127257000,1.029978,-4.45616126131438,15.6146777673072,-0.277782863706239,0.14202617,-0.29138273,0.40103304,30.629337,-80.55121,4.4376507,WAL
572132018000,1.034739,-4.55519241153846,13.8381696098901,-0.0951892463461538,0.35094208,-0.48655418,0.37018433,31.072939,-81.11941,4.110608,WAL
572137066000,1.039787,-4.64713956597633,11.9583630038039,-0.212677148825444,0.35369098,-0.593761,0.24556783,31.543196,-81.70913,3.7577481,WAL
572142014000,1.044735,-4.67148354361864,10.9664731925069,-0.426411464693878,0.23273966,-0.55680364,0.12980886,32.0802,-82.229965,3.3831284,WAL
572147011000,1.049732,-4.65204770476191,10.5340315238095,-0.708227647619048,0.16554448,-0.44929138,0.051618114,32.623695,-82.75737,2.9923818,WAL
572152000000,1.054721,-4.53820681565824,10.5996373239694,-0.761995272104388,0.18875736,-0.38606682,-0.040317107,33.359768,-83.350075,2.5317147,WAL
572156983000,1.059704,-4.36766082446808,10.9645269414894,-0.678705238829787,0.2275473,-0.36957347,-0.101098195,34.0586,-83.9098,2.0558379,WAL
572162018000,1.064739,-4.24877206835597,11.3022589626576,-0.683864359681862,0.27030787,-0.37507126,-0.16829337,34.84392,-84.53761,1.5354636,WAL
572166979000,1.0697,-4.32019904025218,11.5257565838991,-1.00413423988361,0.31764993,-0.3549127,-0.22021692,35.5873,-85.13829,1.0006683,WAL
572171968000,1.074689,-4.39202914764791,11.7505156309408,-1.32621173077789,0.39278635,-0.2968805,-0.2938262,36.17728,-85.64002,0.4996636,WAL
572177548000,1.080269,-4.4723682936227,12.0018997725509,-1.68644271878952,0.5109888,-0.19639318,-0.3830125,36.73271,-86.10725,-0.018475661,WAL
572181998000,1.084719,-4.53789923026007,12.1655585675676,-1.94229853077002,0.6429357,-0.08155051,-0.47128254,37.383976,-86.543236,-0.57353705,WAL
572186995000,1.089716,-4.62575204531362,11.9898532432432,-1.92277572828149,0.7788532,-0.0021380284,-0.5540548,37.991512,-86.8738,-1.1481719,WAL
572192017000,1.094738,-4.70835525310713,11.7945465722455,-1.92175629090736,0.9166033,0.064446285,-0.6404922,38.733482,-87.14081,-1.7990308,WAL
572196981000,1.099702,-4.75366523709493,11.4819073042318,-2.03956234390011,1.0488557,0.14660765,-0.7199047,39.401886,-87.10382,-2.4604077,WAL
572202192000,1.104913,-4.80035994116063,11.1604953743145,-2.14356329775651,1.2040154,0.22479841,-0.7968737,40.109177,-86.73372,-3.1690552,WAL
572206956000,1.109677,-4.83220435264732,10.9512323159836,-1.99343972503739,1.428203,0.25137106,-0.8350528,40.757042,-86.12571,-3.8741982,WAL
572212257000,1.114978,-4.87456539840393,10.7276987059546,-1.81800597133211,1.6914859,0.28955013,-0.86315256,41.31942,-94.644455,-4.580329,WAL
572216978000,1.119699,-4.98954822459002,10.6325405192493,-1.568215348268,1.933083,0.32620203,-0.8790351,41.834015,-95.51426,-5.277978,WAL
572221936000,1.124657,-5.11030332991318,10.5326052746646,-1.30588492904499,2.033876,0.42546764,-0.9428705,42.265774,-96.450325,-5.9843664,WAL
572227050000,1.129771,-5.15713369017777,10.5776995118681,-0.983609120657463,2.1933117,0.5119051,-1.0241156,42.65853,-97.44507,-6.68381,WAL
572231935000,1.134656,-5.17571876461416,10.6706236711689,-0.658374320528354,2.3197608,0.61911196,-1.131017,42.986374,-98.47641,-7.3900046,WAL
572237003000,1.139724,-4.77297774084734,10.8792484556707,-0.93954190716514,2.4092526,0.75991637,-1.2742649,43.28383,-99.54974,-8.138604,WAL
572242049000,1.14477,-4.21129027661266,11.1296977817249,-1.4550299076985,2.5329528,0.89766645,-1.4538593,43.522434,-100.66579,-8.906039,WAL
572247514000,1.150235,-3.60296249380598,11.4009434350911,-2.01332200498641,2.7394252,1.0555751,-1.5885551,43.761475,-101.81133,-9.70094,WAL
572251959000,1.15468,-3.10817438866861,11.6215631842608,-2.46741319848043,2.9773571,1.2431108,-1.6557503,43.922974,-102.98153,-10.497691,WAL
572256959000,1.15968,-1.99414064167827,12.0742756545437,-2.77124778934418,3.1655037,1.4340062,-1.7256943,44.037186,-104.190605,-11.309438,WAL
572261986000,1.164707,-0.686866665081855,12.5981293651603,-3.00721781072444,3.2201762,1.6154331,-1.7626517,44.075672,-105.394356,-12.095576,WAL
572266976000,1.169697,0.676455580918872,13.0874849485316,-2.71355019162547,3.1441233,1.7938058,-1.7366899,43.860245,-106.49142,-12.619679,WAL
572271966000,1.174687,2.06605325280023,13.5645801205777,-2.208662987981,2.9755247,1.8719965,-1.6914859,43.61022,-107.56798,-13.120571,WAL
572277028000,1.179749,3.27660783907513,14.0415412263853,-1.19542190003944,2.8044822,1.779756,-1.6194037,43.16363,-108.437645,-13.338721,WAL
572281981000,1.184702,4.35699021859594,14.5045622392033,0.0580085419443897,2.685058,1.4834863,-1.5570955,42.75258,-109.27212,-13.541226,WAL
572286995000,1.189716,5.21546354533128,15.0760761861159,1.74243001851216,2.6099217,1.0699304,-1.5057828,42.303562,-109.84991,-13.505432,WAL
572291989000,1.19471,5.92877674807918,15.7072499836392,3.67053735514779,2.5992317,0.6432411,-1.4077389,41.94869,-110.39644,-13.457015,WAL
572296981000,1.199702,6.38788541976456,16.1118474839942,4.75289973254853,2.5922067,0.118202426,-1.3271047,41.729465,-110.679344,-13.286057,WAL
572301978000,1.204699,6.48177731598513,16.1909145340768,4.61947405328377,2.5314255,-0.47708577,-1.2837334,41.653496,-110.9418,-13.140742,WAL
572306954000,1.209675,6.41595612488154,16.1196169256607,3.92709665643888,2.434298,-1.0082331,-1.2651019,41.77275,-110.89638,-12.94235,WAL
572311992000,1.214713,6.16701966989576,15.8757611745814,2.58588800966621,2.309376,-1.2647965,-1.294118,41.9804,-110.84462,-12.78053,WAL
572316979000,1.2197,5.7655871185781,15.5713594971458,1.25446888548694,2.2492058,-1.6175711,-1.3182472,42.354507,-110.7981,-12.654803,WAL
572321978000,1.224699,5.24800318850545,15.2194021393358,-0.0829683824078881,2.1218405,-1.7482964,-1.3573426,42.73472,-110.72694,-12.552128,WAL
572326993000,1.229714,4.64977996571304,14.819135869901,-1.31663022830414,2.0060816,-1.7146988,-1.3997977,43.10185,-110.80614,-12.483931,WAL
572331981000,1.234702,3.83396893606005,14.2891186837811,-2.24156245290982,1.9272798,-1.5183055,-1.4004086,43.460968,-110.86827,-12.417407,WAL
572336970000,1.239691,3.08765684840662,13.7955465619201,-2.85028796732553,1.87444,-1.2550226,-1.3741413,43.724964,-111.12824,-12.403872,WAL
572341984000,1.244705,2.43392089969746,13.350037290238,-3.02461750645422,1.8564194,-0.9636399,-1.321607,43.928417,-111.37252,-12.367129,WAL
572346949000,1.24967,1.76330035780415,12.8859340136499,-3.00525028608309,1.8301523,-0.68203104,-1.2718215,44.046474,-111.76009,-12.402645,WAL
572351978000,1.254699,1.05349794615232,12.3857380338279,-2.73371517637982,1.8038851,-0.39828414,-1.2507466,44.084763,-112.13479,-12.405939,WAL
572356945000,1.259666,0.287325544316086,11.8935823365693,-2.29041877072129,1.779145,-0.07574729,-1.246776,44.057476,-112.577644,-12.473358,WAL
572362926000,1.265647,-0.746930505193671,11.3041672990001,-1.45634123464712,1.6945401,0.32253686,-1.2791518,43.92949,-112.99549,-12.508802,WAL
572366913000,1.269634,-1.36143602922249,10.9405370966259,-0.91623674923423,1.5717562,0.6249151,-1.3548992,43.786568,-113.441315,-12.659179,WAL
572371960000,1.274681,-2.01376968859658,10.5292833505134,-0.259176022768704,1.4966198,0.6609562,-1.4556919,43.602318,-113.87874,-12.807644,WAL
572376988000,1.279709,-2.58670373933834,10.1245700681624,0.302743258122445,1.4682146,0.56199604,-1.5491543,43.461662,-114.30876,-13.129595,WAL
572381984000,1.284705,-2.98697215500523,9.73339879903033,0.657526663039262,1.475545,0.4334089,-1.6468927,43.309685,-114.738846,-13.473066,WAL
572386911000,1.289632,-3.29721046805846,9.34503422442589,0.91040643105428,1.5018122,0.31642818,-1.7357736,43.259266,-115.172485,-13.983775,WAL
572391982000,1.294703,-3.26172532509395,8.93442032139875,0.763396473658664,1.5656476,0.258396,-1.7721201,43.22481,-115.62074,-14.506472,WAL
572396928000,1.299649,-3.11624637019555,8.61800287525287,0.59460155220499,1.6126842,0.31795537,-1.790446,43.23773,-116.10121,-15.140604,WAL
572401977000,1.304698,-2.68306502955399,8.5108717623543,0.357050416300934,1.6209309,0.42119157,-1.7611245,43.257607,-116.58438,-15.765264,WAL
572406941000,1.309662,-2.2247626377176,8.40935667647358,0.107553106462384,1.6349808,0.4841107,-1.7006488,43.25487,-117.11845,-16.383495,WAL
572411988000,1.314709,-1.6343017098646,8.32078729838135,-0.207359357564899,1.6209309,0.66828656,-1.6646078,43.192165,-117.64328,-16.969341,WAL
572416949000,1.31967,-1.06815084996816,8.21787939378558,-0.481254169736563,1.6123788,0.9098838,-1.5888605,43.04115,-118.14345,-17.420815,WAL
572422397000,1.325118,-0.494196705708772,8.05173495043906,-0.662502852681656,1.5958854,1.3426818,-1.4966198,42.793922,-118.62233,-17.810722,WAL
572427000000,1.329721,-0.0140949708163474,7.90965070045068,-0.78171973814094,1.5760323,1.4810427,-1.457219,42.485535,-119.07406,-18.078054,WAL
572432550000,1.335271,0.54120875283417,7.72999379529858,-0.759943096893373,1.5726726,1.740966,-1.3921618,42.039867,-119.49605,-18.246328,WAL
572436989000,1.33971,0.933185999342586,7.5833341276114,-0.73206430720599,1.5506815,2.0280726,-1.349096,41.486435,-119.88048,-18.28086,WAL
572441996000,1.344717,1.20464019346238,7.40820232457999,-0.666389922215121,1.5008959,2.2088888,-1.2932017,40.903797,-120.236336,-18.270304,WAL
572447232000,1.349953,1.47165833938597,7.22524994561403,-0.602537973099415,1.461495,2.3536637,-1.2263119,40.22175,-120.540054,-18.124008,WAL
572451975000,1.354696,1.54249310280702,7.06144447719298,-0.593683633450292,1.4205672,2.4559836,-1.1911873,39.50952,-120.82177,-17.947863,WAL
572457355000,1.360076,1.62030723628049,6.87902524847561,-0.56926527489547,1.3723087,2.5347853,-1.142318,38.75843,-121.05576,-17.683641,WAL
572461993000,1.364714,1.64932549131098,6.77262521570122,-0.332283089433798,1.3014483,2.5638015,-1.110553,38.000412,-121.26683,-17.401613,WAL
572466954000,1.369675,1.665198151309,6.66294855795319,-0.0920927152032923,1.2220359,2.4666739,-1.0858129,37.252995,-121.46157,-17.100958,WAL
572471958000,1.374679,1.58916107118207,6.57740675596985,0.0694859833012693,1.14018,2.348166,-1.0320568,36.51643,-121.624435,-16.77827,WAL
572477027000,1.379748,1.47113545747362,6.45040513913175,0.197963019653301,1.0274754,2.2036965,-0.9822713,35.833202,-121.72945,-16.471117,WAL
572481984000,1.384705,1.10379937600342,6.07829852674103,0.107321636997287,0.9025534,2.0237966,-0.9297369,35.20213,-121.7982,-16.16609,WAL
572486947000,1.389668,0.777343186331972,5.74954177319241,0.0314840682296421,0.77304995,1.9254472,-0.8888089,34.609795,-121.82077,-15.8841505,WAL
572491990000,1.394711,0.717016896650973,5.70313686974778,0.0523662457064617,0.6178902,1.720502,-0.8173377,34.107075,-121.78964,-15.617484,WAL
572497321000,1.400042,0.653245441110737,5.654081834994,0.0744409806120586,0.5012149,1.5781704,-0.7449502,33.628326,-121.8047,-15.432807,WAL
572502297000,1.405018,0.593720630987269,5.60829345515253,0.0950457228537113,0.3811799,1.4895949,-0.67164636,33.201813,-121.76622,-15.249048,WAL
572507303000,1.410024,0.53417967791573,5.55988155985922,0.120514782395151,0.2779437,1.4407257,-0.6114761,32.807705,-121.6915,-15.062193,WAL
572511989000,1.41471,0.48592019982403,5.46336269529768,0.247744286393587,0.17623462,1.464244,-0.58032197,32.425957,-121.57797,-14.866104,WAL
572516946000,1.419667,0.434869787339916,5.36126196724998,0.382331706649721,0.10751228,1.4575244,-0.5174029,32.086487,-121.44507,-14.691324,WAL
572521995000,1.424716,0.387264579056088,5.30100501333789,0.200405491422709,0.0070249503,1.3610078,-0.4560109,31.770012,-121.272415,-14.518413,WAL
572527012000,1.429733,0.340316332327536,5.24466720158296,-0.00616681183115106,-0.062308256,1.3494014,-0.38026363,31.445269,-121.07764,-14.316076,WAL
572531995000,1.434716,0.37940596232633,5.14203839849517,0.0999029731194397,-0.14080444,1.3106114,-0.33261612,31.167593,-120.842255,-14.145303,WAL
572536911000,1.439632,0.428419338415673,5.03510004471891,0.242487361073254,-0.24831672,1.2464706,-0.29046643,30.9101,-120.57114,-13.962775,WAL
572541989000,1.44471,0.491152793242816,4.88017391816651,0.355603837381328,-0.3408628,1.2296717,-0.21960606,30.640614,-120.31899,-13.763332,WAL
572546919000,1.44964,0.5557541620461,4.71618590795706,0.454990541054626,-0.441961,1.212873,-0.14935656,30.394176,-120.03154,-13.563219,WAL
572551981000,1.454702,0.621335984278549,4.49154835329861,0.577850541423611,-0.56505036,1.135904,-0.12156218,30.172695,-119.692375,-13.3647,WAL
572556936000,1.459657,0.685412287471065,4.26270434505208,0.701426262864583,-0.69027776,0.99387777,-0.08735373,29.983038,-119.31682,-13.158764,WAL
572561990000,1.464711,0.621233201730104,3.99964234602076,0.638282556747405,-0.80909103,0.88789266,-0.04520403,29.80375,-118.90129,-12.943962,WAL
572566915000,1.469636,0.525231208243436,3.73563688398127,0.527880276267047,-0.93645644,0.7974846,-0.011301007,29.660803,-118.44896,-12.73997,WAL
572572343000,1.475064,0.315685713878299,3.46107269675069,0.358326831882631,-1.0781772,0.70524395,0.03023783,29.547676,-117.95253,-12.534522,WAL
572577018000,1.479739,0.11730833724872,3.22742824790272,0.204033317851516,-1.2449434,0.59528816,0.08735373,29.468805,-117.4117,-12.330459,WAL
572581979000,1.4847,-0.0656644546355452,3.09768951176798,-0.00546611486589324,-1.4123205,0.47586402,0.14385876,29.407475,-116.887085,-12.156896,WAL
572586946000,1.489667,-0.24225099616297,2.99615223082135,-0.226199290622738,-1.5683966,0.33017266,0.21930063,29.391018,-116.31467,-11.9800825,WAL
572591980000,1.494701,-0.362123194388306,2.95595886822371,-0.696115502262472,-1.7232509,0.19486602,0.3051272,29.403042,-115.77657,-11.858749,WAL
572596973000,1.499694,-0.448225181476539,2.95089404856477,-1.29882950707552,-1.8585575,0.13713925,0.3753767,29.439285,-115.19926,-11.729756,WAL
572601974000,1.504695,-0.426550574314362,3.24508773925096,-2.0334009682198,-1.9895881,0.039095376,0.44684792,29.520239,-114.66365,-11.646971,WAL
572606958000,1.509679,-0.370247659398408,3.63451627572987,-2.80756613405092,-2.0751092,-0.007941248,0.49571714,29.606825,-114.10416,-11.552512,WAL
572611991000,1.514712,-0.471879080916016,4.91990367734412,-5.0211388100442,-2.098933,-0.099265605,0.5925393,29.701633,-113.66906,-11.45564,WAL
572616993000,1.519714,-0.634064233749647,6.54175529976488,-7.77378137171071,-2.1401663,-0.10048734,0.6924158,29.788336,-113.20715,-11.341229,WAL
572621961000,1.524682,-0.956660801188864,7.65037167755204,-9.57352246089792,-2.1114557,-0.116675265,0.77732605,29.84117,-112.89647,-11.166603,WAL
572627058000,1.529779,-1.39985871960873,8.43882298966642,-10.7708914964133,-1.9782871,-0.09193522,0.8393288,29.890545,-112.59687,-10.969796,WAL
572631990000,1.534711,-1.82870944231753,9.20175056889892,-11.929499321244,-1.7556267,-0.082161374,0.8695667,29.75174,-112.83616,-10.663311,WAL
572636980000,1.539701,-2.26260342170053,9.97365012696263,-13.1017322989215,-1.3643675,0.0076358155,0.8350528,29.603558,-113.140915,-10.358865,WAL
572642018000,1.544739,-4.37913257752533,12.3071728243783,-13.9869604774332,-0.91324353,0.044898596,0.7480045,29.47171,-113.5139,-10.075142,WAL
572646985000,1.549706,-7.51430745092621,15.5786603560536,-14.6733880839218,-0.52412236,-0.002443461,0.5653558,29.342096,-113.97514,-9.835495,WAL
572651976000,1.554697,-9.06859026707956,17.1532826146737,-14.3200926338256,-0.2134974,-0.118202426,0.35735616,29.14132,-114.91102,-9.751625,WAL
572656955000,1.559676,-9.78190282372558,17.82570427394,-13.4205004821343,-0.019547688,-0.16310102,0.13347405,28.943562,-115.86514,-9.719541,WAL
572661988000,1.564709,-10.0225397409505,18.1990874808898,-12.5235326337715,0.08246681,-0.045814894,-0.09132435,28.881836,-116.700455,-10.269049,WAL
572666980000,1.569701,-9.87752239332659,18.3247692831143,-11.6437600182002,0.10170906,0.3454443,-0.3036,28.737747,-117.498184,-10.771029,WAL
572671985000,1.574706,-9.26096020196312,17.6549456882808,-10.3922704913742,0.10354166,0.8393288,-0.4972443,28.58746,-118.082596,-11.354026,WAL
572677007000,1.579728,-8.29773054402142,16.4008398584176,-8.86636223081499,0.04153884,1.1554517,-0.6301075,28.361504,-118.63234,-11.885487,WAL
572682028000,1.584749,-7.08995015993603,14.707042157537,-7.30635270891643,0.04886922,1.3344351,-0.7476991,28.037577,-119.066826,-12.352704,WAL
572686980000,1.589701,-5.71519397760896,12.7065351379448,-5.7419751207517,0.05467244,1.396438,-0.80878556,27.6556,-119.474655,-12.774555,WAL
572691999000,1.59472,-4.23155518604278,10.7551398482779,-4.33945399733909,-0.01038471,1.2431108,-0.8533788,27.272776,-119.75753,-13.131369,WAL
572696980000,1.599701,-2.68922482197008,8.87751991364595,-3.08930427181444,-0.09712757,0.9978484,-0.88514376,26.897152,-120.0358,-13.487054,WAL
572702015000,1.604736,-1.23717466543951,7.44552163868491,-2.14075325731863,-0.23823744,0.84329945,-0.8717047,26.54223,-120.18701,-13.73755,WAL
572706957000,1.609678,0.109213666896348,6.38331922435279,-1.44193582570135,-0.41508293,0.47983465,-0.8393288,26.308674,-120.30958,-14.045483,WAL
572711961000,1.614682,1.32484365120199,5.70868282800958,-0.723325459025513,-0.5018258,0.10567969,-0.7425067,26.132093,-120.30766,-14.208571,WAL
572716981000,1.619702,2.41414925053882,5.38543371370544,0.00730630503453994,-0.6899723,-0.30604348,-0.57940567,26.076838,-120.22419,-14.397317,WAL
572721933000,1.624654,3.41928439677984,5.09159958096118,0.898307076614457,-0.8793405,-0.68019843,-0.3359759,26.133755,-119.99475,-14.421285,WAL
572727000000,1.629721,4.32096786696177,4.83667328502773,2.12100882091449,-1.1236867,-0.9416488,-0.076052725,26.29555,-119.679184,-14.43401,WAL
572731922000,1.634643,5.05387706898608,4.75739596604374,3.08139376966203,-1.4410311,-1.1664472,0.17715092,26.59661,-119.11801,-14.270356,WAL
572736980000,1.639701,5.46797216033797,5.07518985465209,3.52919424677932,-1.8124372,-1.4272866,0.42088616,27.011425,-118.44481,-14.070834,WAL
572741998000,1.644719,5.81801390421094,5.71969044608422,3.58096827154663,-2.158187,-1.6771306,0.59528816,27.552334,-117.48393,-13.731841,WAL
572747027000,1.649748,6.02650642766627,7.13649130955333,2.7138291420307,-2.3854287,-1.8979583,0.7816021,28.188353,-116.41933,-13.338261,WAL
572751964000,1.654685,6.19701465846876,8.85735748670738,1.54726843244716,-2.440712,-2.017077,1.0030408,28.914547,-115.17364,-12.822209,WAL
572757667000,1.660388,6.28423675299202,11.9050061311884,-0.81286339125411,-2.307238,-1.9840903,1.2651019,29.681208,-113.88216,-12.23436,WAL
572761979000,1.6647,6.29054559094188,14.0407233466934,-2.68215064192385,-1.9905044,-1.8289305,1.5268577,30.460594,-112.59576,-11.472768,WAL
572767022000,1.669743,5.92276162218437,15.4779846630762,-5.40181623648297,-1.491122,-1.5183055,1.7687603,31.199991,-111.36277,-10.617916,WAL
572772001000,1.674722,5.34229499471596,16.784759587376,-7.90994358304779,-0.9025534,-1.0699304,1.9107865,31.820242,-110.372154,-9.580112,WAL
572777079000,1.6798,3.43476618185753,17.4381425047791,-9.39650038070334,-0.16615535,-0.49327368,1.8347337,32.30572,-109.59328,-8.522851,WAL
572782013000,1.684734,1.58133034833183,18.0729970369702,-10.8409019639315,0.66675943,-0.11301007,1.352761,32.616867,-109.40924,-7.5622888,WAL
572787017000,1.689738,-1.79756721323432,18.484107751718,-8.57023146189315,1.3417655,-0.22999077,0.5879578,32.870834,-109.47055,-6.741182,WAL
572791997000,1.694718,-4.94213631174089,18.5718072300945,-5.98348808553306,1.6496416,-0.7287622,-0.07819075,33.085934,-109.73209,-6.067837,WAL
572797017000,1.699738,-5.66507728340081,16.435423899653,-3.09172446987854,1.6059648,-1.2168436,-0.42119157,33.23545,-110.40615,-5.8550043,WAL
572802127000,1.704848,-6.27162614486722,14.2082407949861,-0.164775746119699,1.3038919,-1.5632042,-0.52656585,33.489487,-110.8835,-6.2538652,WAL
572807006000,1.709727,-5.2113723566191,11.4163937928557,2.41872444835513,0.79809546,-1.6701056,-0.53786683,33.791275,-111.301216,-6.7274466,WAL
572812234000,1.714955,-4.05281269352592,8.50356956714657,5.10465057309121,0.48288897,-1.7531832,-0.5137377,34.223537,-111.471344,-7.4006367,WAL
572816996000,1.719717,-2.73118142963961,6.78375433591863,6.57454174858815,-0.27458394,-1.7620409,-0.39920044,34.68214,-111.394,-8.040212,WAL
572821933000,1.724654,-1.36098118818503,5.00073715898198,8.09845034443619,-1.1133019,-1.756543,-0.2874121,35.214672,-110.9833,-8.591284,WAL
572827900000,1.730621,-0.0987422926909308,3.46453365636436,8.59890653361177,-1.8295414,-1.8915442,-0.15668693,35.811954,-110.41489,-9.111932,WAL
572831922000,1.734643,0.717120527297136,2.48396605676213,8.81723602008751,-2.463925,-1.9908098,-0.095294975,36.41163,-109.680176,-9.605599,WAL
572836983000,1.739704,1.53167778297872,2.05799456382979,8.14537974468085,-2.568383,-2.159714,0.0729984,37.134834,-108.69053,-9.87596,WAL
572841928000,1.744649,2.29089442340426,1.78148978723404,7.32523855106383,-2.6597073,-2.2785273,0.27550024,37.887688,-107.570335,-10.105633,WAL
572846992000,1.749713,2.765644270207,1.84244679806539,6.46991957707487,-2.6563475,-2.2956316,0.47983465,38.679108,-106.402824,-10.155534,WAL
572852053000,1.754774,3.17821950650996,1.97372075691623,5.61195039445734,-2.5595255,-2.2241604,0.6762278,39.494152,-105.23795,-10.134389,WAL
572856908000,1.759629,3.30052496591152,2.58598750912588,5.1862123660825,-2.3973405,-2.119397,0.8912524,40.295536,-104.095116,-9.904675,WAL
572861925000,1.764646,3.34673385194486,3.36126776800598,4.86275112886301,-2.180789,-1.9550742,1.1695015,41.066956,-102.95407,-9.576938,WAL
572866897000,1.769618,3.1073822523236,4.31342131735584,4.75456304682284,-1.96271,-1.7128662,1.4724907,41.767807,-101.835236,-9.070043,WAL
572871889000,1.77461,2.83080277432663,5.29278420415402,4.67294938612481,-1.767844,-1.4291192,1.7201965,42.40646,-100.71301,-8.478439,WAL
572876929000,1.77965,2.35242941684358,6.57872689805728,4.37748294456239,-1.5964963,-1.1374311,1.9150625,42.965874,-99.56751,-7.7618647,WAL
572881895000,1.784616,1.82379090929301,7.93127930927298,4.02505727286201,-1.4294246,-0.84971356,2.0641136,43.434376,-98.41385,-6.9726367,WAL
572886898000,1.789619,1.36509590869147,9.45195355482478,3.39794164625503,-1.235475,-0.5338962,2.1994202,43.794804,-97.27743,-6.148148,WAL
572891923000,1.794644,0.925763300857956,11.0250483766565,2.68934063246294,-1.0531317,-0.2507602,2.3069327,44.06572,-96.146255,-5.2854204,WAL
572896899000,1.79962,0.465322337665026,12.4285507711243,1.8472931354265,-0.9407325,-0.10354166,2.3866506,44.25426,-95.11274,-4.4724545,WAL
572901908000,1.804629,-0.00700580394554406,13.7876988602431,0.950833618295991,-0.93859446,0.19028452,2.4007003,44.303726,-94.09645,-3.6519666,WAL
572906907000,1.809628,-0.649530021385294,14.4711127285294,-0.0227111514411764,-1.0128145,0.4260785,2.3802364,44.298042,-93.21265,-2.901405,WAL
572911930000,1.814651,-1.35223009656471,14.9332912698039,-1.02724215905882,-1.1517864,0.6246097,2.2467623,44.20725,-92.36936,-2.19298,WAL
572916919000,1.81964,-2.34238775514706,14.479705476531,-1.71093399882151,-1.317331,0.7440339,1.9556851,44.048603,-91.727715,-1.63533,WAL
572921902000,1.824623,-3.44793592058824,13.6625612348912,-2.26851478432716,-1.4807373,0.70157874,1.5387696,43.874516,-91.18063,-1.1660261,WAL
572926957000,1.829678,-3.94039829188056,12.4345114481174,-2.17337368818536,-1.5940529,0.45448375,1.1111639,43.70985,-89.06597,-0.9335864,WAL
572931934000,1.834655,-4.19268830202736,11.0778576949965,-1.83540029618496,-1.6142114,0.07696902,0.73639804,43.594917,-89.151215,-0.8077291,WAL
572936924000,1.839645,-3.99309913587713,10.1025654284196,-1.01445598429675,-1.5842791,-0.44104472,0.45937067,43.574924,-88.92083,-1.0070623,WAL
572941955000,1.844676,-3.620758188949,9.2647984679289,-0.00448125687789785,-1.5155567,-0.9578367,0.24953845,43.663372,-88.61796,-1.2836177,WAL
572946951000,1.849672,-3.16779176338837,8.60987258363245,0.792729982081838,-1.4590516,-1.3628404,0.06963864,43.86451,-88.17273,-1.70089,WAL
572951940000,1.854661,-2.67290434993334,8.04638675274331,1.48361247337914,-1.4110987,-1.5986344,-0.103847094,44.16451,-87.68684,-2.1668353,WAL
572956990000,1.859711,-1.51764788352919,7.58975241753404,1.9518107625443,-1.4074335,-1.8219056,-0.26083946,44.585926,-87.16876,-2.585643,WAL
572962015000,1.864736,-0.103836271539825,7.1813178680097,2.3243389172729,-1.4373659,-1.8967366,-0.3200934,45.0327,-86.63127,-3.019735,WAL
572967017000,1.869738,0.908007738866748,7.05841872860209,2.32729913149397,-1.4312572,-1.8332067,-0.31306845,45.517353,-86.10137,-3.370283,WAL
572972000000,1.874721,1.62972672551604,7.14131907565911,2.06396922235847,-1.4077389,-1.752267,-0.2742785,46.01948,-85.55485,-3.7229066,WAL
572977039000,1.87976,1.97430761239202,7.36072182941118,1.73980084171383,-1.3939945,-1.6893479,-0.19822577,46.538662,-85.19978,-3.7533581,WAL
572982025000,1.884746,2.08335827941615,7.65942560867838,1.3842009158872,-1.3594806,-1.6230689,-0.11056661,47.032925,-84.83316,-3.765973,WAL
572987010000,1.889731,1.95729717284591,8.06714299803361,1.07882712138809,-1.2815952,-1.5925257,-0.02107485,47.525948,-84.599075,-3.6148744,WAL
572991982000,1.894703,1.68065852365034,8.54381238880944,0.806444505081337,-1.1820242,-1.5806139,0.043066,48.002575,-84.36088,-3.4440777,WAL
572996965000,1.899686,1.32665913721231,9.06021792896284,0.515281233666434,-1.0595458,-1.5931365,0.10354166,48.471176,-84.20961,-3.2268898,WAL
573001983000,1.904704,0.833502745951978,9.64913299870479,0.189702252776527,-0.9896017,-1.5937474,0.1301143,48.929794,-84.05592,-3.0014613,WAL
573006958000,1.909679,0.328152280180696,10.1677365363596,-0.0877107186249449,-0.86926126,-1.5494597,0.17623462,49.364998,-83.97446,-2.8209372,WAL
573011956000,1.914677,-0.209773863655796,10.5685443619436,-0.282840792039224,-0.7458665,-1.4654657,0.22449298,49.785355,-83.90832,-2.6351264,WAL
573016979000,1.9197,-0.601855069991582,10.6843101385918,-0.372214664951475,-0.6579019,-1.3759739,0.2687807,50.170067,-83.8949,-2.5520167,WAL
573021983000,1.924704,-0.865242842415825,10.5538025182709,-0.369841803632402,-0.6053675,-1.3072516,0.30818152,50.532494,-83.90818,-2.4604268,WAL
573027023000,1.929744,-1.13052549090067,10.4223559942068,-0.367451871368588,-0.5882632,-1.2681563,0.3371976,50.860294,-83.94178,-2.4768958,WAL
573031991000,1.934712,-1.39201838726431,10.2927872776292,-0.365096080994256,-0.59131753,-1.2831224,0.36560285,51.180016,-83.98628,-2.4829206,WAL
573036979000,1.9397,-1.53184079460616,10.111639913242,-0.345661504149543,-0.6010914,-1.3048081,0.3903429,51.485817,-84.035866,-2.4879935,WAL
573042027000,1.944748,-1.55023646150114,9.87709615677321,-0.308870237589422,-0.6133087,-1.3203852,0.4260785,51.79024,-84.086655,-2.4819071,WAL
573047003000,1.949724,-1.53977355826417,9.64110893980602,-0.183005966971303,-0.60903263,-1.2873985,0.4578435,52.066036,-84.0956,-2.6064675,WAL
573052017000,1.954738,-1.48695890686931,9.39624064143586,0.0762658924267573,-0.59864795,-1.2134838,0.48563787,52.33118,-84.102196,-2.7202086,WAL
573056965000,1.959686,-1.41526406401869,9.19731439252336,0.445366280186916,-0.589485,-1.1246029,0.5305365,52.578823,-84.09944,-2.827141,WAL
573061964000,1.964685,-1.31313450417513,9.0611419169037,0.990057421751321,-0.59864795,-1.0262536,0.5534439,52.80036,-84.09207,-2.9327207,WAL
573066942000,1.969663,-1.24231662138098,8.94805906108852,1.42664595619971,-0.62858033,-0.9764681,0.5830709,53.019455,-84.043915,-3.0107634,WAL
573071959000,1.97468,-1.2132149826166,8.8649115217617,1.72181989445358,-0.66614854,-0.9410379,0.59895337,53.212837,-83.99235,-3.0872505,WAL
573076975000,1.979696,-1.18197684573712,8.78485227866588,2.00625219159266,-0.70952,-0.9275989,0.59895337,53.417366,-83.851395,-3.1168065,WAL
573082010000,1.984731,-1.13439520142096,8.72775416637063,2.21085324724689,-0.75716746,-0.95203346,0.61391956,53.62051,-83.70587,-3.1373959,WAL
573086972000,1.989693,-1.0849759579646,8.66980695575221,2.38996426460177,-0.81489426,-0.9462303,0.6032294,53.822865,-83.488,-3.152245,WAL
573092009000,1.99473,-1.00908468744838,8.59391566047198,2.34253211837758,-0.86620694,-0.9419542,0.59406644,54.03075,-83.26319,-3.1617587,WAL
573097067000,1.999788,-0.93461185488107,8.52727320069376,2.27743381590684,-0.9049969,-0.93309665,0.6056729,54.242504,-82.996124,-3.1533277,WAL
573102011000,2.004732,-0.882993922433102,8.57889120664024,2.0005739808226,-0.9624182,-0.9431759,0.6114761,54.457184,-82.7101,-3.1487222,WAL
573107158000,2.009879,-0.82752044054754,8.63469778653348,1.70975582878283,-0.98899084,-0.92087936,0.6053675,54.659004,-82.43584,-3.1293721,WAL
573112013000,2.014734,-0.754414477404736,8.71210387328894,1.4044309318165,-1.0085385,-0.8717047,0.63316184,54.85276,-82.15418,-3.099824,WAL
573117802000,2.020523,-0.66774534023021,8.81085787970563,1.04480356013964,-1.0115929,-0.83108217,0.69913524,55.034145,-81.93343,-3.0618193,WAL
573122001000,2.024722,-0.614628802377583,9.00814788876309,0.870277780458534,-0.9963212,-0.8173377,0.7254025,55.207657,-81.712524,-3.0287037,WAL
573126973000,2.029694,-0.551733964034343,9.24175730172658,0.66362329687329,-0.9914343,-0.81000733,0.75777835,55.357937,-81.57024,-2.9686573,WAL
573131985000,2.034706,-0.51545033462201,9.44156022488038,0.546887906288995,-0.9673051,-0.8026769,0.77396625,55.502064,-81.439064,-2.9075954,WAL
573136918000,2.039639,-0.48832551423445,9.62691356937799,0.460992650382775,-0.92271197,-0.8127562,0.7806858,55.64637,-81.31788,-2.8410964,WAL
573142028000,2.044749,-0.473971884256107,9.80694930962155,0.351438026126602,-0.8933904,-0.8604037,0.7831292,55.788624,-81.25858,-2.7691145,WAL
573146973000,2.049694,-0.466859753354025,9.97526967330797,0.235273221310072,-0.8891144,-0.9166033,0.75136423,55.93555,-81.20224,-2.7054594,WAL
573152026000,2.054747,-0.459592291787145,10.1472661945835,0.11657134896671,-0.870483,-0.9602802,0.70738196,56.08689,-81.1844,-2.6440802,WAL
573156997000,2.059718,-0.452442766465759,10.316471559171,-0.000204231365538661,-0.8762862,-0.9877691,0.66889745,56.248558,-81.15847,-2.5895045,WAL
573162007000,2.064728,-0.440375086831683,10.4463157535754,-0.275188323682068,-0.883922,-0.9923506,0.6249151,56.420345,-81.13348,-2.5530627,WAL
573167011000,2.069732,-0.425996941845185,10.5565481334133,-0.625056389737874,-0.8524625,-0.9633345,0.5900958,56.58913,-81.1151,-2.5257165,WAL
573171998000,2.074719,-0.434777517115066,10.6488899931705,-1.00202490567053,-0.7877107,-0.9398162,0.57451874,56.749847,-81.16067,-2.5098178,WAL
573177038000,2.079759,-0.454755625475993,10.7337968350579,-1.39659249755795,-0.6444628,-0.9129381,0.56138515,56.900173,-81.23211,-2.504058,WAL
573182002000,2.084723,-0.51103048953113,10.6144144265949,-1.32283595872406,-0.464563,-0.88300574,0.54000485,57.031406,-81.40452,-2.528053,WAL
573187718000,2.090439,-0.589923212509608,10.3987743724058,-1.05986025207533,-0.28252518,-0.84757555,0.5503896,57.149956,-81.612816,-2.546383,WAL
573192051000,2.094772,-0.799784678069372,10.3424607054216,-0.818695682443292,-0.1469131,-0.7733554,0.52931476,57.23268,-81.926025,-2.6181061,WAL
573197024000,2.099745,-1.09044970416845,10.3133946307598,-0.528030686695148,-0.026267206,-0.7495316,0.52106804,57.316074,-82.273926,-2.6787252,WAL
573202010000,2.104731,-1.43673203092939,10.4021092429089,-0.15822247933615,0.00030543262,-0.7098254,0.5326745,57.386242,-82.56445,-2.7504086,WAL
573206986000,2.109707,-1.80580993895594,10.5411124165158,0.24440797306377,0.047647487,-0.69974613,0.49388456,57.45862,-82.87376,-2.8346298,WAL
573212008000,2.114729,-2.21914108795328,10.7518488437412,0.546186486127908,0.06291912,-0.72021013,0.43066,57.53884,-83.090805,-2.9851086,WAL
573216981000,2.119702,-2.64528957545446,10.9895944978808,0.801875597364604,0.04886922,-0.73823065,0.36071593,57.6163,-83.291016,-3.1430843,WAL
573222000000,2.124721,-3.05282977485174,11.1855080910644,0.937904276524274,0.014660766,-0.7583892,0.26206118,57.709698,-83.35913,-3.3951273,WAL
573227088000,2.129809,-3.44954004555232,11.3520287319329,0.986880835728214,-0.021991149,-0.77121735,0.16157386,57.80827,-83.393974,-3.65871,WAL
573231989000,2.13471,-3.69621171889219,11.4463968486647,0.941075191711177,-0.048258353,-0.77671516,0.06078109,57.91036,-83.29707,-4.0462365,WAL
573237037000,2.139758,-3.85879197084075,11.4989964094955,0.831094435683482,-0.0580322,-0.77824235,-0.0125227375,58.018005,-83.161026,-4.4402733,WAL
573242076000,2.144797,-3.78460019289872,11.5591002296275,0.654322236161234,-0.04337143,-0.7800749,-0.071776666,58.117813,-82.91484,-4.98984,WAL
573247030000,2.149751,-3.54526547462165,11.6235363520567,0.433397899682771,-0.013439035,-0.768163,-0.11301007,58.217712,-82.63112,-5.5308785,WAL
573252016000,2.154737,-3.39441747848026,11.7109612715939,0.186860024514693,0.025350908,-0.7690793,-0.12003502,58.303585,-82.29391,-6.1375504,WAL
573257110000,2.159831,-3.3268425217572,11.8219769047195,-0.0882663711576135,0.059253927,-0.68875057,-0.14538592,58.366478,-81.92528,-6.733668,WAL
573262018000,2.164739,-3.25381067394209,11.9182397683742,-0.322987931202673,0.113926366,-0.50915617,-0.18478674,58.40263,-81.61041,-7.2595415,WAL
573267016000,2.169737,-3.17143550801782,12.0054608894513,-0.531348914664912,0.16126843,-0.3286455,-0.21074851,58.416,-81.28384,-7.7659063,WAL
573272003000,2.174724,-3.15202268866378,12.0952387060503,-0.80212613445437,0.20250183,-0.19456059,-0.21685717,58.38025,-80.966354,-8.269777,WAL
573277037000,2.179758,-3.19197903799613,12.1884699251312,-1.13509636277926,0.25137106,-0.10170906,-0.2134974,58.30758,-80.64095,-8.754817,WAL
573281957000,2.184678,-3.26098237489592,12.2753046482098,-1.43668053245212,0.3203988,0.00030543262,-0.23884831,58.193104,-80.32391,-9.222794,WAL
573287033000,2.189754,-3.39252991569525,12.3562575499584,-1.69977556121982,0.43127087,0.05009095,-0.27275133,58.07112,-80.005325,-9.668118,WAL
573291965000,2.194686,-3.50939966756043,12.4077736159115,-1.92770652029553,0.5717699,0.05589417,-0.2910773,57.91311,-79.65725,-10.14088,WAL
573297017000,2.199738,-3.61355906374401,12.4219774530776,-2.12182172268324,0.6450737,0.044898596,-0.3472769,57.752506,-79.28392,-10.604776,WAL
573301906000,2.204627,-3.71227376363285,12.4439454276042,-2.30390796158236,0.80664754,-0.015271631,-0.40408736,57.60325,-78.83668,-11.124772,WAL
573307020000,2.209741,-3.81175068422478,12.4818411618145,-2.4839137872715,1.0210613,-0.079107046,-0.4709771,57.464466,-78.3699,-11.626058,WAL
573311917000,2.214638,-3.93247150478508,12.5314072526358,-2.64741624979724,1.2666291,-0.14019357,-0.5348125,57.359814,-102.12163,-12.116186,WAL
573316997000,2.219718,-4.11989116253041,12.6152524878346,-2.79537907785888,1.541213,-0.100792766,-0.59803706,57.245724,-102.637085,-12.591157,WAL
573321945000,2.224666,-4.29339179084242,12.6516182999009,-2.87832307030724,1.784032,0.048563786,-0.6609562,57.110065,-103.18964,-13.058808,WAL
573327017000,2.229738,-4.45225467258672,12.5938502808722,-2.83499672929633,2.0082195,0.28344148,-0.7272351,56.937595,-103.77533,-13.511594,WAL
573331974000,2.234695,-4.56149729596743,12.49938499323,-2.77663118697017,2.2204952,0.5543602,-0.7959574,56.72013,-104.42389,-13.972382,WAL
573337034000,2.239755,-4.5710063923175,12.3187109214089,-2.68153972700157,2.3774874,0.7993172,-0.86529064,56.443542,-105.10491,-14.415257,WAL
573341997000,2.244718,-4.4963564527283,12.1925265417214,-2.61822323883368,2.5320365,0.96761054,-0.97127575,56.135166,-105.85315,-14.877724,WAL
573347003000,2.249724,-4.20419477507969,12.1970209591224,-2.63170761745734,2.7049112,1.0323622,-1.1044444,55.78909,-106.64036,-15.331082,WAL
573351959000,2.25468,-3.82166997105969,12.2202110198629,-2.62908886471348,2.9480357,1.0531317,-1.237613,55.4147,-107.48526,-15.794703,WAL
573357005000,2.259726,-2.84500402724402,12.3617916868607,-2.52590302579204,3.1700852,1.1249083,-1.3591752,55.00853,-108.37019,-16.255491,WAL
573362071000,2.264792,-1.86446703331413,12.5039335138544,-2.42230820613765,3.3102787,1.2318097,-1.4807373,54.577976,-109.27466,-16.683456,WAL
573367017000,2.269738,-0.907156340069521,12.642708380872,-2.32116727088092,3.3903022,1.4230106,-1.5800029,54.102673,-110.213104,-17.098717,WAL
573371977000,2.274698,0.0630755550969312,12.8066945639398,-2.15262024584891,3.382361,1.6820174,-1.6441438,53.5798,-111.1776,-17.506538,WAL
573377068000,2.279789,1.13965588393636,13.1712062692341,-1.44902837850995,3.3115005,1.8994855,-1.672549,53.01769,-112.13975,-17.888891,WAL
573381967000,2.284688,2.17563447969052,13.5219709214118,-0.771971502042945,3.2061262,1.9816469,-1.675298,52.392345,-112.90248,-17.995796,WAL
573387028000,2.289749,3.13850872467809,13.9782232997958,0.135822965278394,3.104417,1.9602666,-1.6233743,51.739834,-113.65092,-18.07208,WAL
573392046000,2.294767,4.06882560491963,14.4519165286387,1.08320986857295,3.0277536,1.777007,-1.5775595,51.115093,-114.38683,-18.142443,WAL
573397025000,2.299746,4.81080803321057,14.8711028300537,2.05100974313375,2.9953778,1.4966198,-1.4996742,50.546707,-114.93663,-18.056652,WAL
573402020000,2.304741,5.41989706120173,15.2536715778175,3.04266730863938,2.9437597,1.1096367,-1.4239268,50.06789,-115.45892,-17.976023,WAL
573407070000,2.309791,5.72375812413116,15.5016818181818,3.84677749251914,2.9315424,0.6227771,-1.3457361,49.737778,-115.79475,-17.798597,WAL
573412021000,2.314742,5.87271488419399,15.6785675454545,4.54035703594149,2.9095511,0.042760566,-1.2910637,49.548756,-116.10803,-17.649918,WAL
573416978000,2.319699,5.7758765881295,15.6100053309353,4.7681437068745,2.8539624,-0.5497787,-1.2583824,49.544415,-116.276184,-17.488628,WAL
573422007000,2.324728,5.53044782068345,15.3934508021583,4.72002047825739,2.7259862,-1.044885,-1.2782356,49.674366,-116.42473,-17.37494,WAL
573427029000,2.32975,5.18636378656496,15.0898474783465,4.09438286330709,2.542421,-1.3747523,-1.344209,49.95646,-116.48044,-17.313648,WAL
573432005000,2.334726,4.78768211176181,14.738069746063,3.13754664787402,2.331978,-1.4914275,-1.4162911,50.313835,-116.508896,-17.287575,WAL
573437039000,2.33976,4.46683784985028,14.3527364096397,2.12186070505554,2.1071796,-1.41904,-1.4511104,50.706463,-116.529724,-17.318356,WAL
573442630000,2.345351,4.17204369376026,13.9027870082102,0.95819962683087,1.9364429,-1.2449434,-1.4291192,51.102592,-116.518585,-17.351898,WAL
573446980000,2.349701,3.92565250755166,13.5722501776021,0.186076964944291,1.7712038,-1.0757337,-1.353372,51.428604,-116.57742,-17.393913,WAL
573451978000,2.354699,3.62937438971527,13.207600362156,-0.597920728448719,1.6896533,-0.8723156,-1.2776246,51.699066,-116.609436,-17.406162,WAL
573456951000,2.359672,3.17677579014468,12.8523853003774,-1.27780996259174,1.6355917,-0.6072,-1.2241739,51.84195,-116.728806,-17.382513,WAL
573461989000,2.36471,2.49387864038582,12.5033493010065,-1.8241277669113,1.6368134,-0.3203988,-1.2098186,51.92569,-116.83099,-17.324242,WAL
573466982000,2.369703,1.72222990255152,12.1985263636538,-2.12772367480111,1.627345,-0.06994407,-1.2076806,51.896812,-117.022484,-17.250511,WAL
573471978000,2.374699,0.860062075364708,11.9325378487492,-2.2056856011502,1.629483,0.0983493,-1.2336423,51.80988,-117.21503,-17.15787,WAL
573477111000,2.379832,-0.0519357465643683,11.6415720071742,-2.08894812184137,1.638646,0.09560041,-1.3002267,51.676773,-117.520775,-17.148191,WAL
573481993000,2.384714,-0.951050544105221,11.3434197640494,-1.73955112610602,1.6688838,0.012217305,-1.3976597,51.513954,-117.8363,-17.14215,WAL
573486964000,2.389685,-1.91769036712635,10.9684298492359,-1.33416279896571,1.6893479,-0.017104227,-1.5030339,51.348278,-118.24501,-17.287613,WAL
573491997000,2.394718,-2.96864229616101,10.4878665158405,-0.853599343637719,1.6881261,0.020463986,-1.5506815,51.183235,-118.65423,-17.440094,WAL
573496937000,2.399658,-3.7094802748302,10.0476758121483,-0.506347854725403,1.6890424,0.14477506,-1.6566665,51.035034,-119.13962,-17.792397,WAL
573501960000,2.404681,-3.6488014990491,9.68827104803027,-0.501680261462255,1.6740762,0.26511553,-1.7336355,50.875393,-119.61554,-18.13789,WAL
573506940000,2.409661,-3.53376343540881,9.33527516713836,-0.496977042410902,1.6468927,0.42730024,-1.740966,50.73044,-120.161575,-18.689308,WAL
573512634000,2.415355,-3.15650943503145,8.94658893977987,-0.491261078134172,1.6362026,0.6444628,-1.715615,50.532204,-120.708694,-19.221458,WAL
573516919000,2.41964,-2.85736386296493,8.66330570727949,-0.479797006487779,1.6114625,0.86406887,-1.6832392,50.277645,-121.265114,-19.73258,WAL
573521988000,2.424709,-2.46830017933493,8.34947528489639,-0.449703681788434,1.5922203,1.0891727,-1.6093245,49.971283,-121.79999,-20.190342,WAL
573526960000,2.429681,-2.08668158888151,8.04165029770191,-0.420186220670829,1.5946637,1.3313808,-1.5464053,49.585754,-122.32068,-20.567766,WAL
573532003000,2.434724,-1.69961349723698,7.72942957959617,-0.390247251158342,1.5943583,1.5836681,-1.4810427,49.14756,-122.81388,-20.888681,WAL
573537130000,2.439851,-1.30609810840861,7.41200827844049,-0.359809595657545,1.597718,1.8481728,-1.4162911,48.647297,-123.29021,-21.15509,WAL
573541999000,2.44472,-0.88391722624551,7.09136951350095,-0.166613782675681,1.6184875,2.1050417,-1.3451253,48.092953,-123.74826,-21.364676,WAL
573546915000,2.449636,-0.446245206139869,6.76311558411156,0.0671428607200507,1.6224581,2.3365595,-1.2803736,47.485386,-124.184044,-21.521524,WAL
573551981000,2.454702,-0.0746709880510604,6.49947445842798,0.357885150491507,1.6242907,2.4953845,-1.2095132,46.794136,-124.57689,-21.510958,WAL
573556927000,2.459648,0.277640759883405,6.25190406648909,0.64830430590974,1.6056592,2.6028967,-1.1539245,46.066578,-124.94921,-21.457226,WAL
573561987000,2.464708,0.562388793280228,6.09353563669986,0.864718917098151,1.5381587,2.6691756,-1.103528,45.314476,-125.259796,-21.31559,WAL
573566970000,2.469691,0.833917845581792,5.94872006401138,1.06836569214794,1.4587462,2.687807,-1.061073,44.559402,-125.54766,-21.147282,WAL
573571982000,2.474703,1.06857619622575,5.88139722403743,1.25177330607272,1.3616186,2.6795604,-1.035722,43.80515,-125.76648,-20.922695,WAL
573577010000,2.479731,1.29387153970173,5.83446072886246,1.43013208575885,1.2507466,2.620001,-1.0054842,43.072193,-125.94887,-20.685411,WAL
573582323000,2.485044,1.43517086510929,5.82976861185792,1.31928624114754,1.135293,2.4926357,-0.97066486,42.368515,-126.06413,-20.412365,WAL
573587013000,2.489734,1.53334619088342,5.83794980001822,1.13929813677596,0.98532563,2.431549,-0.9437868,41.670807,-126.135284,-20.128525,WAL
573591982000,2.494703,1.63839257320872,5.9146263035158,1.07091463284379,0.9129381,2.3469443,-0.8940013,41.02724,-126.148605,-19.817804,WAL
573596983000,2.499704,1.74496489587227,6.04784163729417,1.1028863129506,0.7657196,2.189341,-0.8546005,40.42432,-126.10034,-19.519918,WAL
573601976000,2.504697,1.78950152264414,6.17735049025845,1.04329885941352,0.6249151,2.0164661,-0.8029824,39.835613,-126.0381,-19.18299,WAL
573606961000,2.509682,1.81322937935388,6.3054808471173,0.953133117887674,0.45937067,1.9413297,-0.754724,39.270588,-125.92379,-18.844006,WAL
573611995000,2.514716,1.79530494475696,6.37454359858879,0.762401657211878,0.31703907,1.7605137,-0.66950834,38.792957,-125.73991,-18.499918,WAL
573616982000,2.519703,1.76254161568013,6.42134828459428,0.537739003104665,0.17379116,1.5796975,-0.6081163,38.339855,-125.507805,-18.160358,WAL
573621955000,2.524676,1.76154657485046,6.38766233232735,0.463269560758564,0.048258353,1.4633276,-0.52839845,37.92707,-125.22383,-17.796673,WAL
573627011000,2.529732,1.77471146591445,6.31744987019213,0.454493001846112,-0.071776666,1.3942999,-0.45540005,37.557602,-124.89514,-17.439764,WAL
573632020000,2.534741,1.77348477052908,6.1861691566244,0.41370382264976,-0.19547687,1.2357804,-0.3839288,37.235477,-124.55166,-17.086088,WAL
573636989000,2.53971,1.7578789709554,5.99369813551596,0.340876951706384,-0.29016098,1.1023064,-0.33322698,36.932602,-124.17653,-16.727125,WAL
573641958000,2.544679,1.72167973274249,5.77057628354505,0.356173273226982,-0.38728857,1.0057896,-0.2602286,36.668495,-123.76474,-16.36295,WAL
573646960000,2.549681,1.67450774495323,5.52999885028065,0.417496896758247,-0.48716503,0.91874135,-0.20433442,36.440804,-123.32338,-16.009579,WAL
573652122000,2.554843,1.64142819596483,5.29831971382511,0.501970629534929,-0.57696223,0.84940815,-0.15118915,36.23,-122.8813,-15.657342,WAL
573656961000,2.559682,1.61878909875916,5.09004035994138,0.592526890704446,-0.6792821,0.7247916,-0.10140363,36.062893,-122.40376,-15.31317,WAL
573662023000,2.564744,1.56976391776876,4.8453303826272,0.59852101540784,-0.77824235,0.61850107,-0.064446285,35.911896,-121.91884,-14.990261,WAL
573667014000,2.569735,1.50352259701049,4.5850966683825,0.541742738354781,-0.8784242,0.5363397,-0.024740042,35.793446,-121.40082,-14.668682,WAL
573671976000,2.574697,1.36967112408245,4.35912256626445,0.395812438541981,-0.9972375,0.47739118,0.025961773,35.702267,-120.85686,-14.365556,WAL
573677033000,2.579754,1.17974993375566,4.15459195972851,0.176672578515837,-1.1322387,0.41813725,0.07391469,35.636456,-120.27895,-14.0642805,WAL
573682014000,2.584735,1.00284964919781,3.99295324098376,-0.0442323506600058,-1.2760975,0.38881573,0.12064589,35.574696,-119.70535,-13.777035,WAL
573686994000,2.589715,0.833321100634067,3.86007957838409,-0.268743094208858,-1.4361442,0.32070425,0.13897185,35.540085,-119.09188,-13.497482,WAL
573691975000,2.594696,0.658648855242256,3.74824440675139,-0.573705123065925,-1.5146403,0.2452624,0.20922135,35.507717,-118.52692,-13.23895,WAL
573696988000,2.599709,0.477520564702145,3.65768032120731,-0.964560968689436,-1.6869044,0.20616703,0.27855456,35.48446,-117.89769,-12.979872,WAL
573701973000,2.604694,0.347183124180579,3.66877605448978,-1.36127459624617,-1.8442022,0.17592919,0.3555236,35.470764,-117.3205,-12.748233,WAL
573706967000,2.609688,0.271590402003359,3.79161424652771,-1.76758545944878,-1.9996674,0.09407325,0.45631635,35.490963,-116.69095,-12.503337,WAL
573711983000,2.614704,0.183363010100307,4.02545440341863,-2.36160526923234,-2.1386392,0.06811147,0.59223384,35.486557,-116.12662,-12.26362,WAL
573716977000,2.619698,0.0805628031033777,4.39259789760491,-3.17911172155578,-2.254398,0.06627888,0.7510588,35.509796,-115.51708,-11.999068,WAL
573721978000,2.624699,-0.244459285289677,5.31922835963401,-4.96115377242738,-2.329229,0.05589417,0.90133166,35.521065,-114.96363,-11.711063,WAL
573727000000,2.629721,-0.797000042424093,6.81898173260299,-7.73175086784835,-2.3380868,0.06872234,1.0555751,35.542366,-114.3823,-11.380063,WAL
573732140000,2.634861,-1.39125671121076,8.34212858295964,-10.5001312959641,-2.2547035,0.110872045,1.17897,35.510098,-113.96288,-11.013336,WAL
573736946000,2.639667,-2.22088446388816,9.65334551041942,-12.4467214537061,-2.0186043,0.19120082,1.2599095,35.476074,-113.57427,-10.61722,WAL
573742014000,2.644735,-3.09573953058999,11.0360436769542,-14.4994303424778,-1.6056592,0.35735616,1.3161092,35.218964,-113.89014,-10.212409,WAL
573746994000,2.649715,-4.55763278743563,12.7226154933059,-15.8494082111226,-1.0256428,0.5180137,1.2586879,34.964413,-114.294945,-9.824494,WAL
573751917000,2.654638,-6.15993807503605,14.4754402637487,-17.0098657817714,-0.33841935,0.6407976,1.108415,34.696693,-114.82084,-9.4469595,WAL
573756959000,2.65968,-7.57102885819793,15.7620944254062,-16.2244405745938,0.27763826,0.76174897,0.874759,34.321526,-115.81317,-9.233619,WAL
573761924000,2.664645,-8.914851211226,16.927989366322,-15.058545633678,0.6258314,0.6966918,0.5522222,33.975864,-116.853836,-9.093046,WAL
573767618000,2.670339,-9.82004685335968,17.7130382546443,-13.6153725426877,0.7449502,0.72234815,0.22082779,33.600464,-117.97664,-9.238572,WAL
573771939000,2.67466,-10.4047840434783,18.2200824130435,-12.5031454347826,0.6630942,0.9086621,-0.124005646,33.18516,-119.05716,-9.419912,WAL
573777040000,2.679761,-10.0332643601061,18.4386004364987,-11.2402333278515,0.5155703,1.2479976,-0.46028697,32.786224,-119.822174,-9.842468,WAL
573781982000,2.684703,-9.39049971267904,18.5490752415915,-10.0300279782493,0.40530908,1.4856243,-0.57818395,32.358444,-120.53302,-10.22892,WAL
573787025000,2.689746,-8.50594927971907,17.4009134647533,-8.71897138654296,0.3594942,1.856114,-0.7318166,31.813528,-121.021255,-10.698352,WAL
573791979000,2.6947,-7.61327267189803,16.1421167983179,-7.42315051807856,0.30757064,1.9654589,-0.81489426,31.275305,-121.46525,-11.134109,WAL
573796989000,2.69971,-6.4922736352218,14.349453487655,-6.14967381753919,0.31337386,1.8228219,-0.88025683,30.71524,-121.75515,-11.475221,WAL
573802108000,2.704829,-5.19649362910562,12.1596857310726,-4.87398346091589,0.30451632,1.5855007,-0.90102625,30.153118,-122.026985,-11.798123,WAL
573806963000,2.709684,-3.95248050983773,10.2652808695372,-3.9222710844551,0.27977628,1.2626585,-0.8744536,29.647936,-122.221306,-12.071251,WAL
573811997000,2.714718,-2.65456265608519,8.39841273326572,-3.07329065111562,0.21594086,0.9334021,-0.82772243,29.2109,-122.40253,-12.368276,WAL
573816981000,2.719702,-1.35159030586753,6.68849022305028,-2.35166958037158,0.13713925,0.5726862,-0.77182823,28.868557,-122.545456,-12.61324,WAL
573821970000,2.724691,-0.0276085746824814,5.12879958140023,-1.75988976483678,0.035124753,0.27672195,-0.6768387,28.610025,-122.65593,-12.871812,WAL
573826979000,2.7297,1.15198345492063,4.14475069111111,-1.03274455403175,-0.1282817,0.06688975,-0.5525276,28.432365,-122.70082,-13.024183,WAL
573831965000,2.734686,2.21309363688492,3.60472153236111,-0.208489345746032,-0.32467487,-0.09621128,-0.39064834,28.339392,-122.694786,-13.178775,WAL
573837627000,2.740348,3.24386511952569,3.50692827604743,0.851359213090909,-0.5739079,-0.22876903,-0.21533,28.30931,-122.59474,-13.193503,WAL
573841955000,2.744676,3.94422879391304,3.6912344026087,1.723741976,-0.8756753,-0.3399465,-0.005192355,28.344923,-122.40583,-13.177699,WAL
573846946000,2.749667,4.58200598522558,4.04322141130392,2.42615602399603,-1.2681563,-0.40378192,0.24617869,28.445723,-121.98854,-12.989726,WAL
573851937000,2.754658,5.06543478960833,4.5219108194943,2.85271078734755,-1.6893479,-0.50976706,0.45723262,28.611141,-121.46272,-12.775788,WAL
573856954000,2.759675,5.33438649390015,5.41568088769155,2.6728956236085,-2.042428,-0.6789767,0.6450737,28.867203,-120.647484,-12.40857,WAL
573861951000,2.764672,5.39115992298566,6.7072771898171,1.90172271784479,-2.2702806,-0.8164214,0.818254,29.170076,-119.727875,-11.992338,WAL
573866943000,2.769664,5.20843959578436,8.35577533084021,0.696935662263235,-2.3374758,-0.8417723,1.0097603,29.532576,-118.61745,-11.441453,WAL
573872009000,2.77473,4.76309996089364,10.4175330091306,-0.997240043613404,-2.2476788,-0.8197812,1.1814134,29.935566,-117.46879,-10.85136,WAL
573886953000,2.789674,3.04182976446278,16.0950229041446,-5.79054263386368,-1.325883,-0.7012733,1.3185526,31.167763,-114.28169,-8.661089,WAL
573891960000,2.794681,1.48772902061186,17.0274834674916,-6.90666971353369,-0.625526,-0.5934556,1.1227703,31.513885,-113.56513,-7.9252625,WAL
573896951000,2.799672,-0.267963118422389,17.8153786423659,-7.19931592413501,0.1255328,-0.6417139,0.69974613,31.820892,-113.19041,-7.3335295,WAL
573901968000,2.804689,-2.45399011110147,18.3186727647868,-5.8216103527669,0.7199047,-0.88606006,0.16584991,32.113033,-113.013985,-6.8557396,WAL
573907059000,2.80978,-4.05626341763075,18.0430759175829,-4.27986112066163,0.99387777,-1.2767084,-0.3313944,32.390842,-113.15743,-6.745599,WAL
573911950000,2.814671,-4.88029913504159,16.8652423101635,-2.63178959231284,0.94134337,-1.6438384,-0.6988298,32.680523,-113.40228,-6.776443,WAL
573916845000,2.819566,-5.14593812381739,15.2755523639744,-0.962452197025408,0.77213365,-1.894904,-0.9117164,33.034676,-113.58131,-7.228522,WAL
573921918000,2.824639,-4.26279075612477,12.7766471608139,0.808860365162157,0.535118,-2.0561724,-0.99387777,33.439583,-113.75188,-7.758074,WAL
573926867000,2.829588,-3.12060803878631,10.5034440386665,2.29883025905779,0.2302962,-2.1514673,-0.95569867,33.91621,-113.77435,-8.479452,WAL
573931923000,2.834644,-1.52093434999501,8.43498377269189,3.45388155854876,-0.14844026,-2.1496348,-0.8481864,34.418266,-113.73408,-9.190935,WAL
573936848000,2.839569,-0.0496399073713218,6.62256888511958,4.19004176755241,-0.61300325,-2.0717494,-0.73853606,34.95207,-113.494934,-9.828762,WAL
573941954000,2.844675,1.33634205920677,5.06815143073516,4.32960260174195,-1.0989466,-1.9776763,-0.6075055,35.506897,-113.15733,-10.418475,WAL
573946869000,2.84959,2.6117470439681,3.90390918695912,4.36009387716849,-1.5216653,-1.9367483,-0.4175264,36.090973,-112.58877,-10.777545,WAL
573951911000,2.854632,3.81529280299103,3.30213633258225,4.20603991545364,-1.8713857,-1.9297233,-0.14630222,36.691257,-111.89988,-11.06216,WAL
573956906000,2.859627,4.81584923304734,2.8920095240927,3.98087731948718,-2.116648,-1.9694295,0.16768251,37.30774,-111.07961,-11.106202,WAL
573961950000,2.864671,5.4827879545858,2.81102412460552,3.62358881282051,-2.223244,-2.0250182,0.49693888,37.959454,-110.16717,-11.058627,WAL
573966878000,2.869599,5.85745475065728,2.83504829720126,3.39416863003986,-2.205529,-2.1273382,0.806953,38.651653,-109.141045,-10.753568,WAL
573971900000,2.874621,5.66982369897379,3.07162662049869,3.40640542664744,-2.0769417,-2.1768184,1.103528,39.37053,-108.05979,-10.343918,WAL
573977267000,2.879988,5.44681024907579,3.35128655289587,3.4282342293284,-1.897042,-2.200642,1.3814718,40.12039,-106.936935,-9.734163,WAL
573982017000,2.884738,4.80683203743068,4.1267343938283,3.61976058997741,-1.7009543,-2.1514673,1.5125023,40.86861,-105.818665,-9.064167,WAL
573987174000,2.889895,4.10594577971785,5.00104563001256,3.81860211912262,-1.6099354,-1.9706513,1.7779233,41.607056,-104.64774,-8.283292,WAL
573992010000,2.894731,3.38096989350662,6.18248804686443,3.9036301113151,-1.4474452,-1.6893479,2.0314324,42.298985,-103.522194,-7.4470973,WAL
573997326000,2.900047,2.54626701535721,7.52910852302211,3.95374431868262,-1.328021,-1.2928963,2.2128594,42.908524,-102.372505,-6.622893,WAL
574002021000,2.904742,0.968902328668007,9.78424707272063,3.03361495028321,-1.210124,-0.81031275,2.3154848,43.407425,-101.245766,-5.724447,WAL
574006944000,2.909665,-0.685062815649553,12.1489003379317,2.0688019831628,-1.1157454,-0.32589662,2.3331997,43.77843,-100.151085,-4.89696,WAL
574012028000,2.914749,-1.7911620000291,13.2445646375364,1.27831792372842,-1.0403035,0.12095132,2.3005185,44.007343,-99.097145,-4.0386996,WAL
574016943000,2.919664,-2.69512522461688,13.9339503557711,0.570669934242483,-1.0360274,0.5329799,2.2021692,44.088856,-98.08588,-3.181889,WAL
574022008000,2.924729,-3.60321701520433,14.1632141405248,0.0123383848096955,-1.0815369,0.84788096,2.0360138,44.024837,-97.36836,-2.6687806,WAL
574027087000,2.929808,-4.50451028870192,14.2021892592147,-0.479718991241987,-1.1838568,0.95081174,1.8362609,43.89014,-96.674545,-2.196196,WAL
574032020000,2.934741,-5.00814604797115,13.580378152089,-0.799837521707244,-1.2855659,0.8060367,1.6136005,43.712936,-96.17649,-1.9521829,WAL
574036991000,2.939712,-5.3849515833183,12.7218335097686,-1.06694032366697,-1.3310753,0.46792278,1.3970488,43.55251,-95.6958,-1.767523,WAL
574042084000,2.944805,-5.39708995779057,11.6454395464001,-1.26622829324447,-1.3179418,0.08552113,1.1905763,43.432285,-95.37184,-1.8124095,WAL
574047026000,2.949747,-5.27760978436837,10.5318821363223,-1.43350084544078,-1.2739595,-0.19700404,0.958753,43.373352,-95.08068,-1.9244823,WAL
574052019000,2.95474,-4.82031862569975,9.82191794832648,-1.26978070371893,-1.2556335,-0.3304781,0.70952,43.374844,-94.93294,-2.1867256,WAL
574057008000,2.959729,-4.25453048066158,9.24677823576042,-0.998576578865727,-1.2971723,-0.43035457,0.45265114,43.44228,-94.84264,-2.5133612,WAL
574062024000,2.964745,-3.53760345793525,8.88033833270825,-0.508967772465456,-1.3445144,-0.5335908,0.2724459,43.544834,-94.8692,-2.8871043,WAL
574067002000,2.969723,-2.76594654088038,8.60273032658903,0.0650697276095539,-1.387275,-0.59406644,0.15607607,43.659264,-94.96011,-3.3102152,WAL
574072013000,2.974734,-1.98864287322208,8.32651596526632,0.725096304285437,-1.4517213,-0.6310238,0.10445796,43.801903,-95.00182,-3.664076,WAL
574077104000,2.979825,-1.19867760930921,8.04742598200252,1.43464598544678,-1.4987578,-0.79168135,0.084910266,43.995224,-95.0984,-4.041219,WAL
574082091000,2.984812,-0.504076353674837,7.76553016138069,1.79239591829915,-1.5274686,-0.97249746,0.08460484,44.208755,-95.04539,-4.2725244,WAL
574087022000,2.989743,0.138480904555278,7.48204896943472,1.95775990171086,-1.568091,-1.0607675,0.1020145,44.441887,-95.031456,-4.5026674,WAL
574092735000,2.995456,0.889177388106219,7.34480174633124,1.97669708972746,-1.6102408,-1.0097603,0.14446963,44.69704,-94.86337,-4.5706635,WAL
574096958000,2.999679,1.44634161021064,7.31250256274334,1.92824806139563,-1.6270396,-0.83169305,0.20952678,44.941723,-94.749664,-4.6250525,WAL
574101984000,3.004705,1.91174664440094,7.3090310990603,1.793618928426,-1.6212363,-0.66431594,0.2837469,45.18093,-94.566864,-4.5427246,WAL
574106969000,3.00969,2.24820984398982,7.32772338518011,1.61136799205168,-1.6258179,-0.5876524,0.38240165,45.395004,-85.56459,-4.4331264,WAL
574111993000,3.014714,2.38879014193166,7.4332439017381,1.372645002222,-1.5760323,-0.56016344,0.49693888,45.581825,-85.76836,-4.1706676,WAL
574116986000,3.019707,2.37934574880506,7.60324307663441,1.09403525706103,-1.536937,-0.6230826,0.5946773,45.770996,-85.90782,-3.8846145,WAL
574122012000,3.024733,2.16662687394218,7.84944644523357,0.766750950107032,-1.4877623,-0.6979135,0.68844515,45.956497,-86.06518,-3.5019305,WAL
574127261000,3.029982,1.76938521073322,8.17126207342203,0.384594493902171,-1.425454,-0.7360926,0.7632761,46.1467,-86.15333,-3.098116,WAL
574132020000,3.034741,1.31029042199335,8.48185248836135,0.0486359666432662,-1.3359623,-0.71776664,0.818254,46.33934,-86.21299,-2.6777978,WAL
574137002000,3.039723,0.754991336196194,8.82120234334011,-0.295120615976353,-1.2315043,-0.68294734,0.86009824,46.535076,-86.21647,-2.2430382,WAL
574142054000,3.044775,0.136494618609385,9.18882628337262,-0.64522476858153,-1.1297953,-0.61178154,0.8732319,46.708588,-86.19669,-1.8854022,WAL
574146958000,3.049679,-0.547798707827298,9.5812886643454,-0.987371426545961,-1.0644327,-0.5726862,0.8854492,46.87884,-86.15236,-1.5207392,WAL
574151980000,3.054701,-1.1376896521671,9.93469951697128,-1.2466851691906,-1.0073168,-0.48899764,0.86926126,47.005272,-86.13356,-1.3028804,WAL
574156964000,3.059685,-1.61772092521226,10.2393346485833,-1.41746551260033,-0.96669424,-0.48808134,0.8530733,47.142727,-86.1156,-1.0848525,WAL
574162514000,3.065235,-2.02006952776599,10.4286704998484,-1.36101543958775,-0.9300423,-0.5015204,0.80909103,47.250607,-86.14711,-1.0394922,WAL
574166978000,3.069699,-2.23604851048803,10.4589077062746,-1.11479952106699,-0.89888823,-0.56291234,0.73914695,47.37163,-86.18378,-1.0065466,WAL
574171970000,3.074691,-2.41199443666363,10.4547768299909,-0.940961873336372,-0.874759,-0.63407815,0.6960809,47.48799,-86.25165,-1.1058762,WAL
574176995000,3.079716,-2.5128913979216,10.4065217137648,-0.883933162078396,-0.86620694,-0.7162395,0.6658431,47.62461,-86.31116,-1.2172873,WAL
574181913000,3.084634,-2.54710328666736,10.3150177448139,-0.805412148545815,-0.8356637,-0.75961095,0.6102544,47.76522,-86.30093,-1.396304,WAL
574186979000,3.0897,-2.39537967601376,10.0924897473158,-0.65874614120713,-0.8240572,-0.7996226,0.5742133,47.927372,-86.27603,-1.5724831,WAL
574191985000,3.094706,-2.19452603906948,9.87608242933497,-0.490811976635416,-0.8213083,-0.7632761,0.5381723,48.07622,-86.219734,-1.7904292,WAL
574197005000,3.099726,-1.8996614523701,9.66546499307807,-0.280194390829756,-0.818254,-0.72051555,0.5198463,48.23367,-86.1513,-2.0076377,WAL
574202002000,3.104723,-1.60084073002306,9.45749568340852,-0.0639884303258145,-0.80573124,-0.6612616,0.5195409,48.379166,-86.06162,-2.194559,WAL
574206949000,3.10967,-1.23987723866667,9.27226413333333,0.230481806666667,-0.8213083,-0.66981375,0.5384777,48.53066,-85.960335,-2.3767815,WAL
574212045000,3.114766,-0.877790464681353,9.09090492555075,0.525431184050944,-0.829555,-0.6722572,0.5571091,48.669243,-85.857185,-2.4739888,WAL
574216982000,3.119703,-0.626693129787569,9.01185611703383,0.725379057700629,-0.8206975,-0.66737026,0.5879578,48.806618,-85.7605,-2.560896,WAL
574222157000,3.124878,-0.373299383544466,8.93718294497761,0.935212251823417,-0.82711154,-0.6927212,0.62980205,48.961376,-85.657,-2.5516198,WAL
574227003000,3.129724,-0.250288060678183,8.96263319266977,1.13457545607349,-0.84788096,-0.7458665,0.6649268,49.12105,-85.55595,-2.535579,WAL
574232860000,3.135581,-0.105906311911765,8.99584924017946,1.36807982040379,-0.86162543,-0.7806858,0.7131852,49.28746,-85.454346,-2.4412813,WAL
574237012000,3.139733,-0.121763898970588,9.08703055463609,1.32843585793121,-0.8848383,-0.79229224,0.7333437,49.460648,-85.34128,-2.3462007,WAL
574242275000,3.144996,-0.141864689117647,9.20261033738784,1.27818388912263,-0.91751957,-0.7987063,0.77304995,49.64739,-85.19943,-2.2014043,WAL
574247551000,3.150272,-0.162015129705882,9.3184756107677,1.22780779422732,-0.9465357,-0.79809546,0.8200866,49.832764,-85.046875,-2.0510163,WAL
574251920000,3.154641,-0.178701497205882,9.4144224226321,1.18609188092223,-0.9718866,-0.7657196,0.8536842,50.00796,-84.88278,-1.8997841,WAL
574256955000,3.159676,-0.202892950474598,9.51688942943759,1.05234555092202,-0.98899084,-0.7296785,0.89461213,50.178444,-84.711266,-1.7358935,WAL
574261956000,3.164677,-0.227926196766674,9.61702235187121,0.902146041802216,-1.006095,-0.6423248,0.92149025,50.322388,-84.527756,-1.5713794,WAL
574266982000,3.169703,-0.30295004983924,9.6003220355316,0.813474873255389,-1.006095,-0.6035349,0.93126404,50.468155,-84.364395,-1.4156357,WAL
574271995000,3.174716,-0.381882601242236,9.57401111180124,0.730157164844721,-1.0189233,-0.5702427,0.93737274,50.588123,-84.19044,-1.25836,WAL
574276992000,3.179713,-0.438299562025213,9.69348778161854,0.573407409920954,-1.0164797,-0.5720753,0.93554014,50.704685,-84.05147,-1.1154438,WAL
574281940000,3.184661,-0.486475696616511,9.86210411183408,0.392746928595415,-1.0057896,-0.5910121,0.90316427,50.81584,-83.90815,-0.98263747,WAL
574287006000,3.189727,-0.535800736600244,10.0347416075641,0.20777805260609,-0.98990715,-0.6197228,0.86284715,50.929955,-83.786476,-0.8822544,WAL
574291979000,3.1947,-0.584220283350956,10.2042098796259,0.0262047758009354,-0.9410379,-0.63285637,0.81306165,51.044853,-83.675804,-0.7956505,WAL
574297000000,3.199721,-0.630598012821245,10.3075946122216,-0.193756687645631,-0.8713993,-0.64934975,0.75533485,51.16862,-83.57624,-0.72598654,WAL
574302119000,3.20484,-0.677260557951647,10.3962537822197,-0.427069434249191,-0.7968737,-0.6762278,0.6753115,51.299862,-83.4907,-0.6774869,WAL
574306960000,3.209681,-0.743228586463451,10.5101822769478,-0.535403323027173,-0.6936375,-0.64934975,0.61666846,51.41337,-83.52747,-0.68526185,WAL
574311929000,3.21465,-0.819574159921789,10.6390155473779,-0.602205696066379,-0.59040123,-0.61208695,0.6020077,51.53064,-83.58253,-0.70186216,WAL
574316979000,3.2197,-0.950095010860534,10.8458524075173,-0.605721178740851,-0.48655418,-0.59712076,0.56077427,51.645607,-83.72407,-0.7728525,WAL
574321971000,3.224692,-1.10141423317507,11.0822885380811,-0.582077550871414,-0.36041048,-0.5479461,0.4868596,51.739235,-83.89333,-0.8568809,WAL
574326998000,3.229719,-1.25061828235294,11.3699231764706,-0.429266277647059,-0.23701571,-0.4810564,0.42210788,51.82105,-84.10539,-0.9792355,WAL
574331947000,3.234668,-1.39607797399488,11.6753886200512,-0.22077405633555,-0.13652839,-0.47311515,0.40500367,51.904015,-84.33414,-1.1039671,WAL
574336982000,3.239703,-1.62072099805027,11.8775370915607,-0.0221439052145656,-0.081855945,-0.4605924,0.3747658,51.96522,-84.566154,-1.289488,WAL
574341985000,3.244706,-1.87258013722642,12.0378109675045,0.170184889366339,-0.01863139,-0.40683624,0.32559118,52.01155,-84.806656,-1.4791476,WAL
574346967000,3.249688,-2.12673085936614,12.1571999118064,0.325789857132442,0.050701816,-0.38698313,0.30024028,52.07163,-84.99956,-1.6890327,WAL
574351982000,3.254703,-2.38447357509113,12.254461764277,0.461955820923451,0.08582657,-0.43096542,0.2932153,52.134624,-85.17434,-1.8985988,WAL
574356963000,3.259684,-2.69442737715886,12.3553694139896,0.457879362371549,0.061086524,-0.47036624,0.2855795,52.19008,-85.27342,-2.17262,WAL
574361988000,3.264709,-3.03482321712349,12.4593788672758,0.382235868708125,0.06658431,-0.4382958,0.23548855,52.239002,-85.35209,-2.449878,WAL
574366976000,3.269697,-3.27646803984723,12.5383755377103,0.386275351341133,0.10476339,-0.4098906,0.19394971,52.299107,-85.35577,-2.7757888,WAL
574371993000,3.274714,-3.46229986403017,12.6034165621737,0.437379123608586,0.112399206,-0.3933972,0.17379116,52.35494,-85.3166,-3.096771,WAL
574376983000,3.279704,-3.66068147739245,12.6427161256992,0.260612251407505,0.12675454,-0.48899764,0.15302174,52.426346,-85.20849,-3.5099192,WAL
574381982000,3.284703,-3.87003795020848,12.6621910258314,-0.0948067909081664,0.11209377,-0.44837508,0.096516706,52.456566,-85.04519,-3.923826,WAL
574386977000,3.289698,-3.99084542569095,12.6853825898241,-0.389551058354271,0.15882497,-0.31215215,-0.006414085,52.486423,-84.8084,-4.385373,WAL
574392044000,3.294765,-4.0518072465542,12.7115091949031,-0.646461953531945,0.22724187,-0.16462818,-0.098043874,52.503113,-84.53257,-4.8417754,WAL
574396972000,3.299693,-4.11920700117782,12.7558250158001,-0.935726369296179,0.30482176,-0.025961773,-0.17715092,52.465603,-84.14814,-5.440268,WAL
574401983000,3.304704,-4.20192362568228,12.8339463282582,-1.29876007083214,0.3894266,0.053450707,-0.23243423,52.40625,-83.71818,-6.027591,WAL
574406960000,3.309681,-4.30143864035184,12.9031618499781,-1.61639902289117,0.47158796,0.18173242,-0.29993483,52.27875,-83.19529,-6.68362,WAL
574411994000,3.314715,-4.44893313521635,12.9505706670673,-1.82183787199519,0.6062838,0.31795537,-0.37751472,52.13029,-82.6389,-7.3206196,WAL
574416972000,3.319693,-4.58516333764479,12.9745235589768,-1.97755240550193,0.7480045,0.40469822,-0.4456262,51.943146,-81.96418,-8.034783,WAL
574422019000,3.32474,-4.71113080656371,12.9698580069498,-2.07552704942085,0.8897252,0.43982297,-0.528093,51.73776,-98.74083,-8.725443,WAL
574426970000,3.329691,-4.82578094153892,12.9723357460174,-2.1445273908426,1.0995574,0.4202753,-0.6105598,51.51912,-99.50864,-9.427616,WAL
574431983000,3.334704,-4.92679070673279,12.9867660138263,-2.16857733493638,1.3524556,0.35094208,-0.6936375,51.310604,-100.296295,-10.105297,WAL
574436912000,3.339633,-5.01155870155991,12.9736844745052,-2.10721124710929,1.6368134,0.28313604,-0.77213365,51.1378,-101.11374,-10.76978,WAL
574442034000,3.344755,-5.07372895529882,12.9115138712099,-1.89200615002437,1.9101756,0.29168814,-0.8579602,50.96246,-101.95513,-11.416535,WAL
574446943000,3.349664,-5.09320117545107,12.8032374614543,-1.62073706582832,2.1331415,0.3680463,-0.95142263,50.785275,-102.8321,-12.059143,WAL
574452009000,3.35473,-5.02688620138509,12.5866084876982,-1.20074166072535,2.312125,0.49113566,-1.0650436,50.588448,-103.73707,-12.690143,WAL
574456955000,3.359676,-4.92687067353481,12.3636660150027,-0.834969380183486,2.4349089,0.59131753,-1.2027937,50.396656,-104.67519,-13.337549,WAL
574461958000,3.364679,-4.58038881301673,12.0585548335672,-0.772912902568807,2.5344799,0.6417139,-1.3573426,50.1786,-105.63692,-13.981985,WAL
574466952000,3.369673,-4.13837289309878,11.8475076287776,-0.819484356743347,2.6661212,0.7254025,-1.4431691,49.941875,-106.59205,-14.620284,WAL
574471967000,3.374688,-3.43647973640054,11.8865015723951,-1.15743287848444,2.7433958,0.8585711,-1.6093245,49.666878,-107.58023,-15.285853,WAL
574477069000,3.37979,-2.67041577126418,11.9508843464344,-1.51703909910859,2.9290988,1.0180069,-1.7537941,49.35428,-108.550934,-15.891041,WAL
574481992000,3.384713,-1.32841816905389,12.2995174727006,-2.04715199786264,3.0805933,1.2198979,-1.8325957,48.986797,-109.52504,-16.485035,WAL
574487548000,3.390269,0.201817293982875,12.6955270810275,-2.56889656027039,3.1532865,1.4703526,-1.8677205,48.52654,-110.44108,-16.936977,WAL
574492008000,3.394729,1.48762124870122,13.022752597927,-2.70748630682289,3.1456506,1.7785342,-1.8466456,47.990833,-111.35841,-17.355452,WAL
574496976000,3.399697,2.91988000364308,13.3872495414151,-2.86186161195133,3.0946434,2.0720549,-1.7782288,47.336456,-112.14956,-17.513227,WAL
574501989000,3.40471,4.30462239847764,13.7397986039751,-2.20075611507559,3.0155363,2.2421808,-1.6639969,46.637028,-112.92015,-17.621572,WAL
574507306000,3.410027,5.72952830876269,14.1041875904475,-1.34630301371756,2.9584203,2.2351558,-1.5393804,45.916527,-113.66756,-17.682642,WAL
574511991000,3.414712,6.23152279917262,14.2687070300865,-0.148265746558857,2.9431489,2.043955,-1.4440855,45.170113,-114.25878,-17.47492,WAL
574516917000,3.419638,6.75934027190673,14.4416894761188,1.11139947820609,2.9541442,1.7110336,-1.3662001,44.48516,-114.670074,-17.089102,WAL
574522021000,3.424742,6.90996465159199,14.5721951481411,2.3301822514776,2.9410107,1.3078625,-1.3072516,43.88443,-115.07449,-16.703526,WAL
574527000000,3.429721,6.98269345992374,14.6903797108675,3.50293657597712,2.9089403,0.79534656,-1.2614367,43.41716,-115.47805,-16.34082,WAL
574531979000,3.4347,6.77912181302637,14.621872049541,3.42611616861431,2.8506026,0.2434298,-1.2330315,43.131046,-115.71714,-15.9802685,WAL
574536918000,3.439639,6.48736021732964,14.4932210427898,2.94367566093059,2.7440066,-0.269697,-1.2272283,42.97743,-115.94184,-15.663904,WAL
574541979000,3.4447,6.18839171443004,14.3613921816504,2.44931821825246,2.6087,-0.66553766,-1.2434162,43.003635,-116.03253,-15.427286,WAL
574547028000,3.449749,5.89013208764874,14.2298758963524,1.95613293311477,2.4578164,-0.96577793,-1.3029755,43.138496,-116.105125,-15.246816,WAL
574551980000,3.454701,5.13388588030845,13.7745993087304,1.11688094732581,2.2913556,-1.1349876,-1.3744467,43.33886,-116.15278,-15.105527,WAL
574557594000,3.460315,3.97894028019829,13.0490569365648,-0.0627428752905536,2.1673498,-1.1945469,-1.4263704,43.585644,-116.183624,-14.996911,WAL
574561988000,3.464709,3.32630154194471,12.6530432125834,-0.763953453708294,2.082745,-1.1878275,-1.4422529,43.810665,-116.331696,-14.959953,WAL
574566979000,3.4697,2.85039893388412,12.3847155068319,-1.32592364436183,2.0173824,-1.0900891,-1.4364496,44.023163,-116.4573,-14.927104,WAL
574572008000,3.474729,2.3730209560629,12.0942042642879,-1.63951920003024,1.9834795,-0.9660834,-1.3955216,44.183594,-116.77377,-15.013694,WAL
574576994000,3.479715,1.90134510477774,11.7909839987904,-1.75984468306622,1.9495764,-0.8781188,-1.3353515,44.329384,-117.06325,-15.083422,WAL
574581980000,3.484701,1.30814700835338,11.4582507974208,-1.72963986636512,1.9446895,-0.82924956,-1.2950343,44.428158,-117.43925,-15.188255,WAL
574586979000,3.4897,0.626266570224233,11.1034882543547,-1.59142081182754,1.9669861,-0.7174612,-1.2651019,44.490673,-117.797775,-15.2596855,WAL
574592029000,3.49475,-0.211974448720999,10.7347309910767,-1.20853199773944,1.9709567,-0.4654793,-1.2803736,44.50134,-118.2048,-15.382616,WAL
574596982000,3.499703,-1.17607859964307,10.3631980440214,-0.601851864485425,1.9110919,-0.03970624,-1.3548992,44.430313,-118.59804,-15.475299,WAL
574601978000,3.504699,-1.99761588363636,10.0602796988142,-0.00698766529644271,1.7763962,0.2706133,-1.5091426,44.335663,-119.03321,-15.699177,WAL
574606965000,3.509686,-2.65832084545455,9.83375261561265,0.568769566403162,1.6307048,0.29229903,-1.6798794,44.19253,-119.45675,-15.924946,WAL
574611982000,3.514703,-3.19250913253593,9.59293002975173,0.88774273266861,1.5439619,0.19394971,-1.8280143,44.054005,-119.89586,-16.353931,WAL
574616981000,3.519702,-3.57265612541964,9.33789460619158,0.902178713122927,1.4831808,0.14996742,-1.9367483,43.87969,-120.32157,-16.800396,WAL
574621974000,3.524695,-3.70033788436214,9.16795392621987,0.801515679811875,1.4446963,0.15974127,-2.012801,43.76602,-120.74875,-17.42101,WAL
574627458000,3.530179,-3.53052270246914,9.0856192372134,0.549365830405644,1.4340062,0.2302962,-2.0491474,43.64152,-121.179276,-18.048426,WAL
574631948000,3.534669,-3.30473550202309,8.98386861975723,0.308106081812889,1.4779885,0.34697145,-2.0237966,43.507153,-121.668976,-18.741354,WAL
574636979000,3.5397,-2.94336681030297,8.82695881476364,-0.00571413886509423,1.5241088,0.51923543,-1.9892827,43.337566,-122.16118,-19.415762,WAL
574641957000,3.544678,-2.52999148818004,8.65571278006138,-0.24316609862364,1.5537357,0.7984009,-1.9501873,43.08317,-122.673386,-20.010944,WAL
574646963000,3.549684,-2.03064734102111,8.45954163898447,-0.372460557317958,1.5372424,1.1065824,-1.8564194,42.78785,-123.16514,-20.548334,WAL
574651958000,3.554679,-1.51555333410119,8.24020875925545,-0.455754157554504,1.5118915,1.4135422,-1.7540996,42.378067,-123.66422,-20.957981,WAL
574656960000,3.559681,-0.949030641217606,7.94955830039079,-0.401565038907857,1.4920384,1.7055358,-1.675298,41.90021,-124.14018,-21.303509,WAL
574661966000,3.564687,-0.410077835054687,7.65021943713585,-0.342936416894613,1.457219,1.8472565,-1.638646,41.34917,-124.57387,-21.512133,WAL
574666977000,3.569698,0.0657444845671062,7.33136939957068,-0.274261028128386,1.4474452,2.0900755,-1.565953,40.710865,-124.97871,-21.632368,WAL
574671926000,3.574647,0.486292692393162,7.04253244172494,-0.185359948714452,1.4086553,2.3267858,-1.4990633,40.015594,-125.32743,-21.635185,WAL
574677102000,3.579823,0.828118497350427,6.79218114568765,-0.0505554189638695,1.3530666,2.5350907,-1.4413365,39.276375,-125.650276,-21.585615,WAL
574681933000,3.584654,1.12526481588394,6.57836978220161,0.096573059641041,1.3002267,2.703995,-1.378112,38.475033,-125.92687,-21.416168,WAL
574686976000,3.589697,1.38049255943763,6.40500744262638,0.303644655137003,1.2394456,2.843883,-1.3313808,37.63771,-126.174225,-21.204056,WAL
574692033000,3.594754,1.61014918620888,6.26054983165646,0.511522022798393,1.1542299,2.9068022,-1.280679,36.779556,-126.365875,-20.909895,WAL
574696968000,3.599689,1.77287066368592,6.18822900194147,0.714923820087031,1.0687088,2.905275,-1.241889,35.912857,-126.53042,-20.589426,WAL
574701969000,3.60469,1.89863401162321,6.12021777619552,0.853357691272972,0.9755518,2.903748,-1.2092078,35.04079,-126.63254,-20.213192,WAL
574706998000,3.609719,1.86156152817281,6.07387723236794,0.709701927986145,0.86437434,2.770274,-1.1636983,34.21693,-126.695206,-19.838432,WAL
574711974000,3.614695,1.84195509082477,6.05228757209534,0.606420011648549,0.7360926,2.6710083,-1.1282681,33.399796,-126.69026,-19.430742,WAL
574716988000,3.619709,1.95209932449387,6.21510965884113,0.797975243686048,0.58032197,2.5476136,-1.103528,32.63274,-126.64031,-19.03438,WAL
574721989000,3.62471,2.03824074561969,6.34513815062994,0.945398921330208,0.43157628,2.3353379,-1.0393872,31.913803,-126.57245,-18.645964,WAL
574727065000,3.629786,1.93853871608556,6.22169740571345,0.750742526018166,0.2782491,2.1820107,-0.9596693,31.220854,-126.454315,-18.255394,WAL
574732052000,3.634773,1.8494916506397,6.1084452324804,0.578501572864218,0.11148291,2.0546453,-0.9049969,30.597715,-126.23685,-17.86498,WAL
574737019000,3.63974,1.86421553598844,6.08881338534874,0.627581241941808,-0.04917465,1.8191566,-0.8246681,30.0594,-125.96344,-17.488749,WAL
574742016000,3.644737,1.87062666867652,6.04384310505542,0.667162783778972,-0.2144137,1.6096299,-0.7516697,29.536598,-125.68651,-17.13099,WAL
574747026000,3.649747,1.82227617178367,5.83432434128317,0.642987531125294,-0.35277468,1.4795157,-0.6747007,29.067762,-125.36133,-16.777054,WAL
574751927000,3.654648,1.77497761184918,5.62936396977662,0.619338247042325,-0.5122105,1.3054191,-0.6062838,28.672703,-124.97383,-16.446615,WAL
574757018000,3.659739,1.8369133414557,5.4205786721519,0.712623522278481,-0.6533204,1.0571023,-0.5299256,28.343046,-124.54275,-16.126987,WAL
574761950000,3.664671,1.93500366147152,5.21972726424051,0.843410563607595,-0.77732605,0.93370754,-0.50793445,28.027971,-124.07315,-15.812596,WAL
574767019000,3.66974,2.01915307133287,4.96971637523248,0.884560446789321,-0.8347474,0.7443393,-0.43035457,27.80184,-123.60249,-15.533,WAL
574771982000,3.674703,2.095193020038,4.70832904535546,0.889312967155285,-0.93767816,0.6224717,-0.34972036,27.593498,-123.08568,-15.255881,WAL
574777134000,3.679855,2.09898213048248,4.44101042251723,0.841664765626153,-1.058324,0.54641896,-0.27550024,27.427725,-122.53457,-14.973136,WAL
574781996000,3.684717,2.07638116997379,4.19014016678478,0.778382154080672,-1.1863003,0.39675698,-0.2098322,27.322374,-121.94583,-14.699833,WAL
574786994000,3.689715,2.05314801476556,3.93225256124163,0.713329399554898,-1.2925909,0.28252518,-0.14263703,27.222082,-121.345695,-14.404023,WAL
574792051000,3.694772,2.02964059862149,3.67132066423648,0.647508715353849,-1.3979651,0.18509217,-0.06872234,27.165674,-120.704,-14.107451,WAL
574797016000,3.699737,1.93091810504262,3.46440326729999,0.436930368129814,-1.5088371,0.105374254,0.02687807,27.142431,-120.02385,-13.799991,WAL
574802032000,3.704753,1.78291380523775,3.28679807662524,0.131054816916915,-1.6383406,0.013439035,0.124311075,27.156668,-119.303375,-13.486513,WAL
574807008000,3.709729,1.66171155819599,3.16816134979769,-0.17387296824435,-1.7562376,-0.09468412,0.23090707,27.183737,-118.62987,-13.181768,WAL
574812258000,3.714979,1.54758941766505,3.07388652003355,-0.496392006535083,-1.9000963,-0.18997909,0.33414328,27.242355,-117.90546,-12.860849,WAL
574816980000,3.719701,1.4266866462691,3.15870222989681,-0.879937296034927,-2.01555,-0.2657264,0.4352415,27.304367,-117.23691,-12.549387,WAL
574822013000,3.724734,1.28798834294503,3.34044491863465,-1.3390766213852,-2.140472,-0.31795537,0.5549711,27.398384,-116.515625,-12.213145,WAL
574827074000,3.729795,1.16397946791114,3.71369123520518,-2.0566140505091,-2.2244658,-0.29016098,0.6835582,27.476177,-115.85156,-11.865985,WAL
574831985000,3.734706,1.05272478596112,4.18773284665227,-2.90311695334773,-2.3176227,-0.19272798,0.8378017,27.56344,-115.138214,-11.478081,WAL
574836982000,3.739703,0.737521144096058,5.25315404952424,-4.72685193420933,-2.366492,-0.09682214,0.98624194,27.611391,-114.51489,-11.070168,WAL
574842000000,3.744721,0.320175743878568,6.6140629336203,-7.03858234920707,-2.3331997,0.06261369,1.1328496,27.630035,-113.87612,-10.606175,WAL
574847242000,3.749963,-0.175977508512265,8.04380264996283,-9.48319414505681,-2.196366,0.35094208,1.2562444,27.532713,-113.43127,-10.082986,WAL
574851949000,3.75467,-1.36312321566741,9.42721044343209,-12.0441742764681,-1.9413297,0.552833,1.3347405,27.427507,-113.02545,-9.531825,WAL
574856902000,3.759623,-2.69990272528185,10.9186337414946,-14.565907778709,-1.4770721,0.6979135,1.3738359,27.07621,-113.35862,-8.965616,WAL
574861926000,3.764647,-4.70164738073431,12.694762351292,-15.8476004535568,-1.1905763,1.0687088,1.3735305,26.645102,-113.69798,-8.3643465,WAL
574866880000,3.769601,-6.69628324343612,14.3936401743514,-16.8168824125306,-0.52656585,1.3741413,1.2568552,26.068817,-114.79961,-8.010898,WAL
574871902000,3.774623,-8.88561728519824,15.693115982281,-15.4279496178169,0.18112154,1.5060883,0.9639453,25.480284,-115.90657,-7.6906915,WAL
574876909000,3.77963,-10.9845054590754,16.9421520048029,-14.0208144348609,0.70829827,1.2110404,0.5653558,24.989244,-117.13483,-7.8114257,WAL
574882238000,3.784959,-12.0926255254152,17.6468544004403,-12.2233113815289,0.9465357,0.79045963,0.13988814,24.500404,-118.361145,-7.9739237,WAL
574886916000,3.789637,-12.9134352093992,18.2295565960738,-10.6946814185009,0.88422745,0.57360244,-0.2779437,24.153408,-119.2053,-8.591076,WAL
574891950000,3.794671,-11.9526838816181,18.4207507709697,-9.64789241255205,0.6417139,0.7049385,-0.6411031,23.783184,-120.035446,-9.226369,WAL
574897001000,3.799722,-10.9381528073218,18.4982381714836,-8.59489812909441,0.37843102,0.83199847,-0.82802784,23.515106,-120.548355,-10.038833,WAL
574901926000,3.804647,-9.3432409022158,17.2032246045279,-7.53616736801541,0.26542094,0.9624182,-0.86590147,23.186228,-121.04849,-10.809312,WAL
574907225000,3.809946,-7.62791186789428,15.7905829124129,-6.40589328718634,0.23976462,0.9434814,-0.83291477,22.861746,-121.33211,-11.419825,WAL
574911955000,3.814676,-6.11090939084057,14.139599902204,-5.57607997643355,0.22449298,0.7629707,-0.8176431,22.542929,-121.59807,-12.00921,WAL
574916889000,3.81961,-4.52848016847629,12.4174117050854,-4.71047767722546,0.20372356,0.5299256,-0.7877107,22.240383,-121.776764,-12.409031,WAL
574921927000,3.824648,-2.99432268630245,10.8538183112629,-4.21884114380443,0.111177474,0.25137106,-0.75655663,22.003052,-121.93295,-12.8227005,WAL
574926933000,3.829654,-1.48073024671417,9.32599196664687,-3.78231923196754,-0.033292156,-0.005497787,-0.68630713,21.834366,-122.064255,-13.235689,WAL
574931952000,3.834673,-0.0419169005461226,8.32540798095522,-3.01542752983815,-0.17256944,-0.2593123,-0.5729916,21.734982,-122.1273,-13.510067,WAL
574936870000,3.839591,1.35640713498163,7.42281077626849,-2.2157171705491,-0.3182608,-0.4908302,-0.41538838,21.714853,-122.13878,-13.784759,WAL
574941985000,3.844706,2.77879006044216,6.93065150501382,-0.966852998657718,-0.52870387,-0.6762278,-0.21746802,21.758389,-122.06671,-13.895231,WAL
574946870000,3.849591,4.13166525724437,6.53817912053889,0.298293152348993,-0.84757555,-0.75411314,0.044593163,21.866016,-121.90199,-13.965222,WAL
574952015000,3.854736,5.18109335292722,6.44514364754721,1.33121701282854,-1.2550226,-0.75808376,0.30451632,22.030605,-121.530846,-13.841048,WAL
574956941000,3.859662,6.10768007595597,6.42276234154094,2.25780368911661,-1.6426166,-0.7846564,0.43860126,22.240662,-121.06683,-13.6925,WAL
574961970000,3.864691,6.61293457101294,7.05450668653304,2.58657738329279,-1.8035797,-0.84849185,0.6603453,22.529066,-120.31729,-13.293279,WAL
574966937000,3.869658,6.9461928188771,7.92468115344945,2.67914917519704,-1.9941696,-0.98654735,0.8384125,22.856182,-119.44998,-12.875605,WAL
574971962000,3.874683,7.0485693731237,9.80322673183032,2.15708837603085,-1.9761491,-1.1575897,1.0253373,23.258148,-118.40595,-12.279735,WAL
574977028000,3.879749,7.03417718421833,12.1971293899931,1.32234086848611,-1.7589865,-1.2030991,1.2290609,23.685686,-117.34182,-11.624052,WAL
574982069000,3.88479,6.57166797610024,14.1138422930929,-0.136361192481663,-1.4330899,-1.1774428,1.3875804,24.161913,-116.21062,-10.863008,WAL
574986991000,3.889712,5.89937943726569,15.756147119295,-1.86990573840668,-0.9798279,-1.1175779,1.4385877,24.64485,-115.16924,-10.071298,WAL
574992055000,3.894776,4.35935056629643,16.7959493272032,-3.37423854390022,-0.40408736,-1.0186177,1.2913691,25.09283,-114.23474,-9.226814,WAL
574997006000,3.899727,2.49021401427531,17.5341071871814,-4.725369599126,0.3182608,-0.8885035,0.9059132,25.484484,-113.51123,-8.432466,WAL
575002029000,3.90475,0.0431267481529489,18.0385013246922,-4.79269851338302,0.95539325,-0.84849185,0.37690386,25.802242,-113.14406,-7.787393,WAL
575007016000,3.909737,-2.93346132391445,18.2964377126809,-3.56492039081875,1.2672399,-1.0928379,-0.16249016,26.111397,-112.94823,-7.284854,WAL
575012022000,3.914743,-4.67428346267073,17.0159680927582,-1.74178848414071,1.1743884,-1.4721853,-0.5513059,26.38695,-113.089676,-7.1843514,WAL
575016978000,3.919699,-5.72828368183158,14.9219589922374,0.380203097189742,0.8029824,-1.7782288,-0.75869465,26.666073,-113.26901,-7.2054143,WAL
575022142000,3.924863,-5.67018760851809,12.6145091338973,2.01280285282964,0.3594942,-1.9367483,-0.8362745,27.04642,-113.35955,-7.7069917,WAL
575027107000,3.929828,-4.92579197549592,10.3212164778296,3.23805019049008,-0.061086524,-1.9596558,-0.8362745,27.4607,-113.378105,-8.245021,WAL
575032086000,3.934807,-3.80752908268376,8.17207307779685,4.00060457791801,-0.47342056,-1.8368717,-0.77946407,27.935467,-113.20481,-8.9870405,WAL
575037023000,3.939744,-2.42309842392973,6.15271371173263,4.41115984509289,-0.93279123,-1.7351627,-0.71776664,28.431622,-112.93897,-9.714726,WAL
575042111000,3.944832,-0.973210502861371,4.73072532802171,4.62096749190923,-1.346347,-1.7571539,-0.6246097,28.955486,-112.529495,-10.363856,WAL
575047032000,3.949753,0.445030971050814,3.81003079660582,4.67676731055747,-1.6557503,-1.847562,-0.44593164,29.496128,-112.04184,-10.958922,WAL
575051994000,3.954715,1.72525751756624,3.23181419393523,4.55660904,-1.8726074,-1.9062049,-0.19853121,30.042349,-111.43858,-11.351705,WAL
575057008000,3.959729,2.89390233326791,2.93965294080471,4.28800906,-2.0189097,-2.0253236,-0.07147124,30.645084,-110.79224,-11.733026,WAL
575062013000,3.964734,3.80337978267297,2.85893443465405,3.90871042253105,-2.0540345,-2.0857995,0.1994475,31.268013,-110.00106,-11.80441,WAL
575067004000,3.969725,4.46292031322689,2.98142054021289,3.42347709895525,-2.047315,-2.047315,0.48075095,31.91248,-109.17246,-11.827104,WAL
575072008000,3.974729,4.85211669084377,3.37071047580348,3.13427520079619,-1.956296,-1.9410243,0.76144356,32.550335,-108.26073,-11.587495,WAL
575077035000,3.979756,4.94560649296048,4.0531865193611,3.0594832614817,-1.7736472,-1.8365663,1.0491611,33.1976,-107.31744,-11.251259,WAL
575081981000,3.984702,4.81274302135486,4.9216665281598,3.06935812485951,-1.563815,-1.7412714,1.2959507,33.8041,-106.34576,-10.715648,WAL
575087018000,3.989739,4.35929140665168,6.08486855001533,3.19750749535098,-1.348485,-1.6380352,1.5167783,34.388783,-105.36194,-10.087751,WAL
575091989000,3.99471,3.53573611192412,7.96266082926829,2.88638198428184,-1.1572843,-1.4828753,1.6881261,34.940247,-104.34113,-9.345151,WAL
575097008000,3.999729,2.26008510295299,10.720582333894,2.0554121240071,-0.98349303,-1.2452488,1.8261817,35.438778,-103.3309,-8.532262,WAL
575101934000,4.004655,1.15657536556585,12.8651031836023,1.29627770554891,-0.82741696,-0.91751957,1.91323,35.87649,-102.322075,-7.7137685,WAL
575106982000,4.009703,0.361923696364814,13.7897888636183,0.646108149334529,-0.6963864,-0.56077427,1.9489655,36.229294,-101.34345,-6.85783,WAL
575111987000,4.014708,-0.440897903202207,14.4398455683517,0.0531480390566038,-0.63132924,-0.22907446,1.9336939,36.470688,-100.56967,-6.164325,WAL
575117045000,4.019766,-1.28587293756141,14.4958900630117,-0.429694844150943,-0.65087694,0.08307768,1.8332067,36.603832,-99.84034,-5.482767,WAL
575122051000,4.024772,-2.11843035829787,14.4877530340426,-0.876990969787234,-0.75869465,0.3381139,1.6658295,36.634495,-99.29165,-4.950754,WAL
575126969000,4.02969,-2.89147956705167,13.7147037256332,-0.948569594690983,-0.9120218,0.44715336,1.4676038,36.607536,-98.76764,-4.461212,WAL
575131998000,4.034719,-3.62479114615185,12.9104717541338,-0.98571713332179,-1.0693196,0.3662137,1.2409728,36.542423,-98.42826,-4.1981277,WAL
575137820000,4.040541,-3.80821544614319,11.8195793553805,-0.609214577716215,-1.1905763,0.11148291,1.0122037,36.486988,-98.09598,-3.9982836,WAL
575141980000,4.044701,-3.93927781096009,11.040102821747,-0.340191796658298,-1.2803736,-0.2678644,0.768163,36.47805,-97.88789,-4.028641,WAL
575146995000,4.049716,-3.80266747455506,10.2979796846274,0.0387305335615099,-1.3286319,-0.6933321,0.5345071,36.54712,-97.7001,-4.1286306,WAL
575151916000,4.054637,-3.58606359131625,9.62512557031097,0.425852312145511,-1.3888022,-0.8881981,0.4269948,36.653862,-97.5168,-4.2628226,WAL
575156966000,4.059687,-3.18380529780394,9.19084588826423,0.751005409328883,-1.4013249,-1.2409728,0.2434298,36.920788,-97.40203,-4.5500264,WAL
575162007000,4.064728,-2.71308221755973,8.85582662543921,1.04785782820625,-1.4376713,-1.5054774,0.116675265,37.21597,-97.30541,-4.8494883,WAL
575167032000,4.069753,-2.1729714118336,8.57631984587276,1.26516681871077,-1.4935656,-1.7220291,0.031154128,37.604332,-97.196686,-5.162623,WAL
575171993000,4.074714,-1.5586685797058,8.36264916218495,1.38980793465755,-1.5296066,-1.831374,-0.0125227375,38.03449,-97.14318,-5.4989686,WAL
575176962000,4.079683,-0.919089506283134,8.16623303043393,1.50165190533085,-1.5457945,-1.8747455,-0.02687807,38.51716,-97.02389,-5.755,WAL
575181995000,4.084716,-0.218754720871785,8.00534542297271,1.58682774692715,-1.5509869,-1.8765781,-0.00061086525,39.01823,-96.94802,-6.008182,WAL
575186937000,4.089658,0.447993285004696,7.85146857952624,1.68703096348743,-1.5271631,-1.8124372,0.064751714,39.51756,-96.79453,-6.1303906,WAL
575192006000,4.094727,1.07614304562246,7.70456268608995,1.83393701561098,-1.50731,-1.7220291,0.16279559,40.009274,-96.66778,-6.230971,WAL
575196915000,4.099636,1.5882495238632,7.61517999503248,1.88447829038976,-1.4840971,-1.6077974,0.29138273,40.480255,-96.43059,-6.1701612,WAL
575201979000,4.1047,1.94034816673672,7.61981286809324,1.76865636711884,-1.4666874,-1.4605788,0.43951756,40.914516,-96.20171,-6.0715556,WAL
575207579000,4.1103,2.17150992119608,7.65301683424186,1.6108219490606,-1.432479,-1.2525792,0.5729916,41.299976,-95.872826,-5.829483,WAL
575212032000,4.114753,2.12260877752492,7.72072607988004,1.4415489135221,-1.3955216,-1.006095,0.7147123,41.62939,-95.5441,-5.5411973,WAL
575217340000,4.120061,2.03890288684103,7.81759619360441,1.23667318685533,-1.348485,-0.872621,0.81122905,41.92535,-84.82893,-5.1619534,WAL
575221972000,4.124693,1.6854025409481,8.080455568349,1.02366652133837,-1.2974777,-0.7831292,0.9077458,42.15935,-85.19449,-4.743743,WAL
575227091000,4.129812,1.28374174907325,8.36564155078915,0.786375586337515,-1.2284501,-0.72418076,0.98654735,42.3541,-85.52777,-4.32057,WAL
575231990000,4.134711,0.756853590294415,8.56975102043707,0.534798385279239,-1.1676689,-0.70371675,1.0626001,42.530304,-85.83784,-3.874303,WAL
575236983000,4.139704,0.215236908839242,8.77598218344299,0.287401081278602,-1.0974194,-0.6814202,1.1001683,42.679573,-86.06486,-3.4981384,WAL
575241974000,4.144695,-0.385580519086713,8.95904351556516,0.155972264171659,-1.0372492,-0.64476824,1.1276573,42.815495,-86.26974,-3.108243,WAL
575247168000,4.149889,-1.00681436688122,9.13525873629803,0.0243352131336064,-1.0079277,-0.56107974,1.131017,42.918293,-86.38702,-2.8403568,WAL
575251979000,4.1547,-1.53252731319485,9.12177911566218,-0.0340773289498732,-1.0100657,-0.50793445,1.1267409,43.017307,-86.48859,-2.5714595,WAL
575257329000,4.16005,-2.11461428951705,9.10799461065825,-0.0987034740038566,-1.0137309,-0.4266894,1.0934488,43.0739,-86.50722,-2.4607995,WAL
575261964000,4.164685,-2.57760236353756,9.11577608055044,-0.149282006969936,-1.0415252,-0.43127087,1.0644327,43.13925,-86.514404,-2.3521311,WAL
575266953000,4.169674,-3.07595133900429,9.12415186335349,-0.203723495851871,-1.0528263,-0.43035457,1.0106765,43.17143,-86.44971,-2.4099145,WAL
575272013000,4.174734,-3.10882841505294,9.17856489651785,-0.209151976429429,-1.0549643,-0.44684792,0.9233228,43.21143,-86.36931,-2.4842997,WAL
575277894000,4.180615,-2.90890527770231,9.26028134834077,-0.185403108190569,-1.0574077,-0.5448918,0.82436264,43.275986,-86.27405,-2.5750747,WAL
575282019000,4.18474,-2.72108149180089,9.25261491616534,-0.089574642418203,-1.0152581,-0.5580254,0.79198676,43.311615,-86.114784,-2.8328977,WAL
575287101000,4.189822,-2.48968258757035,9.24316987172521,0.0284860274133515,-1.0054842,-0.5821546,0.7153232,43.389668,-85.93203,-3.0809402,WAL
575292097000,4.194818,-2.14126236198975,9.20625606438572,0.185403083144547,-0.9789116,-0.59589905,0.65301496,43.46944,-85.75141,-3.3284328,WAL
575297055000,4.199776,-1.77140802787419,9.16412088611714,0.349262601427332,-0.9596693,-0.6203337,0.6218608,43.56009,-85.556854,-3.5826333,WAL
