timestamp,rel_time,acc_x,acc_y,acc_z,gyro_x,gyro_y,gyro_z,azimuth,pitch,roll,label
2860311038000,0,5.44058162938371,11.8137190689393,4.78916737261247,-1.5714508,0.72326446,0.41874814,270.11163,-81.756546,4.771014,WAL
2860315945000,0.004907,5.34025174305507,11.778474403186,4.6594669098988,-1.4969252,0.3894266,0.49174652,269.9167,-81.36922,4.9677687,WAL
2860320980000,0.009942,5.23730473313767,11.7423103738263,4.52638318669453,-0.9767735,0.24862215,0.57635134,269.5545,-80.746796,5.332214,WAL
2860325970000,0.014932,5.13527780573194,11.7064695582344,4.39448889100649,-0.74097955,0.22266038,0.6404922,269.25903,-80.08932,5.7066684,WAL
2860330940000,0.019902,5.03365980388696,11.6707723932061,4.2631232297701,-0.59712076,0.2687807,0.6612616,268.98483,-79.54257,6.083178,WAL
2860336061000,0.025023,4.92895441405836,11.6339906664233,4.12776637842372,-0.4392121,0.3539964,0.6133087,268.70905,-79.06915,6.445661,WAL
2860341015000,0.029977,4.82766355266197,11.5984084218458,3.99682362474865,-0.27397305,0.49174652,0.54000485,268.40677,-78.64383,6.790736,WAL
2860345992000,0.034954,4.72590242687073,11.5626609791202,3.86527294145419,-0.13316862,0.6218608,0.46761733,268.08588,-78.26761,7.1081405,WAL
2860351075000,0.040037,4.62197399560754,11.5261521884081,3.73092049556595,-0.029321533,0.7067711,0.3839288,267.74408,-77.94392,7.3877854,WAL
2860356172000,0.045134,4.51775931645184,11.4895428423016,3.59619800556154,0.062002823,0.7657196,0.30573806,267.37756,-77.66812,7.6351876,WAL
2860360964000,0.049926,4.41978075209748,11.4551241672883,3.46953719094489,0.16340645,0.77274454,0.24037547,267.00714,-77.43638,7.8537235,WAL
2860365995000,0.054957,4.31691552729223,11.4189888680413,3.33655919463095,0.28344148,0.754724,0.20738874,266.6315,-77.24215,8.051421,WAL
2860371034000,0.059996,4.21388673226268,11.3827961085689,3.20336974453636,0.36926803,0.7128797,0.19547687,266.26505,-77.07452,8.23203,WAL
2860376018000,0.06498,4.11198248252517,11.3469983881461,3.07163403918381,0.408058,0.6713409,0.20311269,265.90634,-76.92798,8.404872,WAL
2860381007000,0.069969,4.00997600139749,11.3111647550825,2.93976617521835,0.42394048,0.6429357,0.24129178,265.5568,-76.793465,8.579853,WAL
2860386119000,0.075081,3.90545462807122,11.2744476710533,2.80464720937521,0.44073927,0.61941737,0.29046643,265.21857,-76.66536,8.75746,WAL
2860390991000,0.079953,3.80584036147388,11.2394543937861,2.67587185695193,0.45631635,0.64751714,0.32559118,264.87427,-76.53707,8.936037,WAL
2860395996000,0.084958,3.7035067398976,11.2035058402716,2.54358108542515,0.4636467,0.6600399,0.37323865,264.53964,-76.39991,9.129091,WAL
2860401935000,0.090897,3.58207629463455,11.1608488054419,2.38660308500605,0.47036624,0.6765333,0.4266894,264.1956,-76.25903,9.327096,WAL
2860406001000,0.094963,3.49894172813522,11.1316446458835,2.27913170098449,0.47219884,0.70616025,0.46792278,263.84424,-76.11282,9.528607,WAL
2860410912000,0.099874,3.39853005669443,11.0963712500175,2.14932551138049,0.48380527,0.743423,0.49235737,263.48596,-75.96397,9.73384,WAL
2860416005000,0.104967,3.29439716265087,11.0597906340237,2.01470874826642,0.51923543,0.7959574,0.5018258,263.11548,-75.81641,9.938656,WAL
2860421021000,0.109983,3.19183863201618,11.0237630726993,1.88212722779122,0.58276546,0.84238315,0.5164866,262.73666,-75.67212,10.144735,WAL
2860426011000,0.114973,3.08981170461045,10.9879222571074,1.75023293210318,0.6826419,0.86437434,0.528093,262.3517,-75.54185,10.345848,WAL
2860430996000,0.119958,2.98788700859491,10.9521173541565,1.61847079502805,0.82772243,0.8481864,0.5546656,261.9653,-75.427315,10.54975,WAL
2860436074000,0.125036,2.88406080872191,10.9156444760852,1.48425050775272,0.97127575,0.763887,0.5626069,261.59497,-75.332855,10.749062,WAL
2860441006000,0.129968,2.78321976544235,10.8802202471275,1.35388925197448,1.1313224,0.63194007,0.56138515,261.24463,-75.26402,10.951657,WAL
2860445993000,0.134955,2.68125417687073,10.8444009791202,1.22207425145419,1.2647965,0.4089743,0.52503866,260.94852,-75.21983,11.150555,WAL
2860451045000,0.140007,2.5779595802267,10.8081148467815,1.08854118896601,1.3997977,0.1518,0.44868052,260.70456,-75.20991,11.341231,WAL
2860456023000,0.144985,2.47617800815742,10.7723602215278,0.956964073948961,1.4651603,-0.08155051,0.3539964,260.52264,-75.21763,11.521432,WAL
2860461009000,0.149971,2.37423286586384,10.7365481360486,0.825175505151248,1.4566082,-0.30909783,0.24678956,260.41913,-75.24915,11.684023,WAL
2860466007000,0.154969,2.27204236823382,10.7006498602314,0.693069755682543,1.4523321,-0.49266282,0.15057829,260.37546,-75.30436,11.827563,WAL
2860472013000,0.160975,2.14924202234228,10.657511596014,0.534320829850402,1.4251486,-0.6627888,0.057726767,260.39935,-75.37089,11.947621,WAL
2860476039000,0.165001,2.06692530696443,10.6285947375826,0.427906714732153,1.4132367,-0.8323039,-0.054061573,260.48184,-75.45939,12.039598,WAL
2860480999000,0.169961,1.96551176789982,10.592969397836,0.296805370721593,1.427592,-0.9254609,-0.18325958,260.59637,-75.56755,12.101309,WAL
2860486028000,0.17499,1.86268743565064,10.5568484636454,0.163880237852822,1.4566082,-1.0818423,-0.23976462,260.77994,-75.67894,12.158914,WAL
2860491073000,0.180035,1.75953596295287,10.5206126090039,0.0305321974227258,1.500285,-1.2388347,-0.3484986,260.99768,-75.83216,12.166759,WAL
2860495981000,0.184943,1.6591856303462,10.4853607607224,-0.0991946970135297,1.5183055,-1.2980887,-0.39736784,261.23157,-75.97833,12.176128,WAL
2860501051000,0.190013,1.55552300069749,10.4489453428766,-0.233203530508195,1.5012014,-1.1313224,-0.3848451,261.44623,-76.1302,12.168831,WAL
2860505944000,0.194906,1.45547936226138,10.4138012325177,-0.362533949105709,1.5045611,-0.8723156,-0.38240165,261.65222,-76.29471,12.143429,WAL
2860510977000,0.199939,1.41433650374119,10.3744979742331,-0.421956515093305,1.5344934,-0.6102544,-0.39828414,261.80814,-76.454956,12.110715,WAL
2860515999000,0.204961,1.40953320200193,10.3334297320743,-0.438047572158177,1.5192219,-0.36835176,-0.44532076,261.89508,-76.61088,12.062612,WAL
2860521037000,0.209999,1.40471459703131,10.2922306472483,-0.454189895036079,1.4669929,-0.16432275,-0.4654793,262.08865,-77.25647,11.641179,WAL
2860525980000,0.214942,1.39998685499683,10.2518084407586,-0.470027827149113,1.3710871,0.02076942,-0.44226643,262.2177,-77.860634,11.2301035,WAL
2860530993000,0.219955,1.3951921613252,10.2108137976001,-0.486090047194155,1.2608259,0.18784106,-0.37873647,262.29276,-78.41839,10.837815,WAL
2860536066000,0.225028,1.39034008053601,10.1693284944396,-0.502344514038061,1.1759156,0.3585779,-0.32742378,262.31342,-78.93461,10.461642,WAL
2860541821000,0.230783,1.38483569951063,10.122266022591,-0.520784186162381,1.1230757,0.4886922,-0.28313604,262.29727,-79.39945,10.115127,WAL
2860546012000,0.234974,1.38082720934949,10.0879934214584,-0.534212625062994,1.0965031,0.6001751,-0.2321288,262.23743,-79.81699,9.797456,WAL
2860551046000,0.240008,1.37601243018671,10.0468270472992,-0.550342131487638,1.072374,0.67073005,-0.18173242,262.15292,-80.19411,9.504752,WAL
2860556212000,0.245174,1.37107139936532,10.0045812211358,-0.566894580869782,1.0586295,0.70646566,-0.12797627,262.0478,-80.53218,9.2392435,WAL
2860561008000,0.24997,1.36648425576884,9.96536113165083,-0.582261508325602,1.0482447,0.7122689,-0.06780604,261.93283,-80.831665,9.001053,WAL
2860565998000,0.25496,1.36171156049227,9.92455457482635,-0.598250033764413,1.033584,0.6731735,-0.00061086525,261.82278,-81.093,8.790714,WAL
2860570978000,0.25994,1.35694842973529,9.88382979466885,-0.61420651807008,1.0167851,0.6059783,0.05955936,261.72168,-81.32008,8.604912,WAL
2860575946000,0.264908,1.35219677640182,9.84320314651173,-0.630124553015974,1.0100657,0.5656612,0.12583824,261.62653,-81.50882,8.448196,WAL
2860580945000,0.269907,1.34741547305762,9.80232299068697,-0.646141915474615,1.0027353,0.47769663,0.15760323,261.56714,-81.67363,8.306339,WAL
2860586139000,0.275101,1.34244766158137,9.75984818985604,-0.662784080029562,0.98746365,0.39278635,0.19700404,261.52084,-81.802475,8.19156,WAL
2860590996000,0.279958,1.33780217441538,9.72012926270243,-0.678346458397559,0.97035944,0.32711834,0.25045475,261.49664,-81.90455,8.095261,WAL
2860596000000,0.284962,1.33301608881138,9.67920821854417,-0.694379841422772,0.9285152,0.28527406,0.2996294,261.4921,-98.01571,8.013603,WAL
2860600982000,0.289944,1.32825104515048,9.63846708305328,-0.710342733955068,0.8906415,0.26267207,0.3399465,261.50275,-97.959274,7.9484606,WAL
2860605991000,0.294953,1.32346017728669,9.59750515056153,-0.726392137546852,0.86651236,0.25870144,0.3662137,261.52164,-97.921646,7.8963943,WAL
2860612265000,0.301227,1.31745939769446,9.54619846969644,-0.746494744481341,0.8359691,0.30024028,0.3652974,261.53516,-97.89442,7.8506827,WAL
2860616011000,0.304973,1.31387652865518,9.51556493024464,-0.75849735295705,0.8561276,0.32803464,0.35918877,261.55496,-97.88076,7.813106,WAL
2860620974000,0.309936,1.30912965758151,9.47497917042101,-0.774399367336373,0.8594874,0.39950588,0.34025195,261.5511,-97.86747,7.774015,WAL
2860625955000,0.314917,1.30436557037257,9.43424621259681,-0.790359055755354,0.8539896,0.4700608,0.3231477,261.5405,-97.858864,7.735904,WAL
2860630934000,0.319896,1.29960339606755,9.39352961010601,-0.806312335947707,0.8588765,0.53878313,0.30451632,261.51083,-97.850334,7.6944804,WAL
2860636000000,0.324962,1.29475801044208,9.35210155061246,-0.822544373998412,0.8594874,0.61086524,0.27947086,261.46088,-97.8395,7.649017,WAL
2860641033000,0.329995,1.28994418773127,9.31094335411996,-0.838670676309742,0.8668178,0.67164636,0.25809056,261.39557,-97.82978,7.601981,WAL
2860646007000,0.334969,1.28518679568604,9.27026763996265,-0.854607935935523,0.8671232,0.72509706,0.24312437,261.31287,-97.818756,7.5525284,WAL
2860650968000,0.33993,1.28044183751629,9.22969823547242,-0.870503542088217,0.86376345,0.73792523,0.23335053,261.22577,-97.8076,7.501048,WAL
2860655968000,0.34493,1.27565957772013,9.18880990198095,-0.886524108660172,0.86193085,0.72356987,0.2312125,261.13263,-97.79837,7.450131,WAL
2860660948000,0.34991,1.27089644696315,9.14808512182346,-0.902480592965839,0.8512407,0.6933321,0.23671028,261.04196,-97.79101,7.4009275,WAL
2860665938000,0.3549,1.26612375168658,9.10727856499898,-0.91846911840465,0.8374963,0.6337727,0.24648413,260.96542,-97.78694,7.3541,WAL
2860670975000,0.359937,1.26130610316793,9.06608765783968,-0.934608237169237,0.8228355,0.5684101,0.26206118,260.90076,-97.787605,7.312143,WAL
2860675953000,0.364915,1.25654488531487,9.02537923301558,-0.950558313248276,0.80573124,0.5180137,0.27183503,260.8502,-97.790184,7.2726965,WAL
2860681218000,0.37018,1.25150916574951,8.98232381784906,-0.967427969848545,0.7968737,0.42455134,0.28771752,260.83203,-97.80003,7.2397137,WAL
2860686065000,0.375027,1.24687324310311,8.94268666736244,-0.982958307083398,0.7858781,0.39736784,0.29077184,260.80994,-97.80881,7.207631,WAL
2860690971000,0.379933,1.24218088979112,8.90256703454062,-0.9986776870038,0.7828238,0.32986724,0.30573806,260.82727,-97.82648,7.1829796,WAL
2860695958000,0.38492,1.23741106387043,8.86178501071623,-1.01465660010267,0.7742717,0.2660318,0.30970868,260.85153,-97.84158,7.1569786,WAL
2860700997000,0.389959,1.23259150244785,8.82057774822353,-1.03080212709388,0.7791586,0.23579398,0.31429017,260.88593,-97.86321,7.136049,WAL
2860705963000,0.394925,1.22784176201831,8.77996745539981,-1.04671375381315,0.7840455,0.2125811,0.321926,260.93674,-97.88688,7.117335,WAL
2860710971000,0.399933,1.21866288389285,8.77950440405255,-1.02238562610973,0.8185594,0.18906279,0.3173445,260.99603,-97.914,7.096954,WAL
2860715956000,0.404918,1.20636606548467,8.80819715154117,-0.96909934880656,0.8335256,0.17715092,0.32528573,261.0589,-97.94547,7.0830297,WAL
2860720963000,0.409925,1.19591763315556,8.83809879377778,-0.913567769902222,0.8509353,0.14508049,0.33628133,261.15112,-98.021675,7.075873,WAL
2860726938000,0.4159,1.19026613883457,8.87765889995062,-0.840098290618271,0.8582657,0.1142318,0.35155296,261.2473,-98.10291,7.072224,WAL
2860730925000,0.419887,1.1752104718092,8.90133077223893,-0.794376975848732,0.86498517,0.09254608,0.37843102,261.3293,-98.201546,7.0789504,WAL
2860736006000,0.424968,1.11770537545122,8.92224213321874,-0.747327363465836,0.8686504,0.06872234,0.4016439,261.42188,-98.30415,7.0881724,WAL
2860740914000,0.429876,1.07103925627968,8.94134985044203,-0.714547189734785,0.86345804,0.03726278,0.4297437,261.50296,-98.42654,7.1168466,WAL
2860745947000,0.434909,1.03934488841967,8.95895781215752,-0.703982412705487,0.8567385,0.0067195175,0.45814893,261.59216,-98.553825,7.1507373,WAL
2860751041000,0.440003,1.0072663845693,8.97677918250895,-0.69328959049463,0.84940815,-0.005192355,0.4822781,261.6648,-98.69755,7.1982555,WAL
2860756138000,0.4451,0.990047768517824,8.99789532870544,-0.662799489722327,0.8527679,-0.010079277,0.52320606,261.74637,-98.85034,7.256447,WAL
2860761069000,0.450031,0.981187880938086,9.02004504765478,-0.622929967859287,0.8686504,-0.0106901415,0.5335908,261.831,-98.99994,7.310816,WAL
2860765978000,0.45494,1.00394090982659,9.07263144315992,-0.601253717842004,0.86437434,0.0012217305,0.5491679,261.89816,-99.16956,7.3854175,WAL
2860770967000,0.459929,1.05833949245927,9.15632150306534,-0.597069214846733,0.8707884,0.003970624,0.5653558,261.9698,-99.3425,7.460392,WAL
2860776035000,0.464997,1.14846275406824,9.23974600393701,-0.543490086751968,0.87598073,0.01282817,0.58184916,262.0157,-99.53289,7.554368,WAL
2860780943000,0.469905,1.35407503368329,9.31513726377953,-0.324170312048556,0.88361657,0.0061086523,0.5934556,262.06717,-99.72262,7.6480036,WAL
2860786130000,0.475092,1.57137554190726,9.39481421259842,-0.0923830929396326,0.89919364,-0.025045475,0.6078109,262.10422,-99.93976,7.761851,WAL
2860791002000,0.479964,1.71720047231188,9.42284018730734,0.0810425345309157,0.8949176,-0.036651913,0.61544675,262.1396,-100.15,7.8736014,WAL
2860796917000,0.485879,1.81991452775159,9.39716168685403,0.235113647721306,0.8784242,-0.018325957,0.6337727,262.17786,-100.36054,7.988631,WAL
2860800984000,0.489946,1.86212273243281,9.37545418096976,0.327876107042313,0.8604037,-0.013439035,0.64660084,262.16785,-100.58229,8.14776,WAL
2860805964000,0.494926,1.84204310405586,9.33864110960634,0.408194683450986,0.86009824,0.015882496,0.6637051,262.14798,-100.802315,8.309537,WAL
2860812457000,0.501419,1.81586297814188,9.29064366535682,0.512915269117957,0.8347474,0.07391469,0.66828656,262.08395,-101.028275,8.495602,WAL
2860815940000,0.504902,1.75238965364693,9.30256436765328,0.560998432145877,0.7837401,0.08246681,0.67256266,262.02798,-101.24627,8.680237,WAL
2860820970000,0.509932,1.60981068800211,9.35857814989429,0.622103733520085,0.7663304,0.12675454,0.6774496,261.94687,-101.46008,8.864098,WAL
2860825991000,0.514953,1.45307798271754,9.43093326206339,0.668980487563093,0.7315111,0.14813483,0.6630942,261.84232,-101.66201,9.050041,WAL
2860831122000,0.520084,1.27946086508177,9.52022177831617,0.703703880012114,0.70371675,0.14202617,0.6478226,261.73462,-101.856575,9.232167,WAL
2860835972000,0.524934,1.12276382093967,9.79773999057625,0.711267682829831,0.6627888,0.105068825,0.6356053,261.60602,-102.04123,9.404897,WAL
2860840967000,0.529929,0.967465626828389,10.2420654881414,0.698326177915051,0.6169739,0.034208454,0.63041294,261.49017,-102.21214,9.568469,WAL
2860847425000,0.536387,0.814921310603402,10.6514731314364,0.680579382660768,0.5742133,-0.06352998,0.63316184,261.37604,-102.36903,9.713229,WAL
2860851206000,0.540168,0.756914759768098,10.7840594962621,0.669530521328858,0.5170974,-0.16920967,0.6224717,261.285,-102.505775,9.844999,WAL
2860855913000,0.544875,0.684701896826608,10.9491174225341,0.655775697131742,0.45723262,-0.26145032,0.61636305,261.19913,-102.62636,9.953401,WAL
2860861190000,0.550152,0.578880974094079,11.046031653732,0.585159404067369,0.39584067,-0.3390302,0.59773165,261.1391,-102.727066,10.047908,WAL
2860866260000,0.555222,0.46720365751892,11.1036715876985,0.495097042040362,0.3390302,-0.3744604,0.5717699,261.09323,-102.8114,10.133172,WAL
2860871195000,0.560157,0.357558940550696,11.1600326472303,0.402135906713314,0.27152961,-0.37751472,0.5360342,261.0398,-102.887985,10.209284,WAL
2860875862000,0.564824,0.236905238640536,11.2179460806608,0.218742285050858,0.24129178,-0.37965274,0.5109888,260.99554,-102.9548,10.276852,WAL
2860880843000,0.569805,0.128853906824387,11.278123085292,0.021751527675254,0.21991149,-0.34269542,0.45662177,260.9374,-103.009575,10.316646,WAL
2860885856000,0.574818,0.163346331059222,11.327398462178,-0.185203044488966,0.16340645,-0.2919936,0.3943135,260.87396,-103.04308,10.345701,WAL
2860890845000,0.579807,0.235286771404228,11.3772156210075,-0.352750927041624,0.14294247,-0.21410827,0.33628133,260.80396,-103.07926,10.350736,WAL
2860895830000,0.584792,0.479790075664401,11.4305619446876,-0.343859894757426,0.12095132,-0.13408493,0.27550024,260.71484,-103.089,10.338886,WAL
2860901025000,0.589987,0.748962383797624,11.4786725995494,-0.345313329069029,0.10048734,-0.06872234,0.22449298,260.62527,-103.10796,10.323041,WAL
2860905938000,0.5949,1.20193041712413,11.4208467304383,-0.494696399928308,0.0711658,-0.0061086523,0.19456059,260.5104,-103.111275,10.299104,WAL
2860910862000,0.599824,1.65616693424721,11.3597737441152,-0.628480028469491,0.05467244,0.059253927,0.17592919,260.3631,-103.13222,10.30084,WAL
2860915849000,0.604811,2.11908133077633,11.2627820492938,-0.584392964349672,0.024740042,0.08857546,0.172264,260.2068,-103.14061,10.299009,WAL
2860920868000,0.60983,2.58496610241854,11.1651679894766,-0.540023007498385,-0.004581489,0.074830994,0.19120082,260.0491,-103.216225,10.36077,WAL
2860925863000,0.614825,2.98367113164516,11.1149454325621,-0.32613015749227,-0.032986723,0.026267206,0.21410827,259.89346,-103.28336,10.420025,WAL
2860931054000,0.620016,3.37031265932542,11.070788,-0.0806292441472907,-0.062002823,-0.033292156,0.25625798,259.74704,-103.35059,10.486631,WAL
2860936046000,0.625008,3.48480999029039,11.070788,0.239009238175831,-0.118507855,-0.081855945,0.30909783,259.62494,-103.44191,10.616551,WAL
2860941048000,0.63001,3.5597558140159,11.088138751644,0.55969839775195,-0.18325958,-0.10629055,0.35002577,259.5016,-103.53682,10.791175,WAL
2860945847000,0.634809,3.13804822087475,11.3200781865729,0.872464837895703,-0.26450464,-0.116980694,0.39920044,259.39264,-103.63322,10.9772215,WAL
2860951003000,0.639965,2.68496958986084,11.5692717115767,1.20849812928582,-0.34972036,-0.092240654,0.42943826,259.25354,-103.70095,11.179312,WAL
2860956098000,0.64506,2.18471191237764,11.7975520227322,1.32307951383511,-0.46700647,-0.03848451,0.4474588,259.1131,-103.7624,11.387745,WAL
2860961061000,0.650023,1.63672988407657,11.9991678248858,1.18349916040896,-0.6078109,0.027794369,0.4529566,258.9649,-103.81524,11.597523,WAL
2860965939000,0.654901,1.13679895834136,12.1203929916432,0.935769455921519,-0.7675522,0.064446285,0.4266894,258.7506,-103.75226,11.724883,WAL
2860970921000,0.659883,0.651404703088382,12.1940690287038,0.610728679226088,-0.9596693,0.13041973,0.41263947,258.51144,-103.67744,11.85592,WAL
2860975908000,0.66487,0.175664729164978,12.2448015494528,0.240648801141062,-1.0592403,0.19394971,0.36682457,258.2534,-103.55293,11.903604,WAL
2860980902000,0.669864,-0.284765400551277,12.2593417413863,-0.200394785557357,-1.2718215,0.23365596,0.27916542,257.98193,-103.38334,11.933099,WAL
2860986067000,0.675029,-0.635199655965445,12.2114039584403,-0.556045098925986,-1.4633276,0.24617869,0.15760323,257.69922,-103.18597,11.88202,WAL
2860990944000,0.679906,-0.809679540462293,12.087813817262,-0.766874962206397,-1.63437,0.21135938,-0.0030543262,257.41364,-102.941734,11.793834,WAL
2860995907000,0.684869,-0.987236166822321,11.9620443133318,-0.981422555288349,-1.7760907,0.115453534,-0.22235495,257.20743,-102.603836,11.598908,WAL
2861001018000,0.68998,-0.844033856940896,11.7152315526378,-1.01185097078144,-1.8261817,-0.009162978,-0.46883908,257.012,-102.22042,11.35199,WAL
2861006392000,0.695354,-0.631719732304641,11.4335073300278,-1.0077680097977,-1.8295414,-0.15821409,-0.71593404,256.84326,-101.78317,11.044495,WAL
2861011148000,0.70011,-0.176458799084128,11.1102955514116,-0.93843391602115,-1.8099937,-0.29260445,-0.93279123,256.7387,-101.287,10.655221,WAL
2861015942000,0.704904,0.703531407785856,10.6681331308658,-0.765036837144746,-1.8237382,-0.355829,-1.0845913,256.64832,-100.75408,10.221708,WAL
2861020974000,0.709936,1.6354696447435,10.2503108999297,-0.552739223862966,-1.8551978,-0.35979962,-1.1695015,256.57874,-100.2408,9.798181,WAL
2861025948000,0.71491,2.58616172976107,10.0025952136332,-0.23472598158468,-1.9324722,-0.34972036,-1.1530081,256.5175,-99.726295,9.370145,WAL
2861034371000,0.723333,4.24653945416262,9.60423170942663,0.30251168558471,-2.0653355,-0.40683624,-1.0571023,256.4284,-99.37487,9.096516,WAL
2861035970000,0.724932,4.86495861775186,9.65549087366375,0.396762729964367,-2.327702,-0.43554693,-0.99265605,256.3247,-99.024345,8.827535,WAL
2861041022000,0.729984,6.8188383015873,9.81744290476191,0.694546517460317,-2.42147,-0.51343226,-0.8793405,256.3744,-98.8509,8.748415,WAL
2861045934000,0.734896,7.81986059224748,10.0184854278792,0.686977945061498,-2.5793786,-0.52687126,-0.7806858,256.41934,-98.7196,8.688864,WAL
2861051031000,0.739993,8.0017948061871,10.268645446981,0.395882989037458,-2.6774223,-0.46578476,-0.70738196,256.4703,-98.65922,8.658312,WAL
2861056208000,0.74517,8.1356006866217,10.5157484510961,0.111353929343732,-2.7220156,-0.33108896,-0.6374379,256.6142,-81.10776,8.874127,WAL
2861060951000,0.749913,8.1898579138561,10.7327766935076,-0.134398953516723,-2.717434,-0.14782938,-0.5531385,256.7341,-80.79703,9.115763,WAL
2861065932000,0.754894,8.24683772596965,10.9606952419899,-0.392483522255481,-2.6893342,-0.05467244,-0.45478916,256.87592,-80.40394,9.404984,WAL
2861070943000,0.759905,8.34171172053621,11.249615599609,-0.763325486685906,-2.663067,0.19394971,-0.40225476,256.9234,-79.97102,9.699809,WAL
2861075975000,0.764937,8.47181107782536,11.595051484919,-1.23886000788494,-2.5485299,0.4541783,-0.27366763,256.94162,-79.47844,10.038772,WAL
2861080929000,0.769891,8.51392246624865,11.9192328504948,-1.58780390713236,-2.4254405,0.7464773,-0.16035213,256.9027,-78.97762,10.387976,WAL
2861085995000,0.774957,8.40935153061624,12.2234390282159,-1.73990694636034,-2.310598,0.9987647,-0.041233405,256.79764,-78.449326,10.763084,WAL
2861091044000,0.780006,8.02618576108871,12.4041568062836,-1.69598216314684,-2.223855,1.1878275,0.057726767,256.6568,-77.92388,11.166707,WAL
2861095944000,0.784906,7.14710501512097,12.3568518835685,-1.29783349463206,-2.162463,1.3161092,0.12492194,256.4562,-77.39469,11.578282,WAL
2861101541000,0.790503,6.14959781391069,12.2893125768672,-0.839668759924441,-2.1487186,1.3857478,0.15027285,256.21234,-76.89685,11.968245,WAL
2861105878000,0.79484,5.45353179085537,12.0800904536472,-0.445365571331008,-2.1520782,1.3839152,0.1469131,255.9487,-76.40613,12.353448,WAL
2861110837000,0.799799,4.65763799137847,11.8408622984598,0.00548744048241785,-2.1533,1.321607,0.111177474,255.58246,-76.046196,12.570544,WAL
2861115835000,0.804797,3.92933998570498,11.6465569298735,0.274868261643415,-2.1853704,1.2345587,0.053450707,255.22498,-75.69527,12.77141,WAL
2861121228000,0.81019,3.15596929001116,11.4448079698661,0.534259719313616,-2.2223277,1.1294898,-0.0143553335,254.89258,-75.36162,12.952644,WAL
2861125836000,0.814798,2.64911526236911,11.2307051086387,0.677414933324607,-2.2226331,1.0552697,-0.10140363,254.49313,-75.13094,12.986503,WAL
2861130816000,0.819778,2.14971746197644,10.986208184555,0.807466438298429,-2.218968,0.9596693,-0.16310102,254.13321,-74.90654,13.008028,WAL
2861135862000,0.824824,2.04642454276527,10.6955551356329,0.86492476977492,-2.1948388,0.8268061,-0.19028452,253.71881,-74.78954,12.901729,WAL
2861140824000,0.829786,2.00012211575563,10.4038506480561,0.911227143601286,-2.1416936,0.68386364,-0.20769419,253.33902,-74.68415,12.785381,WAL
2861145839000,0.834801,2.06525029343308,10.074085756627,0.897391105795696,-2.0983222,0.5708536,-0.20341812,252.94193,-74.62854,12.604508,WAL
2861150891000,0.839853,2.15462323906899,9.73446835790154,0.870579226771035,-2.076331,0.48563787,-0.2144137,252.58212,-74.576294,12.423296,WAL
2861155924000,0.844886,2.2785909133382,9.63487788080092,0.923034771237877,-2.0702224,0.37384954,-0.2678644,252.27628,-74.50926,12.243688,WAL
2861160867000,0.849829,2.41681887470018,9.6496878078006,1.01189562195224,-2.0665572,0.31245756,-0.3295618,251.98337,-74.4418,12.064204,WAL
2861165859000,0.854821,2.61264804537296,9.76789962664539,0.952013642197846,-2.0723603,0.19120082,-0.35460728,251.7807,-74.325714,11.91995,WAL
2861170901000,0.859863,2.82932960430794,9.92198431312326,0.84126534795373,-2.0845776,0.05222898,-0.38240165,251.60457,-74.217445,11.76533,WAL
2861175868000,0.86483,2.882619,10.1193484935465,0.495090093917395,-2.1160371,-0.1432479,-0.41386122,251.51392,-74.05985,11.637953,WAL
2861180876000,0.869838,2.882619,10.3336289399325,0.0665299012311358,-2.112372,-0.36468655,-0.46944994,251.47269,-73.914116,11.508379,WAL
2861185886000,0.874848,2.75944593331183,10.4945603421489,-0.268298849007372,-2.0366247,-0.600786,-0.52870387,251.54004,-73.750595,11.420553,WAL
2861191457000,0.880419,2.57262394732768,10.6518835956506,-0.602611657487652,-1.9599612,-0.90041536,-0.5946773,251.69061,-73.60108,11.334716,WAL
2861195867000,0.884829,2.45036615347698,10.6578696009794,-0.862057086503428,-1.8958203,-1.1340714,-0.6731735,251.92067,-73.52389,11.244069,WAL
2861200986000,0.889948,2.32552622761998,10.5858466246817,-1.15975230588639,-1.8558086,-1.2027937,-0.7275405,252.18945,-73.46599,11.153576,WAL
2861206080000,0.895042,2.28806000044418,10.4503837195268,-1.32040421888614,-1.8383989,-1.1264355,-0.74128497,252.50696,-73.45903,11.041403,WAL
2861212192000,0.901154,2.32805906479884,10.2253896025028,-1.38040252827368,-1.8096883,-0.98929626,-0.75228053,252.82764,-73.47098,10.920651,WAL
2861215930000,0.904892,2.37297054308641,10.0569410849887,-1.34648919646736,-1.715615,-0.8142834,-0.7501425,253.142,-73.51584,10.79213,WAL
2861220935000,0.909897,2.51368465611117,9.70984636755064,-1.02284676589686,-1.6618589,-0.6743952,-0.75594574,253.42722,-73.559074,10.657969,WAL
2861225931000,0.914893,2.67490652109725,9.37870936936851,-0.697715818440804,-1.5451837,-0.61850107,-0.7626653,253.72081,-73.59782,10.547355,WAL
2861230900000,0.919862,2.95592403525098,9.13848455757691,-0.362307763279646,-1.459357,-0.643852,-0.7733554,253.99765,-73.64175,10.435456,WAL
2861235942000,0.924904,3.23739940152118,8.89501234796889,-0.0294935851802939,-1.385137,-0.7284568,-0.7629707,254.2883,-73.62658,10.357623,WAL
2861240914000,0.929876,3.44317243277442,8.6604314971478,0.151586692206396,-1.3429873,-0.8436049,-0.73884153,254.5932,-73.623314,10.287965,WAL
2861245906000,0.934868,3.6497731914261,8.42490703872083,0.333395369743475,-1.321607,-0.9459248,-0.7171558,254.94046,-73.5434,10.269438,WAL
2861250948000,0.93991,3.78184639311117,8.05477603444413,0.406087713211985,-1.2983941,-1.0247264,-0.6921103,255.30884,-73.472404,10.265744,WAL
2861255927000,0.944889,3.88421803517222,7.64083815747223,0.4372443041697,-1.2709051,-1.0354166,-0.6603453,255.6819,-73.406395,10.273024,WAL
2861261544000,0.950506,3.83946160873132,7.34247342863653,0.471867214835035,-1.2513574,-1.006095,-0.60139686,256.0815,-73.27484,10.330015,WAL
2861265907000,0.954869,3.732831908786,7.18633711921254,0.498524623915421,-1.2281445,-1.0036516,-0.5897904,256.489,-73.15872,10.384911,WAL
2861270925000,0.959887,3.58575480538629,7.02036884995321,0.521071082705625,-1.2226468,-1.0323622,-0.5564982,256.91782,-72.98388,10.486829,WAL
2861275909000,0.964871,3.40211744155142,6.87643712821046,0.530997446586253,-1.1878275,-1.01312,-0.5375614,257.32892,-72.827156,10.584319,WAL
2861280897000,0.969859,3.26171055993426,6.76537752720964,0.537927647041636,-1.1578951,-0.96944314,-0.505491,257.7302,-72.65951,10.68135,WAL
2861285966000,0.974928,3.1695144104748,6.6909112512637,0.541473651365961,-1.1160508,-0.9636399,-0.5039638,258.13403,-72.51051,10.775701,WAL
2861290951000,0.979913,3.07884607252739,6.61767897949598,0.544960893732652,-1.0555751,-0.8979719,-0.5036584,258.49557,-72.3732,10.851584,WAL
2861295901000,0.984863,3.00309833874731,6.56093420623862,0.597781021471124,-0.9663888,-0.81397796,-0.4801401,258.8452,-72.25324,10.931695,WAL
2861301085000,0.990047,2.92915908314579,6.50753360177064,0.671720362857852,-0.8924741,-0.73273283,-0.45540005,259.17392,-72.148544,11.006889,WAL
2861305996000,0.994958,2.87191681807614,6.46321918193355,0.742722500116245,-0.8142834,-0.659429,-0.42119157,259.4737,-72.06329,11.06533,WAL
2861310983000,0.999945,2.83953102848009,6.4308335855759,0.816746768671898,-0.7266242,-0.60048056,-0.39400807,259.75076,-71.99797,11.123021,WAL
2861315914000,1.004876,2.79977068258071,6.38742484486105,0.893380651716387,-0.6429357,-0.5519168,-0.35613444,259.99945,-71.93335,11.17277,WAL
2861320974000,1.009936,2.735410098396,6.30821180624234,0.982495481712301,-0.5161811,-0.5119051,-0.3286455,260.23047,-71.89855,11.222549,WAL
2861325914000,1.014876,2.68570994349335,6.2267911473395,1.04521518912666,-0.39828414,-0.49113566,-0.29871312,260.452,-71.85717,11.275201,WAL
2861331441000,1.020403,2.66530085400039,6.12474543348757,1.0503174614999,-0.2837469,-0.46700647,-0.27397305,260.65765,-71.84207,11.329506,WAL
2861336059000,1.025021,2.65010482971416,6.01493664898779,1.03119319197513,-0.15668693,-0.46395215,-0.2519819,260.8564,-71.83934,11.374437,WAL
2861340952000,1.029914,2.63944611053909,5.82663257312912,0.942370443145045,-0.050701816,-0.46578476,-0.24831672,261.0476,-71.857834,11.418332,WAL
2861345955000,1.034917,2.62854777168095,5.63409521536887,0.851550861621048,0.05497787,-0.4605924,-0.25595254,261.2413,-71.892395,11.45603,WAL
2861351006000,1.039968,2.62678713316062,5.49148183857225,0.756446430535406,0.16676621,-0.44623706,-0.25442538,261.43063,-71.949776,11.495279,WAL
2861356123000,1.045085,2.63148920544041,5.38333520719632,0.657703884801382,0.26450464,-0.42943826,-0.26267207,261.61786,-72.03008,11.527739,WAL
2861360947000,1.049909,2.64794425971918,5.28654035148377,0.581884000837483,0.3555236,-0.4202753,-0.2742785,261.81833,-72.12802,11.561986,WAL
2861365933000,1.054895,2.67647433840868,5.19143972507469,0.520068678079068,0.39706242,-0.37384954,-0.28130344,262.0028,-72.2355,11.590275,WAL
2861370989000,1.059951,2.67104586767902,5.095992414498,0.481738201243615,0.4859433,-0.32467487,-0.2828306,262.1963,-72.37416,11.617785,WAL
2861375971000,1.064933,2.63116432607969,5.00293553037058,0.468444344789635,0.5696318,-0.2764165,-0.2846632,262.37662,-72.51921,11.63928,WAL
2861380980000,1.069942,2.58619966080241,4.91982517595592,0.48460915678188,0.6600399,-0.21533,-0.2782491,262.55237,-72.67211,11.665504,WAL
2861386000000,1.074962,2.53186669451874,4.85643677832925,0.557053037757582,0.7583892,-0.15760323,-0.27855456,262.7151,-72.84207,11.685597,WAL
2861390994000,1.079956,2.46884052339489,4.79826017500196,0.627283488210609,0.8552113,-0.094989546,-0.27152961,262.86066,-73.020905,11.698353,WAL
2861395978000,1.08494,2.3750668669391,4.75699982256189,0.691049610634185,0.9584476,-0.06383542,-0.26450464,262.99826,-73.21629,11.708849,WAL
2861401285000,1.090247,2.27521598515521,4.71306549463261,0.75894824861611,1.0852021,-0.01863139,-0.2489276,263.10507,-73.4218,11.703543,WAL
2861405903000,1.094865,2.18308724827653,4.699145832378,0.824784897961851,1.1835514,0.039095376,-0.2284636,263.19855,-73.63369,11.698988,WAL
2861410866000,1.099828,2.08184272103021,4.69454381278079,0.898417235544152,1.2999213,0.08124508,-0.21197024,263.2828,-73.8647,11.69593,WAL
2861415847000,1.104809,1.99601568511016,4.71017313374752,1.00786967816644,1.4095715,0.09682214,-0.18692477,263.35065,-74.0983,11.673726,WAL
2861420884000,1.109846,1.92046221035815,4.74039450261042,1.14386596953639,1.518611,0.10262536,-0.17562376,263.40976,-74.34516,11.650978,WAL
2861425863000,1.114825,1.82743821568348,4.77956892148088,1.33488727579333,1.6166549,0.12675454,-0.15027285,263.45114,-74.59993,11.608685,WAL
2861430858000,1.11982,1.72526582598657,4.82335706672091,1.55382810360049,1.706452,0.09162979,-0.13164146,263.50916,-74.86252,11.57158,WAL
2861435868000,1.12483,1.6950948,4.93341088973893,1.71884127241083,1.8014416,0.06352998,-0.10720685,263.55057,-75.122856,11.518393,WAL
2861440866000,1.129828,1.6950948,5.0707299001817,1.86073777597781,1.8707749,0.029321533,-0.06414085,263.60376,-75.37567,11.479314,WAL
2861446270000,1.135232,1.70846447766523,5.3040823276903,2.08916734925283,1.9468275,-0.0018325958,-0.017104227,263.6479,-75.623344,11.417779,WAL
2861450878000,1.13984,1.72616777498746,5.54307721125263,2.31931039929796,1.9984456,-0.052839845,0.034513887,263.7071,-75.85737,11.374308,WAL
2861455853000,1.144815,1.79492599027633,5.93913053762726,2.61330825597341,2.0497584,-0.08827003,0.10354166,263.75037,-76.08132,11.335948,WAL
2861460835000,1.149797,1.89405681807604,6.41991470569292,2.93548326517764,2.0830505,-0.14844026,0.14446963,263.81598,-76.29436,11.308982,WAL
2861465832000,1.154794,2.00621555405991,7.07685987119629,3.38371472241821,2.1035144,-0.22235495,0.21746802,263.86893,-76.470276,11.296866,WAL
2861470873000,1.159835,2.12514709014584,7.81899248350414,3.89274161937328,2.1197023,-0.301462,0.30695978,263.9394,-76.62717,11.304555,WAL
2861475853000,1.164815,2.22754363678664,8.73659359693776,4.53761443547425,2.0998492,-0.37965274,0.37323865,263.99445,-76.741425,11.327492,WAL
2861480880000,1.169842,2.32327365044741,9.75611797753032,5.26037588367469,2.069917,-0.48808134,0.41233405,264.07886,-76.83421,11.371322,WAL
2861485863000,1.174825,2.22852558461538,11.5931946790451,6.48962021750663,2.0060816,-0.5885687,0.39522982,264.12256,-76.889656,11.408256,WAL
2861490884000,1.179846,2.03295377230769,13.8805345360743,7.99892393863837,1.9065105,-0.68844515,0.34025195,264.1977,-76.93293,11.447962,WAL
2861495841000,1.184803,1.72380329343203,15.6892782443703,9.07283413135947,1.7828102,-0.788627,0.24129178,264.22546,-76.95502,11.447938,WAL
2861500843000,1.189805,1.22938964582986,16.8079511392827,9.50232508340284,1.6358972,-0.852157,0.10476339,264.2777,-76.98494,11.424941,WAL
2861505816000,1.194778,0.730993845830882,17.5613796927968,9.70050310875961,1.461495,-0.86101454,-0.06658431,264.20642,-77.014656,11.263775,WAL
2861510837000,1.199799,0.2198866473892,17.9082022776881,9.63661485071652,1.2638801,-0.806953,-0.2761111,264.16064,-77.06261,11.067125,WAL
2861516130000,1.205092,-0.284795540907849,17.9663338387097,9.42495493128087,1.0259482,-0.7104363,-0.51923543,264.10318,-77.177376,10.755878,WAL
2861520844000,1.209806,-0.688003555931491,17.6010748709677,9.04072108574131,0.75625116,-0.61208695,-0.75747293,264.0576,-77.292915,10.407246,WAL
2861525810000,1.214772,-0.839206256622547,17.112900017401,8.62182515845983,0.47311515,-0.55771995,-0.9981538,264.0428,-77.482574,9.94005,WAL
2861530829000,1.219791,-0.66124997906331,16.4945019848204,8.181383287301,0.20952678,-0.5299256,-1.208597,264.02997,-77.64677,9.440408,WAL
2861535832000,1.224794,-0.334369060574552,15.7323550214921,7.81747668346018,-0.030848695,-0.48349985,-1.3371841,264.0453,-77.828606,8.879531,WAL
2861540843000,1.229805,0.349797234666095,14.6212276771358,7.63228883749598,-0.24220806,-0.4196644,-1.3930782,264.0592,-77.95133,8.30792,WAL
2861545801000,1.234763,1.11823656198664,13.5092065619473,7.53335150104146,-0.46609017,-0.35796702,-1.3842206,264.0763,-78.01219,7.7725344,WAL
2861550854000,1.239816,2.02635166364708,12.3586107096679,7.54761508044803,-0.68233645,-0.3109304,-1.3020593,264.07883,-77.98572,7.2640634,WAL
2861555804000,1.244766,2.79899829581544,11.2836719209028,7.45569746924997,-0.8894198,-0.25778514,-1.2348641,264.02814,-77.83549,6.846623,WAL
2861560835000,1.249797,3.40047788544892,10.2731860495356,7.19585840309598,-0.9779953,-0.23915374,-1.0818423,263.96564,-77.61125,6.4908524,WAL
2861565805000,1.254767,3.8276880851947,9.46916004664953,6.85974418960269,-1.1145236,-0.226631,-0.9025534,263.84427,-77.214134,6.2740784,WAL
2861570842000,1.259804,3.99455327159518,8.96379681112868,6.39252121963827,-1.1905763,-0.16920967,-0.66981375,263.70087,-76.77487,6.1164403,WAL
2861575816000,1.264778,4.10046669244096,8.64626330755904,5.98886950892678,-1.2241739,-0.06627888,-0.4184427,263.53378,-76.25079,6.085091,WAL
2861580832000,1.269794,4.10484694519923,8.64188305480077,5.68225808184554,-1.1887437,-0.03268129,-0.16982053,263.3646,-75.699875,6.119094,WAL
2861586011000,1.274973,4.13183585807622,8.70640383393829,5.3049860615245,-1.1456778,-0.08032878,0.032986723,263.2069,-75.14989,6.2306733,WAL
2861590841000,1.279803,4.23910432389595,9.01888067906836,4.73133371125227,-1.0998629,-0.2134974,0.19639318,263.0553,-74.59151,6.402835,WAL
2861595825000,1.284787,4.35580855289149,9.38468002176073,4.09045474337242,-1.039998,-0.38362336,0.33444872,262.94324,-74.07291,6.625142,WAL
2861600841000,1.289803,4.49900373993442,9.9383693675477,3.2360557490163,-0.9718866,-0.5015204,0.44257188,262.84677,-73.56014,6.887301,WAL
2861605921000,1.294883,4.63410163825058,10.5327711807159,2.3317311908545,-0.86193085,-0.56077427,0.5296202,262.81427,-73.14795,7.1918893,WAL
2861610852000,1.299814,4.72498553887606,11.2462088729792,1.29565566323326,-0.7174612,-0.5183192,0.59223384,262.78174,-72.75891,7.5155845,WAL
2861615900000,1.304862,4.81396194284272,11.9470060390244,0.275195065140454,-0.52687126,-0.4083634,0.6301075,262.81097,-72.52651,7.8549824,WAL
2861620928000,1.30989,4.87065921857023,12.4127337365854,-0.425421280904962,-0.2929099,-0.22113322,0.63499445,262.80734,-72.34111,8.186076,WAL
2861625889000,1.314851,4.92660098167368,12.8722554365854,-1.11670164938772,-0.055588737,0.0125227375,0.6081163,262.85123,-72.35924,8.496232,WAL
2861630886000,1.319848,4.96316170022497,13.0567268486553,-1.6253875902035,0.122478485,0.27214047,0.5354234,262.8425,-72.421165,8.770847,WAL
2861635864000,1.324826,4.99241206985377,13.1396027347377,-2.06414420364045,0.25137106,0.5360342,0.41691554,262.7761,-72.53292,9.00048,WAL
2861640897000,1.329859,5.12103768062506,12.9032108969462,-2.15673686740884,0.35705075,0.7788532,0.31978795,262.7218,-72.786385,9.190618,WAL
2861645846000,1.334808,5.2759412289858,12.5788823191707,-2.1470554082729,0.43463063,0.9569204,0.25625798,262.6186,-73.06193,9.338781,WAL
2861650912000,1.339874,5.12577183184319,11.9741570481431,-1.64317986017882,0.5177083,0.9993755,0.19639318,262.52295,-73.40733,9.455659,WAL
2861655925000,1.344887,4.9070259653456,11.3137916965268,-1.03234223315853,0.57787853,1.0360274,0.16401732,262.38025,-73.752716,9.54911,WAL
2861660949000,1.349911,4.52452976263918,10.5449728872651,-0.193557117980167,0.5879578,0.9776898,0.118202426,262.25598,-74.06713,9.65533,WAL
2861665946000,1.354908,3.98336844177105,9.67495241544885,0.863788652139875,0.569021,0.8335256,0.08307768,262.1458,-74.37488,9.7573,WAL
2861670927000,1.359889,3.3968234254392,8.83728463095495,1.81825108947885,0.4804455,0.64568454,0.054061573,262.01312,-74.58523,9.832485,WAL
2861675953000,1.364915,2.61736032817745,8.10978550998135,2.38513342723525,0.37232238,0.48899764,0.032986723,261.91528,-74.781944,9.906232,WAL
2861680951000,1.369913,1.78252016192171,7.44780306559281,2.7587374691328,0.28130344,0.3811799,0.039095376,261.76697,-74.864944,9.909792,WAL
2861685996000,1.374958,0.642290016903915,7.08582530777299,2.18862232575389,0.20952678,0.2782491,0.05131268,261.66443,-74.92885,9.918165,WAL
2861691161000,1.380123,-0.451729491469209,6.73199524867146,1.59150865312754,0.14782938,0.17898351,0.07147124,261.542,-74.97844,9.818664,WAL
2861695941000,1.384903,-0.594827756770866,6.60320682260081,0.879594792030322,0.14996742,0.09407325,0.087964594,261.44458,-75.022026,9.728872,WAL
2861701049000,1.390011,-0.74774531726477,6.46558103172867,0.118829937954048,0.15485434,0.080634214,0.113926366,261.3885,-75.2205,9.469226,WAL
2861706063000,1.395025,-0.811186177736875,6.29298567810082,-0.832340866674336,0.17989981,0.12889257,0.1591304,261.33667,-75.40825,9.229815,WAL
2861711073000,1.400035,-0.78609742647145,6.0822397818448,-1.9914429450366,0.26450464,0.21166481,0.22357668,261.276,-75.59389,9.01021,WAL
2861715981000,1.404943,-0.682395950922296,6.05022785607185,-2.97986401412729,0.37965274,0.2837469,0.29443705,261.276,-75.87987,8.794384,WAL
2861721054000,1.410016,-0.515456598605232,6.14887383662632,-3.89044231750098,0.5403103,0.3494149,0.36285394,261.2538,-76.175545,8.599387,WAL
2861726239000,1.415201,-0.3258835788596,6.27331241119836,-4.79563857973453,0.7486154,0.39736784,0.42302418,261.30353,-76.59979,8.432196,WAL
2861730999000,1.419961,0.142841051688166,6.75482036034773,-5.2302740106562,1.0042624,0.47555858,0.5225952,261.3282,-77.038864,8.296414,WAL
2861736886000,1.425848,0.721124402045011,7.36631011807625,-5.71797654485664,1.1948525,0.45051312,0.5839872,261.4485,-77.562935,8.270065,WAL
2861740955000,1.429917,1.09754967860446,8.05108380485048,-5.23743354074607,1.3096951,0.30940324,0.593761,261.58438,-78.09667,8.257071,WAL
2861745995000,1.434957,1.56380266308704,8.89926748175933,-4.64221684359264,1.3057245,0.11484267,0.56199604,261.7845,-78.6258,8.324899,WAL
2861751112000,1.440074,1.81363893006586,9.55707688297872,-3.88887150042215,1.2241739,-0.115453534,0.48472157,262.04077,-79.12978,8.384814,WAL
2861756024000,1.444986,2.03605635539514,10.1726967978723,-3.1540999191996,1.1475104,-0.21655174,0.4474588,262.31915,-79.587685,8.444512,WAL
2861760954000,1.449916,2.11651459243628,10.6513761757559,-2.43094472365945,1.1224649,-0.41874814,0.34605515,262.67056,-79.96043,8.492746,WAL
2861765995000,1.454957,2.08123422351329,11.0262286565269,-1.70328850760939,1.1145236,-0.59406644,0.21471913,263.04657,-80.298096,8.518731,WAL
2861772021000,1.460983,1.82435404740593,11.3310049814485,-0.97312343079761,1.1175779,-0.7892379,0.04153884,263.4368,-80.573586,8.4981785,WAL
2861776021000,1.464983,1.49512310725291,11.4273655306572,-0.591697307749712,1.174083,-0.8958339,-0.14385876,263.8545,-80.861694,8.436602,WAL
2861781007000,1.469969,1.18312422984574,11.3151994607646,-0.312013779476861,1.2556335,-0.9034697,-0.31398472,264.25897,-81.15566,8.290309,WAL
2861786000000,1.474962,0.986120217093034,10.9303545494395,-0.261617402563955,1.3787229,-0.8142834,-0.44898596,264.66638,-81.47604,8.107042,WAL
2861791241000,1.480203,1.02321834776179,10.5526228349261,-0.260088189021225,1.4737124,-0.5693264,-0.4990769,264.99313,-81.82295,7.8608847,WAL
2861796024000,1.484986,1.39184013063072,10.2439018602253,-0.329204776316266,1.5424347,-0.2452624,-0.5323691,265.27124,-82.18498,7.590586,WAL
2861801167000,1.490129,1.75935734071976,10.0036296370543,-0.361559076242586,1.5964963,0.16584991,-0.55680364,265.43857,-82.55073,7.303906,WAL
2861806008000,1.49497,2.06524014405198,9.90475870489837,-0.333751552773076,1.6331482,0.52198434,-0.5821546,265.52914,-82.90049,7.017556,WAL
2861810919000,1.499881,2.37554595838054,9.80445811662779,-0.305541937454182,1.6190983,0.7464773,-0.57635134,265.53793,-83.16569,6.798798,WAL
2861815964000,1.504926,2.77422728090017,9.71033359819196,-0.299360405443355,1.5317446,0.83291477,-0.5314528,265.48657,-83.39865,6.5922637,WAL
2861820982000,1.509944,3.30572251927294,9.63176459376803,-0.331712297911137,1.4223998,0.82802784,-0.4718934,265.4001,-83.59981,6.4001513,WAL
2861825949000,1.514911,3.76322401767771,9.55510316176699,-0.36519378704853,1.3035865,0.7644979,-0.39461896,265.2712,-96.308235,6.3019557,WAL
2861830999000,1.519961,4.06036718807746,9.47987709239384,-0.402806849227718,1.1878275,0.6426302,-0.30298916,265.16327,-96.2528,6.228744,WAL
2861835992000,1.524954,4.35415646526676,9.40550010934827,-0.439995367932804,1.0680978,0.5216789,-0.2012801,265.03244,-96.32008,6.267553,WAL
2861842006000,1.530968,4.56530399889625,9.21711625386314,-0.790519961302428,0.977079,0.4083634,-0.10934488,264.93616,-96.41605,6.329649,WAL
2861845968000,1.53493,4.67698414937454,9.07402581052244,-1.08019018123804,0.94225967,0.34513888,-0.0106901415,264.86212,-96.544846,6.421782,WAL
2861851199000,1.540161,4.69244163131776,8.97888455829921,-1.29477977907131,0.9398162,0.30757064,0.12003502,264.79385,-96.764984,6.600406,WAL
2861855981000,1.544943,4.61521342572874,8.95681950481812,-1.37476604434474,0.95203346,0.2837469,0.17256944,264.741,-96.99046,6.782242,WAL
2861860945000,1.549907,4.53504596179234,8.93391466887497,-1.457796538033,0.9642508,0.25350907,0.25686884,264.71625,-97.30387,7.032378,WAL
2861865962000,1.554924,4.40729867960126,8.94797115529906,-1.49645589040923,0.9990701,0.21960606,0.33444872,264.70087,-97.63368,7.2922873,WAL
2861871010000,1.559972,4.11814950444911,9.09000905666317,-1.37978172596013,1.033584,0.17562376,0.38881573,264.69894,-97.98084,7.5655384,WAL
2861875951000,1.564913,3.84225770658105,9.23624864453635,-1.26808755341025,1.0684034,0.15118915,0.4266894,264.71475,-98.33655,7.83292,WAL
2861880954000,1.569916,3.57804569004499,9.39964331388768,-1.16031682758671,1.0687088,0.16279559,0.453262,264.7348,-98.70236,8.108215,WAL
2861886037000,1.574999,3.30960881615876,9.56565073030039,-1.05082280412857,1.0684034,0.2284636,0.4541783,264.75317,-99.01852,8.334043,WAL
2861890988000,1.57995,2.65017162189181,9.80047451578199,-0.936311927240434,1.0705414,0.3576616,0.44104472,264.7517,-99.33478,8.560039,WAL
2861896058000,1.58502,1.67445122820461,10.0961471596468,-0.813114889383944,1.0622946,0.51923543,0.40958515,264.7232,-99.64108,8.778243,WAL
2861901212000,1.590174,1.0773563668748,10.2410319417283,-0.685755451516731,1.063211,0.68630713,0.37293324,264.6656,-99.85806,8.914058,WAL
2861905860000,1.594822,0.75254553633587,10.2874339340144,-0.569751633649536,1.0629056,0.8604037,0.3286455,264.56052,-100.05984,9.038752,WAL
2861910934000,1.599896,0.591908984291845,10.2816958226037,-0.429192355025036,1.0711522,0.97585726,0.27488935,264.4844,-100.04647,8.95213,WAL
2861915861000,1.604823,0.53284345276824,10.2479434055794,-0.285747463803648,1.0830641,1.039998,0.23915374,264.37305,-100.03256,8.866282,WAL
2861920875000,1.609837,0.552969536156204,10.1845067372006,-0.134684103678284,1.0919216,1.028697,0.21135938,264.23386,-99.97506,8.729165,WAL
2861925835000,1.614797,0.682385249176978,10.0820528105347,0.02169322340084,1.0998629,0.9837985,0.20219639,264.08673,-99.92259,8.595529,WAL
2861930852000,1.619814,0.860618026838633,9.95034436496997,0.104405769954514,1.0836749,0.8894198,0.20616703,263.93454,-99.86519,8.463015,WAL
2861935879000,1.624841,1.06443137456926,9.80340916884907,0.147064379207443,1.0732902,0.7837401,0.21380283,263.79968,-99.815,8.334453,WAL
2861940857000,1.629819,1.27997075947889,9.67155951931716,0.171762999667565,1.0537425,0.6646214,0.24617869,263.6767,-99.78213,8.23488,WAL
2861945853000,1.634815,1.50446402696416,9.54737223609863,0.186092352603574,1.028697,0.6010914,0.26236662,263.56866,-99.74902,8.136703,WAL
2861950860000,1.639822,1.64723981513424,9.44270279900699,0.150471917726922,1.0082331,0.4810564,0.30298916,263.49576,-99.75603,8.078436,WAL
2861955934000,1.644896,1.74106542767562,9.3488767199338,0.0834536439817948,0.9798279,0.3933972,0.34513888,263.4328,-99.7638,8.027454,WAL
2861960879000,1.649841,1.80381602528529,9.26669618678679,0.00686577217377377,0.9673051,0.31490102,0.39064834,263.38284,-99.82014,8.023661,WAL
2861965873000,1.654835,1.83254067345345,9.19488456636637,-0.0840956796788789,0.95417154,0.2519819,0.44715336,263.35565,-99.88323,8.033455,WAL
2861970902000,1.659864,1.82264946412788,9.12975269710598,-0.174726164900274,0.95386606,0.2312125,0.48930305,263.32114,-99.994415,8.074783,WAL
2861975890000,1.664852,1.76660434879742,9.07370743547126,-0.263464245479077,0.95569867,0.23365596,0.5335908,263.3007,-100.11438,8.130287,WAL
2861981075000,1.670037,1.68834241665902,9.02483219750482,-0.341503073389597,0.9599747,0.2565634,0.5693264,263.2752,-100.26856,8.207309,WAL
2861985930000,1.674892,1.59024184395927,8.99071046830566,-0.396951208459774,0.95294976,0.2602286,0.57726765,263.25635,-100.42064,8.286032,WAL
2861990910000,1.679872,1.48016215429448,8.94313002453988,-0.464957733580193,0.9431759,0.25411993,0.5876524,263.23624,-100.58969,8.365352,WAL
2861995876000,1.684838,1.33948763696319,8.85455699693252,-0.569161110177476,0.9257663,0.22327125,0.5833763,263.22348,-100.75015,8.439545,WAL
2862001154000,1.690116,1.23231339694323,8.79313926637555,-0.655906707991266,0.9309586,0.160963,0.5751296,263.22452,-100.91359,8.499569,WAL
2862005979000,1.694941,1.18523091350073,8.77632428184134,-0.706352248038574,0.93676186,0.14630222,0.55680364,263.22165,-101.0669,8.554068,WAL
2862012330000,1.701292,1.12325767985444,8.75419123173217,-0.772752170285298,0.9324858,0.11575896,0.5476407,263.25684,-101.21053,8.579861,WAL
2862015898000,1.70486,1.06971108018513,8.72612131293725,-0.799416532752126,0.90224797,0.06872234,0.5500842,263.30173,-101.34628,8.601973,WAL
2862020924000,1.709886,0.992001957959315,8.68467642250565,-0.835680764546335,0.9068295,0.03145956,0.54336464,263.35266,-101.48123,8.617615,WAL
2862025904000,1.714866,0.946598323925787,8.676587,-0.823861512980361,0.9138544,0.011301007,0.52870387,263.4077,-101.62605,8.629387,WAL
2862030913000,1.719875,0.908725854769565,8.676587,-0.800191217286095,0.93279123,0.007941248,0.5222898,263.46936,-101.77206,8.6406145,WAL
2862035936000,1.724898,0.937264994456684,8.72104129750918,-0.761534335837055,0.9624182,0.026267206,0.514654,263.5244,-101.929665,8.648723,WAL
2862040920000,1.729882,0.984631066835368,8.77788075845986,-0.718904853880123,0.9718866,0.040011674,0.5112942,263.58237,-102.0842,8.655924,WAL
2862045898000,1.73486,1.03052466446616,8.8663383508103,-0.645366308496187,0.9795224,0.054367006,0.50885075,263.62433,-102.2472,8.666581,WAL
2862051239000,1.740201,1.07928513473149,8.97198560502065,-0.555972127152844,0.98899084,0.054061573,0.51007247,263.6675,-102.40955,8.677154,WAL
2862055967000,1.744929,1.15471568765581,9.10621419501407,-0.43106797455971,1.0048733,0.04520403,0.5131268,263.69135,-102.58545,8.705053,WAL
2862061024000,1.749986,1.32997469499397,9.369102960193,-0.163311125033173,1.0073168,0.025350908,0.51893,263.71976,-102.75727,8.732759,WAL
2862065907000,1.754869,1.45992118810238,9.55871466919682,0.0467784316293027,0.9984592,0.023823744,0.52473325,263.72333,-102.9272,8.776332,WAL
2862070974000,1.759936,1.47705292529568,9.5629976929391,0.119588363894969,0.9984592,0.037873644,0.5308419,263.7295,-103.09603,8.82012,WAL
2862076301000,1.765263,1.49515675485479,9.56488010255919,0.196235952793061,0.9999864,0.0571159,0.54061574,263.68134,-103.26016,8.906317,WAL
2862080945000,1.769907,1.51220828718489,9.53077721594939,0.264442131077351,0.98990715,0.08857546,0.5384777,263.62662,-103.41539,8.989291,WAL
2862086265000,1.775227,1.53174191164574,9.49171017099588,0.342576685011981,0.95142263,0.14049901,0.54183745,263.54324,-103.56852,9.092973,WAL
2862090967000,1.779929,1.5549302356296,9.51325727503245,0.390047467916054,0.91354895,0.1908954,0.54336464,263.45242,-103.71345,9.193695,WAL
2862095916000,1.784878,1.57954070677629,9.53786778900909,0.439268363096495,0.87964594,0.23151793,0.5458081,263.3511,-103.84673,9.294356,WAL
2862101030000,1.789992,1.63859739665695,9.61218904249115,0.456633763451364,0.84116143,0.26450464,0.55680364,263.22192,-103.973885,9.407578,WAL
2862106051000,1.795013,1.71872261087273,9.71735289918767,0.451625940831077,0.8014552,0.27030787,0.571159,263.09058,-104.089935,9.519364,WAL
2862110949000,1.799911,1.7429788,9.88428754585001,0.483884542951105,0.75900006,0.25320363,0.5867361,262.94324,-104.199745,9.641295,WAL
2862115945000,1.804907,1.7429788,10.0840958155559,0.533836575604663,0.6973027,0.21746802,0.6087272,262.80197,-104.29703,9.764261,WAL
2862120987000,1.809949,1.69392604657232,10.2833009549715,0.551499806864547,0.6545421,0.15363261,0.6337727,262.6651,-104.40347,9.9012785,WAL
2862125946000,1.814908,1.56736381751516,10.4753266322367,0.516586090861055,0.58001655,0.087659165,0.6560693,262.5414,-104.49088,10.03728,WAL
2862130970000,1.819932,1.40909214278846,10.6519950337463,0.462149109116124,0.50946164,0.030543262,0.66798115,262.41635,-104.566505,10.1717005,WAL
2862136139000,1.825101,1.12533143846154,10.7618377174556,0.329422321893491,0.41386122,-0.014966198,0.6747007,262.30893,-104.623024,10.303436,WAL
2862141073000,1.830035,0.850918580689598,10.8640172537326,0.203343028624103,0.33017266,-0.048258353,0.65240407,262.21332,-104.65339,10.401783,WAL
2862145944000,1.834906,0.527691287589706,10.9255843954467,0.0879047066176689,0.2733622,-0.07544186,0.6423248,262.13055,-104.67305,10.499579,WAL
2862151018000,1.83998,0.190993425715582,10.9897173613792,-0.0323445329349171,0.24007004,-0.10354166,0.5861252,262.06818,-104.6581,10.524674,WAL
2862156139000,1.845101,-0.150340213035287,11.0971734913278,-0.172881789777313,0.19028452,-0.14446963,0.516792,262.01532,-104.62417,10.540041,WAL
2862160948000,1.84991,-0.471695928785885,11.2211246034689,-0.315196458622408,0.13347405,-0.16768251,0.46486846,261.9626,-104.57521,10.543448,WAL
2862167005000,1.855967,-0.595780593094525,11.3966123107077,-0.615359534604615,0.0983493,-0.19761491,0.34880406,261.92908,-104.48672,10.467312,WAL
2862170986000,1.859948,-0.588418376081877,11.5180891220431,-0.850950648135561,0.03481932,-0.20311269,0.30665436,261.89438,-104.38841,10.399811,WAL
2862175959000,1.864921,-0.302910873703704,11.6285043888889,-1.00804760231481,0.029932396,-0.204029,0.22235495,261.8719,-104.25884,10.2604475,WAL
2862180955000,1.869917,0.220653483232323,11.7040184242424,-1.04832180707071,0.018020526,-0.20219639,0.14477506,261.8459,-104.11171,10.115063,WAL
2862185963000,1.874925,0.8162856025,11.7539216041667,-0.958803003515625,0.027488936,-0.19425514,0.069027774,261.83588,-103.99651,9.952583,WAL
2862190955000,1.879917,1.4504497825,11.7889371041667,-0.795398731640625,0.046120327,-0.18112154,0.022602014,261.81848,-103.874825,9.782059,WAL
2862195963000,1.884925,2.07867982118595,11.8163685365573,-0.603636581611975,0.05009095,-0.16249016,0.016493361,261.78644,-103.79457,9.663265,WAL
2862201066000,1.890028,2.68157205434657,11.8083298111687,-0.278074758917674,0.04886922,-0.15699236,0.013744468,261.7501,-103.71127,9.53709,WAL
2862205945000,1.894907,3.25799988221071,11.8006439516408,0.03319628417962,0.043066,-0.17684549,0.043982297,261.68054,-103.67808,9.518347,WAL
2862210963000,1.899925,3.6171474631129,11.8390323125,0.331384548003226,0.016187929,-0.20555615,0.0852157,261.61267,-103.64284,9.502392,WAL
2862215913000,1.904875,3.89240331069355,11.8925541875,0.618109513648387,-0.02687807,-0.2284636,0.1386664,261.55115,-103.612335,9.498097,WAL
2862220961000,1.909923,4.06437997320681,11.9457845961485,0.896221275076751,-0.101098195,-0.22907446,0.20861048,261.4516,-103.597725,9.606572,WAL
2862226016000,1.914978,3.93377154591125,11.9953258534747,1.13491979531119,-0.1908954,-0.22510384,0.26816985,261.3622,-103.583015,9.72328,WAL
2862230991000,1.919953,3.76358587437748,12.0542347980486,1.34914717859539,-0.2828306,-0.20005837,0.31306845,261.23392,-103.557396,9.899878,WAL
2862236882000,1.925844,3.21312045223092,12.2090533196463,1.42942332487041,-0.34972036,-0.15088372,0.3494149,261.10458,-103.53741,10.087544,WAL
2862241079000,1.930041,2.76154881607001,12.2930398109198,1.45991079119066,-0.44165558,-0.12522738,0.3481932,260.9492,-103.46796,10.2552185,WAL
2862246090000,1.935052,1.94922409910682,12.2722995479363,1.37349329345242,-0.48472157,-0.070554934,0.34880406,260.7777,-103.41368,10.432236,WAL
2862251050000,1.940012,1.14516690570482,12.2517703712454,1.28795531923936,-0.58246,-0.02565634,0.32375857,260.58444,-103.2929,10.539303,WAL
2862255957000,1.944919,0.515118766284279,12.1850902172912,1.14777941360687,-0.677755,-0.0012217305,0.28221974,260.3839,-103.17161,10.6390915,WAL
2862260949000,1.949911,0.149832833214989,12.0399765811179,0.912595326254972,-0.7800749,-0.0061086523,0.22266038,260.18042,-103.03347,10.723285,WAL
2862265929000,1.954891,-0.0570208439489048,11.8855959097248,0.650987034312937,-0.92149025,-0.024740042,0.15882497,259.95776,-102.78311,10.643555,WAL
2862270975000,1.959937,-0.0772598049208862,11.7176124204674,0.353474307940277,-1.0751228,-0.027488936,0.06505715,259.7274,-102.50361,10.540564,WAL
2862275920000,1.964882,-0.0970936658020689,11.5529912642292,0.06191655290405,-1.2229522,-0.026267206,-0.05100725,259.51282,-102.18452,10.375833,WAL
2862280934000,1.969896,-0.117204278230431,11.3860730686016,-0.233709449876869,-1.3408492,-0.040927973,-0.17867808,259.29712,-101.83293,10.185185,WAL
2862285994000,1.974956,-0.137499391690246,11.2176235133811,-0.532047617820915,-1.4465289,-0.052839845,-0.31673363,259.06995,-101.451744,9.972644,WAL
2862291010000,1.979972,0.163924622425058,10.9454854659877,-0.619288511593005,-1.5164729,-0.106901415,-0.4709771,258.85187,-101.03791,9.7234125,WAL
2862295959000,1.984921,0.60108636834166,10.6312757954458,-0.614734751628555,-1.5613716,-0.19517145,-0.6056729,258.64075,-100.599434,9.446188,WAL
2862301009000,1.989971,1.25280439944365,10.2686269284412,-0.533872302465228,-1.5937474,-0.2846632,-0.7302894,258.52716,-100.18407,9.145485,WAL
2862305951000,1.994913,2.0200494964988,9.88727423932854,-0.406754771031175,-1.6627752,-0.34300083,-0.8026769,258.42316,-99.75103,8.828654,WAL
2862310956000,1.999918,2.96128797318473,9.56854789421618,-0.193979120801952,-1.7510452,-0.40653083,-0.8194757,258.34045,-99.37687,8.566769,WAL
2862315939000,2.004901,4.05022454388973,9.31362355582668,0.0955647078546462,-1.8579466,-0.49510628,-0.8023715,258.27692,-98.99749,8.300653,WAL
2862323707000,2.012669,5.72195651325212,8.92819172872687,0.536953131330791,-1.9920316,-0.5626069,-0.70371675,258.26892,-98.71585,8.158878,WAL
2862326097000,2.015059,5.90714250599833,8.96224895089743,0.545467425760253,-2.2235496,-0.589485,-0.6646214,258.27283,-98.42513,8.009184,WAL
2862331006000,2.019968,6.2875098860783,9.03220163024272,0.56295557277039,-2.2858577,-0.6441574,-0.6032294,258.40988,-98.343216,8.085884,WAL
2862335950000,2.024912,6.60581882774011,9.14529430523226,0.521099045077421,-2.4165828,-0.6429357,-0.52473325,258.54663,-98.30661,8.183624,WAL
2862341462000,2.030424,6.81951121895557,9.3643289462605,0.344802832086833,-2.5164595,-0.5864306,-0.45631635,258.6901,-98.337975,8.299863,WAL
2862345971000,2.034933,6.96667624777866,9.56302301842086,0.204640499838908,-2.5644124,-0.5390886,-0.4269948,258.86447,-98.48259,8.481217,WAL
2862350995000,2.039957,7.08484956142455,9.8167475394062,0.0551861428122517,-2.5772405,-0.41416663,-0.35185838,259.0067,-81.28744,8.698144,WAL
2862356154000,2.045116,7.2061983124395,10.0772898968432,-0.0982842050978834,-2.5625796,-0.26542094,-0.28344148,259.1537,-80.983055,8.94643,WAL
2862360950000,2.049912,7.27748751244958,10.3426984630277,-0.254481951427803,-2.5146267,-0.10567969,-0.1957823,259.26514,-80.61688,9.22106,WAL
2862365937000,2.054899,7.32457485852828,10.6337851429596,-0.425709119145828,-2.44285,0.07696902,-0.12736541,259.32996,-80.21114,9.507307,WAL
2862370972000,2.059934,7.31910501355365,10.9106442785482,-0.597814302193371,-2.4132233,0.25717425,-0.06169739,259.37146,-79.75466,9.830679,WAL
2862375958000,2.06492,7.22047735312285,11.1548655910298,-0.766890557725976,-2.3652701,0.44837508,-0.005192355,259.3572,-79.27912,10.163395,WAL
2862380912000,2.069874,7.07932084123536,11.3715173702072,-0.923668562819101,-2.3362541,0.6450737,0.04642576,259.29858,-78.79522,10.504536,WAL
2862386017000,2.074979,6.83949791716889,11.5379248339173,-1.0607101899089,-2.3130412,0.82772243,0.077579886,259.18765,-78.3068,10.844403,WAL
2862390959000,2.079921,6.45130960444276,11.6244597135941,-1.04901670804063,-2.278833,0.9935723,0.099571034,259.02673,-77.84766,11.160047,WAL
2862395983000,2.084945,5.73878211600532,11.5605150771787,-0.742995272172015,-2.2559254,1.1032226,0.10873401,258.828,-77.39061,11.468328,WAL
2862400979000,2.089941,5.12135910354651,11.4908556672965,-0.472935551636628,-2.2354615,1.1624765,0.10354166,258.58813,-76.98803,11.725988,WAL
2862406013000,2.094975,4.81304152994186,11.3997614861919,-0.318776808735465,-2.218357,1.1297953,0.07666359,258.34308,-76.59781,11.970124,WAL
2862411072000,2.100034,4.50319278046512,11.3082149104651,-0.163852478116279,-2.2073615,1.0476339,0.049785517,258.01578,-76.31259,12.081132,WAL
2862415941000,2.104903,4.23820469391966,11.1571347485726,-0.0280013417048983,-2.1890357,0.9645562,0.029932396,257.69962,-76.038086,12.1814165,WAL
2862421006000,2.109968,4.0001179837624,10.9287663137333,0.0983303926134428,-2.1804836,0.8542951,0.0018325958,257.41702,-75.775314,12.269712,WAL
2862425957000,2.114919,3.84967898708736,10.7440282004377,0.179335887094656,-2.1563544,0.74220127,-0.05100725,257.11255,-75.57739,12.276161,WAL
2862430935000,2.119897,3.78881565121284,10.600565018603,0.214114911522889,-2.1383338,0.6209445,-0.098043874,256.84476,-75.38526,12.277814,WAL
2862435936000,2.124898,3.74982561014231,10.4472093626979,0.246037945441972,-2.1163425,0.57543504,-0.12034045,256.57022,-75.21687,12.2375345,WAL
2862440958000,2.12992,3.76910590262578,10.2688659525957,0.270138321112447,-2.1007655,0.4801401,-0.12980886,256.34766,-75.056816,12.193833,WAL
2862446109000,2.135071,3.79605922111306,10.144241794929,0.282496706775634,-2.0751092,0.42363504,-0.1337795,256.1327,-74.89686,12.1388235,WAL
2862451137000,2.140099,3.83829129414766,10.1519204994419,0.26713960643757,-2.0503693,0.40317106,-0.14172074,255.93613,-74.74107,12.082696,WAL
2862457239000,2.146201,3.88477021415674,10.163228364464,0.256647662182687,-2.033876,0.4269948,-0.15088372,255.75903,-74.561676,12.040998,WAL
2862461160000,2.150122,3.80215363458008,10.2173566673242,0.44182274890069,-1.9825631,0.42088616,-0.16829337,255.5976,-74.39662,11.996948,WAL
2862465939000,2.154901,3.70145875220393,10.2833294190122,0.667518168289963,-1.9642372,0.3182608,-0.21013765,255.47809,-74.22068,11.955732,WAL
2862471000000,2.159962,3.59130101117464,10.3487565953276,0.870908940467244,-1.9391917,0.21319197,-0.23945917,255.3616,-74.05706,11.9138775,WAL
2862475981000,2.164943,3.46271341610848,10.3877224839079,0.867012351609214,-1.9168952,0.03940081,-0.2669481,255.29669,-73.905914,11.870296,WAL
2862480917000,2.169879,3.33528752386865,10.4263363417742,0.863150965822578,-1.8918496,-0.18051068,-0.30024028,255.24864,-73.76383,11.788251,WAL
2862485997000,2.174959,3.11991119376599,10.4101638723828,0.788935593822833,-1.8573358,-0.3717115,-0.3475823,255.24432,-73.635956,11.705034,WAL
2862491450000,2.180412,2.84779104661298,10.3656352581715,0.675139879014685,-1.8280143,-0.54000485,-0.398895,255.29796,-73.51952,11.625032,WAL
2862495995000,2.184957,2.631209257333,10.3062617434065,0.530605098693616,-1.7715092,-0.72387534,-0.4822781,255.39981,-73.46034,11.498812,WAL
2862501122000,2.190084,2.39319134690658,10.2255773132857,0.33696336366034,-1.724778,-0.8918633,-0.56596667,255.54742,-73.4132,11.372095,WAL
2862505947000,2.194909,2.1949919688826,10.1351806661952,0.154752800735502,-1.6719382,-0.9407325,-0.63224554,255.70491,-73.42788,11.190118,WAL
2862511030000,2.199992,2.1408934016569,9.95321255283896,-0.0370513438573449,-1.6300939,-0.86529064,-0.657291,255.87662,-73.45258,11.00717,WAL
2862515976000,2.204938,2.09412601683634,9.75154021143305,-0.189938745924041,-1.5769486,-0.7318166,-0.66737026,256.0666,-73.51036,10.796989,WAL
2862520971000,2.209933,2.07539603807753,9.42844937353171,-0.180573800549139,-1.5228871,-0.58246,-0.6658431,256.2309,-73.57294,10.586844,WAL
2862525984000,2.214946,2.06868027516545,9.10718257784744,-0.150900584970394,-1.4523321,-0.4184427,-0.66248333,256.38547,-73.63437,10.386438,WAL
2862530949000,2.219911,2.14320828012888,8.80907116327064,0.0147171284177987,-1.4031575,-0.34422258,-0.6554584,256.52298,-73.69624,10.192217,WAL
2862535944000,2.224906,2.21818660536398,8.50915847126437,0.181335553065134,-1.3478742,-0.2996294,-0.657291,256.6365,-73.745895,9.995765,WAL
2862540972000,2.229934,2.271538043654,8.30779485165724,0.335130164967664,-1.314582,-0.3643811,-0.6945538,256.7625,-73.80163,9.801549,WAL
2862545918000,2.23488,2.31940268876314,8.13069496503638,0.483510659767583,-1.244638,-0.44501534,-0.72295904,256.88077,-73.87198,9.615174,WAL
2862551015000,2.239977,2.42022367120795,7.89158257062758,0.495432531751918,-1.1691961,-0.49235737,-0.75869465,257.02084,-73.90056,9.438053,WAL
2862555945000,2.244907,2.52704187354909,7.650080948554,0.481499733925831,-1.1047498,-0.514654,-0.786489,257.17786,-73.94321,9.265668,WAL
2862560976000,2.249938,2.59052819564113,7.49789839652983,0.465579524566229,-1.0311406,-0.54183745,-0.8219192,257.35895,-73.96989,9.101219,WAL
2862565930000,2.254892,2.64273014776978,7.36940132230216,0.44951739028777,-0.97524637,-0.58062744,-0.84207773,257.54977,-74.00737,8.94192,WAL
2862571016000,2.259978,2.68294044682626,7.22705414115427,0.429521725578623,-0.93492925,-0.63224554,-0.84971356,257.777,-74.02602,8.813948,WAL
2862575995000,2.264957,2.70662316641502,7.07548422141651,0.405838946639515,-0.91996306,-0.6630942,-0.8561276,258.0093,-74.05411,8.687068,WAL
2862580957000,2.269919,2.70936464901316,6.9137510194079,0.403097457171053,-0.90133166,-0.6814202,-0.852157,258.27634,-74.063736,8.581765,WAL
2862586037000,2.274999,2.68511721958732,6.73431961629785,0.42734494736244,-0.88514376,-0.6979135,-0.8597928,258.55084,-74.07975,8.477509,WAL
2862590958000,2.27992,2.69014837804878,6.58814247398374,0.456728022276423,-0.8405506,-0.70157874,-0.8561276,258.85065,-74.07653,8.390733,WAL
2862596814000,2.285776,2.73958864322656,6.45630153739837,0.500674947601136,-0.7852673,-0.7131852,-0.8503244,259.15536,-74.08229,8.307454,WAL
2862601133000,2.290095,2.79345739112188,6.36038763683826,0.552484623353753,-0.7165449,-0.7287622,-0.8381071,259.47107,-74.078964,8.22755,WAL
2862606017000,2.294979,2.87471273624394,6.25347296052848,0.633739950613514,-0.634689,-0.7473936,-0.81489426,259.78738,-74.09158,8.156376,WAL
2862610981000,2.299943,2.94524411503536,6.14237963676963,0.702795767882397,-0.5390886,-0.77854776,-0.75625116,260.11917,-74.09306,8.112386,WAL
2862615946000,2.304908,2.97001833788612,6.02204740156308,0.720491641347227,-0.43585235,-0.79901177,-0.7275405,260.45123,-74.1194,8.069233,WAL
2862620941000,2.309903,2.99494225392631,5.90098808336435,0.738294438518794,-0.33169982,-0.8145888,-0.6939429,260.7914,-74.13185,8.0580225,WAL
2862625947000,2.314909,3.00933876195986,5.75743551766408,0.740326444530826,-0.21410827,-0.8038987,-0.65270954,261.12488,-74.169426,8.057527,WAL
2862630973000,2.319935,3.01368991854999,5.59208974984632,0.727272838455975,-0.09590584,-0.8051204,-0.6206391,261.46185,-74.230515,8.066194,WAL
2862635941000,2.324903,3.016694,5.43519020383355,0.70828708408978,-0.034513887,-0.79504114,-0.6020077,261.7978,-74.28191,8.084032,WAL
2862641018000,2.32998,3.016694,5.29032557971,0.674485326695799,0.06719518,-0.7733554,-0.56169057,262.12463,-74.36456,8.115974,WAL
2862645953000,2.334915,2.99698151402918,5.14838832210999,0.65544701043771,0.16157386,-0.7464773,-0.52595496,262.44897,-74.44747,8.152157,WAL
2862651115000,2.340077,2.92636676553413,4.99707051484542,0.670578764830119,0.25870144,-0.72295904,-0.49938235,262.76367,-74.55054,8.195386,WAL
2862655856000,2.344818,2.86323047617077,4.88095368025838,0.681444721316108,0.34147367,-0.68386364,-0.47036624,263.0701,-74.65743,8.24711,WAL
2862660845000,2.349807,2.80054133463868,4.80862022971336,0.686266951352442,0.43249258,-0.6356053,-0.4352415,263.3629,-74.782936,8.305076,WAL
2862665825000,2.354787,2.72757807659807,4.73523922765682,0.67731322020678,0.49663344,-0.5723807,-0.40683624,263.63614,-74.9076,8.358198,WAL
2862670854000,2.359816,2.63181944724128,4.6586323441694,0.63900979846108,0.569021,-0.5109888,-0.37568212,263.8918,-75.04718,8.418068,WAL
2862675839000,2.364801,2.53529866095819,4.60075573628917,0.602961198552243,0.63346726,-0.44532076,-0.35521814,264.1281,-75.18835,8.469247,WAL
2862680831000,2.369793,2.4351213598057,4.58254161669683,0.571086553454615,0.72387534,-0.36896262,-0.33078352,264.3401,-75.34328,8.524891,WAL
2862685850000,2.374812,2.32511580658113,4.58087277843543,0.546939336175497,0.80848014,-0.2929099,-0.31337386,264.53326,-75.51303,8.562193,WAL
2862690838000,2.3798,2.1817688209851,4.64018889350166,0.551882328559603,0.90408057,-0.22602014,-0.3023783,264.70502,-75.69856,8.599787,WAL
2862695834000,2.384796,2.04703935611917,4.71548331493526,0.559345759209425,1.0186177,-0.18142697,-0.2773328,264.8609,-75.90834,8.621338,WAL
2862701007000,2.389969,1.93127853527407,4.83606745085191,0.573815875665466,1.1429288,-0.15454891,-0.2574797,265.00183,-76.1349,8.641158,WAL
2862705905000,2.394867,1.8420121798672,4.94562090753482,0.621002463841188,1.2592987,-0.11026118,-0.23854288,265.12796,-76.38294,8.632945,WAL
2862710881000,2.399843,1.81564263815365,5.04230908947708,0.774824886875404,1.3793337,-0.07941248,-0.20097467,265.24844,-76.64458,8.634534,WAL
2862715926000,2.404888,1.79337317469366,5.13975749072989,0.928786988292488,1.5143349,-0.077579886,-0.1872302,265.36807,-76.94125,8.60079,WAL
2862720906000,2.409868,1.8272516786894,5.2286888290357,1.05583148882525,1.6340646,-0.09101892,-0.16554448,265.48236,-77.24192,8.5792,WAL
2862725885000,2.414847,1.86112337977269,5.31760230964305,1.18285047841414,1.7580702,-0.09407325,-0.12950343,265.58948,-77.53741,8.543649,WAL
2862730876000,2.419838,1.86016033623352,5.42574344708098,1.35667553361582,1.8729129,-0.070554934,-0.115453534,265.69434,-77.84478,8.508025,WAL
2862735896000,2.424858,1.85110656297552,5.53891561280603,1.5422779799435,1.9336939,-0.10781772,-0.09712757,265.81714,-78.14591,8.486839,WAL
2862740899000,2.429861,1.88176039283552,5.73754116347124,1.81666515105954,2.0299053,-0.1133155,-0.05497787,265.91055,-78.4428,8.470384,WAL
2862745871000,2.434833,1.92980872716448,5.97297795652876,2.12897924894046,2.1175644,-0.1301143,0.0027488936,266.01782,-78.72817,8.465628,WAL
2862751101000,2.440063,2.06091562455172,6.36511560137931,2.41298544827586,2.195755,-0.13988814,0.04153884,266.10947,-78.995766,8.4535,WAL
2862756061000,2.445023,2.21535223696552,6.79098633241379,2.66569989162562,2.240043,-0.15302174,0.1133155,266.20462,-79.238266,8.467636,WAL
2862760921000,2.449883,2.3225739704142,7.43046900295858,3.23197401005917,2.2971587,-0.14508049,0.17806722,266.26675,-79.44962,8.4813385,WAL
2862765922000,2.454884,2.41383647761508,8.18458604834019,3.95246774401765,2.3362541,-0.19486602,0.23579398,266.34766,-79.63632,8.5151,WAL
2862770922000,2.459884,2.50086027179751,9.10784130457565,4.7725135480116,2.3582454,-0.269697,0.2846632,266.40067,-79.78305,8.569662,WAL
2862775909000,2.464871,2.58577011813418,10.1044139488163,5.635018301179,2.3530529,-0.38362336,0.31031954,266.47845,-79.909874,8.634648,WAL
2862780899000,2.469861,2.61059106495543,11.3824102892714,6.60771673000307,2.2968533,-0.4914411,0.28160888,266.50964,-79.97197,8.685348,WAL
2862785980000,2.474942,2.58566037492571,12.9181421487857,7.68970925000512,2.1826215,-0.62858033,0.21197024,266.58276,-80.0247,8.733524,WAL
2862790917000,2.479879,2.41049727868167,14.3449763834139,8.53751360989216,2.017077,-0.7675522,0.16157386,266.60272,-80.007126,8.764817,WAL
2862795906000,2.484868,2.13509014620677,15.744221120119,9.26156797768687,1.8041905,-0.8912524,0.071776666,266.6645,-79.99867,8.768353,WAL
2862801068000,2.49003,1.59945301162048,16.8934809088287,9.69136444813022,1.5690074,-0.956615,-0.06872234,266.67767,-79.961716,8.702049,WAL
2862806036000,2.494998,0.805431446399506,17.6678977848975,9.75018102338519,1.287704,-0.9315695,-0.27916542,266.71585,-79.932335,8.59639,WAL
2862810901000,2.499863,0.192185777704549,18.1418352944864,9.5624440659058,0.98899084,-0.8029824,-0.52320606,266.72324,-79.9334,8.36704,WAL
2862815937000,2.504899,-0.284597866339817,18.3589070514387,9.13217570583507,0.6945538,-0.61453044,-0.7797695,266.73032,-79.93504,8.087977,WAL
2862821182000,2.510144,-0.745094659982448,18.5341569515138,8.67810692781922,0.4156938,-0.42730024,-1.0057896,266.73935,-80.026596,7.652883,WAL
2862825911000,2.514873,-0.720254441026766,18.0721290864414,8.19620647257569,0.1469131,-0.34330627,-1.1713341,266.74426,-80.075226,7.1879535,WAL
2862830932000,2.519894,-0.607868971301827,17.5105389256852,7.77255126853479,0.01282817,-0.18845193,-1.2165382,266.74692,-80.19737,6.6328583,WAL
2862836000000,2.524962,-0.143151561611033,16.6535830416374,7.70433582826774,-0.23243423,-0.03573562,-1.2657127,266.7371,-80.2227,6.059763,WAL
2862840942000,2.529904,0.310012100325018,15.8179326906184,7.63781635198524,-0.47128254,0.124311075,-1.2614367,266.69855,-80.2155,5.510972,WAL
2862845945000,2.534907,1.57464934383865,14.114001470491,8.00607280525707,-0.6985244,0.28955013,-1.2250903,266.61554,-80.10944,4.977828,WAL
2862851628000,2.54059,3.08620481501405,12.0985944323855,8.46493794523888,-0.89827734,0.3857614,-1.1417072,266.50375,-79.90233,4.4798117,WAL
2862856037000,2.544999,3.93912407757774,11.1520583175123,8.48403206464812,-1.0601566,0.38973203,-0.9810496,266.33362,-79.56846,4.088621,WAL
2862861000000,2.549962,4.65296172785212,10.5617690263791,8.246085910465,-1.180497,0.3203988,-0.7538077,266.14908,-79.158875,3.7537284,WAL
2862865993000,2.554955,5.25931512988526,10.2017452042847,7.90879387011474,-1.2370021,0.23304509,-0.49602258,265.85388,-78.53511,3.6697006,WAL
2862870998000,2.55996,5.72333865758336,10.1415941308713,7.44477034241664,-1.2318097,0.14355333,-0.22052236,265.57758,-77.88078,3.6577418,WAL
2862876027000,2.564989,6.17037263629414,10.1758166146614,6.93770380675738,-1.1914927,0.009773844,0.026572637,265.32855,-77.197235,3.7986388,WAL
2862880995000,2.569957,6.5413335988381,10.5576884171381,6.28670364898334,-1.1508701,-0.18661933,0.22357668,265.11932,-76.50724,4.0088553,WAL
2862886051000,2.575013,6.91886552851246,10.9463244544412,5.6241720874484,-1.106277,-0.3903429,0.3998113,264.9651,-75.85834,4.341855,WAL
2862891090000,2.580052,7.22333075580258,11.5119851871943,4.58996220184971,-1.0656544,-0.5213735,0.55833083,264.84058,-75.21171,4.7286,WAL
2862896206000,2.585168,7.48475357874611,12.2047550538017,3.29156339445087,-0.99265605,-0.56169057,0.6646214,264.74426,-74.581726,5.152101,WAL
2862901145000,2.590107,7.60177108097928,12.8089797033898,1.87840767228665,-0.86620694,-0.51007247,0.7257079,264.7005,-74.06833,5.6505103,WAL
2862906021000,2.594983,7.49531633898305,13.2995962118644,0.221419848617306,-0.6994407,-0.364992,0.7189884,264.64383,-73.58416,6.147632,WAL
2862911015000,2.599977,7.30538498995588,13.6061786542954,-1.27200607226404,-0.49235737,-0.089186326,0.6609562,264.6189,-73.3176,6.6448407,WAL
2862916009000,2.604971,6.94955101917986,13.5110139857254,-2.34778329620209,-0.30757064,0.20708331,0.57787853,264.5553,-73.08887,7.110924,WAL
2862921906000,2.610868,6.37937076385173,13.0762762164465,-3.33975362481466,-0.16462818,0.44715336,0.5015204,264.52573,-73.11051,7.51988,WAL
2862925971000,2.614933,5.4604503041585,11.6464752513847,-3.04782212519813,-0.10476339,0.5531385,0.41386122,264.4617,-73.15832,7.88224,WAL
2862931023000,2.619985,4.31841188783127,9.86951228078398,-2.68500836478909,-0.07727446,0.7171558,0.36957347,264.37817,-73.36934,8.170083,WAL
2862936150000,2.625112,3.46786377151639,8.54801144865872,-1.96470459953428,-0.01985312,0.81122905,0.28038713,264.29553,-73.605156,8.413784,WAL
2862941002000,2.629964,2.80133369405738,7.51359162257824,-1.12504995575633,0.070249505,0.8038987,0.20647246,264.19833,-73.844215,8.640617,WAL
2862946006000,2.634968,2.03289768271346,6.6669935373494,-0.390671507528549,0.15424347,0.73884153,0.16065755,264.05154,-74.07414,8.724962,WAL
2862951166000,2.640128,1.16312900172865,6.00431276626506,0.240946241952855,0.226631,0.6649268,0.16707164,263.9144,-74.32012,8.804612,WAL
2862956019000,2.644981,0.4985820731989,5.72367911571036,0.443538703776352,0.26542094,0.5870415,0.16310102,263.73218,-74.53176,8.774777,WAL
2862961011000,2.649973,-0.0929854381484876,5.64042134089826,0.417246809807516,0.2959642,0.56169057,0.14782938,263.5609,-74.75569,8.746029,WAL
2862965966000,2.654928,-0.546348301596071,5.64642986095764,0.332166454086556,0.35308012,0.5729916,0.12614368,263.34592,-75.05063,8.542903,WAL
2862970998000,2.65996,-0.822455078596276,5.7746223004911,0.164530205300798,0.4071417,0.6224717,0.11911872,263.13425,-75.34248,8.345785,WAL
2862975923000,2.664885,-0.95756536804498,5.8631747085178,-0.0668290471177617,0.45112398,0.7254025,0.12797627,262.9127,-75.67807,8.074461,WAL
2862981002000,2.669964,-0.936031536811581,5.91054917770498,-0.385529634246857,0.44868052,0.8542951,0.12980886,262.67682,-76.00614,7.804073,WAL
2862986070000,2.675032,-0.890104868952009,5.96643067931616,-0.717366242690126,0.45540005,0.9896017,0.1386664,262.42764,-76.36968,7.5078473,WAL
2862991524000,2.680486,-0.749954876822294,6.05852943874578,-1.12580338686216,0.46853364,1.1258247,0.17348573,262.14648,-76.71704,7.222523,WAL
2862995914000,2.684876,-0.637146210623275,6.13266100344986,-1.45456009073367,0.53023106,1.258077,0.226631,261.85645,-77.09585,6.9568186,WAL
2863001108000,2.69007,-0.444029370494071,6.37500236885555,-2.01319925035932,0.62949663,1.3716979,0.28955013,261.53802,-77.4676,6.707278,WAL
2863005956000,2.694918,-0.227152365909091,6.69614696260331,-2.63880595247934,0.7861836,1.4749341,0.3576616,261.18982,-77.846794,6.477321,WAL
2863012399000,2.701361,0.146056744108736,7.38245792241129,-3.39216094096286,0.9633345,1.5457945,0.45112398,260.85297,-78.2776,6.3020773,WAL
2863015936000,2.704898,0.395589305023864,7.89558102285744,-3.76470249372276,1.1429288,1.5103643,0.5195409,260.52567,-78.72502,6.147517,WAL
2863020952000,2.709914,0.697481803914025,8.62877111708706,-4.05226842512513,1.2907583,1.4544702,0.54153204,260.24762,-79.25703,6.040052,WAL
2863026095000,2.715057,0.939181280946118,9.38770761105113,-4.03293248149966,1.4114041,1.2690725,0.4981606,260.02966,-79.801506,5.9470677,WAL
2863030924000,2.719886,1.1692246443902,10.2038748136325,-3.6787130172566,1.4657712,1.0589349,0.46639562,259.87524,-80.36768,5.937769,WAL
2863035989000,2.724951,1.4151501056145,11.2149017890339,-2.80431131394235,1.4807373,0.8185594,0.3594942,259.79633,-80.939445,5.905487,WAL
2863040967000,2.729929,1.58427461295894,11.9573397345124,-2.01377797308925,1.5054774,0.6450737,0.25289822,259.77542,-81.49165,5.882739,WAL
2863046034000,2.734996,1.56419988109422,12.0476758182852,-1.39146081364153,1.4840971,0.5360342,0.1386664,259.81464,-82.018,5.8353095,WAL
2863051159000,2.740121,1.53323011756988,12.089472296563,-0.884110529142898,1.4538593,0.42332962,0.015577064,259.8689,-82.44353,5.761597,WAL
2863056012000,2.744974,1.48683344432402,12.0497039271249,-0.599102192780947,1.4321736,0.2932153,-0.10170906,259.9656,-82.85713,5.6645494,WAL
2863061173000,2.750135,1.43749216457501,12.007411622433,-0.296005546590131,1.4523321,0.19028452,-0.22143865,260.0439,-83.2261,5.538647,WAL
2863065993000,2.754955,1.43690792503523,11.9120000958196,-0.150399497839361,1.4892895,0.09101892,-0.33017266,260.1625,-83.59413,5.3908343,WAL
2863071011000,2.759973,1.4730235246031,11.7675373204321,-0.109769367009864,1.5522085,0.025961773,-0.43157628,260.30414,-83.97091,5.2186966,WAL
2863076004000,2.764966,1.59323010086273,11.6110151093498,-0.150492968938767,1.6056592,0.0061086523,-0.5039638,260.4268,-84.32176,5.0317583,WAL
2863080970000,2.769932,1.83007155308971,11.4375537777934,-0.30393952664656,1.6526959,-0.027794369,-0.5390886,260.57404,-84.67242,4.835328,WAL
2863085992000,2.774954,2.06958379092376,11.2621363780599,-0.459116452302728,1.6377298,-0.02687807,-0.4859433,260.69952,-84.9818,4.665339,WAL
2863091292000,2.780254,2.53177055719357,10.9710089676342,-0.554728903954897,1.5286902,0.10140363,-0.37873647,260.79932,-85.25351,4.5073338,WAL
2863096236000,2.785198,3.10025963366047,10.6299158108165,-0.599219349826686,1.4162911,0.34055737,-0.28771752,260.86804,-85.48631,4.365925,WAL
2863101186000,2.790148,3.8042586450398,10.2476689211804,-1.0686124909105,1.3570372,0.571159,-0.21135938,260.90665,-85.63015,4.2969966,WAL
2863105989000,2.794951,4.54543222401475,9.85922268297418,-1.70709323038633,1.2767084,0.73975784,-0.13500121,260.89615,-85.71515,4.2560697,WAL
2863110985000,2.799947,4.92360543137255,9.65022943137255,-2.1703672745098,1.1731668,0.83260936,-0.044898596,260.7938,-85.67724,4.3189497,WAL
2863115990000,2.804952,5.02385503616558,9.5792190583878,-2.49200187755991,1.0711522,0.8378017,0.04795292,260.67056,-94.405,4.403888,WAL
2863120988000,2.80995,5.10499586607591,9.53905778376629,-2.76936100551105,1.0430524,0.81153446,0.129198,260.52606,-94.64532,4.6192336,WAL
2863126014000,2.814976,5.14005287701708,9.57411450999433,-2.9407500459092,1.0393872,0.7079928,0.16401732,260.40295,-94.92174,4.846798,WAL
2863130949000,2.819911,5.17447515099134,9.60853650441046,-3.10903594212187,1.0809261,0.5742133,0.23640485,260.31274,-95.27817,5.1216874,WAL
2863136027000,2.824989,5.14528725298545,9.74227946211741,-3.08953167395886,1.1664472,0.44715336,0.29810223,260.25125,-95.66299,5.401196,WAL
2863140989000,2.829951,5.10236871656799,9.8948780166583,-3.02753844270948,1.2568552,0.33108896,0.36163223,260.22662,-96.08598,5.698549,WAL
2863145944000,2.834906,4.91197934418804,10.0372722536474,-2.79648958114809,1.3503176,0.22937989,0.43188173,260.2422,-96.56559,6.016495,WAL
2863151246000,2.840208,4.67472988514351,10.1873683497664,-2.51082189610947,1.42973,0.20311269,0.4886922,260.2712,-97.07651,6.3445945,WAL
2863155989000,2.844951,4.24571821799565,10.2357192318955,-2.21682800197863,1.4731015,0.25717425,0.54733527,260.3022,-97.60705,6.677823,WAL
2863161010000,2.849972,3.72243320429363,10.2595049030471,-1.89334267562327,1.4810427,0.37812558,0.5897904,260.3238,-98.15557,7.0187335,WAL
2863165940000,2.854902,3.08551885298321,10.2012456542637,-1.71985126759766,1.4541647,0.58032197,0.61636305,260.30017,-98.6591,7.3320684,WAL
2863170948000,2.85991,2.38682510978937,10.1077902496056,-1.6041440229099,1.3994923,0.84116143,0.59406644,260.22736,-99.152824,7.6423717,WAL
2863176748000,2.86571,1.54850561793889,9.93258485334024,-1.52351867871569,1.3570372,1.1429288,0.5299256,260.09192,-99.53077,7.8631096,WAL
2863180938000,2.8699,0.929251739326774,9.77465418425686,-1.49027012822372,1.3075571,1.4370605,0.45448375,259.88663,-99.88333,8.07614,WAL
2863185991000,2.874953,0.460380131573103,9.62788104110117,-1.44958866471314,1.2815952,1.6783522,0.3659083,259.6552,-100.06983,8.128612,WAL
2863190964000,2.879926,0.170249728069093,9.51036016964837,-1.40919078605799,1.2687671,1.8329011,0.27091873,259.36642,-100.228065,8.163316,WAL
2863196062000,2.885024,-0.102937792157577,9.38236477480758,-1.35583508305884,1.2760975,1.861001,0.19394971,259.05505,-100.297585,8.08533,WAL
2863201089000,2.890051,0.183933656337002,9.08354014127286,-1.02912037228172,1.2822062,1.7925841,0.15699236,258.73004,-100.35509,7.9983387,WAL
2863205936000,2.894898,0.460533200966647,8.79541541504593,-0.714104218882728,1.3011429,1.6777414,0.11911872,258.39935,-100.383736,7.8543606,WAL
2863212350000,2.901312,0.865846961336613,8.62804734235342,-0.428164559643296,1.3219124,1.5482379,0.10720685,258.09644,-100.41738,7.711422,WAL
2863216011000,2.904973,1.10734738558426,8.58779735670357,-0.298789313712177,1.3411547,1.4181237,0.13591751,257.83063,-100.46078,7.5724025,WAL
2863220972000,2.909934,1.41567084962678,8.52327578268565,-0.127787545338207,1.3304645,1.3426818,0.16462818,257.53717,-100.524734,7.4937205,WAL
2863225977000,2.914939,1.6332917544748,8.40893223439785,0.0234405189519046,1.3069462,1.217149,0.21044308,257.30038,-100.59946,7.4251413,WAL
2863231009000,2.919971,1.85208663823009,8.29397184778761,0.175484398973451,1.2437216,1.0867293,0.2678644,257.05273,-100.69872,7.4175267,WAL
2863236008000,2.92497,2.02671761477602,8.19657100841672,0.285897197441317,1.1792754,0.9465357,0.3295618,256.8487,-100.79915,7.419627,WAL
2863240985000,2.929947,2.16935676848405,8.11187915926307,0.366131715584027,1.0974194,0.84971356,0.39400807,256.67413,-100.890915,7.4355206,WAL
2863246795000,2.935757,2.22459826775897,8.0455050945294,0.365090254868014,1.0354166,0.75228053,0.47219884,256.4842,-101.03893,7.5385666,WAL
2863251187000,2.940149,2.18631198922265,8.01870473953213,0.296174913524486,0.93218035,0.72784597,0.49846604,256.30356,-101.15777,7.6409774,WAL
2863256004000,2.944966,2.08094173434579,8.03019709521028,0.185718459205607,0.915687,0.72295904,0.5323691,256.11456,-101.33108,7.802537,WAL
2863260940000,2.949902,1.7772137536215,8.16825535017523,-0.0351746189953271,0.88117313,0.7144069,0.5821546,255.93698,-101.48201,7.9704747,WAL
2863265912000,2.954874,1.47127057692757,8.3073205129965,-0.257678748820094,0.87598073,0.7440339,0.6026186,255.75801,-101.63937,8.126953,WAL
2863270966000,2.959928,1.20121746577281,8.43084685274745,-0.396935006940359,0.8744536,0.7528914,0.61361414,255.59073,-101.79283,8.288918,WAL
2863276034000,2.964996,0.973496289672471,8.53594897834521,-0.445106792785347,0.8866709,0.7189884,0.6151413,255.42932,-101.94464,8.448565,WAL
2863280975000,2.969937,0.766306022745172,8.63215491121055,-0.482607915038154,0.8894198,0.6545421,0.6239988,255.3364,-102.04671,8.5068445,WAL
2863286556000,2.975518,0.574970189110692,8.72278766980688,-0.497713360783797,0.90224797,0.5867361,0.61361414,255.25429,-102.14594,8.556815,WAL
2863291066000,2.980028,0.431268610605396,8.78983316721503,-0.506355172542224,0.91904676,0.50915617,0.6221663,255.18677,-102.250206,8.588589,WAL
2863295956000,2.984918,0.325123389592016,8.83434550325364,-0.499507102417197,0.94806284,0.46303585,0.6203337,255.12936,-102.352394,8.61251,WAL
2863301025000,2.989987,0.215092689118228,8.88048722746216,-0.492408356514587,0.95264435,0.4111123,0.61178154,255.08551,-102.45213,8.617694,WAL
2863305966000,2.994928,0.133583937102222,8.93786197518026,-0.455020696371217,0.94959,0.37293324,0.6209445,255.0521,-102.55677,8.6263485,WAL
2863310964000,2.999926,0.0866276604197283,9.0129920621965,-0.375195026721931,0.947452,0.32742378,0.627664,255.0354,-102.657906,8.629783,WAL
2863316522000,3.005484,0.0344101762658066,9.09654008613332,-0.286425304450876,0.95233893,0.28985557,0.63346726,255.00946,-102.76848,8.620856,WAL
2863320962000,3.009924,-0.0073036829719429,9.1632823002894,-0.21551174437828,0.947452,0.2855795,0.6377433,254.98743,-102.87514,8.613854,WAL
2863325946000,3.014908,-0.00536325235606536,9.26990650942803,-0.1045202254934,0.94714653,0.25534168,0.657291,254.96796,-103.007484,8.61982,WAL
2863330939000,3.019901,0.0923144586873821,9.43896435834381,0.0682941890383407,0.9578367,0.22143865,0.6713409,254.95111,-103.13763,8.625512,WAL
2863336890000,3.025852,0.208733456968888,9.64045910276556,0.274266266121936,0.97585726,0.21197024,0.6930266,254.90396,-103.25911,8.641315,WAL
2863340986000,3.029948,0.273202637206688,9.71003491755549,0.354949207264341,0.98899084,0.20311269,0.70707655,254.86687,-103.37953,8.657317,WAL
2863345938000,3.0349,0.350671059991352,9.79206006063227,0.450645500951283,0.9984592,0.18417588,0.72509706,254.83694,-103.504166,8.679378,WAL
2863351212000,3.040174,0.414646191186103,9.83521969753942,0.580134457026512,1.0005972,0.19303341,0.73426,254.75253,-103.62976,8.734659,WAL
2863355965000,3.044927,0.465914716828972,9.8588821592445,0.706333904129267,0.9993755,0.19822577,0.74067414,254.67603,-103.75485,8.791346,WAL
2863360946000,3.049908,0.53082006415009,9.86403326943942,0.849019438074141,0.9691377,0.18906279,0.7657196,254.57507,-103.88509,8.873225,WAL
2863365934000,3.054896,0.612402853079164,9.84003835362668,1.00738599769238,0.95264435,0.17256944,0.782213,254.47574,-104.01252,8.951695,WAL
2863370935000,3.059897,0.667942076040906,9.82937507615048,1.15490065759679,0.9315695,0.18203785,0.79320854,254.34196,-104.13317,9.056345,WAL
2863375968000,3.06493,0.685546179181885,9.8381768519905,1.28693152306428,0.87995136,0.19211712,0.8008443,254.2146,-104.24095,9.159963,WAL
2863380984000,3.069946,0.69608725197933,9.8459635703608,1.40776144797453,0.8338311,0.1881465,0.81061816,254.05806,-104.34824,9.294765,WAL
2863386593000,3.075555,0.681217009882809,9.85092042124204,1.50193969967703,0.77121735,0.14538592,0.83077675,253.91203,-104.43982,9.428004,WAL
2863391149000,3.080111,0.65837633498452,9.87484194561404,1.58167337614035,0.72509706,0.09254608,0.83169305,253.73996,-104.52182,9.5687275,WAL
2863395958000,3.08492,0.53480290123839,10.0839659508772,1.69574116877193,0.66920286,0.020463986,0.82772243,253.58765,-104.58796,9.70499,WAL
2863400975000,3.089937,0.383834813313447,10.3390764428637,1.7827716155117,0.57910025,-0.069027774,0.829555,253.43286,-104.64086,9.850036,WAL
2863405968000,3.09493,0.0729548454428637,10.862086509561,1.63647518789965,0.50793445,-0.16890424,0.820392,253.30191,-104.68117,9.981234,WAL
2863412346000,3.101308,-0.32415960179899,11.5301734723879,1.44959783654582,0.4615087,-0.21044308,0.81489426,253.15475,-104.68925,10.099507,WAL
2863415940000,3.104902,-0.39264908,11.645397,1.4173675,0.38056904,-0.22235495,0.8014552,253.02754,-104.67235,10.204838,WAL
2863420997000,3.109959,-0.39264908,11.645397,1.4173675,0.3368922,-0.2275473,0.7370089,252.90799,-104.64286,10.288264,WAL
2863425951000,3.114913,-0.534536608493852,11.623980142418,1.3049282988388,0.25350907,-0.20830505,0.6569856,252.78175,-104.56694,10.299712,WAL
2863430940000,3.119902,-0.750748239421107,11.5913446193648,1.13359073787568,0.20372356,-0.15760323,0.55680364,252.64328,-104.47419,10.288071,WAL
2863435940000,3.124902,-0.836551779614227,11.5443994128591,1.03004254331053,0.15515977,-0.13591751,0.45142943,252.49205,-104.36523,10.2615795,WAL
2863440962000,3.129924,-0.630400200183311,11.465447527223,1.07829079573187,0.12308934,-0.13347405,0.3631594,252.3274,-104.23552,10.213491,WAL
2863445950000,3.134912,-0.414086434460554,11.3934792187633,1.11269753651173,0.09773844,-0.121256754,0.28680122,252.15742,-104.105064,10.124402,WAL
2863451001000,3.139963,-0.108793353974414,11.3687260878465,1.0466882253049,0.029932396,-0.14721853,0.22449298,251.99258,-103.94745,10.015413,WAL
2863455947000,3.144909,0.190153305317697,11.3444875240938,0.982051113202559,-0.06688975,-0.16737708,0.16249016,251.80276,-103.79588,9.927464,WAL
2863461043000,3.150005,0.509648250565476,11.3891545992063,0.910765738349868,-0.16218472,-0.17379116,0.11789699,251.61357,-103.62483,9.828088,WAL
2863466210000,3.155172,0.836919148921131,11.4546083918651,0.837129781627811,-0.23518312,-0.15393804,0.086437434,251.41943,-103.432755,9.717479,WAL
2863470972000,3.159934,1.12661970400755,11.5084131699133,0.812596953774994,-0.3032946,-0.13408493,0.09407325,251.23734,-103.26511,9.65382,WAL
2863475973000,3.164935,1.41020841933408,11.5536230167339,0.861916731659658,-0.37293324,-0.15790866,0.09315695,251.06018,-103.07883,9.578737,WAL
2863481217000,3.170179,1.70393882571237,11.6284225253101,0.921348702889708,-0.44837508,-0.21013765,0.0720821,250.89697,-102.919975,9.550846,WAL
2863485987000,3.174949,1.92981887365069,12.007441640295,1.06300228793832,-0.5360342,-0.2846632,0.06811147,250.74884,-102.753716,9.524903,WAL
2863490972000,3.179934,2.16588009775394,12.4035444260811,1.21104067818304,-0.61941737,-0.34055737,0.062308256,250.60779,-102.59691,9.536457,WAL
2863495973000,3.184935,2.17386672953979,12.7347681623193,1.24880193658415,-0.70829827,-0.38331795,0.07574729,250.48712,-102.43337,9.548571,WAL
2863501853000,3.190815,2.03353206464529,13.0809271521847,1.22073502314338,-0.8136725,-0.40622538,0.062308256,250.37738,-102.252495,9.548991,WAL
2863505981000,3.194943,1.86237693611898,13.2692019645892,1.14592737053824,-0.9462303,-0.39706242,0.076358154,250.25723,-102.061356,9.584668,WAL
2863510956000,3.199918,1.43818369198705,13.3318666297046,0.890447329057062,-1.1386528,-0.37904188,0.10751228,250.14478,-101.85649,9.619594,WAL
2863515959000,3.204921,0.999653783669626,13.3297107454265,0.601874404847549,-1.2608259,-0.2932153,0.11178834,249.99796,-101.64535,9.638218,WAL
2863520999000,3.209961,0.522757631512157,13.1359716670783,0.218122035569278,-1.5021176,-0.20341812,0.105374254,249.84854,-101.407104,9.661575,WAL
2863525925000,3.214887,0.0566484161296796,12.946614782169,-0.156950220594365,-1.7965547,-0.11453723,0.05375614,249.67044,-101.14879,9.633238,WAL
2863530933000,3.219895,-0.302805945051677,12.5173622815956,-0.559170920145059,-2.042428,-0.08735373,-0.0842994,249.48236,-100.85888,9.57787,WAL
2863536120000,3.225082,-0.613555503432457,11.945403124932,-0.987014572266546,-2.2299635,-0.13408493,-0.3118467,249.28745,-100.52444,9.481441,WAL
2863540968000,3.22993,-0.520548388849432,11.4309937173295,-1.27896624105114,-2.278833,-0.22418754,-0.6020077,249.09647,-100.14726,9.277448,WAL
2863545993000,3.234955,0.0157925318509616,10.9209435889423,-1.45774648389423,-2.2317963,-0.3313944,-0.88178396,248.91609,-99.72182,9.013674,WAL
2863551023000,3.239985,1.07248386440636,10.4794725609349,-1.35396932222331,-2.1288655,-0.40591997,-1.1114693,248.81519,-99.240005,8.660581,WAL
2863555986000,3.244948,2.40740402351959,10.0827308380634,-1.09258639388196,-2.0497584,-0.43371433,-1.2443326,248.7222,-98.7301,8.262806,WAL
2863560985000,3.249947,3.87639157527033,9.83024171198872,-0.621089465513869,-2.0234911,-0.45234573,-1.2730432,248.66864,-98.29415,7.9149094,WAL
2863565938000,3.2549,5.41515082026328,9.67859608124119,-0.0145061414743771,-2.091908,-0.48472157,-1.2189816,248.61981,-97.86019,7.561719,WAL
2863571788000,3.26075,7.00336321977469,9.76593497907866,0.613489742619191,-2.2137756,-0.5317582,-1.074512,248.63297,-97.61551,7.406129,WAL
2863575970000,3.264932,7.99837425598471,9.9915240557232,1.00827150167773,-2.362216,-0.61208695,-0.9370673,248.66434,-97.40042,7.2691607,WAL
2863580972000,3.269934,8.80344136996079,10.3442237355987,1.20617895447874,-2.5149322,-0.6450737,-0.81092364,248.8345,-97.38018,7.3366346,WAL
2863586002000,3.274964,9.19086565366442,10.7897617882779,1.10448016217955,-2.624277,-0.600786,-0.70463306,249.01205,-97.44529,7.4426847,WAL
2863590945000,3.279907,9.42673561285126,11.2247976121353,0.908322538118847,-2.6847527,-0.49480084,-0.59650993,249.23471,-82.26075,7.723316,WAL
2863595948000,3.28491,9.51249313996778,11.6621611795239,0.608170951433685,-2.680782,-0.3491095,-0.47800204,249.43793,-81.87358,8.038551,WAL
2863600990000,3.289952,9.59270164779672,12.1146697516886,0.24664357778707,-2.653904,-0.15118915,-0.32742378,249.62082,-81.358894,8.436144,WAL
2863606006000,3.294968,9.65450595271792,12.5988022187198,-0.283841902817626,-2.5751023,0.06841691,-0.19058995,249.75507,-80.78863,8.857686,WAL
2863610913000,3.299875,9.60780611866927,12.9424141128148,-0.766148987919338,-2.4608707,0.19425514,-0.12156218,249.87012,-80.191635,9.304911,WAL
2863616043000,3.305005,9.37953232162438,13.0839436667596,-1.20899949631075,-2.410169,0.4615087,0.005192355,249.87527,-79.54033,9.791718,WAL
2863620951000,3.309913,8.89701464609552,13.1269400052191,-1.53777292006893,-2.3218987,0.71868294,0.11575896,249.86046,-78.91913,10.282178,WAL
2863625973000,3.314935,7.53302841797144,12.8664567035943,-1.56145326967011,-2.2611177,0.9147707,0.20311269,249.77936,-78.28487,10.782325,WAL
2863630996000,3.319958,6.30962285451957,12.6055115266904,-1.52115815843416,-2.24157,1.031446,0.2660318,249.64108,-77.70043,11.259888,WAL
2863635997000,3.324959,5.62028821800712,12.3441702218268,-1.2408792194306,-2.2250767,1.0598512,0.27763826,249.46738,-77.128456,11.728093,WAL
2863641681000,3.330643,4.83680929900356,12.0471368331356,-0.922321833048636,-2.2336287,1.0051788,0.26389378,249.1797,-76.735466,12.019379,WAL
2863645972000,3.334934,4.23698098947368,11.8273564736842,-0.656767314736842,-2.268448,0.89919364,0.21746802,248.90051,-76.357315,12.293346,WAL
2863650986000,3.339948,3.5334681748227,11.5719409929078,-0.338618220319149,-2.2974641,0.77457714,0.15485434,248.64471,-75.996735,12.549564,WAL
2863656024000,3.344986,2.89848960798072,11.3282902404928,-0.00457552119442958,-2.3331997,0.65393126,0.090713486,248.33167,-75.74652,12.670874,WAL
2863661022000,3.349984,2.32934108639529,11.0975539698982,0.338964597485806,-2.357329,0.5369505,0.029932396,248.05798,-75.514015,12.772439,WAL
2863665950000,3.354912,2.02544379246377,10.8892175400966,0.558730340077295,-2.3991733,0.39950588,-0.0033597588,247.74564,-75.36358,12.764644,WAL
2863670970000,3.359932,1.84386715162055,10.6865277096179,0.723416072057971,-2.4242187,0.2602286,-0.047036625,247.47319,-75.22857,12.7386265,WAL
2863676020000,3.364982,1.85728995788355,10.4474538172546,0.791110161895453,-2.4141395,0.13683382,-0.06291912,247.22116,-75.096375,12.656129,WAL
2863680940000,3.369902,2.16266508453039,10.1621032265193,0.711011777790055,-2.3808472,0.067500606,-0.06872234,246.99551,-74.96708,12.567932,WAL
2863686009000,3.374971,2.42750909984902,9.95646014652392,0.677140924239929,-2.3273966,0.051923547,-0.082161374,246.78531,-74.831985,12.456341,WAL
2863691019000,3.379981,2.64154299772836,9.83791834088258,0.690312228337108,-2.266921,0.0580322,-0.10629055,246.58919,-74.70196,12.343467,WAL
2863696122000,3.385084,2.85954997993961,9.71717605860957,0.703728029695971,-2.2201898,0.08582657,-0.13439035,246.43652,-74.52415,12.280752,WAL
2863701047000,3.390009,3.22797918088152,9.91386218779431,0.823843498078734,-2.1908681,0.15057829,-0.15088372,246.27159,-74.35513,12.212769,WAL
2863705968000,3.39493,3.69401646555849,10.3044458230364,1.01025842121869,-2.1820107,0.18967366,-0.1554652,246.10669,-74.19306,12.140731,WAL
2863710970000,3.399932,4.00077955732103,10.5969339204557,1.06900695090347,-2.1591032,0.21624629,-0.17470746,245.96988,-73.98731,12.107948,WAL
2863715995000,3.404957,4.11892632300894,10.7717908928607,0.979215559982324,-2.1508565,0.17104226,-0.19883664,245.84285,-73.784225,12.073624,WAL
2863720969000,3.409931,4.11911756517961,10.8416981865585,0.789061917315566,-2.111761,0.06414085,-0.20463985,245.78146,-73.51152,12.0999,WAL
2863725990000,3.414952,3.96589124855156,10.7766928180765,0.464036781541136,-2.0576997,-0.11942416,-0.20005837,245.75449,-73.25122,12.127495,WAL
2863730931000,3.419893,3.75712192957575,10.6667337412758,0.0812425704181504,-1.994475,-0.37965274,-0.22815818,245.80566,-73.00461,12.169042,WAL
2863735993000,3.424955,3.43653412398006,10.4694496429952,-0.42676565385085,-1.9080375,-0.7058548,-0.30451632,245.92912,-72.78894,12.211074,WAL
2863741042000,3.430004,3.19000417502484,10.2219175651699,-0.864296791714683,-1.8301523,-1.0464121,-0.4156938,246.1571,-72.62194,12.246473,WAL
2863745944000,3.434906,3.05475484909597,9.90944452781641,-1.19076064158554,-1.7489072,-1.1695015,-0.48655418,246.41618,-72.48611,12.277434,WAL
2863751023000,3.439985,2.93926825503092,9.51332176126436,-1.40006005665063,-1.7391334,-1.0821478,-0.5225952,246.74408,-72.40462,12.278792,WAL
2863755962000,3.444924,2.86497768557966,9.01650403259056,-1.40470321118092,-1.7550159,-0.9034697,-0.52748215,247.08157,-72.34541,12.272092,WAL
2863760910000,3.449872,2.84954283218057,8.57655986786787,-1.32134227463916,-1.7308867,-0.70738196,-0.5384777,247.42409,-72.305435,12.2585125,WAL
2863766039000,3.455001,2.95422446514579,8.23872357357357,-1.05488016654073,-1.6542231,-0.5500842,-0.5626069,247.72668,-72.279076,12.232899,WAL
2863770925000,3.459887,3.05668342043091,7.96363253999063,-0.810664343895082,-1.5479325,-0.45265114,-0.5766568,248.00497,-72.22982,12.212865,WAL
2863776001000,3.464963,3.17052851903513,7.80424965871663,-0.582974089626229,-1.452943,-0.43371433,-0.5842926,248.26146,-72.200096,12.185065,WAL
2863781220000,3.470182,3.2747139084064,7.64771323368997,-0.383626188866543,-1.3610078,-0.48441613,-0.5900958,248.51996,-72.12995,12.178834,WAL
2863786007000,3.474969,3.31896868560051,7.53338845999517,-0.33937149639128,-1.2819008,-0.61483586,-0.6114761,248.79648,-72.084854,12.171533,WAL
2863790961000,3.479923,3.36476734158957,7.41507533509774,-0.293572928076583,-1.2012665,-0.73792523,-0.6252206,249.0971,-71.99777,12.199602,WAL
2863796082000,3.485044,3.37562845795906,7.28192871814849,-0.287696289286587,-1.1264355,-0.8530733,-0.6432411,249.43259,-71.93586,12.228647,WAL
2863800971000,3.489933,3.36847584946532,7.1496053116407,-0.302001513742744,-1.0797043,-0.93187493,-0.6533204,249.7914,-71.89048,12.261732,WAL
2863806260000,3.495222,3.3591671539664,7.00375399212545,-0.317409908577532,-1.0512991,-0.9957104,-0.6542367,250.19296,-71.832184,12.309443,WAL
2863810963000,3.499925,3.33730110367026,6.85069177704631,-0.330529547888144,-1.0235047,-1.0143417,-0.6536258,250.60226,-71.78996,12.356367,WAL
2863816277000,3.505239,3.31106489455856,6.6707204031721,-0.345267120389266,-0.9981538,-1.0473285,-0.6407976,251.0552,-71.72663,12.4168,WAL
2863821036000,3.509998,3.25444394908067,6.35741813775054,-0.356591293718735,-0.9654725,-1.069625,-0.63224554,251.5079,-71.67645,12.476007,WAL
2863826014000,3.514976,3.19521741691237,6.02969830642703,-0.368436583660759,-0.91324353,-1.073901,-0.61453044,251.97925,-71.610664,12.54915,WAL
2863830937000,3.519899,3.17809124644237,5.79444012319577,-0.365327236302094,-0.84574294,-1.0534371,-0.59437186,252.44629,-71.557976,12.624128,WAL
2863836018000,3.52498,3.1929295947347,5.62132666232974,-0.350488929327099,-0.77579886,-1.0476339,-0.56138515,252.91397,-71.51559,12.70748,WAL
2863840963000,3.529925,3.20761392670567,5.44702281715599,-0.323857365211577,-0.6954701,-1.0228939,-0.54153204,253.3804,-71.4674,12.786497,WAL
2863845963000,3.534925,3.22262301666493,5.26691363316268,-0.288836134410198,-0.6084218,-0.9804387,-0.5015204,253.83414,-71.42862,12.877653,WAL
2863850982000,3.539944,3.21147662575963,5.09843198065609,-0.233186998906522,-0.5155703,-0.9392053,-0.47311515,254.28879,-71.38851,12.975251,WAL
2863855965000,3.544927,3.18838721488291,4.93680595986065,-0.168536600232243,-0.39064834,-0.8732319,-0.43157628,254.7185,-71.36524,13.081704,WAL
2863860988000,3.54995,3.16085499243999,4.78936072561806,-0.1276707395378,-0.2648101,-0.7996226,-0.4025602,255.13931,-71.33918,13.191113,WAL
2863865942000,3.554904,3.13110720756001,4.65337067438194,-0.1021726204622,-0.13041973,-0.7199047,-0.3753767,255.53485,-71.33389,13.305097,WAL
2863870967000,3.559929,3.09761271066021,4.52358806765597,-0.0546359429315566,0.00580322,-0.63224554,-0.35002577,255.90181,-71.33043,13.421163,WAL
2863876013000,3.564975,3.05858613367656,4.4065086932768,0.0282953747389461,0.15210545,-0.552833,-0.33505958,256.24527,-71.35251,13.535331,WAL
2863880973000,3.569935,3.0045290746838,4.31088978496408,0.100103453850248,0.28710666,-0.48563787,-0.3100141,256.56232,-71.38043,13.650432,WAL
2863886621000,3.575583,2.91696095795811,4.23426763282404,0.165779627688961,0.42363504,-0.42363504,-0.301462,256.8564,-71.43587,13.758481,WAL
2863890921000,3.579883,2.85812340789846,4.21740830242522,0.227337319303576,0.55955255,-0.355829,-0.29810223,257.12073,-71.49474,13.864624,WAL
2863897009000,3.585971,2.78659862865905,4.25592155228838,0.33187335790318,0.66859204,-0.3145956,-0.3042109,257.3731,-71.57155,13.9663925,WAL
2863901047000,3.590009,2.73399001575763,4.28332112637331,0.405166480115133,0.7684685,-0.28191432,-0.29626966,257.6008,-71.656876,14.059095,WAL
2863905968000,3.59493,2.66041806485511,4.32010705381013,0.501729732894917,0.8570439,-0.23365596,-0.30024028,257.8115,-71.7598,14.141567,WAL
2863910927000,3.599889,2.57616375090353,4.35560470241868,0.596706671198221,0.904386,-0.18784106,-0.30695978,258.00598,-71.86246,14.206948,WAL
2863915938000,3.6049,2.4605374451024,4.38673489560745,0.685649994069132,0.9776898,-0.15149458,-0.30909783,258.18762,-71.98049,14.2686,WAL
2863920992000,3.609954,2.34512099074614,4.414908,0.774017522313464,1.0479393,-0.109650314,-0.31520647,258.34784,-72.098564,14.305672,WAL
2863925956000,3.614918,2.24207629645686,4.414908,0.849319415885786,1.1398746,-0.062002823,-0.33292156,258.49512,-72.23127,14.335305,WAL
2863931004000,3.619966,2.13728789662359,4.414908,0.925895555844102,1.2250903,-0.0018325958,-0.34330627,258.62402,-72.36576,14.336118,WAL
2863935981000,3.624943,2.08029036026362,4.48290409067663,1.01610004872144,1.3243558,0.06658431,-0.33628133,258.73557,-72.51299,14.3334675,WAL
2863940987000,3.629949,2.0423752329877,4.57979803600176,1.11299414800967,1.4309518,0.13988814,-0.31887165,258.82724,-72.66961,14.327283,WAL
2863945928000,3.63489,2.0049562541609,4.66864301713777,1.22349533099427,1.564426,0.19975294,-0.29840767,258.89978,-72.83975,14.292791,WAL
2863950962000,3.639924,1.96683835639454,4.74964374890294,1.35690802292943,1.6823229,0.26236662,-0.2782491,258.94885,-73.01383,14.260119,WAL
2863955962000,3.644924,1.9325405907745,4.83648426374257,1.50967859141908,1.8115209,0.30390546,-0.25350907,258.98642,-73.18544,14.221441,WAL
2863960953000,3.649915,1.90365678053178,4.932763463662,1.69260922206667,1.9315559,0.33628133,-0.22296582,259.0068,-73.36025,14.188567,WAL
2863966782000,3.655744,1.9047626069421,5.09830640641746,1.84965428676223,2.0295997,0.3594942,-0.17501289,259.0072,-73.53496,14.14496,WAL
2863971239000,3.660201,1.93275464637437,5.26625843423271,1.9256326079258,2.1206186,0.4007276,-0.11759156,258.99103,-73.70818,14.112028,WAL
2863975923000,3.664885,1.98747595083044,5.60835945948243,2.16395698551564,2.2043073,0.3912592,-0.055588737,258.96466,-73.85863,14.089624,WAL
2863980947000,3.669909,2.11291770162225,6.41211582317497,2.83762561123986,2.2583687,0.3744604,0.023823744,258.92493,-73.99121,14.087786,WAL
2863985985000,3.674947,2.23452870413465,7.17853310413465,3.45720973362605,2.2773056,0.3549127,0.09132435,258.87317,-74.108345,14.10039,WAL
2863991005000,3.679967,2.34007327654592,7.79421007654592,3.86531552872302,2.2892175,0.29626966,0.16707164,258.8338,-74.201645,14.1393175,WAL
2863995956000,3.684918,2.44416713670692,8.40142455670691,4.26781190153677,2.278833,0.1994475,0.23182335,258.73013,-74.2526,14.170885,WAL
2864001054000,3.690016,2.60077056945154,9.27156280267593,4.90853260309468,2.2470677,0.13713925,0.2864958,258.6303,-74.28239,14.2207985,WAL
2864005948000,3.69491,2.80182194765601,10.3581972516597,5.75582046127055,2.2146919,0.0067195175,0.3023783,258.57675,-74.30154,14.28196,WAL
2864012363000,3.701325,3.00151490740095,11.9660190440763,6.94912058225322,2.1297817,-0.23884831,0.3173445,258.5029,-74.284,14.3475895,WAL
2864015946000,3.704908,3.09126303540637,12.9266562959411,7.64383745227163,1.9257526,-0.32650748,0.30909783,258.42142,-74.252106,14.4081,WAL
2864020950000,3.709912,3.10563019346147,14.2862186483889,8.53120780535142,1.8283197,-0.48502702,0.2959642,258.32788,-74.19898,14.46376,WAL
2864025956000,3.714918,2.98367612875448,15.6683642119842,9.31713376954965,1.6081028,-0.6209445,0.25289822,258.25894,-74.12375,14.509431,WAL
2864030937000,3.719899,2.78645330782949,16.7875637452815,9.85983693586052,1.3402383,-0.7180721,0.14385876,258.1304,-74.045975,14.498055,WAL
2864036559000,3.725521,2.38600581037268,17.4506706421145,9.91150771992962,1.0384709,-0.73731434,-0.03970624,258.03598,-73.974396,14.457151,WAL
2864040928000,3.72989,2.07480781741843,17.9659879726488,9.95166240786948,0.75900006,-0.6160576,-0.27122417,257.87747,-73.93849,14.315664,WAL
2864045941000,3.734903,1.65258944217004,18.1087818879,9.54531697633024,0.4804455,-0.376293,-0.49968776,257.71835,-73.90858,14.128474,WAL
2864051072000,3.740034,1.20595955053967,18.1553058045825,9.02890091819731,0.24190263,-0.1160644,-0.7305948,257.5475,-73.89917,13.879975,WAL
2864055968000,3.74493,0.950438714871091,16.9222642378198,8.53683052063523,0.027794369,0.0580322,-0.9465357,257.3682,-73.961754,13.5145445,WAL
2864060957000,3.749919,0.753722215008333,15.1892858629546,8.03567199676502,-0.15302174,0.1600467,-1.105666,257.15985,-74.01445,13.110582,WAL
2864065930000,3.754892,1.11849694357516,14.0655396099239,8.03373227827204,-0.29016098,0.20311269,-1.2302825,257.00162,-74.14666,12.613395,WAL
2864070958000,3.75992,1.76329374163074,13.2264206881592,8.27663545171054,-0.44929138,0.18875736,-1.2983941,256.84412,-74.23588,12.108246,WAL
2864075978000,3.76494,2.51583802367331,12.4537184649832,8.42708605839416,-0.61086524,0.13775012,-1.3054191,256.69702,-74.291176,11.615088,WAL
2864080938000,3.7699,3.36858756480568,11.7555884353916,8.48331145985401,-0.80481493,0.038179077,-1.2327261,256.56866,-74.2749,11.146896,WAL
2864086033000,3.774995,4.08735234806811,11.1551222664421,8.26793495172607,-0.97219205,-0.04795292,-1.0461067,256.37866,-74.090675,10.8129,WAL
2864090975000,3.779937,4.61425854937787,10.6990605991206,7.76316714426045,-1.1078042,-0.09590584,-0.8029824,256.2019,-73.82934,10.529194,WAL
2864095931000,3.784893,5.01548672077449,10.3668636891116,7.26409107453303,-1.1713341,-0.08032878,-0.5421429,255.99326,-73.43233,10.39397,WAL
2864101073000,3.790035,5.15906822747153,10.2905854573121,6.76155626961276,-1.1917981,0.033292156,-0.40744713,255.77283,-72.9904,10.289469,WAL
2864106031000,3.794993,5.31788491675407,10.2864172540687,6.2384212334991,-1.1917981,0.16554448,-0.14996742,255.55374,-72.47644,10.350834,WAL
2864110991000,3.799953,5.59275470771248,10.6772482124774,5.49541345773056,-1.1921035,0.21044308,0.07452556,255.32794,-71.94606,10.436813,WAL
2864115909000,3.804871,5.86529697221519,11.0647697151899,4.75869728006329,-1.1954633,0.19028452,0.2828306,255.10709,-71.41961,10.602637,WAL
2864120972000,3.809934,6.2283183591025,11.8037703823559,3.38345029957165,-1.1658363,0.17256944,0.4886922,254.86127,-70.87375,10.8218155,WAL
2864126347000,3.815309,6.60957145092077,12.60610055803,1.86559317456103,-1.0720685,0.19700404,0.6640105,254.59956,-70.323975,11.082195,WAL
2864130945000,3.819907,6.64728824432548,12.9078337237687,0.673747859100643,-0.90285885,0.258396,0.77732605,254.39209,-69.87106,11.396874,WAL
2864135967000,3.824929,6.68848305434689,13.2373909134904,-0.628002287537473,-0.66828656,0.39828414,0.81183994,254.26744,-69.593636,11.747781,WAL
2864140967000,3.829929,6.67966838013836,13.431935702326,-1.66814364730299,-0.41874814,0.5876524,0.7855727,254.1133,-69.35574,12.093737,WAL
2864145943000,3.834905,6.64144562577702,13.5466037159615,-2.55204438666533,-0.17837265,0.7816021,0.74372846,253.92255,-69.16974,12.423116,WAL
2864151693000,3.840655,6.30909587313787,13.0912032641617,-2.98510324610494,-0.0009162979,0.96852684,0.6377433,253.81384,-69.18421,12.71212,WAL
2864156024000,3.844986,5.9548930989183,12.5362854133219,-3.09923522601765,0.11026118,1.1029172,0.48533243,253.67636,-69.2457,12.958232,WAL
2864160992000,3.849954,5.31847792997238,11.5755890735497,-2.78366625216678,0.19181168,1.1172725,0.32834008,253.59795,-69.42876,13.164493,WAL
2864165997000,3.854959,4.47437292790055,10.321845214779,-2.07196989905041,0.2687807,0.9837985,0.18325958,253.53429,-69.646805,13.329016,WAL
2864170935000,3.859897,3.61288623805038,9.09521123264387,-1.32137176662707,0.3417791,0.7788532,0.089491755,253.48547,-69.90394,13.4401045,WAL
2864175980000,3.864942,2.61848589773705,7.88313112717592,-0.361602391263568,0.41874814,0.5503896,0.043676864,253.4887,-70.183136,13.534926,WAL
2864180946000,3.869908,1.5809427534555,6.9180982812803,0.333918042746323,0.48624873,0.37140608,0.027183503,253.44995,-70.44172,13.532671,WAL
2864185987000,3.874949,0.351115182241762,6.62452653900896,0.290279005910099,0.56016344,0.27550024,0.0143553335,253.45969,-70.71689,13.5302925,WAL
2864190995000,3.879957,-0.870661543931301,6.33287661135673,0.246925644181116,0.61544675,0.25686884,0.027488936,253.41116,-70.96093,13.433474,WAL
2864195968000,3.88493,-1.33989516875152,6.37147224412169,-0.336463672243709,0.68569624,0.27580565,0.050396383,253.38351,-71.21588,13.343305,WAL
2864201106000,3.890068,-1.66238534104701,6.48295025651752,-1.05708988579173,0.72295904,0.40286562,0.060170226,253.33423,-71.46753,13.250557,WAL
2864205970000,3.894932,-1.88332011988062,6.55561960274181,-1.74478873621004,0.8142834,0.6392705,0.069027774,253.22794,-71.81832,13.024636,WAL
2864210963000,3.899925,-1.95588739378794,6.57013299690409,-2.46078589601376,0.90102625,0.94134337,0.08399397,253.06845,-72.16509,12.795892,WAL
2864215989000,3.904951,-1.8235559007399,6.64088028810472,-3.11330707655094,0.96852684,1.2067643,0.10293079,252.92581,-72.63351,12.510554,WAL
2864221665000,3.910627,-1.28729832908367,6.82650804780876,-3.72175311673307,1.03786,1.3946054,0.15088372,252.72195,-73.09665,12.23358,WAL
2864225945000,3.914907,-0.854236218448441,7.00315732009866,-4.13240731226925,1.1297953,1.4929546,0.23365596,252.53276,-73.619255,11.963154,WAL
2864230973000,3.919935,-0.268042377738702,7.30966396806174,-4.48488991542011,1.2660183,1.4905112,0.35063666,252.32162,-74.12909,11.721471,WAL
2864237710000,3.926672,0.521462733295919,7.74158085303909,-4.92879157677162,1.4217888,1.3542882,0.54183745,252.16992,-74.6225,11.593324,WAL
2864240977000,3.929939,0.929184355048987,8.08085288309712,-4.97045656346428,1.6203201,1.2614367,0.57787853,252.01898,-75.133026,11.459665,WAL
2864245970000,3.934932,1.55231078829449,8.59936688557024,-5.03413372249596,1.6765196,1.0913107,0.6398814,251.96164,-75.54984,11.495144,WAL
2864251105000,3.940067,2.08877663356822,9.16505492616422,-4.65691695065359,1.7366899,0.91904676,0.6792821,251.94104,-75.96235,11.539573,WAL
2864256107000,3.945069,2.55841575193015,9.73253519761029,-4.06497602058823,1.713477,0.6747007,0.68600166,251.99911,-76.3245,11.6017275,WAL
2864260849000,3.949811,2.80222565197549,10.1454388099514,-3.2342705839214,1.6145169,0.35246924,0.6469063,252.14517,-76.604614,11.734034,WAL
2864265830000,3.954792,2.96852275134164,10.523387050074,-2.241527185337,1.4819591,-0.041233405,0.5354234,252.39154,-76.84945,11.853091,WAL
2864270885000,3.959847,2.83723901529028,10.8216032681238,-1.41286266373949,1.3720033,-0.4914411,0.3707952,252.7237,-77.00232,11.982611,WAL
2864275922000,3.964884,2.6177784048561,11.0935434803679,-0.639979988555039,1.2770138,-0.9114109,0.16707164,253.169,-77.15071,12.071995,WAL
2864280857000,3.969819,2.32337954354839,11.3421057983871,-0.390718274274194,1.2046263,-1.1795808,-0.039095376,253.63997,-77.25715,12.11851,WAL
2864285854000,3.974816,2.00016340820565,11.5881360150202,-0.299059930321573,1.1884383,-1.2550226,-0.20799962,254.1802,-77.38945,12.119484,WAL
2864290841000,3.979803,1.81979712881893,11.5837628726859,-0.40462175004059,1.239751,-1.2495248,-0.30757064,254.69724,-77.54825,12.053627,WAL
2864295831000,3.984793,1.68259682934363,11.5033354942085,-0.570208258069498,1.2767084,-1.0821478,-0.31703907,255.1879,-77.71402,11.966784,WAL
2864300921000,3.989883,1.66454891120632,11.2745335379415,-0.755088769123108,1.3313808,-0.7296785,-0.33841935,255.60678,-77.93319,11.816631,WAL
2864306148000,3.99511,1.68837926355327,10.9885694093116,-0.950497379674379,1.4257594,-0.28160888,-0.36896262,255.94678,-78.147545,11.663647,WAL
2864310886000,3.999848,1.98874469808696,10.6850265128261,-0.937590182347826,1.518611,0.12064589,-0.43035457,256.20093,-78.37446,11.493461,WAL
2864315874000,4.004836,2.43735899874783,10.3444118243043,-0.833744272991304,1.568702,0.4288274,-0.4783075,256.35132,-78.591995,11.321403,WAL
2864320889000,4.009851,2.83953933292855,10.0822964444866,-0.87078642570747,1.563815,0.62125,-0.48808134,256.4224,-78.79546,11.156975,WAL
2864325886000,4.014848,3.15086072243305,9.96814536224656,-1.16654191369403,1.5106697,0.7174612,-0.44929138,256.4327,-78.98055,10.998281,WAL
2864330878000,4.01984,3.41111379760667,9.84772560166748,-1.49292887413438,1.4526376,0.7492262,-0.3848451,256.38318,-79.08005,10.913967,WAL
2864335933000,4.024895,3.62479546528691,9.71951652172634,-1.85381333180971,1.4010195,0.7806858,-0.30970868,256.30756,-79.15245,10.847326,WAL
2864340883000,4.029845,3.77688880839642,9.69535534667191,-2.14800586666011,1.3472633,0.7840455,-0.24465153,256.24765,-100.830345,10.827583,WAL
2864345915000,4.034877,3.86691139229181,9.78537822741127,-2.38016926573592,1.2944235,0.7556403,-0.17654006,256.19022,-100.84456,10.831406,WAL
2864351080000,4.040042,3.93242045246926,9.87303938863947,-2.49804726252196,1.2647965,0.7113526,-0.09468412,256.14978,-100.918495,10.882926,WAL
2864355928000,4.04489,3.96413998055827,9.95007224438805,-2.4753904567441,1.244027,0.6600399,0.004886922,256.12253,-101.02443,10.958245,WAL
2864360907000,4.049869,3.97528217869339,10.008589341778,-2.38494833818671,1.2363913,0.6386596,0.10140363,256.10986,-101.170296,11.059787,WAL
2864365896000,4.054858,3.95311316644395,10.035192249072,-2.18986089149963,1.2498302,0.6178902,0.18173242,256.11526,-101.3465,11.182702,WAL
2864370890000,4.059852,3.89488656784424,10.0489689753111,-1.94302872093537,1.2944235,0.6041457,0.26206118,256.1227,-101.55372,11.32741,WAL
2864375919000,4.064881,3.71604424425933,10.0199674328583,-1.52250756669008,1.3292428,0.5757405,0.3399465,256.14456,-101.78584,11.49021,WAL
2864380894000,4.069856,3.50637508614732,9.96804571445893,-1.13364547263009,1.3548992,0.52198434,0.4083634,256.16144,-102.03067,11.6640835,WAL
2864385952000,4.074914,3.18824160478933,9.84079232191573,-0.825300726355461,1.3417655,0.49113566,0.4633413,256.18445,-102.29136,11.850889,WAL
2864390947000,4.079909,2.8779117248683,9.72641906539008,-0.568641633855674,1.3048081,0.49357912,0.4990769,256.17502,-102.53479,12.031565,WAL
2864395898000,4.08486,2.58055343943474,9.64315913462664,-0.441768762644034,1.2797627,0.5170974,0.50885075,256.17218,-102.78098,12.214331,WAL
2864401879000,4.090841,2.22259072617213,9.54486012040502,-0.298489451160026,1.2272283,0.61758476,0.5332854,256.1136,-102.993774,12.376568,WAL
2864405972000,4.094934,1.99250562471201,9.50459501893022,-0.318621893783843,1.1533136,0.67164636,0.5299256,256.06396,-103.19211,12.528215,WAL
2864412418000,4.10138,1.63014829170152,9.44118215694475,-0.350328154510236,1.1340714,0.8194757,0.51159966,255.94214,-103.34975,12.644268,WAL
2864415966000,4.104928,1.42935908917838,9.40001051335256,-0.382805829391458,1.1081096,0.8720101,0.49571714,255.83429,-103.49505,12.755295,WAL
2864420967000,4.109929,1.13968899590583,9.3108813111566,-0.503130331463664,1.1010846,0.98349303,0.4541783,255.66698,-103.62341,12.854373,WAL
2864426229000,4.115191,0.851632435832452,9.2166036400976,-0.617803338895486,1.110553,1.0928379,0.4071417,255.4797,-103.716736,12.910999,WAL
2864431214000,4.120176,0.839983697044327,9.11953095201301,-0.540145135719398,1.1343768,1.1844677,0.3631594,255.26613,-103.797195,12.956769,WAL
2864435963000,4.124925,0.828886433151688,9.02705388165921,-0.466163429223261,1.1505647,1.2281445,0.32925636,255.04176,-103.84816,12.958215,WAL
2864440951000,4.129913,0.95962237881336,8.88552328762279,-0.410425436314342,1.1542299,1.1914927,0.29046643,254.81528,-103.88604,12.945927,WAL
2864446158000,4.13512,1.21924137330059,8.69938122151277,-0.371237677072692,1.1334605,1.0919216,0.26389378,254.59618,-103.916275,12.927113,WAL
2864451068000,4.14003,1.4435647187396,8.53670763470007,-0.359336902959194,1.1297953,0.9819659,0.25717425,254.3754,-103.94277,12.901294,WAL
2864455971000,4.144933,1.65033428998924,8.38507639827772,-0.368526657416577,1.1093313,0.90041536,0.2648101,254.17694,-103.96162,12.870948,WAL
2864460933000,4.149895,1.79748139841878,8.27481179388277,-0.371728011924613,1.0952814,0.816116,0.29077184,254.00168,-104.0146,12.873261,WAL
2864465931000,4.154893,1.87393068188788,8.21365235114199,-0.367905551742533,1.0555751,0.7254025,0.3231477,253.8542,-104.064606,12.877038,WAL
2864471330000,4.160292,1.95198857330018,8.15200021058047,-0.368806009587585,1.0143417,0.6188065,0.35185838,253.72198,-104.15694,12.918005,WAL
2864475962000,4.164924,1.9101504890337,8.20524855148761,-0.490516779962274,0.9718866,0.54244834,0.38515055,253.61026,-104.25114,12.96622,WAL
2864480956000,4.169918,1.86504267538369,8.2626583559976,-0.621739488781617,0.95386606,0.5317582,0.4083634,253.50012,-104.366684,13.034204,WAL
2864485973000,4.174935,1.72917634943862,8.36336900149701,-0.710092281545659,0.9324858,0.5366451,0.43401974,253.4104,-104.482346,13.108258,WAL
2864490976000,4.179938,1.54089643950225,8.48888962799401,-0.772852248403817,0.9092729,0.5375614,0.44165558,253.32654,-104.593056,13.180867,WAL
2864495945000,4.184907,1.35605498852124,8.57810128893058,-0.806452711731196,0.904386,0.52412236,0.45875978,253.25603,-104.72342,13.263362,WAL
2864501125000,4.190087,1.16567854710899,8.63309869981238,-0.810683295391438,0.8900307,0.49968776,0.46181414,253.18983,-104.84407,13.341035,WAL
2864505990000,4.194952,0.991591730432712,8.67608593094299,-0.807514795151721,0.86651236,0.45081854,0.45937067,253.133,-104.95339,13.394941,WAL
2864511048000,4.20001,0.836696106932916,8.67279021275003,-0.764671332729623,0.8597928,0.35521814,0.45265114,253.0982,-105.0595,13.444286,WAL
2864515981000,4.204943,0.68562846938359,8.66957594271329,-0.722886674736699,0.86529064,0.27091873,0.44043383,253.06516,-105.149605,13.472511,WAL
2864520998000,4.20996,0.573498112077018,8.66870333600983,-0.677676986628431,0.8524625,0.1994475,0.45875978,253.05779,-105.24035,13.503753,WAL
