timestamp,rel_time,acc_x,acc_y,acc_z,gyro_x,gyro_y,gyro_z,azimuth,pitch,roll,label
130401652283000,0,1.27835488960549,10.0861131030219,-0.943350608255877,-0.0033597588,-0.09896017,-0.08032878,217.29271,-128.19347,32.258778,WAL
130401657281000,0.004998,1.25106838147513,10.0858716246342,-0.965324698767027,-0.019242255,-0.101098195,-0.05955936,216.99928,-127.75789,31.918926,WAL
130401662213000,0.00993,1.2241421993825,10.0856333350368,-0.987008615213803,-0.039095376,-0.09712757,-0.048258353,216.70602,-127.32829,31.585783,WAL
130401667206000,0.014923,1.19688298867925,10.0853920982242,-1.00896072284129,-0.08277224,-0.09407325,-0.035124753,216.42192,-126.90585,31.263252,WAL
130401672271000,0.019988,1.16923069502573,10.0851473827313,-1.03122938399354,-0.10751228,-0.087659165,-0.028099801,216.14139,-126.49176,30.947601,WAL
130401677216000,0.024933,1.14223353962264,10.0849084650388,-1.05297045593785,-0.121256754,-0.06566802,-0.026267206,215.86104,-126.08206,30.640514,WAL
130401682203000,0.02992,1.1150070858319,10.0846675181162,-1.07489618410493,-0.14355333,-0.037873644,-0.01985312,215.58318,-125.677536,30.342152,WAL
130401687189000,0.034906,1.08778609152659,10.0844266195086,-1.09681751569529,-0.14660765,-0.008246681,-0.019547688,215.30225,-125.27969,30.049187,WAL
130401692248000,0.039965,1.03650954748669,10.0539307504435,-1.35632163027794,-0.15210545,0.0015271631,-0.016187929,215.02467,-124.88755,29.7636,WAL
130401697164000,0.044881,0.980827004888626,10.0168092814902,-1.66721574973389,-0.15424347,0.00580322,-0.015271631,214.74405,-124.50169,29.483627,WAL
130401702209000,0.049926,0.916370779688766,9.90938217412523,-0.966108418387661,-0.16126843,-0.017104227,-0.023823744,214.49982,-124.08186,29.123562,WAL
130401707486000,0.055203,0.846568538180479,9.77443140257827,0.0995388401952118,-0.18906279,-0.059253927,-0.02321288,214.26273,-123.6681,28.770605,WAL
130401712258000,0.059975,0.841226684266667,9.64780302666667,0.505910782,-0.23518312,-0.08857546,-0.02565634,214.00941,-123.285065,28.448637,WAL
130401717231000,0.064948,0.870090599147475,9.51310454959596,0.597313165727273,-0.25534168,-0.13988814,-0.016187929,213.77664,-122.91098,28.129662,WAL
130401722232000,0.069949,0.97139586053127,9.42450743149969,0.208454272846685,-0.31795537,-0.1957823,-0.010079277,213.47787,-122.42493,27.829369,WAL
130401727250000,0.074967,1.11714320347208,9.36419854444677,-0.475050503679147,-0.38087448,-0.24740042,0.002443461,213.19943,-121.94765,27.532658,WAL
130401732234000,0.079951,1.24179724815987,9.38692854471471,-0.283026302423366,-0.45112398,-0.28924468,0.009773844,212.91142,-121.4795,27.276482,WAL
130401737206000,0.084923,1.35804911820237,9.44290142255177,0.259482199647346,-0.50946164,-0.33383787,0.016493361,212.645,-121.01564,27.021782,WAL
130401742235000,0.089952,1.47277635545605,9.54006349519071,0.396459698202322,-0.5687156,-0.39278635,0.03268129,212.55032,-120.61163,26.751465,WAL
130401747225000,0.094942,1.58372747452736,9.67743165771144,0.116439997572139,-0.59956425,-0.44929138,0.0421497,212.4709,-120.21013,26.482002,WAL
130401752214000,0.099931,1.68634999444444,9.75600982446808,-0.456052940118203,-0.61819565,-0.5009095,0.05009095,212.31232,-119.7836,26.268333,WAL
130401757244000,0.104961,1.78599522592593,9.8082049929078,-1.16780434157604,-0.61361414,-0.5571091,0.05467244,212.17754,-119.36728,26.055107,WAL
130401762245000,0.109962,1.82735668582291,9.83356738582291,-1.26339143290164,-0.6020077,-0.59559363,0.05222898,212.02415,-118.992455,25.893095,WAL
130401767218000,0.114935,1.83903817377974,9.84524887377974,-1.04611562029041,-0.5723807,-0.6084218,0.06536258,211.88535,-118.63635,25.737703,WAL
130401772219000,0.119936,1.85078543323522,9.85699613323522,-0.827616457035075,-0.54641896,-0.6056729,0.06963864,211.64804,-118.39063,25.730942,WAL
130401777202000,0.124919,1.862490411013,9.868701111013,-0.609903733479519,-0.5357288,-0.5925393,0.07574729,211.41418,-118.16246,25.72815,WAL
130401782223000,0.12994,1.85941955305332,9.88174563476241,-0.509089795857931,-0.51923543,-0.56382865,0.07941248,210.71397,-118.065926,26.08644,WAL
130401787204000,0.134921,1.84557012671054,9.89559486828608,-0.495240374335624,-0.52198434,-0.52381694,0.07941248,210.00012,-118.00536,26.431019,WAL
130401792236000,0.139953,1.80373531211691,9.90047287229181,-0.550659981478768,-0.52381694,-0.47891834,0.09010262,208.98872,-118.04507,26.957228,WAL
130401797222000,0.144939,1.73602089117624,9.89671088363665,-0.671041190847711,-0.54000485,-0.4474588,0.0888809,207.9555,-118.14642,27.451431,WAL
130401802703000,0.15042,1.6606616501586,9.89034607253119,-0.812339630875449,-0.54428095,-0.41386122,0.08460484,206.84834,-118.34067,27.970188,WAL
130401807250000,0.154967,1.5869957310425,9.85811756343836,-1.03794137235462,-0.56138515,-0.39645153,0.08093964,205.72632,-118.604965,28.455198,WAL
130401812197000,0.159914,1.5074837090651,9.82090584425066,-1.29315053313729,-0.5516113,-0.3811799,0.08277224,205.2475,-118.607414,28.532057,WAL
130401817217000,0.164934,1.43436131604137,9.75753279821537,-1.66851240517136,-0.5513059,-0.36865717,0.08552113,204.7681,-118.63039,28.604021,WAL
130401823064000,0.170781,1.35148524129324,9.66402315447625,-2.01183725444734,-0.53969944,-0.35735616,0.090713486,204.57246,-118.5363,28.52666,WAL
130401827235000,0.174952,1.29759412861135,9.55239172757059,-2.04263215301147,-0.528093,-0.3491095,0.087964594,204.3773,-118.450775,28.449587,WAL
130401832406000,0.180123,1.23235058063813,9.41372597621879,-2.0642383097503,-0.5012149,-0.3567453,0.1001819,204.37329,-118.30169,28.301672,WAL
130401837210000,0.184927,1.1913217454023,9.28152172413793,-1.87732929310345,-0.47708577,-0.36132678,0.098043874,204.36688,-61.847248,28.152094,WAL
130401842499000,0.190216,1.15327370855042,9.13898448751929,-1.65805585231914,-0.43768495,-0.38331795,0.092240654,204.42747,-62.01708,27.980991,WAL
130401847231000,0.194948,1.20674805746574,9.04848976590723,-1.29607567731687,-0.37720928,-0.4166101,0.0842994,204.4937,-62.18461,27.811762,WAL
130401852224000,0.199941,1.26317185800127,8.95300368285377,-0.91412998547699,-0.29840767,-0.44165558,0.06414085,204.52937,-62.344833,27.648653,WAL
130401857243000,0.20496,1.41508690561046,8.91437107076825,-0.522593864061205,-0.25350907,-0.42394048,0.047036625,204.56296,-62.503117,27.48682,WAL
130401862165000,0.209882,1.58538329396451,8.8893274996281,-0.136922596540219,-0.22296582,-0.34025195,0.026267206,204.58429,-62.66536,27.320658,WAL
130401867217000,0.214934,1.787131636775,8.9683744394593,0.0483137111168632,-0.26419923,-0.23426682,0.024740042,204.50711,-62.784252,27.191713,WAL
130401872209000,0.219926,1.98879269170741,9.05545519183204,0.213309126658997,-0.34300083,-0.1282817,0.051618114,204.40485,-62.895905,27.066662,WAL
130401877235000,0.224952,2.13155718844247,9.13081983483453,0.259948133518875,-0.453262,-0.08032878,0.07360926,204.19403,-62.940403,26.995293,WAL
130401882161000,0.229878,2.26046464100799,9.20243503086732,0.283819875500455,-0.54458636,-0.06566802,0.10445796,203.96225,-62.965126,26.934551,WAL
130401887210000,0.234927,2.34923466026242,9.27507016822868,0.170713086035614,-0.6203337,-0.10415252,0.118202426,203.6763,-62.921104,26.9241,WAL
130401892854000,0.240571,2.44041805576382,9.35612239859419,0.0187407425679475,-0.6536258,-0.17501289,0.14294247,203.39885,-62.852657,26.925938,WAL
130401897223000,0.24494,2.45529184238547,9.3969668913279,-0.0453668139259183,-0.65179324,-0.25167647,0.1518,203.12556,-62.748226,26.950117,WAL
130401902186000,0.249903,2.46019585171275,9.43865094500619,-0.106666976603384,-0.6407976,-0.2941316,0.18112154,202.86685,-62.619385,26.987762,WAL
130401907284000,0.255001,2.46523325641766,9.48146885869789,-0.169634582754849,-0.61636305,-0.37812558,0.18875736,202.6804,-62.491737,27.027807,WAL
130401912165000,0.259882,2.47005624040446,9.52246419740508,-0.229921927914775,-0.5876524,-0.45081854,0.21166481,202.5061,-62.345043,27.081741,WAL
130401917235000,0.264952,2.42657790875806,9.70989759050967,-0.339961690561414,-0.5546656,-0.5216789,0.23609942,202.36049,-62.193737,27.140009,WAL
130401922207000,0.269924,2.37543810711775,9.9191060685413,-0.456188705328061,-0.5323691,-0.56199604,0.25411993,202.23093,-62.033432,27.20472,WAL
130401927229000,0.274946,2.35377080602894,9.98718034520699,-0.455439141695137,-0.52564955,-0.5873469,0.2678644,202.15385,-61.887917,27.265064,WAL
130401932174000,0.279891,2.33949509983923,10.0204902766278,-0.426887704471463,-0.52290064,-0.59956425,0.29168814,202.08711,-61.732433,27.334927,WAL
130401937207000,0.284924,2.33309997259763,10.0159936078852,-0.406815679330786,-0.5354234,-0.59742624,0.30909783,202.06429,-61.623096,27.370682,WAL
130401942232000,0.289949,2.32861451961972,10.0025374831298,-0.388874223370305,-0.5531385,-0.56505036,0.33567044,202.03651,-61.501987,27.416077,WAL
130401947226000,0.294943,2.35281383111398,9.97894875221107,-0.320550835913893,-0.5830709,-0.50488013,0.34697145,201.99612,-61.38114,27.455944,WAL
130401952214000,0.299931,2.39078989451456,9.9504668905396,-0.227984239493143,-0.61850107,-0.43493605,0.35796702,201.94308,-61.248943,27.502224,WAL
130401957239000,0.304956,2.42904765686177,9.92177375603697,-0.134731002321077,-0.659429,-0.3717115,0.3659083,201.87036,-61.106613,27.549992,WAL
130401962707000,0.310424,2.47067819308357,9.89055105763689,-0.0332566339913545,-0.6969972,-0.29932398,0.37873647,201.77335,-60.954792,27.5992,WAL
130401967222000,0.314939,2.53587842390322,9.90370680408586,0.0867926297212389,-0.7367035,-0.24251351,0.3866777,201.66188,-60.800472,27.646145,WAL
130401972256000,0.319973,2.62211294811712,9.93547711645641,0.236568407570796,-0.7715228,-0.17348573,0.3857614,201.52464,-60.639767,27.690308,WAL
130401977224000,0.324941,2.71575214146071,9.98280615856707,0.392361863665648,-0.7846564,-0.129198,0.3903429,201.3298,-60.425777,27.761787,WAL
130401982225000,0.329942,2.81771953632324,10.0448730913635,0.556396274651486,-0.8081747,-0.09621128,0.38820487,201.1185,-60.206657,27.82754,WAL
130401987209000,0.334926,2.89311780498123,10.098375540631,0.741290733083088,-0.81581056,-0.07544186,0.3912592,200.85583,-59.941387,27.913914,WAL
130401992257000,0.339974,2.92254477196916,10.1376118721721,0.966898026255453,-0.8197812,-0.07452556,0.39370266,200.59079,-59.67179,27.997505,WAL
130401997197000,0.344914,2.94726508935922,10.1663809669903,1.19474291794175,-0.80664754,-0.07849618,0.4007276,200.27747,-59.3606,28.099583,WAL
130402002239000,0.349956,2.96601702163107,10.1804447203883,1.4385181843301,-0.79504114,-0.11148291,0.4071417,199.97464,-59.045757,28.202065,WAL
130402007234000,0.354951,2.9571521772063,10.1760711384513,1.65696385223951,-0.7996226,-0.14355333,0.42058071,199.61688,-58.686523,28.315378,WAL
130402012227000,0.359944,2.89362613112545,10.1352330607326,1.82939183374454,-0.8054258,-0.20525073,0.42485678,199.28084,-58.326733,28.42993,WAL
130402017154000,0.364871,2.82357890192975,10.0882542410017,1.97088379089332,-0.8206975,-0.27275133,0.43218717,198.90408,-57.91987,28.554455,WAL
130402022233000,0.36995,2.72338681686904,10.0144286853859,2.00779662376409,-0.8402451,-0.36468655,0.43860126,198.55602,-57.50842,28.684017,WAL
130402027157000,0.374874,2.63045574471744,9.94074903030303,1.99360198307398,-0.86132,-0.43188173,0.45204028,198.22243,-57.104664,28.79535,WAL
130402032335000,0.380052,2.54020418009828,9.85952242424242,1.88981274501774,-0.88300574,-0.50518554,0.45478916,197.9218,-56.69691,28.912104,WAL
130402037171000,0.384888,2.45446385204961,9.78072078799664,1.77559073470675,-0.9086621,-0.5653558,0.45875978,197.59834,-56.260124,29.038546,WAL
130402042237000,0.389954,2.35757439226403,9.68383154120244,1.57161304233761,-0.93126404,-0.59406644,0.45570546,197.29001,-55.819775,29.16605,WAL
130402047161000,0.394878,2.28070663491962,9.60230671145415,1.378043787943,-0.9477574,-0.6264423,0.44715336,197.0384,-55.414715,29.28284,WAL
130402052213000,0.39993,2.24977190254841,9.55369482435148,1.1924349322616,-0.9505063,-0.6377433,0.4596761,196.78847,-55.00256,29.40448,WAL
130402057242000,0.404959,2.22037755345517,9.50880793241051,1.00934072681951,-0.9279043,-0.63194007,0.4718934,196.60089,-54.6495,29.510075,WAL
130402062238000,0.409955,2.20485499712339,9.49845988569266,0.843766684557154,-0.91965765,-0.61422503,0.4896085,196.4119,-54.288967,29.619982,WAL
130402067210000,0.414927,2.19979133450143,9.48503055458214,0.669108547662171,-0.8915578,-0.605062,0.50610185,196.28078,-53.98212,29.725998,WAL
130402072255000,0.419972,2.22832659742101,9.46125116881583,0.459849813869475,-0.88453287,-0.6065892,0.5039638,196.14815,-53.67387,29.830557,WAL
130402077229000,0.424946,2.25857104554654,9.44975070203386,0.283846160516982,-0.8542951,-0.5558874,0.50946164,196.03502,-53.403885,29.930792,WAL
130402082234000,0.429951,2.29698954790101,9.48336659072237,0.221416044045687,-0.83199847,-0.51159966,0.5195409,195.92453,-53.134098,30.03174,WAL
130402087198000,0.434915,2.33895991773649,9.51173502563593,0.153705653466713,-0.78984874,-0.49480084,0.52473325,195.8484,-52.905895,30.138947,WAL
130402092237000,0.439954,2.39650070135135,9.5213253481717,0.0625994284316375,-0.7519751,-0.49693888,0.51893,195.76498,-52.682205,30.242113,WAL
130402097245000,0.444962,2.46035717167424,9.52699964914015,-0.0278482709422811,-0.7165449,-0.4999932,0.52381694,195.68913,-52.473198,30.351025,WAL
130402102236000,0.449953,2.55011397790077,9.5175513773473,-0.117605039186302,-0.6731735,-0.49357912,0.52626044,195.61241,-52.27506,30.45573,WAL
130402107257000,0.454974,2.65901457339257,9.51976030792013,-0.209020871043279,-0.6426302,-0.45937067,0.54153204,195.5452,-52.088245,30.571184,WAL
130402112278000,0.459995,2.85196152493551,9.57488817282889,-0.305494370799656,-0.5900958,-0.38637227,0.5720753,195.46211,-51.909447,30.684553,WAL
130402117224000,0.464941,3.04354227808657,9.62900884964511,-0.384013390956713,-0.5222898,-0.2919936,0.6047566,195.37563,-51.73711,30.812857,WAL
130402122235000,0.469952,3.25463221855443,9.68178139738079,-0.278468420722783,-0.46914452,-0.2049453,0.6389651,195.26483,-51.56517,30.9399,WAL
130402127206000,0.474923,3.46428320480206,9.73299292489334,-0.166435382453616,-0.4456262,-0.129198,0.6719518,195.14333,-51.386368,31.095396,WAL
130402132225000,0.479942,3.67888486881635,9.77114409723187,0.0338594574828852,-0.4260785,-0.09987647,0.6924158,195.0061,-51.212444,31.24904,WAL
130402137277000,0.484994,3.90404053160858,9.81480183378016,0.241787406501341,-0.42271876,-0.060170226,0.7113526,194.80746,-50.991756,31.429064,WAL
130402142239000,0.489956,4.23527983932976,9.92096823592493,0.522066907707775,-0.4465425,-0.023518313,0.73792523,194.59616,-50.76597,31.609688,WAL
130402148314000,0.496031,4.63475725880943,10.0467242702757,0.870219136675989,-0.4783075,-0.005497787,0.7761043,194.30998,-50.46335,31.825987,WAL
130402152239000,0.499956,4.79244170322613,10.0579874756792,1.17807920883939,-0.4896085,-0.042760566,0.79412484,194.0275,-50.162663,32.041523,WAL
130402157220000,0.504937,4.99255029370755,10.0722809855174,1.56876736666001,-0.514654,-0.1001819,0.79229224,193.64937,-49.756702,32.30835,WAL
130402162230000,0.509947,4.9868091438613,10.0524291831245,1.74576261289927,-0.5152648,-0.13561209,0.7834347,193.27322,-49.356403,32.57312,WAL
130402167157000,0.514874,4.9379037130783,10.0257536075568,1.87469537389993,-0.5018258,-0.14508049,0.7840455,192.90456,-48.95855,32.83709,WAL
130402172226000,0.519943,4.83104439969578,10.0319694116688,1.73615005683399,-0.49021935,-0.09437868,0.81183994,192.38898,-48.442028,33.128048,WAL
130402177167000,0.524884,4.70251612720556,10.0525338279009,1.48423448170361,-0.45723262,-0.013133603,0.8668178,191.8615,-47.932785,33.4144,WAL
130402182223000,0.52994,4.4624771570297,9.99028952158416,1.1438197009505,-0.43188173,0.12736541,0.9104946,191.2866,-47.436695,33.66618,WAL
130402187179000,0.534896,4.20871621762376,9.91510111326733,0.796073471960396,-0.4156938,0.28069258,0.93034774,190.67612,-46.944855,33.904152,WAL
130402192234000,0.539951,3.98637048217636,9.80267345768737,0.669587769566505,-0.4202753,0.37965274,0.9260717,190.12604,-46.53971,34.10689,WAL
130402197168000,0.544885,3.77640332532833,9.6860250642836,0.5902668133307,-0.41508293,0.40653083,0.92271197,189.54529,-46.140133,34.296192,WAL
130402202205000,0.549922,3.6855033340698,9.54507586963535,0.738178091084172,-0.4175264,0.41416663,0.9184359,189.05681,-45.849773,34.439022,WAL
130402207280000,0.554997,3.62373489336201,9.39778204448138,0.942489236113012,-0.43768495,0.35521814,0.906524,188.57974,-45.56406,34.57941,WAL
130402212248000,0.559965,3.67147092317061,9.25126591909135,1.44581641175447,-0.45265114,0.25686884,0.89766645,188.13855,-45.317062,34.696568,WAL
130402217687000,0.565404,3.75706779686805,9.09014191894635,2.09031099277912,-0.44868052,0.13805555,0.89675015,187.71967,-45.074265,34.819855,WAL
130402222229000,0.569946,3.80754628859676,9.0356597649037,2.30138191999389,-0.43371433,0.004276057,0.89675015,187.27048,-44.791767,34.94806,WAL
130402227234000,0.574951,3.85639168154489,9.0014678572302,2.42837972744319,-0.42119157,-0.09590584,0.9049969,186.84308,-44.511345,35.086037,WAL
130402232224000,0.579941,3.86557565833659,9.00298424140961,2.42324157777235,-0.36774087,-0.17195857,0.9086621,186.26437,-44.11772,35.236,WAL
130402237214000,0.584931,3.86091066106989,9.01697952547833,2.37192665655018,-0.31429017,-0.21594086,0.89827734,185.704,-43.731983,35.38873,WAL
130402242205000,0.589922,3.85303625786802,8.97322493401015,2.23718103654822,-0.25350907,-0.23457226,0.89980453,185.10541,-43.323284,35.55359,WAL
130402247231000,0.594948,3.84363895275283,8.90274514564623,2.06333069566576,-0.19975294,-0.24709499,0.89888823,184.5171,-42.930214,35.71478,WAL
130402252225000,0.599942,3.84639047517843,8.82592743378271,1.84318971816019,-0.16493362,-0.23518312,0.893085,183.96475,-42.577374,35.865932,WAL
130402257283000,0.605,3.85599385630452,8.74429849365583,1.59350160832672,-0.13439035,-0.14110987,0.89675015,183.3867,-42.235325,36.002216,WAL
130402262280000,0.609997,3.87930438261518,8.65534068905055,1.41564619023503,-0.1020145,-0.032070424,0.8885035,182.84506,-41.92858,36.138382,WAL
130402267231000,0.614948,3.91025972281291,8.56247503786607,1.27855820889759,-0.074830994,0.076052725,0.88208944,182.27164,-41.62893,36.255142,WAL
130402272275000,0.619992,3.96804515971223,8.4771163659681,1.16756766484204,-0.061391957,0.1777618,0.8735373,181.7294,-41.36685,36.37029,WAL
130402277236000,0.624953,4.05225724244604,8.40281154144511,1.08830913362527,-0.057726767,0.27580565,0.8604037,181.15565,-41.113956,36.46037,WAL
130402282219000,0.629936,4.13585342493491,8.33391847970302,1.07414081951596,-0.07452556,0.3594942,0.8524625,180.61594,-40.893833,36.553272,WAL
130402287623000,0.63534,4.22567659635522,8.26405519670234,1.11406215956031,-0.084910266,0.43493605,0.8381071,180.05106,-40.683205,36.62188,WAL
130402292233000,0.63995,4.27109121329044,8.22664088499045,1.17477102885292,-0.11209377,0.47067168,0.8145888,179.47481,-40.45902,36.698658,WAL
130402297228000,0.644945,4.29032771303911,8.20740458610636,1.266144026038,-0.1469131,0.5216789,0.8045095,178.86966,-40.235447,36.75497,WAL
130402302231000,0.649948,4.27162772998474,8.18761794133605,1.34240677599186,-0.15515977,0.5644395,0.782213,178.24176,-40.000565,36.81116,WAL
130402307250000,0.654967,4.21458077014242,8.16724410308579,1.40352829074262,-0.17745635,0.61208695,0.7470882,177.60025,-39.766018,36.847294,WAL
130402312228000,0.659945,4.15299038115443,8.14699083135904,1.46500595429679,-0.18020524,0.64812803,0.7134906,176.92822,-39.525856,36.86611,WAL
130402317228000,0.664945,4.06017199864312,8.12636461985785,1.53204154550937,-0.17623462,0.68386364,0.6743952,176.24968,-39.295998,36.86235,WAL
130402322271000,0.669988,3.98469101723825,8.10903004667937,1.60794775790238,-0.14721853,0.70524395,0.64476824,175.5613,-39.081745,36.83129,WAL
130402327227000,0.674944,3.95454781767374,8.10041774891127,1.70268361789149,-0.13439035,0.7079928,0.63071835,174.87186,-38.874287,36.787468,WAL
130402332225000,0.679942,3.92171004157191,8.08909173264512,1.78975964421504,-0.10903945,0.68569624,0.61727935,174.196,-38.696285,36.717205,WAL
130402337214000,0.684931,3.85975886287652,8.04620230580491,1.77546316860164,-0.102319926,0.6356053,0.6035349,173.529,-38.52373,36.644657,WAL
130402342258000,0.689975,3.79678607026627,7.99649154585799,1.75623189755917,-0.10751228,0.6041457,0.5858198,172.83525,-38.346443,36.55208,WAL
130402347223000,0.69494,3.73084365412352,7.87339939071745,1.68149721740939,-0.10934488,0.60994893,0.5656612,172.14764,-38.17784,36.45475,WAL
130402352245000,0.699962,3.66414419513683,7.74889409301035,1.60590455603735,-0.101098195,0.6084218,0.53786683,171.50952,-38.041924,36.353207,WAL
130402357464000,0.705181,3.65595956593024,7.57141536653324,1.60646860220928,-0.09621128,0.59528816,0.5027421,170.87796,-37.913788,36.244045,WAL
130402362287000,0.710004,3.65355852073608,7.40334195222748,1.61367173779176,-0.08979719,0.5708536,0.46089783,170.25655,-37.797665,36.12731,WAL
130402367222000,0.714939,3.65110171832406,7.2313655268493,1.62104214502781,-0.08124508,0.5335908,0.4147775,169.671,-37.70043,36.012314,WAL
130402372302000,0.720019,3.65057919920792,7.05896717138614,1.63059922268317,-0.06780604,0.48930305,0.38240165,169.10551,-37.618004,35.89622,WAL
130402377233000,0.72495,3.67395702138614,6.94675372257426,1.66332822255446,-0.059253927,0.4700608,0.34208453,168.55428,-37.549904,35.769203,WAL
130402382388000,0.730105,3.70261139684305,6.83117437198451,1.6979013833019,-0.041233405,0.4382958,0.31306845,167.9576,-37.425167,35.667957,WAL
130402387212000,0.734929,3.78057974581555,6.744033478904,1.73459232598034,-0.031154128,0.40683624,0.29260445,167.37198,-37.3095,35.561535,WAL
130402392465000,0.740182,3.86516526712675,6.654979091525,1.77922508407675,-0.025350908,0.3943135,0.2687807,166.7675,-37.17701,35.458237,WAL
130402397226000,0.744943,3.93807452072042,6.64346706404646,1.8751583926275,-0.025350908,0.3915646,0.25228736,166.479392097516,-37.121124824287,35.4053608463661,WAL
130402402248000,0.749965,4.01498068991752,6.63132394243393,1.97635080504966,0.011911872,0.3921755,0.23060162,166.17549,-37.062176,35.349586,WAL
130402407284000,0.755001,4.12261766549851,6.66288072727739,2.10207913726816,0.023518313,0.37690386,0.21105394,165.55295,-36.910362,35.258354,WAL
130402412253000,0.75997,4.24452369699764,6.71651924671585,2.23861365221847,0.0290161,0.3817908,0.204029,164.93071,-36.77248,35.15613,WAL
130402417243000,0.76496,4.38768361319162,6.77924248903348,2.31934908890434,0.03634648,0.39767328,0.19364429,164.26169,-36.60475,35.04938,WAL
130402422245000,0.769962,4.5399533474322,6.84586056297805,2.37645039451674,0.05589417,0.43310347,0.1777618,163.58905,-36.44609,34.932842,WAL
130402427239000,0.774956,4.73310484738292,6.90869469731405,2.48169048106061,0.06566802,0.4596761,0.1777618,162.85844,-36.253067,34.81364,WAL
130402432277000,0.779994,4.94671743526171,6.97040499276859,2.60985796439394,0.076358154,0.46517387,0.17684549,162.12868,-36.07134,34.68552,WAL
130402437250000,0.784967,5.10826953702493,7.00714448263179,2.69135662474459,0.093462385,0.4783075,0.17134771,161.37646,-35.880447,34.558804,WAL
130402442352000,0.790069,5.24804327850429,7.03210404209236,2.75125951532489,0.106595986,0.4914411,0.16584991,160.62396,-35.695553,34.42799,WAL
130402447251000,0.794968,5.39569914233468,7.0290164210339,2.77763354438075,0.12339478,0.52381694,0.15577064,159.80992,-35.477493,34.299538,WAL
130402452265000,0.799982,5.55232630285658,7.01477749364436,2.79187242221014,0.1432479,0.539394,0.14935656,158.99915,-35.268944,34.16801,WAL
130402457163000,0.80488,5.64391893863429,6.88895308188164,2.80600142685888,0.15577064,0.53878313,0.1282817,158.16328,-35.04699,34.03521,WAL
130402462149000,0.809866,5.70671610804249,6.70539242003035,2.82049310849772,0.1600467,0.528093,0.086132,157.33542,-34.839367,33.89232,WAL
130402467143000,0.81486,5.66903696890298,6.51121888316322,2.77369702070162,0.1863139,0.54153204,0.032070424,156.49664,-34.629463,33.75877,WAL
130402472175000,0.819892,5.58307628679021,6.31064399147755,2.6972875642751,0.2180789,0.5497787,-0.016798794,155.67365,-34.43571,33.617752,WAL
130402477150000,0.824867,5.42803350102491,6.12729534908271,2.66219721806908,0.25320363,0.56382865,-0.02687807,154.77638,-34.194332,33.47658,WAL
130402482165000,0.829882,5.23606066823819,5.95008960192682,2.64743008103925,0.27550024,0.5815437,-0.054367006,153.8972,-33.977425,33.31637,WAL
130402487164000,0.834881,5.04254839712814,5.79796835028719,2.6195516479897,0.2996294,0.5983425,-0.08857546,153.00719,-33.75725,33.149605,WAL
130402492213000,0.83993,4.84622379712814,5.65431615028719,2.5860328479897,0.312763,0.6243043,-0.11575896,152.12007,-33.55056,32.969856,WAL
130402497174000,0.844891,4.64146632451664,5.56302959833153,2.60554850100108,0.31978795,0.65576386,-0.17104226,151.2329,-33.354088,32.751465,WAL
130402502150000,0.849867,4.4310001802434,5.49287429830209,2.64764168101875,0.3484986,0.6988298,-0.22815818,150.34865,-33.176926,32.51711,WAL
130402507168000,0.854885,4.15275861456077,5.66044875231649,2.82610303465704,0.3631594,0.73853606,-0.29565877,149.4674,-33.00949,32.24109,WAL
130402512168000,0.859885,3.8406384781789,5.9533614578921,3.07579918387485,0.37995818,0.7846564,-0.3585779,148.59296,-32.863857,31.943413,WAL
130402517163000,0.86488,3.72561630087607,6.27354837262526,3.30664641711783,0.39950588,0.82924956,-0.42149702,147.73627,-32.738895,31.579912,WAL
130402522181000,0.869898,3.71142502740427,6.60940890661482,3.52897651635988,0.39950588,0.86559606,-0.49296826,146.89423,-32.630177,31.195726,WAL
130402527257000,0.874974,3.78939019522851,7.00278486202932,3.68174134762863,0.40286562,0.8542951,-0.55741453,146.17,-32.627365,30.729729,WAL
130402532252000,0.879969,3.91772326478873,7.41986745774648,3.79174113521127,0.4147775,0.8393288,-0.6252206,145.45999,-32.640938,30.247286,WAL
130402537252000,0.884969,4.11079191541921,7.82867205306286,3.81890079846108,0.43218717,0.82772243,-0.66828656,144.80342,-32.713993,29.732214,WAL
130402543035000,0.890752,4.39304600431698,8.29356122224443,3.77462556794244,0.42638394,0.80939645,-0.70005155,144.16576,-32.794304,29.218525,WAL
130402547259000,0.894976,4.63800105038183,8.54117108707726,3.68669917405534,0.44929138,0.8078693,-0.7128797,143.61212,-32.96233,28.705107,WAL
130402552251000,0.899968,4.95093256362194,8.77824034027571,3.54919890818209,0.47494772,0.8396343,-0.6948592,143.05269,-33.12916,28.196005,WAL
130402557382000,0.905099,5.25023494425259,8.89531346275284,3.40827068381845,0.49021935,0.87872964,-0.66523224,142.56337,-33.37063,27.729643,WAL
130402562280000,0.909997,5.51867289097188,8.90919797582634,3.27405180711396,0.50488013,0.9242391,-0.6414085,142.0576,-33.614906,27.264238,WAL
130402567270000,0.914987,5.74443831425045,8.85718055359347,3.18234666358113,0.5186246,0.9660834,-0.6123924,141.58054,-33.897507,26.86148,WAL
130402572328000,0.920045,5.92839143074148,8.74220985578658,3.13175955654609,0.5332854,0.9935723,-0.5897904,141.08623,-34.180172,26.460691,WAL
130402577225000,0.924942,6.07743701701323,8.61721670749179,3.10097033056412,0.54153204,0.99296147,-0.58276546,140.58475,-34.457695,26.118547,WAL
130402582260000,0.929977,6.18777870888469,8.46849560163168,3.09617287876828,0.5467244,0.94959,-0.57360244,140.07394,-34.734154,25.78844,WAL
130402587227000,0.934944,6.25175721331851,8.33415991228779,3.10089968819725,0.56596667,0.9074403,-0.5717699,139.5308,-34.978477,25.490652,WAL
130402592264000,0.939981,6.24688258225546,8.21717080274859,3.12039780525465,0.57635134,0.8042041,-0.5729916,139.00194,-35.222076,25.220196,WAL
130402597752000,0.945469,6.22350474453325,8.15360267712261,3.13909707847987,0.59437186,0.6420194,-0.5644395,138.44612,-35.42641,24.98671,WAL
130402602231000,0.949948,6.18792651625697,8.16007159327402,3.15203460682401,0.63163465,0.5815437,-0.56077427,137.88774,-35.64092,24.754688,WAL
130402607281000,0.954998,6.14781263976776,8.16736519152466,3.1666214606168,0.6414085,0.47891834,-0.5702427,137.344,-35.825584,24.557459,WAL
130402612695000,0.960412,6.05127524177277,8.27237594343474,3.19775054296822,0.6627888,0.40469822,-0.5681047,136.7989,-36.022114,24.371788,WAL
130402617186000,0.964903,5.95931209763825,8.38105997667412,3.22701148782195,0.68844515,0.33414328,-0.5766568,136.27444,-36.226925,24.20552,WAL
130402622295000,0.970012,5.85283018186167,8.57185900797289,3.26431099419972,0.7089091,0.28160888,-0.5739079,135.7638,-36.43903,24.04098,WAL
130402627184000,0.974901,5.75017316804863,8.78183897558302,3.30164099901335,0.7296785,0.23945917,-0.5687156,135.26218,-36.65963,23.889812,WAL
130402632197000,0.979914,5.62820842365344,9.05367359678225,3.28055840007994,0.7458665,0.1966986,-0.5644395,134.79086,-36.909195,23.723833,WAL
130402637224000,0.984941,5.49831427516239,9.351948961427,3.23244942735585,0.7669413,0.13225232,-0.5644395,134.3271,-37.165237,23.573454,WAL
130402642213000,0.98993,5.36940201997602,9.64796960877386,3.18470411903667,0.77579886,0.05589417,-0.56505036,133.91197,-37.465782,23.413376,WAL
130402647261000,0.994978,5.23896524623763,9.94749100139902,3.13639417387829,0.81245077,-0.0125227375,-0.573297,133.50424,-37.77833,23.265545,WAL
130402652227000,0.999944,5.06658602765832,10.2515891826215,3.07967161649485,0.8362745,-0.11911872,-0.57940567,133.11543,-38.08528,23.135601,WAL
130402657150000,1.004867,4.87679589472754,10.557105197349,3.01949428556701,0.8680395,-0.23487769,-0.6026186,132.74272,-38.40545,23.01846,WAL
130402662155000,1.009872,4.62753172403877,10.8616809549473,2.92225716860156,0.8900307,-0.3286455,-0.6203337,132.51035,-38.86772,22.887815,WAL
130402667142000,1.014859,4.34776043976994,11.1617991354777,2.80526185115561,0.9083566,-0.3643811,-0.62949663,132.28642,-39.33337,22.766603,WAL
130402672195000,1.019912,4.02586618672531,11.4035721327469,2.60729625309876,0.91599244,-0.3491095,-0.62980205,132.12155,-39.868187,22.618568,WAL
130402677150000,1.024867,3.69857070491803,11.6217694508197,2.38909943032787,0.92271197,-0.2501493,-0.61941737,131.9384,-40.399345,22.461172,WAL
130402682164000,1.029881,3.42867002531646,11.8802107305606,2.112257460217,0.93615097,-0.17715092,-0.6047566,131.81422,-41.00411,22.271725,WAL
130402687188000,1.034905,3.1773216371308,12.1508929889492,1.81740640038176,0.9388999,0.038179077,-0.6072,131.6303,-41.59958,22.033295,WAL
130402692176000,1.039893,3.08490794335497,12.6003040753869,1.60774451397903,0.9407325,0.29077184,-0.5885687,131.466,-42.26555,21.742912,WAL
130402697167000,1.044884,3.03718167404893,13.1014298781827,1.42161210853719,0.9263771,0.51068336,-0.5467244,131.2472,-42.915096,21.424065,WAL
130402702249000,1.049966,3.19433182997631,13.7130246018001,1.40051470984368,0.8753699,0.7257079,-0.5039638,131.01967,-43.630875,21.03927,WAL
130402707288000,1.055005,3.40921612993842,14.3485339246802,1.42794677759356,0.80756384,0.91751957,-0.43585235,130.72319,-44.31864,20.63625,WAL
130402712261000,1.059978,3.73223927964619,14.7838391137101,1.68918118519902,0.6786713,1.1114693,-0.3173445,130.39159,-45.04055,20.206804,WAL
130402717263000,1.06498,4.1088738044226,15.1322260786241,2.06110768501228,0.5002986,1.2760975,-0.15393804,129.98929,-45.705097,19.7788,WAL
130402722244000,1.069961,4.28526787298376,14.896818002413,2.50938201878422,0.3023783,1.368949,0.014966198,129.53331,-46.35552,19.362137,WAL
130402727262000,1.074979,4.3521676627007,14.3348583530394,3.00444108673782,0.13836098,1.2727377,0.14385876,129.04913,-46.939255,18.984722,WAL
130402732261000,1.079978,4.15488287158643,13.4084890094712,3.512851291397,0.093462385,0.9098838,0.2144137,128.53607,-47.44154,18.680922,WAL
130402737221000,1.084938,3.68624669636938,12.1103670678769,4.03303755501184,0.15485434,0.3555236,0.2302962,128.06921,-47.908184,18.450054,WAL
130402742209000,1.089926,3.09729847823079,10.7340034985851,4.37812045718478,0.28619036,-0.31031954,0.2180789,127.59433,-48.22632,18.297548,WAL
130402747230000,1.094947,2.36148132176921,9.26236950141495,4.50915624281522,0.4269948,-0.9831876,0.19333886,127.2471,-48.556004,18.246954,WAL
130402752235000,1.099952,1.63138236596251,7.94035290300506,4.37781160910443,0.5522222,-1.5885551,0.15882497,126.84529,-48.714703,18.195162,WAL
130402757288000,1.105005,0.897085497550332,6.72612326726173,4.02746090444312,0.6536258,-2.0821342,0.0888809,126.58525,-48.908203,18.229683,WAL
130402762298000,1.110015,0.196199601976675,5.72051419680767,3.57499609013639,0.7089091,-2.42147,-0.010079277,126.22955,-48.96973,18.201069,WAL
130402767230000,1.114947,-0.471352476647559,4.89424329018581,3.04282168887132,0.72692966,-2.6639833,-0.14630222,125.98784,-49.058666,18.219645,WAL
130402772240000,1.119957,-1.19927603687636,4.56430149459218,2.21773779464179,0.6951646,-2.7794368,-0.31306845,125.7604,-49.10925,18.172798,WAL
130402777244000,1.124961,-1.97436457414169,4.72597642473705,1.11929951625322,0.6001751,-2.8096747,-0.46609017,125.59406,-49.159798,18.127151,WAL
130402782223000,1.12994,-2.36779758699396,5.23557567407701,0.346369867112739,0.44990227,-2.783102,-0.61483586,125.68035,-49.27636,18.06471,WAL
130402787209000,1.134926,-2.3725238984658,6.10521752776403,-0.0979037270909631,0.27763826,-2.6746736,-0.68416905,125.767204,-49.367397,17.975233,WAL
130402792231000,1.139948,-2.19807200185799,7.1051556940243,-0.51897117544642,0.18417588,-2.4828618,-0.7984009,126.31321,-49.764233,17.869787,WAL
130402797227000,1.144944,-1.82326357204981,8.2391913466506,-0.908195230338455,-0.0143553335,-2.221106,-0.89552844,126.826,-50.098034,17.714333,WAL
130402802257000,1.149974,-1.32252210632904,9.17142113258509,-1.24033761949083,-0.18417588,-1.9055941,-0.9654725,127.35588,-50.572052,17.48084,WAL
130402807258000,1.154975,-0.693205589299206,9.8750320337622,-1.50692309126745,-0.29779682,-1.6010778,-1.0070114,127.83603,-51.018593,17.182938,WAL
130402812208000,1.159925,-0.0505629175783918,10.4255124982925,-1.72359330946911,-0.35094208,-1.3377949,-1.039998,128.29292,-51.575962,16.856424,WAL
130402817223000,1.16494,0.650244668966936,10.6156251383887,-1.82424121438994,-0.32742378,-1.1154399,-1.054048,128.68546,-52.123363,16.47779,WAL
130402822236000,1.169953,1.35077277093139,10.8056619608817,-1.92484898056504,-0.2556471,-0.9673051,-1.0592403,129.05098,-52.732033,16.162489,WAL
130402827224000,1.174941,2.1842813325667,10.8531445884698,-1.99887133094143,-0.13897185,-0.86315256,-1.0613784,129.36874,-53.353615,15.81392,WAL
130402832161000,1.179878,3.06387714590616,10.8434785046509,-2.06169956367168,-0.0033597588,-0.79168135,-1.0534371,129.65082,-53.991413,15.446962,WAL
130402837212000,1.184929,3.69854648592866,10.8506441973223,-2.03937102091832,0.15485434,-0.75716746,-1.035722,129.90656,-54.632656,15.223844,WAL
130402842236000,1.189953,4.23895756703208,10.8636143243778,-1.98749159613622,0.30207285,-0.7464773,-0.99296147,130.13904,-55.294464,14.998725,WAL
130402847242000,1.194959,4.70172807868869,10.8012957699731,-1.88980002847478,0.44806966,-0.7510588,-0.92485,130.34056,-55.92351,14.93266,WAL
130402852244000,1.199961,5.09730720020893,10.6726133355885,-1.75158567619142,0.58246,-0.795652,-0.82863873,130.53372,-56.569626,14.883058,WAL
130402857302000,1.205019,5.36465212477762,10.4545924868551,-1.67037190192726,0.68569624,-0.8414669,-0.72784597,130.6889,-57.16782,14.944852,WAL
130402862283000,1.21,5.51080371308559,10.1622888179482,-1.64208441992489,0.7315111,-0.8753699,-0.6383542,130.83604,-57.763832,15.024664,WAL
130402867911000,1.215628,5.5392083462211,9.80286765426462,-1.78083205315718,0.7425067,-0.86193085,-0.5549711,130.93056,-58.283905,15.184355,WAL
130402872268000,1.219985,5.47840673712842,9.50696644768797,-1.99161117630659,0.72418076,-0.7974846,-0.49113566,131.00742,-58.787468,15.350627,WAL
130402877227000,1.224944,5.32791437051994,9.19176741923271,-2.23143957496214,0.7067711,-0.6914995,-0.4370741,131.03604,-59.226246,15.554482,WAL
130402882223000,1.22994,5.07190001231701,8.90193964881373,-2.47296265813226,0.6899723,-0.6386596,-0.38759398,131.05078,-59.641994,15.764049,WAL
130402887201000,1.234918,4.76162837209302,8.68543030743993,-2.65061577728457,0.6814202,-0.5308419,-0.3753767,131.0476,-60.05725,15.967337,WAL
130402892243000,1.23996,4.37955030232558,8.55496448267876,-2.75312436157483,0.68844515,-0.41355577,-0.33200526,131.01462,-60.44971,16.177315,WAL
130402897187000,1.244904,3.9737464650517,8.48430106528803,-2.73260658629247,0.6954701,-0.3323107,-0.2742785,130.99048,-60.86267,16.362331,WAL
130402902241000,1.249958,3.50665498875431,8.50813225544067,-2.50859339885771,0.7141015,-0.2828306,-0.22907446,130.9369,-61.265182,16.540617,WAL
130402907204000,1.254921,3.06758408447589,8.52666738979673,-2.20496920852929,0.72295904,-0.28069258,-0.19242255,130.88698,-61.696167,16.667276,WAL
130402912232000,1.259949,2.65975872596652,8.53626347508968,-1.73956839035472,0.7266242,-0.32284227,-0.18234327,130.83096,-62.117928,16.794914,WAL
130402917162000,1.264879,2.28205664077784,8.53939679434296,-1.24649729322334,0.7287622,-0.39858958,-0.18478674,130.75957,-62.554287,16.834137,WAL
130402922255000,1.269972,1.93715609976429,8.52981603201729,-0.662082595992929,0.72692966,-0.5149594,-0.20861048,130.70924,-62.985207,16.87715,WAL
130402927159000,1.274876,1.641315941665,8.54166082120727,-0.134399770637617,0.72021013,-0.6704246,-0.2434298,130.6274,-63.396637,16.828468,WAL
130402932224000,1.279941,1.42316746480112,8.60468175214871,0.326135885868479,0.7079928,-0.818254,-0.2941316,130.57616,-63.808266,16.779562,WAL
130402937716000,1.285433,1.32867099827274,8.71418284444879,0.676703949885012,0.6960809,-0.8958339,-0.34300083,130.45296,-64.17781,16.635715,WAL
130402942263000,1.28998,1.45225337218281,8.86333398921074,0.755540991490923,0.677755,-0.92271197,-0.40683624,130.3594,-64.55094,16.485336,WAL
130402947178000,1.294895,1.58583757446298,9.02455630645398,0.84075851062289,0.6337727,-0.9663888,-0.45570546,130.20108,-64.88028,16.267475,WAL
130402952227000,1.299944,1.72306374685619,9.19017410498116,0.92829935581054,0.5653558,-0.9950995,-0.4813618,130.04657,-65.20269,16.043713,WAL
130402957215000,1.304932,1.90587392313825,9.34144649688897,0.930385935683453,0.48533243,-0.9560041,-0.4801401,129.87329,-65.50954,15.812775,WAL
130402962238000,1.309955,2.26130132500486,9.44901004243632,0.626401925755396,0.41905355,-0.8481864,-0.46578476,129.6867,-65.80162,15.579129,WAL
130402967187000,1.314904,2.59205258893093,9.53441704240299,0.309869543920085,0.35308012,-0.7067711,-0.44348818,129.40546,-66.02493,15.3665085,WAL
130402972241000,1.319958,2.82207712173211,9.50761799344807,-0.107747832531721,0.2864958,-0.5665775,-0.42363504,129.09077,-66.22696,15.152423,WAL
130402977204000,1.324921,3.04795993856873,9.48130147584552,-0.51784578253772,0.23548855,-0.50823987,-0.40317106,128.80234,-66.41981,15.021951,WAL
130402982224000,1.329941,3.27643701705348,9.45468271332995,-0.932653702954829,0.20738874,-0.3707952,-0.3943135,128.44858,-66.59908,14.876743,WAL
130402987209000,1.334926,3.50332112785955,9.42824953979606,-1.3445695362774,0.19058995,-0.20708331,-0.36651915,128.06473,-66.76022,14.737516,WAL
130402992245000,1.339962,3.57119206227939,9.36803050972181,-1.55623543852827,0.18478674,-0.05375614,-0.3484986,127.613205,-66.90979,14.577913,WAL
130402997163000,1.34488,3.6040659181374,9.30228260185462,-1.72060427647821,0.20433442,0.0711658,-0.32284227,127.11833,-67.05325,14.419028,WAL
130403002230000,1.349947,3.61432057228111,9.23540086876718,-1.78347061860031,0.23609942,0.16615535,-0.29718593,126.73525,-67.26649,14.393888,WAL
130403007922000,1.355639,3.61967109697684,9.16049363476639,-1.82627487203573,0.27152961,0.24220806,-0.27397305,126.31706,-67.47844,14.3655615,WAL
130403012228000,1.359945,3.57891636203464,9.08066961835556,-1.83290796908222,0.32406402,0.28955013,-0.25534168,125.90557,-67.7114,14.355027,WAL
130403017163000,1.36488,3.5271666531953,8.98657941728051,-1.83761247913597,0.3753767,0.3042109,-0.23151793,125.47614,-67.94346,14.348224,WAL
130403022265000,1.369982,3.45601232709475,8.94555484025059,-1.76173495246672,0.43493605,0.31703907,-0.21624629,125.02477,-68.18233,14.340379,WAL
130403027166000,1.374883,3.38250274813038,8.92258308183242,-1.66525347116288,0.49541172,0.310625,-0.20097467,124.569275,-68.424286,14.339262,WAL
130403032234000,1.379951,3.30939386492286,8.88129678243671,-1.67581517556369,0.573297,0.29749137,-0.18509217,124.11181,-68.67725,14.337303,WAL
130403037189000,1.384906,3.23900253318829,8.83436932594937,-1.72743542670095,0.63499445,0.31795537,-0.17073683,123.642105,-68.93234,14.33722,WAL
130403042235000,1.389952,3.1902280247949,8.84092333039603,-1.76711047079915,0.689056,0.32711834,-0.16615535,123.14818,-69.18981,14.31737,WAL
130403047178000,1.394895,3.1518704349134,8.8696916604882,-1.8006734558189,0.7464773,0.34116822,-0.16523905,122.642685,-69.45385,14.299458,WAL
130403052232000,1.399949,3.09445058424645,8.97452273990521,-1.53290273222749,0.78038037,0.321926,-0.16035213,122.15048,-69.73147,14.275928,WAL
130403057274000,1.404991,3.03037398075829,9.1072525535545,-1.15302029146919,0.8197812,0.22388211,-0.13591751,121.671745,-70.01168,14.263907,WAL
130403062229000,1.409946,2.97552093758518,9.21574768816585,-0.963438331509742,0.82558435,0.069027774,-0.11942416,121.22053,-70.298416,14.249072,WAL
130403067218000,1.414935,2.92507797691717,9.31204846040887,-0.880895257078414,0.806953,-0.08857546,-0.124005646,120.79445,-70.58036,14.242852,WAL
130403072250000,1.419967,2.83456034379246,9.41837601976529,-0.815874131902409,0.79412484,-0.19853121,-0.11453723,120.300156,-70.81755,14.208402,WAL
130403077338000,1.425055,2.70915680481779,9.53374696973441,-0.765712705836936,0.7797695,-0.2846632,-0.100792766,119.841415,-71.04568,14.184169,WAL
130403082228000,1.429945,2.5396117045142,9.59678813183857,-0.718446596263079,0.7870999,-0.3408628,-0.1020145,119.37395,-71.2748,14.138637,WAL
130403087213000,1.43493,2.3350440453712,9.63009001823617,-0.670872756701545,0.7965683,-0.44806966,-0.07971791,118.94108,-71.488495,14.113655,WAL
130403092232000,1.439949,2.08858157340536,9.58494758051112,-0.663002383897777,0.8017606,-0.54244834,-0.065973446,118.51764,-71.71878,14.060049,WAL
130403097227000,1.444944,1.81526052852691,9.48555818512362,-0.682880262975275,0.77824235,-0.61666846,-0.07788532,118.11691,-71.94095,14.012447,WAL
130403102236000,1.449953,1.56019075953255,9.38438485879853,-0.717317096271972,0.7687739,-0.6753115,-0.103847094,117.74309,-72.19059,13.926948,WAL
130403107239000,1.454956,1.3149351856384,9.28258004201275,-0.758964292901294,0.7370089,-0.7305948,-0.13439035,117.38821,-72.43016,13.8432255,WAL
130403112228000,1.459945,1.08230778279302,9.20334759907922,-0.78665580515634,0.7107417,-0.75502944,-0.15668693,117.06748,-72.70619,13.714918,WAL
130403117227000,1.464944,0.857307903990025,9.13906207011318,-0.8050231073662,0.68600166,-0.77732605,-0.18142697,116.76147,-72.978546,13.583313,WAL
130403122251000,1.469968,0.650408882390923,9.09229316472408,-0.786070610048479,0.66523224,-0.7855727,-0.22693644,116.49872,-73.290665,13.406238,WAL
130403127232000,1.474949,0.463438408348633,9.06277142764312,-0.731947582956163,0.6542367,-0.79351395,-0.2761111,116.241135,-73.6008,13.225696,WAL
130403132223000,1.47994,0.322401569075094,9.052719909539,-0.713959408901131,0.6377433,-0.7974846,-0.32406402,116.00429,-73.94897,12.991987,WAL
130403137214000,1.484931,0.216153352090461,9.05733949077027,-0.723198378418865,0.61850107,-0.7974846,-0.37598756,115.768555,-74.30097,12.747778,WAL
130403142233000,1.48995,0.220092437090909,9.07306654545455,-0.724180703636364,0.60048056,-0.79076505,-0.43066,115.54057,-74.678314,12.46013,WAL
130403147233000,1.49495,0.334073171454039,9.09974291922006,-0.716905342785515,0.58001655,-0.7770206,-0.48930305,115.31061,-75.05858,12.161576,WAL
130403152206000,1.499923,0.447438409851608,9.12627524056723,-0.709669268883262,0.55863625,-0.7641924,-0.55955255,115.08846,-75.46496,11.826053,WAL
130403157246000,1.504963,0.562330990089643,9.15316502532287,-0.702335705145606,0.54244834,-0.75869465,-0.63071835,114.864555,-75.87567,11.479378,WAL
130403162228000,1.509945,0.798542444774169,9.24383181116663,-0.711821054526235,0.5235115,-0.7672467,-0.70280045,114.64154,-76.291725,11.118863,WAL
130403167224000,1.514941,1.13418903060542,9.386366644532,-0.73481052829137,0.51251596,-0.7819075,-0.75136423,114.41823,-76.71004,10.751432,WAL
130403172265000,1.519982,1.45033527098865,9.50936556888169,-0.740797799189627,0.50335294,-0.80481493,-0.78984874,114.15282,-77.097534,10.403543,WAL
130403177244000,1.524961,1.73799558379254,9.6081148389159,-0.727917494705565,0.505491,-0.818254,-0.8017606,113.88781,-77.482735,10.056636,WAL
130403182183000,1.5299,1.999880332495,9.6854527887968,-0.72486218099457,0.50885075,-0.82558435,-0.82436264,113.577644,-77.821915,9.758571,WAL
130403187207000,1.534924,2.19239089970468,9.69920333847766,-0.752363711107936,0.48808134,-0.8197812,-0.84849185,113.26662,-78.15399,9.463288,WAL
130403192931000,1.540648,2.3799438766546,9.69765486582213,-0.781733717280248,0.48441613,-0.79534656,-0.8509353,112.89171,-78.43272,9.22394,WAL
130403197224000,1.544941,2.45080423676318,9.65868157342296,-0.799448801758014,0.4831944,-0.75594574,-0.86315256,112.511734,-78.71098,8.980228,WAL
130403202227000,1.549944,2.53338387375905,9.6132626631334,-0.820093704539814,0.46883908,-0.70707655,-0.86590147,112.09052,-78.95146,8.775912,WAL
130403207242000,1.554959,2.67204877790323,9.55729798346774,-0.759286310298387,0.4550946,-0.65576386,-0.86345804,111.65786,-79.189514,8.573448,WAL
130403212163000,1.55988,2.81932220383064,9.50028928981855,-0.683274292147178,0.45753807,-0.602924,-0.86467975,111.211365,-79.42559,8.372639,WAL
130403217230000,1.564947,2.97765750530409,9.5229420666002,-0.573397709491525,0.4709771,-0.559858,-0.86284715,110.74453,-79.6419,8.1966915,WAL
130403222253000,1.56997,3.13592687676969,9.56131017447657,-0.458292684745763,0.47311515,-0.5491679,-0.8481864,110.272156,-79.851,8.027905,WAL
130403227231000,1.574948,3.27746156456306,9.59549936028895,-0.335533173752383,0.4859433,-0.5696318,-0.8445212,109.711754,-80.02809,7.8714595,WAL
130403232159000,1.579876,3.41477872463128,9.62864506752283,-0.212421197414468,0.49205196,-0.6041457,-0.8268061,109.154366,-80.19595,7.727728,WAL
130403237211000,1.584928,3.53166252934132,9.62646876646707,-0.175937980538922,0.47891834,-0.6713409,-0.81000733,108.52183,-80.32178,7.60014,WAL
130403242217000,1.589934,3.64278828367781,9.61720810160324,-0.157417027929303,0.47708577,-0.7318166,-0.79076505,107.9022,-80.44538,7.4833703,WAL
130403247261000,1.594978,3.74332859565217,9.58494955072464,-0.190934692077295,0.45173484,-0.77854776,-0.7620544,107.19083,-80.51656,7.385044,WAL
130403252188000,1.599905,3.83830633894928,9.54695869142512,-0.238423543890902,0.40042216,-0.7965683,-0.7312057,106.49705,-80.5785,7.2978206,WAL
130403257289000,1.605006,3.97573727822092,9.46450106120199,-0.407566088298107,0.34574974,-0.7870999,-0.6908886,105.75855,-80.60628,7.2358255,WAL
130403262903000,1.61062,4.13877894034185,9.36074730435582,-0.629895516401397,0.2846632,-0.7480045,-0.66645396,105.02707,-80.622154,7.180863,WAL
130403267261000,1.614978,4.27963777365749,9.29688405682484,-0.905611389630931,0.2125811,-0.6762278,-0.63316184,104.267456,-80.608604,7.1528997,WAL
130403272300000,1.620017,4.44925985169889,9.2309195026362,-1.27312629384886,0.13439035,-0.5720753,-0.61391956,103.49823,-80.583466,7.127572,WAL
130403277228000,1.624945,4.60836686979364,9.19194150821225,-1.64012353241735,0.04337143,-0.5006041,-0.5925393,102.789925,-80.542274,7.1570582,WAL
130403282259000,1.629976,4.76562206249737,9.17165065571699,-2.02057926788798,-0.0033597588,-0.3555236,-0.5555819,102.0382,-80.491165,7.190699,WAL
130403287254000,1.634971,4.90028620344226,9.15540948929908,-2.15639835685707,-0.074830994,-0.21777347,-0.50823987,101.35986,-80.44287,7.271153,WAL
130403292269000,1.639986,5.02487786769768,9.14103348954852,-2.17317029818907,-0.14446963,-0.09193522,-0.45478916,100.64826,-80.38036,7.3577375,WAL
130403297257000,1.644974,5.14879874931404,9.12673488800199,-2.18985194193066,-0.17898351,0.008552114,-0.3912592,100.001945,-80.32534,7.4998565,WAL
130403302270000,1.649987,5.27334072596658,9.11236462145173,-2.20661719455226,-0.13225232,0.02076942,-0.35094208,99.34863,-80.26721,7.645449,WAL
130403307286000,1.655003,5.34970019179053,9.22697463165666,-2.03623804909932,-0.03604105,-0.027794369,-0.31673363,98.67075,-80.20381,7.792967,WAL
130403312266000,1.659983,5.4013407182203,9.40536981031598,-1.77334012843784,0.1386664,-0.122783914,-0.27305678,98.00619,-80.15185,7.951632,WAL
130403317258000,1.664975,5.38542822163685,9.72216446162791,-1.50611050200358,0.33169982,-0.2098322,-0.2098322,97.31613,-80.07374,8.160415,WAL
130403322245000,1.669962,5.32989396205724,10.1194485976744,-1.23698254175313,0.52106804,-0.2507602,-0.12797627,96.64391,-80.00539,8.383763,WAL
130403327206000,1.674923,5.24091183452738,10.5215960099389,-0.954882726560721,0.6545421,-0.24465153,-0.03756821,95.863106,-79.91653,8.598021,WAL
130403332742000,1.680459,5.08173386645615,10.9826624491148,-0.614571440837561,0.7296785,-0.22815818,0.057421334,95.09638,-79.82216,8.83418,WAL
130403337206000,1.684923,4.9446380270287,11.2736235333471,-0.44984297301879,0.7254025,-0.17592919,0.13652839,94.21795,-79.71849,9.037709,WAL
130403342238000,1.689955,4.78045414298988,11.5124372868057,-0.385164426489779,0.6536258,-0.070554934,0.20769419,93.327415,-79.592636,9.261481,WAL
130403347260000,1.694977,4.730508681796,11.7111328745426,-0.521762081615839,0.49877146,0.06719518,0.27885997,92.28448,-79.47371,9.41619,WAL
130403352223000,1.69994,4.78402809599324,11.8716906048607,-0.838418544984517,0.26236662,0.27488935,0.36713,91.2046,-79.31604,9.591158,WAL
130403357263000,1.70498,4.9587493148457,12.1008222097581,-1.22704931048791,-0.014049901,0.50671273,0.47250426,90.080284,-79.151985,9.738407,WAL
130403362326000,1.710043,5.32270786259383,12.4344513183903,-1.72243741591952,-0.27885997,0.7357872,0.6056729,88.91063,-78.9359,9.911711,WAL
130403367265000,1.714982,5.62250766992712,12.7014358135788,-2.02746547541235,-0.49296826,0.87872964,0.7535023,87.85571,-78.673096,10.151622,WAL
130403372347000,1.720064,5.86986797688914,12.9114586743383,-2.14414493996931,-0.60231316,0.89888823,0.8781188,86.778786,-78.37198,10.4121,WAL
130403377224000,1.724941,5.95991298228365,13.13588705621,-2.11887719005658,-0.60903263,0.86101454,0.9224065,85.76809,-78.03798,10.743829,WAL
130403382231000,1.729948,5.81758548924033,13.4027516571747,-1.87425154579353,-0.58276546,0.6737844,0.9947941,84.800896,-77.66831,11.108898,WAL
130403387176000,1.734893,5.56596907168459,13.6795468466384,-1.55609016831541,-0.49571714,0.44043383,1.0882565,83.86163,-77.282074,11.5133915,WAL
130403392205000,1.739922,4.90686364516129,14.0090990136852,-0.95452587483871,-0.40317106,0.17989981,1.1893547,82.99263,-76.89141,11.931929,WAL
130403397166000,1.744883,4.22631834425511,14.2554591075949,-0.399838699386563,-0.37293324,-0.042760566,1.2742649,82.13446,-76.52249,12.311697,WAL
130403402445000,1.750162,3.44853438625122,14.3785266303797,0.121965798146056,-0.43279803,-0.17654006,1.3481796,81.33288,-76.140976,12.709978,WAL
130403407194000,1.754911,2.79443614573529,14.4224491120588,0.502576728205882,-0.5992588,-0.19456059,1.4034629,80.487976,-75.82653,12.985393,WAL
130403412198000,1.759915,2.19775599691176,14.3331821673529,0.723395349735294,-0.88300574,-0.056505036,1.4636332,79.64282,-75.47846,13.276306,WAL
130403417194000,1.764911,1.67762632185518,14.2016156941479,0.885442150610099,-1.2809844,0.18509217,1.5418239,78.739815,-75.17183,13.445144,WAL
130403422581000,1.770298,1.32146014858313,13.9448442980653,0.902008029694148,-1.7131716,0.45845437,1.6282613,77.79506,-74.809746,13.624604,WAL
130403427274000,1.774991,1.01117838671831,13.7211524172754,0.916439748747692,-2.1438315,0.6750061,1.702176,76.81423,-74.442444,13.721747,WAL
130403432259000,1.779976,0.915660309815829,13.5959616175623,0.846143739592518,-2.4840834,0.7666359,1.7623463,75.79827,-74.004364,13.828146,WAL
130403437712000,1.785429,0.871771789690727,13.4881212952024,0.747081072549104,-2.7101038,0.75136423,1.7913623,74.76002,-73.50417,13.933806,WAL
130403462212000,1.809929,0.674583316728137,13.0036012332517,0.301998486346348,-2.4700336,-0.22999077,1.7424932,70.5155,-70.80763,14.274524,WAL
130403467190000,1.814907,0.634517838425779,12.9051546671949,0.211564971484416,-2.379931,-0.3213151,1.6777414,69.824196,-70.29551,14.337881,WAL
130403472215000,1.819932,0.552970972830405,12.8370887549656,0.0150849381560351,-2.3289237,-0.48349985,1.6331482,69.22271,-69.79299,14.421158,WAL
130403477230000,1.824947,0.424554695233002,12.8049845179526,-0.301369449262796,-2.3057108,-0.6243043,1.5271631,68.65595,-69.333206,14.468622,WAL
130403482227000,1.829944,0.302283610639803,12.8256714601661,-0.549710466410335,-2.245846,-0.7305948,1.4068227,68.22248,-68.91429,14.556629,WAL
130403487209000,1.834926,0.189767671738952,12.9332955327592,-0.686686375371681,-2.1859813,-0.86101454,1.3225232,67.843544,-68.52046,14.632161,WAL
130403492232000,1.839949,0.0887680039046198,13.0503736304147,-0.751431957475049,-2.1007655,-1.0146471,1.2596041,67.59699,-68.192505,14.707569,WAL
130403497225000,1.844942,0.00512884915814384,13.1782923484926,-0.716992330270604,-2.0347922,-1.2076806,1.2311989,67.402954,-67.88833,14.778539,WAL
130403502227000,1.849944,-0.0660182932142659,13.2425922253072,-0.541366989608888,-1.9712621,-1.3845261,1.2229522,67.29417,-67.6172,14.864001,WAL
130403507235000,1.854952,-0.123626022396932,13.2381605409314,-0.213446080003788,-1.9013181,-1.5286902,1.2113458,67.232765,-67.372536,14.94982,WAL
130403512227000,1.859944,-0.0883750629685288,13.1838721372645,0.112125710880867,-1.861001,-1.6588045,1.2125676,67.21807,-67.140625,15.040244,WAL
130403517306000,1.865023,0.149981372758358,13.0196713249483,0.440527906852445,-1.8600847,-1.7250835,1.205848,67.22658,-66.923,15.128307,WAL
130403522209000,1.869926,0.441908481714445,12.8132452248817,0.66690879683273,-1.9135354,-1.6792686,1.217149,67.17342,-66.684006,15.182972,WAL
130403527234000,1.874951,0.80800213186752,12.5498366735319,0.800845498335653,-1.9807305,-1.5332718,1.2272283,67.11032,-66.44662,15.229725,WAL
130403532225000,1.879942,1.17889040148925,12.2526806792868,0.867835484339801,-2.076331,-1.3231341,1.2189816,66.9431,-66.133316,15.288201,WAL
130403537213000,1.88493,1.56465039423178,11.8819501295228,0.797697267697955,-2.1294763,-1.1087204,1.1713341,66.736374,-65.824356,15.321875,WAL
130403542218000,1.889935,1.89823628710321,11.507467606109,0.736683747115193,-2.1300871,-0.9083566,1.0937542,66.387314,-65.46759,15.351203,WAL
130403547224000,1.894941,2.15665512164105,11.1294101686963,0.688828425893392,-2.0696115,-0.78038037,0.9941832,66.00928,-65.13116,15.345331,WAL
130403552899000,1.900616,2.39116321500407,10.765435315818,0.601404781975219,-1.9547688,-0.7247916,0.89552844,65.62947,-64.75698,15.407649,WAL
130403557251000,1.904968,2.52309230217057,10.5392714362847,0.507169753450303,-1.8057177,-0.75441855,0.8219192,65.24927,-64.42523,15.441821,WAL
130403562218000,1.909935,2.67069238956856,10.2821797931442,0.340794519414894,-1.645671,-0.829555,0.7849618,64.84373,-64.105675,15.493858,WAL
130403567223000,1.91494,2.80761369931048,10.0272225689519,-0.0605267023049646,-1.4899004,-0.86651236,0.78954333,64.44432,-63.83219,15.533627,WAL
130403572276000,1.919993,2.92670981898854,9.76252010322947,-0.453792262964296,-1.3991868,-0.8903361,0.806953,64.129135,-63.54454,15.658582,WAL
130403577236000,1.924953,2.95820020557818,9.47010933705843,-0.786690383165073,-1.2336423,-0.86834496,0.8530733,63.81046,-63.31099,15.787534,WAL
130403582310000,1.930027,2.9868594548143,9.1679682790003,-1.09397116004779,-1.0506883,-0.82650065,0.9071349,63.61197,-63.09977,16.010242,WAL
130403587279000,1.934996,2.97264444360251,8.83628468405855,-0.999204349367719,-0.8732319,-0.8127562,0.9428705,63.4129,-62.92569,16.23599,WAL
130403592334000,1.940051,2.9605475696457,8.50857244933159,-0.91176806584089,-0.74281216,-0.86651236,0.97066486,63.306957,-62.77848,16.534273,WAL
130403597224000,1.944941,2.97805922786763,8.3115660657661,-0.938035571459288,-0.6569856,-0.91721416,0.9795224,63.195644,-62.661015,16.829952,WAL
130403602227000,1.949944,2.99597555222025,8.11000718294849,-0.96491007669627,-0.6310238,-0.9462303,1.0140363,63.07601,-62.515545,17.153732,WAL
130403607236000,1.954953,3.00219107138609,7.96683612113648,-1.18583454938927,-0.60231316,-0.93584555,1.0546589,62.95872,-62.3885,17.477642,WAL
130403612446000,1.960163,3.01137158176909,7.83284624424581,-1.43896613684358,-0.60231316,-0.8781188,1.0983357,62.832962,-62.255276,17.804441,WAL
130403617219000,1.964936,3.06670042886406,7.82007806927374,-1.71986611955307,-0.5934556,-0.7305948,1.1414018,62.687714,-62.103333,18.151043,WAL
130403623219000,1.970936,3.13614393388495,7.81000297431048,-2.05358730921986,-0.5693264,-0.52381694,1.201572,62.559856,-61.948814,18.529736,WAL
130403627231000,1.974948,3.18156011375098,7.8592038786446,-2.09521892269504,-0.54428095,-0.29993483,1.2809844,62.38045,-61.784546,18.902855,WAL
130403632194000,1.979911,3.23774169417849,7.92006731040189,-2.14671884734043,-0.50701815,-0.070249505,1.3579534,62.198246,-61.634377,19.30066,WAL
130403637210000,1.984927,3.21854292039208,7.99358356092996,-2.12678707863265,-0.49449542,0.13072516,1.42973,61.955677,-61.468662,19.69337,WAL
130403642172000,1.989889,3.1857737277017,8.06848478228746,-2.09401783706039,-0.50579643,0.3726278,1.4905112,61.6321,-61.29187,20.071346,WAL
130403647228000,1.994945,3.12525141828932,8.1603227154119,-2.25823901436736,-0.50976706,0.7012733,1.5555683,61.234825,-61.102127,20.450306,WAL
130403652209000,1.999926,3.05944243450926,8.25433540914466,-2.46506698966299,-0.5021312,1.1108584,1.6129897,60.742634,-60.901283,20.806185,WAL
130403657247000,2.004964,3.00339859272746,8.26671976637576,-2.62756002755542,-0.4801401,1.5357152,1.6539177,60.151035,-60.695995,21.129179,WAL
130403662166000,2.009883,2.95141834684522,8.25726861520714,-2.77404991009128,-0.45570546,1.7580702,1.672549,59.49962,-60.486927,21.436264,WAL
130403667220000,2.014937,2.88649781972266,8.21234159275743,-2.68812425290921,-0.4370741,2.151162,1.6740762,58.717625,-60.310284,21.683426,WAL
130403672226000,2.019943,2.81912005215966,8.15843950065586,-2.53989327683875,-0.42058071,2.425746,1.645671,57.910816,-60.142315,21.91341,WAL
130403677243000,2.02496,2.6761592571021,8.04602128865906,-2.21042728566334,-0.3915646,2.5766296,1.5958854,57.060364,-60.00242,22.111818,WAL
130403682225000,2.029942,2.49628042608518,7.90503530820257,-1.79233052546362,-0.3817908,2.5912905,1.5219707,56.18012,-59.87619,22.279274,WAL
130403687259000,2.034976,2.26862397789708,7.76437244089766,-1.41762679528439,-0.36835176,2.513405,1.4312572,55.27438,-59.761578,22.406403,WAL
130403692586000,2.040303,2.00708121151093,7.61632924697234,-1.04258427608822,-0.3378085,2.368019,1.3374895,54.396942,-59.67216,22.516115,WAL
130403697258000,2.044975,1.71794431390108,7.42578970618269,-0.81346511684284,-0.28588495,2.2159138,1.2449434,53.495403,-59.583885,22.5663,WAL
130403702260000,2.049977,1.37878132959713,7.1917194501795,-0.61761045508576,-0.20922135,2.0604484,1.1313224,52.654236,-59.534798,22.599354,WAL
130403707310000,2.055027,0.952636446320574,6.89121891538228,-0.499188521951318,-0.1337795,1.9300288,1.0149527,51.80186,-59.503292,22.563766,WAL
130403712341000,2.060058,0.480608493784466,6.55544659123321,-0.42619449955762,-0.08093964,1.8176296,0.8894198,51.00761,-59.511734,22.509014,WAL
130403717258000,2.064975,0.0187994177243136,6.24163305170299,-0.399275766593075,-0.020158553,1.7437148,0.75502944,50.222153,-59.56839,22.374039,WAL
130403722268000,2.069985,-0.451990239733937,5.92928226427021,-0.394748946327012,0.003970624,1.6646078,0.65209866,49.485752,-59.650555,22.226795,WAL
130403727262000,2.074979,-0.883717471351025,5.64302085838359,-0.377226840072376,0.0421497,1.57084,0.54733527,48.784866,-59.7998,21.988745,WAL
130403732265000,2.079982,-1.28347210793124,5.37812317310012,-0.348328912597507,0.06505715,1.455081,0.47342056,48.12523,-59.96761,21.743166,WAL
130403737235000,2.084952,-1.59490827511303,5.09948569034462,-0.257394123596906,0.08460484,1.3029755,0.4089743,47.51982,-60.19893,21.415888,WAL
130403742288000,2.090005,-1.83800890218025,4.80290307153622,-0.111533763602532,0.110872045,1.1410962,0.3555236,46.960617,-60.450233,21.085865,WAL
130403747257000,2.094974,-1.98871647584292,4.32960959143197,-0.0505090119000397,0.14874569,0.9828822,0.30848694,46.44129,-60.74712,20.692673,WAL
130403752266000,2.099983,-2.06958659208647,3.7064341592622,-0.0552660756913923,0.20158553,0.8426886,0.24373524,45.973488,-61.06734,20.295904,WAL
130403757278000,2.104995,-1.95600276594819,3.36521165384615,-0.0293279055258058,0.26725355,0.7293731,0.1695151,45.52496,-61.39615,19.86236,WAL
130403762372000,2.110089,-1.67141991342693,3.26391942307692,0.0237299131382243,0.35888332,0.6252206,0.08155051,45.124584,-61.756386,19.421383,WAL
130403767254000,2.114971,-1.37729211141774,3.22496237996307,0.0645799305350306,0.45540005,0.58368176,0.033292156,44.73789,-62.09093,19.00195,WAL
130403772306000,2.120023,-1.05289597988534,3.23906654678846,0.097489676691478,0.49571714,0.4801401,-0.062308256,44.41451,-62.459576,18.562233,WAL
130403777228000,2.124945,-0.757619985800241,3.30228730721096,0.136823427479404,0.57910025,0.40439278,-0.13713925,44.084686,-62.804394,18.18093,WAL
130403782246000,2.129963,-0.48181717954272,3.42684342225308,0.185756182978802,0.64965516,0.32620203,-0.21868975,43.79671,-63.174335,17.78261,WAL
130403787236000,2.134953,-0.181631604295492,3.59620686665942,0.239891461351439,0.7293731,0.2519819,-0.2855795,43.514313,-63.522118,17.442965,WAL
130403792275000,2.139992,0.185345797327539,3.87930374405215,0.308044409869636,0.7779369,0.17592919,-0.35918877,43.264103,-63.893616,17.088373,WAL
130403797249000,2.144966,0.546600948192654,4.14085471232678,0.43281894229092,0.8335256,0.1441642,-0.43860126,43.005474,-64.25356,16.77244,WAL
130403802268000,2.149985,0.909925643207675,4.38307114648706,0.628455301564105,0.8750645,0.13744467,-0.5170974,42.768406,-64.63198,16.443808,WAL
130403807206000,2.154923,1.26364556823723,4.63177388723878,0.880573268237229,0.93370754,0.15088372,-0.5910121,42.51602,-64.99612,16.156477,WAL
130403812265000,2.159982,1.61988868943498,4.9036434998065,1.23681638943498,0.9819659,0.1591304,-0.65057147,42.272976,-65.374916,15.856294,WAL
130403817155000,2.164872,1.9847000486797,5.20188135436404,1.65992639542431,1.0247264,0.17989981,-0.7147123,41.95172,-65.701164,15.590469,WAL
130403822289000,2.170006,2.41581851419069,5.59831235920177,2.28926025986696,1.0586295,0.20891592,-0.7901542,41.633263,-66.043846,15.30873,WAL
130403827155000,2.174872,2.89187764086117,5.99678056925806,2.87389601697704,1.0986412,0.22815818,-0.88025683,41.185467,-66.29052,15.055032,WAL
130403832260000,2.179977,3.53738026875554,6.46404742131245,3.46159247992906,1.105666,0.26267207,-0.99265605,40.73923,-66.54973,14.777227,WAL
130403837179000,2.184896,4.23278616814282,7.03740883369169,4.04877062345399,1.094976,0.34972036,-1.0940597,39.97694,-66.63475,14.492583,WAL
130403842387000,2.190104,5.15268118201006,7.95238478137883,4.72270441795049,1.0216721,0.46792278,-1.17897,39.22662,-66.72128,14.185433,WAL
130403847164000,2.194881,6.18298411833285,8.89537566637521,5.29692164257262,0.94989544,0.61300325,-1.210124,38.241043,-66.61769,13.945054,WAL
130403852243000,2.19996,7.80386458816672,10.1901895666958,5.7836584024094,0.8268061,0.79351395,-1.2006557,37.256325,-66.49924,13.687945,WAL
130403857239000,2.204956,9.54129937521256,11.5191107384215,6.27912358651595,0.63163465,1.063211,-1.0797043,36.22816,-66.21131,13.586331,WAL
130403862275000,2.209992,11.8087335654696,13.0580714338302,6.83874544691407,0.3475823,1.2144,-0.8228355,35.207897,-65.87044,13.520203,WAL
130403867204000,2.214921,13.8723468928571,14.5136510357143,7.31907464285714,0.17470746,1.5503759,-0.6365216,34.254158,-65.43343,13.736322,WAL
130403872320000,2.220037,15.4238856953662,15.8322120429988,7.56196745726427,-0.19608775,1.8897116,-0.1386664,33.224804,-64.8324,14.059851,WAL
130403877835000,2.225552,16.7993371339402,17.0162675058518,7.72520790949285,-0.5891795,2.1755965,0.41447207,32.249626,-64.06863,14.757921,WAL
130403882258000,2.229975,17.4131107554338,17.5749578100502,7.69373238550994,-0.88270026,2.356718,0.9764681,31.171038,-63.22229,15.482709,WAL
130403887239000,2.234956,17.971293244898,18.0540389757653,7.63161578469388,-1.0042624,2.3423629,1.4376713,30.140675,-62.304935,16.41209,WAL
130403892266000,2.239983,17.1627755289116,16.9896620279549,7.29388046590136,-0.9111055,2.1169536,1.743104,29.079279,-61.36412,17.345232,WAL
130403897262000,2.244979,16.1094228504028,15.6697938691024,6.92044948199079,-0.6603453,1.758681,1.7776178,28.098818,-60.478302,18.315868,WAL
130403902270000,2.249987,14.1225608020713,13.3701849101458,6.40533710976218,-0.31612277,1.3970488,1.5583172,27.177855,-59.67211,19.2327,WAL
130403907257000,2.254974,12.1016576621802,11.0794034638858,5.92536013851844,-0.03359759,1.1252137,1.2657127,26.311941,-58.93891,20.066435,WAL
130403912385000,2.260102,9.72008390444878,8.71801241405528,5.66802905852255,0.1872302,0.9080512,0.9957104,25.557943,-58.32899,20.83269,WAL
130403917242000,2.264959,7.5602237684056,6.57957364118626,5.41733154879123,0.3436117,0.6404922,0.72295904,24.89281,-57.84271,21.403233,WAL
130403922257000,2.269974,5.7786351278066,4.83089021356563,5.12588435993932,0.49418998,0.32528573,0.45937067,24.335276,-57.459465,21.922365,WAL
130403927229000,2.274946,4.07982513009983,3.17547004908743,4.7926187010487,0.675617,0.004581489,0.2003638,23.721745,-57.193913,22.205296,WAL
130403932259000,2.279976,2.81688784059695,2.02911169555309,4.15629265980639,0.8542951,-0.27916542,-0.05467244,23.22067,-57.0082,22.45415,WAL
130403937225000,2.284942,1.6277849817998,1.01683978666337,3.50904918,1.031446,-0.50701815,-0.28863382,22.745249,-56.9376,22.524729,WAL
130403942268000,2.289985,0.762285356512871,0.696461441881188,2.7391848,1.2177598,-0.689056,-0.5021312,22.368162,-56.944996,22.565771,WAL
130403947858000,2.295575,-0.136539406685628,0.581618285270296,1.90997310303259,1.3775011,-0.8481864,-0.70952,22.367819,-57.099003,22.525846,WAL
130403952262000,2.299979,-0.680723583748729,1.14169099188171,1.32209538696553,1.5247196,-1.0103711,-0.99112886,22.452187,-57.339825,22.43362,WAL
130403957529000,2.305246,-1.29752597317452,1.88223478420508,0.618886911280166,1.6383406,-1.1863003,-1.3738359,22.706362,-57.782986,22.207485,WAL
130403962265000,2.309982,-1.36799058964267,3.55459633946142,-0.0152950931196272,1.7253889,-1.2705997,-1.5796975,22.988825,-58.267723,21.9588,WAL
130403967264000,2.314981,-1.40798479144971,5.38768232436284,-0.706675940378186,1.7650951,-1.4666874,-1.9840903,23.341703,-59.054024,21.457047,WAL
130403972239000,2.319956,-1.04674398346579,8.00341357424865,-1.65112475496209,1.7959439,-1.6841555,-2.3530529,23.737648,-59.887604,20.91335,WAL
130403977168000,2.324885,-0.688843291495387,10.5949591683566,-2.58684097749155,1.7357736,-1.8741345,-2.685669,24.410185,-61.006596,20.214676,WAL
130403982229000,2.329946,-0.179899933511084,12.8743207900705,-4.36302840205333,1.5497651,-1.9147571,-2.892447,25.114954,-62.153687,19.445889,WAL
130403987215000,2.334932,0.342037470141996,15.064507242415,-6.2312717529574,1.244638,-1.6255124,-2.8872545,25.777534,-63.285686,18.62033,WAL
130403992228000,2.339945,1.24882410822642,16.2255026813307,-6.56272989841112,0.89644474,0.2773328,-2.6429086,26.022964,-64.639046,17.598522,WAL
130403997166000,2.344883,2.17396642083019,17.2821370982125,-6.75996842750745,-0.19517145,3.9159517,-2.0103576,25.63582,-65.68008,16.515987,WAL
130404002219000,2.349936,2.76903534261257,17.8735946352301,-3.68107627662939,-1.9486601,5.9052343,-0.97127575,25.15074,-66.63371,15.643089,WAL
130404007229000,2.354946,3.3198179351905,18.4053844442355,-0.262426310295893,-2.4061983,6.0322943,-0.97127575,24.7738065707744,-67.0190251801712,15.3653746161656,WAL
130404012265000,2.359982,3.32029277293642,17.4650316090183,2.93111595201967,-2.1649065,4.7723846,0.6637051,24.394917,-67.40634,15.086219,WAL
130404017613000,2.36533,3.24833380806112,16.2732121044521,6.29069814402529,-1.4559973,2.8484647,1.0375546,23.32559,-68.01977,14.485175,WAL
130404022241000,2.369958,2.73586361372183,13.8178664431006,7.77325131958219,-0.54367006,0.8219192,1.178359,22.410482,-67.9644,14.370536,WAL
130404027206000,2.374923,1.94120447293018,10.4091974175371,8.58882236345245,0.28099802,-0.84757555,1.1468995,21.924797,-67.99968,14.44062,WAL
130404032222000,2.379939,0.768905490867489,7.47673761455432,7.96732101213689,0.8900307,-2.0485365,0.93554014,21.707952,-67.7427,14.587814,WAL
130404037232000,2.384949,-0.500755005153203,4.68443888544568,6.96018441643454,1.2977833,-2.9107728,0.56413406,21.88085,-67.66025,14.793399,WAL
130404042242000,2.389959,-1.50643682666788,2.84813800073013,5.81581283690791,1.5525141,-3.5555413,0.109650314,22.08228,-67.49692,14.954384,WAL
130404047227000,2.394944,-2.43449196091996,1.28395105197591,4.63940470238204,1.6869044,-4.0231586,-0.37782016,22.505009,-67.47188,15.063923,WAL
130404052219000,2.399936,-3.12404511284047,0.205643999526764,3.48601799421601,1.74738,-4.310876,-0.8414669,23.36884,-67.67387,15.065367,WAL
130404057292000,2.405009,-3.6553994233463,-0.545404607740036,2.33134461651067,1.7275269,-4.388456,-1.2098186,24.332867,-67.958984,14.973393,WAL
130404062225000,2.409942,-3.91307055864514,-0.612354417644863,1.42295245032192,1.672549,-4.440685,-1.3530666,25.463589,-68.43703,14.760833,WAL
130404067224000,2.414941,-4.06048639009984,-0.388996886647383,0.596529520327517,1.5070046,-4.3319507,-1.5491543,26.601309,-68.968414,14.412288,WAL
130404072240000,2.419957,-4.13600584496745,0.116007247112819,-0.261466583632191,1.2449434,-4.059505,-1.6594155,27.626698,-69.5913,13.969751,WAL
130404077234000,2.424951,-4.15132019196286,0.851093877361511,-1.13948675493116,0.9083566,-3.6532795,-1.6643023,28.58411,-70.18089,13.469255,WAL
130404082226000,2.429943,-4.11483041223436,1.70792508251241,-2.03992073216485,0.537256,-3.164893,-1.5919148,29.447147,-70.8438,12.89134,WAL
130404087352000,2.435069,-4.0514561522145,2.64878975840119,-2.97591036316783,0.1740966,-2.6535985,-1.4459181,30.177027,-71.42056,12.289119,WAL
130404092239000,2.439956,-3.97844079976148,3.5870995360167,-3.96610566905188,-0.1554652,-2.1203132,-1.2947289,30.941029,-72.07789,11.664698,WAL
130404097228000,2.444945,-3.89771756994633,4.56527588810376,-5.02500530053667,-0.40439278,-1.5216653,-1.2473868,31.533182,-72.66243,11.002707,WAL
130404102219000,2.449936,-3.33226382470896,6.69563305261258,-6.07992495054598,-0.5766568,-0.88331115,-1.2696834,32.008385,-73.34406,10.311888,WAL
130404107246000,2.454963,-2.49375432713654,9.48052708663478,-7.140009510333,-0.70005155,-0.2764165,-1.2825116,32.312485,-73.96526,9.594042,WAL
130404112230000,2.459947,-1.69308262609495,11.631276802144,-7.70025717366003,-0.8011498,0.2959642,-1.2574661,32.46071,-74.7371,8.838585,WAL
130404117217000,2.464934,-0.932440743848902,12.9770280438999,-7.61249055589587,-0.8228355,0.8194757,-1.1566733,32.43694,-75.47948,8.066366,WAL
130404122250000,2.469967,-0.204305885145003,13.9081991536094,-7.37601919570207,-0.75961095,1.2415836,-1.0390818,32.274464,-76.41083,7.4034104,WAL
130404127230000,2.474947,0.472324626434383,14.3559692610578,-6.97800155330691,-0.5766568,1.5008959,-0.9092729,31.991602,-77.3233,6.765088,WAL
130404132221000,2.479938,1.03922968673709,14.2209026765454,-6.40427048896714,-0.31031954,1.6209309,-0.8011498,31.617336,-78.1879,6.2695713,WAL
130404137222000,2.484939,1.51704148585681,13.611926983617,-5.6875526435446,0.013439035,1.643533,-0.7067711,31.183294,-79.0623,5.8121796,WAL
130404142237000,2.489954,1.92688357012033,12.7738355213135,-4.77145110018356,0.3894266,1.5503759,-0.61941737,30.7459,-79.862404,5.5081835,WAL
130404147219000,2.494936,2.26747256899857,11.7228748480522,-3.67183519677748,0.79504114,1.3078625,-0.5714644,30.337423,-80.70653,5.2333713,WAL
130404152221000,2.499938,2.59131675713436,10.7380170826971,-2.69585543391175,1.1939361,1.1362094,-0.55924714,29.936035,-81.43375,5.0779557,WAL
130404157289000,2.505006,2.90413693395141,9.79955665275161,-1.81514633386217,1.561677,0.72692966,-0.5546656,29.666927,-82.20402,4.9540954,WAL
130404162239000,2.509956,3.17656746630215,9.12043338127183,-1.08482645770447,1.7290541,0.27397305,-0.55863625,29.463968,-82.77787,4.9139442,WAL
130404167222000,2.514939,3.42214634682963,8.64243125307848,-0.462108677261533,2.0271564,-0.17195857,-0.57360244,29.373053,-83.40933,4.8827634,WAL
130404172270000,2.519987,3.66231008532688,8.2562733705569,0.184292093113801,2.2272146,-0.61758476,-0.5671884,29.412355,-83.82911,4.9351554,WAL
130404177236000,2.524953,3.88340487037288,8.04899738833898,0.847576659877966,2.359467,-1.0473285,-0.5360342,29.571257,-84.215454,4.9957685,WAL
130404182223000,2.52994,4.29686443843268,7.89512510879533,2.11665801627762,2.4251351,-1.4575244,-0.50854534,29.847532,-84.4256,5.1153426,WAL
130404187218000,2.534935,5.1841961018341,7.87518508545227,4.87835327935598,2.4636195,-2.010663,-0.46792278,30.283197,-84.54723,5.2485,WAL
130404192228000,2.539945,5.85415954984725,7.98684524940937,6.58572150004073,2.452013,-2.7565293,-0.4025602,30.87812,-84.49434,5.437897,WAL
130404197228000,2.544945,6.14673006919552,8.32330125755601,6.47356936154786,2.232407,-3.2430835,-0.26145032,31.551363,-84.33876,5.6537466,WAL
130404202228000,2.549945,6.20505137689793,8.59669136999637,5.94996042295677,1.7174476,-3.1215215,-0.09010262,32.136417,-83.95618,6.0332675,WAL
130404207359000,2.555076,5.91232586992372,8.78232211565565,4.79333815630222,1.0946705,-2.5234842,0.03970624,32.71114,-83.54386,6.4358625,WAL
130404212248000,2.559965,5.63340655524882,8.95919771798039,3.69126716396658,0.5555819,-1.6966782,0.096516706,33.21351,-83.04854,6.9109244,WAL
130404217225000,2.564942,5.22868526986386,9.06288531784215,2.59792909447231,0.17195857,-0.93859446,0.10140363,33.550762,-82.51536,7.398927,WAL
130404222259000,2.569976,4.75492898035623,9.1270395743679,1.50730255957621,-0.032375857,-0.40042216,0.06627888,33.702316,-81.95339,7.8812876,WAL
130404227232000,2.574949,4.31092030443856,9.18842227055085,0.871780614574153,-0.09010262,-0.11789699,0.013744468,33.789783,-81.502014,8.288705,WAL
130404232192000,2.579909,3.87817853664195,9.24880501631356,0.423943128811441,-0.03756821,-0.053450707,-0.04184427,33.78076,-81.0585,8.676374,WAL
130404237223000,2.58494,3.54381850853793,9.31759418688164,0.2961230078417,0.06841691,-0.1563815,-0.06169739,33.77377,-80.747475,8.9759655,WAL
130404242236000,2.589953,3.2359587711616,9.38796217671308,0.247745041238549,0.1740966,-0.3707952,-0.06780604,33.77946,-80.45584,9.260138,WAL
130404247227000,2.594944,2.89627515786177,9.34815318542493,0.22043653215285,0.25961772,-0.65484756,-0.057726767,33.847904,-80.267654,9.465685,WAL
130404252245000,2.599962,2.53502421403216,9.24278828314888,0.20538440774692,0.2742785,-0.8051204,-0.08307768,33.939278,-80.095,9.657313,WAL
130404257246000,2.604963,2.14372396668037,9.01214721599671,0.0109374673856276,0.27091873,-1.0754282,-0.1020145,34.14746,-79.989265,9.789164,WAL
130404262248000,2.609965,1.739893176447,8.73143561365272,-0.254999830354683,0.21074851,-1.2299771,-0.16249016,34.36527,-79.90013,9.899956,WAL
130404267222000,2.614939,1.40896074244559,8.52141261175833,-0.491413076718143,0.12858713,-1.2623531,-0.23182335,34.62983,-79.8789,9.940239,WAL
130404272990000,2.620707,1.0497799386887,8.30191294229206,-0.755810080991601,0.05131268,-1.1927143,-0.3408628,34.90933,-79.88258,9.951473,WAL
130404277231000,2.624948,0.798423689293924,8.21956984214559,-0.933637495728517,-0.032375857,-1.1609493,-0.36987892,35.217224,-79.95015,9.901556,WAL
130404282224000,2.629941,0.510527145320197,8.17245964367816,-1.13254786998358,-0.034208454,-1.073901,-0.42119157,35.48873,-80.05335,9.813504,WAL
130404287215000,2.634932,0.344139942995816,8.22374770357973,-1.38044930421199,-0.024740042,-1.0027353,-0.48533243,35.76121,-80.228584,9.655707,WAL
130404292230000,2.639947,0.22356834776569,8.3130604004649,-1.64838613587169,0.0061086523,-0.90316427,-0.54336464,35.999096,-80.41502,9.485322,WAL
130404297232000,2.644949,0.228742008550527,8.46906240918845,-2.01440822644362,0.05131268,-0.78038037,-0.5983425,36.216152,-80.67062,9.249096,WAL
130404302220000,2.649937,0.326591339873195,8.67407981574327,-2.4524005070913,0.10934488,-0.61636305,-0.65393126,36.391,-80.94046,8.997272,WAL
130404307370000,2.655087,0.550845967091413,8.86243784913701,-2.91852521484125,0.17195857,-0.4334089,-0.6988298,36.528706,-81.25275,8.707204,WAL
130404312264000,2.659981,0.865435811855956,9.02222960835287,-3.37293269770935,0.22602014,-0.27275133,-0.7449502,36.62334,-81.574936,8.40319,WAL
130404317224000,2.664941,1.2801972377442,9.10260603031469,-3.55466067233183,0.30390546,-0.16554448,-0.7742717,36.68819,-81.88512,8.110482,WAL
130404322205000,2.669922,1.74844973012222,9.1393314979309,-3.58679572014243,0.40133846,-0.13591751,-0.79901177,36.726078,-97.80959,7.809129,WAL
130404327230000,2.674947,2.25611341315284,9.08119048035155,-3.4331599428023,0.49877146,-0.1994475,-0.81336707,36.76562,-97.585526,7.565903,WAL
130404332223000,2.67994,2.78746702049702,8.95076720709163,-3.13850010825336,0.6273586,-0.3182608,-0.82253003,36.808994,-97.39237,7.3194923,WAL
130404337210000,2.684927,3.27190483970835,8.81410710084737,-2.81534515098039,0.75961095,-0.47983465,-0.8210029,36.88398,-97.34101,7.1733465,WAL
130404342756000,2.690473,3.77430364067396,8.65710786831215,-2.43331274705882,0.8793405,-0.6377433,-0.81061816,36.988716,-97.33748,7.0266733,WAL
130404347223000,2.69494,4.10939359138941,8.52737562568279,-2.11082740592909,1.0036516,-0.7049385,-0.7877107,37.114967,-97.477425,6.9946094,WAL
130404352211000,2.699928,4.43674168017678,8.38030591449002,-1.74078171018969,1.0852021,-0.82802784,-0.763887,37.29968,-97.659546,6.961482,WAL
130404357267000,2.704984,4.67101304935707,8.24725968743818,-1.38483657211869,1.1239921,-0.9266826,-0.72051555,37.495785,-97.94654,7.0358353,WAL
130404362299000,2.710016,4.82354486498516,8.1280943620178,-1.04640682892582,1.1652255,-0.9993755,-0.6771441,37.71693,-98.26583,7.111796,WAL
130404367229000,2.714946,4.63379220618333,8.21504238553762,-0.744122341359388,1.1484267,-1.0317514,-0.6395759,37.953632,-98.62488,7.2662225,WAL
130404372225000,2.719942,4.13695186773341,8.48604649806476,-0.464085038249788,1.1099422,-0.9966267,-0.60231316,38.189377,-98.999374,7.4285216,WAL
130404377214000,2.724931,3.65012786030668,8.7541292498059,-0.283830015927795,1.0173961,-0.9074403,-0.56688297,38.417503,-99.36064,7.6329637,WAL
130404382263000,2.72998,3.17147526124806,9.02161109889363,-0.250981302288432,0.93279123,-0.7874053,-0.5366451,38.624237,-99.72062,7.844232,WAL
130404387205000,2.734922,2.69974337017489,9.27306336945659,-0.256849036420987,0.8338311,-0.6743952,-0.52656585,38.8029,-99.92625,7.941466,WAL
130404392245000,2.739962,2.21234908410369,9.50922404403498,-0.337243962092442,0.7666359,-0.5644395,-0.54000485,38.94585,-100.121765,8.042131,WAL
130404397199000,2.744916,1.77632999112015,9.72886930419685,-0.416686581355293,0.7079928,-0.4810564,-0.5705481,39.063892,-100.202644,8.032611,WAL
130404402245000,2.749962,1.39276365051096,9.935035877468,-0.498194445631511,0.68966687,-0.40408736,-0.59986967,39.15047,-100.275635,8.022804,WAL
130404407175000,2.754892,1.04850227233538,10.0762493739371,-0.508419182032826,0.6936375,-0.34116822,-0.63591075,39.21949,-100.26109,7.902159,WAL
130404412444000,2.760161,0.729197069319755,10.1311300151275,-0.408636314556061,0.7263188,-0.31520647,-0.6640105,39.27557,-100.2467,7.778724,WAL
130404417173000,2.76489,0.474976149045516,10.1438688949491,-0.255027779185712,0.77304995,-0.29932398,-0.6985244,39.318077,-100.17414,7.5623016,WAL
130404422217000,2.769934,0.256966312625312,10.0974838563472,0.0140056384444017,0.81306165,-0.3042109,-0.72051555,39.358067,-100.110374,7.3454905,WAL
130404427167000,2.774884,0.149546198083219,10.0462805903978,0.316036378620942,0.8323039,-0.3378085,-0.75777835,39.400944,-99.98739,7.0537486,WAL
130404432269000,2.779986,0.305936714630087,9.97925612729767,0.722651762701417,0.8527679,-0.40011674,-0.79443026,39.452503,-99.87912,6.759991,WAL
130404437194000,2.784911,0.491632364628297,9.90164330995204,1.10581692254197,0.8332202,-0.4804455,-0.8399397,39.5185,-99.69539,6.4120383,WAL
130404442251000,2.789968,0.975544314488409,9.71291786880496,1.420359695004,0.7687739,-0.5726862,-0.87689704,39.605206,-99.51335,6.0596642,WAL
130404447202000,2.794919,1.46310977877698,9.52508229196643,1.66188027745803,0.63285637,-0.6291912,-0.90469146,39.71009,-99.27028,5.7388396,WAL
130404452265000,2.799982,2.07840724478417,9.30706317815747,1.34696430811351,0.5305365,-0.74006325,-0.91324353,39.85751,-99.02591,5.413631,WAL
130404457330000,2.805047,2.67624917654178,9.10569831067639,0.977075654724801,0.30665436,-0.78801614,-0.9083566,40.000797,-98.74101,5.1945286,WAL
130404462281000,2.809998,3.14395119452089,9.0192322803382,0.253906058612401,0.06414085,-0.7831292,-0.8848383,40.16258,-98.4345,4.9806476,WAL
130404467182000,2.814899,3.60692990389589,8.9336394678382,-0.461960269512599,-0.18753563,-0.7012733,-0.8503244,40.30882,-98.218735,4.9071455,WAL
130404472226000,2.819943,3.96251870319938,8.92596853355443,-1.37988965807647,-0.39187005,-0.54428095,-0.80481493,40.434547,-97.96876,4.8481684,WAL
130404477226000,2.824943,4.26144369344518,8.95399282149824,-2.37007835296528,-0.56046885,-0.3268129,-0.74464476,40.52262,-97.685425,4.8094654,WAL
130404482257000,2.829974,4.45083701258855,8.99083084443806,-3.08799204087689,-0.6545421,-0.06872234,-0.6783658,40.538986,-97.61738,4.913111,WAL
130404487229000,2.834946,4.57846895702661,9.0318553181122,-3.6486616247176,-0.68233645,0.17623462,-0.61086524,40.500423,-97.54518,5.038467,WAL
130404492180000,2.839897,4.71179916847509,9.10967908699881,-3.88073267779099,-0.63071835,0.35308012,-0.5531385,40.39098,-97.689125,5.245857,WAL
130404497246000,2.844963,4.85336794443964,9.21978807413812,-3.84927299846536,-0.516792,0.41630468,-0.50762904,40.248775,-97.8502,5.467802,WAL
130404502199000,2.849916,5.08518457618312,9.37449303476917,-3.55152286277767,-0.31642818,0.364992,-0.47983465,40.083317,-98.151535,5.724661,WAL
130404507265000,2.854982,5.36164300695383,9.55255114313309,-3.13449237510141,-0.04520403,0.1908954,-0.4560109,39.940464,-98.49131,5.984902,WAL
130404512227000,2.859944,5.55327588296489,9.88336038771632,-2.73800685752726,0.2779437,-0.04917465,-0.43035457,39.83823,-98.89101,6.267771,WAL
130404517229000,2.864946,5.70182032249675,10.3050349418826,-2.34508287071121,0.59559363,-0.26725355,-0.3567453,39.785023,-99.3495,6.558802,WAL
130404522227000,2.869944,5.74414539877301,10.6277289447853,-1.96947330736196,0.84940815,-0.42180246,-0.2501493,39.796387,-99.833534,6.9071436,WAL
130404527242000,2.874959,5.72601329825389,10.8951787291175,-1.60229611816895,1.0033462,-0.5271767,-0.15027285,39.85946,-100.36392,7.259338,WAL
130404532224000,2.879941,5.72257087153085,11.0698564974732,-1.17392318445462,1.0412198,-0.60048056,-0.067500606,39.970448,-100.8748,7.6420884,WAL
130404537262000,2.884979,5.7327303608128,11.1612931740366,-0.681182411312908,0.9669997,-0.6087272,0.015882496,40.096104,-101.401405,8.039826,WAL
130404542266000,2.889983,5.84387341975333,11.2400231789338,-0.489046767154366,0.7834347,-0.52564955,0.10842858,40.22959,-101.85046,8.442384,WAL
130404547264000,2.894981,6.01526127242888,11.3114353227571,-0.474764422899344,0.51251596,-0.43310347,0.22937989,40.36588,-102.28034,8.864559,WAL
130404552235000,2.899952,6.33734285234389,11.4366162611765,-0.74381366321086,0.3662137,-0.13316862,0.30665436,40.429836,-102.63661,9.303368,WAL
130404557298000,2.905015,6.76297867815385,11.59897178,-1.20016539501538,0.056505036,0.25503623,0.4529566,40.44756,-102.949036,9.791472,WAL
130404562241000,2.909958,7.19185701281085,11.8666595018839,-1.62624569238885,-0.22632557,0.6780604,0.657291,40.37402,-103.29284,10.349497,WAL
130404567262000,2.914979,7.64739517011519,12.3014913989665,-2.0300180910324,-0.43157628,1.0238101,0.88178396,40.215664,-103.6409,10.952732,WAL
130404572242000,2.919959,7.88949372335942,12.6724698296207,-1.99316930581979,-0.5143485,1.212262,1.0595458,39.9794,-104.123795,11.671035,WAL
130404577249000,2.924966,7.95685415138471,12.9948380337146,-1.58900608453743,-0.4896085,1.1618657,1.1664472,39.719517,-104.63359,12.415638,WAL
130404582258000,2.929975,7.61638963012143,13.4011786815511,-0.974913609545632,-0.3921755,0.86834496,1.2412782,39.480915,-105.258026,13.2316,WAL
130404587268000,2.934985,6.94452203963964,13.8757142837838,-0.190285092477477,-0.3109304,0.46395215,1.323745,39.297836,-105.908165,14.047739,WAL
130404592267000,2.939984,6.10995038371955,14.2499363517528,0.492709519499901,-0.28924468,0.103847094,1.4025466,39.195198,-106.5367,14.848079,WAL
130404597733000,2.94545,5.02651935662507,14.5557855210933,1.1355106702248,-0.3631594,-0.13897185,1.4608842,39.179447,-107.174255,15.630863,WAL
130404602267000,2.949984,4.17834508677317,14.7535858452074,1.62013283585037,-0.55741453,-0.21135938,1.4984524,39.21898,-107.62972,16.26889,WAL
130404607304000,2.955021,3.28326913718992,14.9211133264537,2.11314273048224,-0.90285885,-0.118202426,1.5378532,39.277645,-108.08193,16.90358,WAL
130404612221000,2.959938,2.54350755191099,14.9017960139208,2.33194156307754,-1.3674219,0.13072516,1.602605,39.30249,-108.33506,17.373579,WAL
130404617265000,2.964982,1.93613480280411,14.6752365569803,2.25963523668297,-1.8787161,0.4642576,1.6847663,39.26542,-108.59218,17.853928,WAL
130404622215000,2.969932,1.47734051096401,14.3157231641169,2.01553796638227,-2.3280075,0.75686204,1.7482964,39.148518,-108.70352,18.197905,WAL
130404627264000,2.974981,1.169116118731,13.7893707320781,1.56505615473178,-2.6502388,0.9486737,1.7815884,38.94618,-108.85233,18.553299,WAL
130404632237000,2.979954,0.918669308564371,13.3569265022765,1.22677388786399,-2.8099802,1.047023,1.8057177,38.672012,-108.98042,18.839525,WAL
130404637258000,2.984975,0.737004990549259,13.0355202444057,1.02647731152572,-2.885422,1.0317514,1.8280143,38.35536,-109.16525,19.126373,WAL
130404642185000,2.989902,0.565722832403915,12.8398021228464,0.903660437589968,-2.8808405,0.98929626,1.8576412,38.024498,-109.39518,19.394169,WAL
130404647257000,2.994974,0.402308871559792,12.8596097590988,0.913564302253033,-2.8561006,0.82772243,1.8640553,37.71795,-70.331795,19.651566,WAL
130404652192000,2.999909,0.200817922685624,12.8730813688784,0.811880224447078,-2.7876835,0.6291912,1.8707749,37.434017,-70.0247,19.898903,WAL
130404657299000,3.005016,-0.0744386873064771,12.8779105295221,0.531794559702804,-2.685058,0.4260785,1.8359555,37.187565,-69.699524,20.128832,WAL
130404662223000,3.00994,-0.248134444849077,12.9052048949888,-0.0160233944280551,-2.5384505,0.26725355,1.7751744,36.97518,-69.383385,20.323572,WAL
130404667832000,3.015549,-0.274370790280356,12.9786665219303,-1.15992837740549,-2.3634377,0.12461651,1.6511687,36.8113,-69.08231,20.486738,WAL
130404672205000,3.019922,-0.273169729457549,13.094033154291,-1.74785379711794,-2.189341,-0.032375857,1.5986344,36.708527,-68.82023,20.612503,WAL
130404677249000,3.024966,-0.228832497233593,13.3423220288206,-1.82322708310234,-2.0271564,-0.26816985,1.496009,36.670963,-68.60721,20.691013,WAL
130404682199000,3.029916,-0.188430542511696,13.5921756772773,-1.87296631712687,-1.8848248,-0.6032294,1.4080443,36.801544,-68.454285,20.764753,WAL
130404687244000,3.034961,-0.166269737874507,13.8846977449775,-1.77545879153289,-1.7773124,-0.9764681,1.3252722,37.01678,-68.33618,20.818604,WAL
130404692593000,3.04031,-0.139711395800991,14.1952512531563,-1.65534206411671,-1.7180585,-1.393689,1.2492194,37.360836,-68.256935,20.855574,WAL
130404697263000,3.04498,-0.0476959527541382,14.4754805143552,-1.17435224124193,-1.6804903,-1.8102992,1.1749994,37.820972,-68.20554,20.882269,WAL
130404702199000,3.049916,0.0495606268773964,14.7716714422519,-0.665965567642383,-1.6679676,-2.1294763,1.1136073,38.372353,-68.18218,20.888817,WAL
130404707296000,3.055013,0.53699238503357,14.9301666288698,0.342743219544946,-1.6850718,-2.3038783,1.0958922,39.008095,-68.16559,20.897463,WAL
130404712171000,3.059888,1.08117987512589,15.0520643582618,1.40499717329355,-1.7980819,-2.278833,1.1609493,39.68022,-68.13403,20.918108,WAL
130404717217000,3.064934,1.6408035309892,14.6334465970133,1.78977756008261,-2.0567832,-2.0103576,1.2550226,40.275753,-68.06491,20.934647,WAL
130404722259000,3.069976,2.19822797661512,13.9532865641813,1.83068947588435,-2.3380868,-1.6151277,1.3185526,40.824383,-67.97038,20.959396,WAL
130404727310000,3.075027,2.45779906461746,13.2014536001156,1.51670115773752,-2.4801128,-1.2018774,1.2986995,41.180233,-67.73608,21.046,WAL
130404732212000,3.079929,2.63874152990942,12.4550662378108,1.12767498016959,-2.3851233,-0.870483,1.2137892,41.441456,-67.4898,21.123745,WAL
130404737570000,3.085287,2.71348036046696,11.8509325734072,0.690375201048674,-2.1010711,-0.64568454,1.0922271,41.641747,-67.14721,21.287142,WAL
130404742241000,3.089958,2.74003352595964,11.3906773351801,0.305354038002572,-1.7510452,-0.5702427,1.0002918,41.790257,-66.83247,21.426706,WAL
130404747262000,3.094979,2.68833182613738,11.0391202576073,-0.0990286769620379,-1.582141,-0.46670106,0.960891,41.937138,-66.49068,21.616753,WAL
130404752251000,3.099968,2.60308890874219,10.7502413830905,-0.496829235058975,-1.2538009,-0.40653083,0.890947,42.08186,-66.23921,21.768131,WAL
130404757265000,3.104982,2.54997809852883,10.5837102039761,-0.936687890602386,-0.9691377,-0.3827071,0.8353582,42.27212,-65.99643,21.950396,WAL
130404762275000,3.109992,2.51182311383698,10.4740151085487,-1.39454689514513,-0.7244862,-0.37568212,0.81092364,42.45266,-65.80036,22.116844,WAL
130404767257000,3.114974,2.50586664413003,10.3375972319593,-1.40282269715069,-0.48808134,-0.36377025,0.8378017,42.679543,-65.65223,22.292337,WAL
130404772316000,3.120033,2.51535436197983,10.1857930528738,-1.19409270631548,-0.26542094,-0.41783184,0.89888823,42.92521,-65.53011,22.470419,WAL
130404777226000,3.124943,2.50473039547364,9.92830343061129,-1.03387416191881,-0.1301143,-0.5885687,0.9831876,43.270252,-65.43207,22.677195,WAL
130404782250000,3.129967,2.48227876542231,9.60050981941204,-0.894673943070462,-0.09162979,-0.7910705,1.0567969,43.640892,-65.33427,22.89753,WAL
130404787263000,3.13498,2.51170389071288,9.16994003073905,-0.951379656612165,-0.11575896,-0.90010995,1.1206323,44.007298,-65.20214,23.144417,WAL
130404792259000,3.139976,2.59514972502725,8.63275784674079,-1.2121477880968,-0.14874569,-0.8933904,1.1930199,44.398575,-65.05114,23.412682,WAL
130404797258000,3.144975,2.70806876591451,8.17288921163022,-1.46115708229622,-0.18570304,-0.8023715,1.2644911,44.778538,-64.853134,23.710907,WAL
130404802264000,3.149981,2.83673883981113,7.75352026988072,-1.70420042251491,-0.23609942,-0.6478226,1.3542882,45.135075,-64.62789,24.025803,WAL
130404807287000,3.155004,2.93425620334999,7.38224835219904,-2.05208675005387,-0.2687807,-0.43799037,1.4422529,45.500904,-64.344124,24.403118,WAL
130404812265000,3.159982,3.01364162591831,7.04135735999608,-2.45368413287296,-0.29993483,-0.1337795,1.5125023,45.78974,-64.038574,24.784803,WAL
130404817256000,3.164973,3.09801939791747,6.84121026197455,-2.68920836484767,-0.30176744,0.2312125,1.5876387,46.059925,-63.662876,25.238916,WAL
130404822246000,3.169963,3.18556060559198,6.73523944284612,-2.81360893976089,-0.28221974,0.6218608,1.6664404,46.228264,-63.268307,25.695885,WAL
130404827248000,3.174965,3.1346007474301,6.63564232047697,-2.72871263959704,-0.25503623,0.9728029,1.7180585,46.40065,-62.829372,26.207615,WAL
130404832263000,3.17998,2.9568667863384,6.54183810645559,-2.45223756609786,-0.2556471,1.2852604,1.733941,46.466396,-62.37969,26.71389,WAL
130404837257000,3.184974,2.7402999339511,6.48349335099566,-2.2382123806388,-0.28863382,1.5848899,1.709201,46.482075,-61.902344,27.24178,WAL
130404842268000,3.189985,2.49429757452681,6.45037762596609,-2.06790299408517,-0.32895094,1.7192802,1.6878207,46.456528,-61.42156,27.765558,WAL
130404847261000,3.194978,2.31217102826364,6.49254218626971,-1.95316117421408,-0.35430184,1.9737056,1.636508,46.240746,-60.972412,28.224972,WAL
130404852247000,3.199964,2.18123391225149,6.59542146743708,-1.88301629412398,-0.3921755,2.189341,1.5735888,46.000053,-60.533344,28.667263,WAL
130404857271000,3.204988,2.03476808089072,6.72080091956053,-1.76661738089072,-0.40775254,2.3570235,1.5158621,45.643642,-60.146843,29.03782,WAL
130404862262000,3.209979,1.87534812832058,6.86615436972729,-1.60719742832058,-0.38881573,2.4489589,1.4431691,45.24858,-59.786762,29.376577,WAL
130404867259000,3.214976,1.72551525294118,7.00177252941176,-1.4573646,-0.3454443,2.4755313,1.3677273,44.800526,-59.48083,29.65291,WAL
130404872276000,3.219993,1.58612360953381,7.12674431302521,-1.31797305697279,-0.28008172,2.4382687,1.2971723,44.34931,-59.201317,29.904285,WAL
130404877193000,3.22491,1.39612610893674,7.22352375685976,-1.15722791533918,-0.1863139,2.3744333,1.2177598,43.849075,-58.994957,30.075544,WAL
130404882260000,3.229977,1.13722389154916,7.29287252629573,-0.963051216091845,-0.095294975,2.2672265,1.1438452,43.380817,-58.815334,30.227257,WAL
130404887281000,3.234998,0.8138374793815,7.27736768033029,-0.782521039937088,-0.013439035,2.117259,1.0574077,42.905872,-58.705967,30.308252,WAL
130404892267000,3.239984,0.382008495532488,7.12247231907992,-0.622932055413349,0.051923547,1.9593502,0.97097033,42.474598,-58.6258,30.369812,WAL
130404897157000,3.244874,-0.06146708137251,6.93211021688247,-0.479350635428287,0.09132435,1.7989981,0.8698721,42.017086,-58.63448,30.335451,WAL
130404902255000,3.249972,-0.567198798160558,6.65006768291833,-0.357780528484064,0.0983493,1.6417004,0.7593055,41.617245,-58.674667,30.278275,WAL
130404907275000,3.254992,-1.04108989931823,6.36621032789704,-0.266647732742,0.077579886,1.4758505,0.6569856,41.199524,-58.802586,30.123596,WAL
130404912254000,3.259971,-1.46285293345259,6.07239791484794,-0.233475355545617,0.051618114,1.3161092,0.57726765,40.837936,-58.956917,29.949043,WAL
130404917184000,3.264901,-1.85089137958034,5.77505645603264,-0.207880155459491,0.03756821,1.1753048,0.50885075,40.462585,-59.193996,29.680962,WAL
130404922852000,3.270569,-2.2200087296872,5.41648547324655,-0.197333942310084,0.04886922,1.0506883,0.43982297,40.14037,-59.45504,29.39494,WAL
130404927198000,3.274915,-2.45256599550073,5.11564134194485,-0.172160123875181,0.06169739,0.93309665,0.36377025,39.830433,-59.78173,29.038439,WAL
130404932260000,3.279977,-2.57452272641509,4.68879268578616,-0.0924191946037736,0.11636983,0.8268061,0.26419923,39.5641,-60.139835,28.659172,WAL
130404937224000,3.284941,-2.62102321491568,4.25878499902606,-0.0191855676887005,0.18325958,0.7770206,0.15851954,39.298656,-60.55071,28.224463,WAL
130404942271000,3.289988,-2.34206338644603,3.77060528782577,0.0331193938912436,0.21288654,0.70463306,0.10415252,39.07935,-60.97824,27.78004,WAL
130404947596000,3.295313,-2.04450994792411,3.27670024421226,0.0881608643882321,0.27000242,0.5671884,-0.0571159,38.88308,-61.44605,27.296144,WAL
130404952259000,3.299976,-1.7129923154248,3.30944282931904,0.133181772536889,0.39003745,0.5177083,-0.10873401,38.681328,-61.908695,26.824928,WAL
130404957369000,3.305086,-1.3496950599945,3.34532415247915,0.182518431477408,0.42638394,0.43982297,-0.20830505,38.55914,-62.306835,26.42021,WAL
130404962259000,3.309976,-0.902703621049214,3.50949985650939,0.272267010791476,0.48808134,0.37690386,-0.3005457,38.45162,-62.731518,26.002186,WAL
130404967163000,3.31488,-0.430912566859462,3.70488800522577,0.372343916605784,0.5448918,0.32742378,-0.39187005,38.37076,-63.18809,25.556955,WAL
130404972304000,3.320021,0.13710026197937,3.98067563172568,0.518100705993867,0.6041457,0.2864958,-0.48075095,38.330204,-63.59695,25.168802,WAL
130404977239000,3.324956,0.699267111296348,4.26175903345414,0.667426266601617,0.6588182,0.28313604,-0.5384777,38.29734,-64.027504,24.763302,WAL
130404982262000,3.329979,1.39973670462646,4.62640219911991,0.945591587868787,0.6957755,0.2932153,-0.5858198,38.289852,-64.396545,24.423225,WAL
130404987270000,3.334987,2.16238730955896,5.02931205170517,1.28614620589059,0.7360926,0.32436943,-0.6035349,38.278877,-64.77721,24.075182,WAL
130404992943000,3.34066,3.17348450660661,5.5709024974975,1.83422688143143,0.7593055,0.35888332,-0.6178902,38.29272,-65.04858,23.834486,WAL
130404997250000,3.344967,3.98686986366366,6.00856164376376,2.30078806712713,0.7483099,0.38423425,-0.5858198,38.29892,-65.31017,23.60298,WAL
130405002268000,3.349985,5.07340383647748,6.68073690377701,2.89309899717229,0.71929383,0.4083634,-0.53878313,38.309258,-65.40412,23.52302,WAL
130405007327000,3.355044,6.23790348264997,7.4391296421127,3.5144917470814,0.64934975,0.43554693,-0.47250426,38.30866,-65.4779,23.457952,WAL
130405012251000,3.359968,7.3388494092901,8.15243088241893,3.94791642770377,0.5555819,0.5002986,-0.40286562,38.27837,-65.31719,23.591476,WAL
130405017267000,3.364984,8.44610613146363,8.8681478764943,4.31419525448729,0.4382958,0.59895337,-0.3323107,38.225246,-65.13389,23.737968,WAL
130405022217000,3.369934,9.62386973207789,9.61691299186818,4.50527372902846,0.33567044,0.75441855,-0.24740042,38.123352,-64.6967,24.098213,WAL
130405027269000,3.374986,10.9542982020116,10.4451955812112,4.44315266996576,0.26328292,0.9767735,-0.16584991,37.964043,-64.25069,24.453512,WAL
130405032258000,3.379975,12.0759116033833,11.1393997385308,4.19210830890871,0.2171626,1.3432927,-0.057421334,37.738956,-63.57705,25.011717,WAL
130405037238000,3.384955,13.0317785814103,11.7269504583985,3.77994543311575,0.20219639,1.5534303,0.016493361,37.483574,-62.92464,25.541794,WAL
130405042267000,3.389984,13.8260333353268,12.2841665301153,3.59863337308842,0.19639318,1.971873,0.19975294,37.147835,-62.088367,26.263962,WAL
130405047266000,3.394983,14.3168434193721,12.7749771480137,3.82870076347715,0.20861048,2.245846,0.40622538,36.77021,-61.282383,26.950972,WAL
130405052211000,3.399928,14.5076613747384,13.0831188440258,4.19914697661298,0.20189096,2.2763894,0.6404922,36.45406,-60.38279,27.78318,WAL
130405057297000,3.405014,14.3835544587315,13.2072262228592,4.73546731964692,0.14660765,2.0815234,0.8536842,36.09157,-59.492752,28.596079,WAL
130405062514000,3.410231,13.8959041200078,13.1291362669004,5.17014723261251,0.074830994,1.7592919,1.0183123,35.750156,-58.575542,29.433126,WAL
130405067226000,3.414943,12.7925915690629,12.6807784052211,5.350369528346,-0.0143553335,1.4584408,1.1068878,35.438705,-57.674706,30.253206,WAL
130405072187000,3.419904,11.5328459119503,12.1457669255207,5.49255350799495,-0.12308934,1.3026701,1.1148291,35.089375,-56.80898,30.996077,WAL
130405077235000,3.424952,9.91053946886177,11.3829262926573,5.47221122564696,-0.20922135,1.2464706,1.0729848,34.792034,-55.975384,31.711014,WAL
130405082163000,3.42988,8.37999424030075,10.6801793704261,5.51697049293233,-0.2489276,1.1759156,1.0198395,34.459908,-55.272884,32.260124,WAL
130405087249000,3.434966,6.91510264667669,10.0453935434586,5.70252337509774,-0.23182335,1.0186177,0.95386606,34.177643,-54.609505,32.776714,WAL
130405092180000,3.439897,5.58113422791973,9.52837180812531,5.89636547497797,-0.18600847,0.7602218,0.8717047,33.884533,-54.106052,33.114143,WAL
130405097268000,3.444985,4.38383373852178,9.19923324718551,6.12533130264317,-0.110872045,0.4352415,0.7834347,33.67242,-53.63883,33.43649,WAL
130405102206000,3.449923,3.35189208988832,8.99439647328705,6.39958482325184,-0.027794369,0.096516706,0.7125743,33.467663,-53.314323,33.599773,WAL
130405107359000,3.455076,2.60214443284033,9.06887466586176,6.8166629609015,0.049480084,-0.2125811,0.679893,33.364292,-53.01534,33.76761,WAL
130405112244000,3.459961,2.16602394480676,9.26576867753623,7.18180704830918,0.08002335,-0.5907067,0.6942484,33.31999,-52.83728,33.81046,WAL
130405117227000,3.464944,2.32562664795615,9.74457692586399,7.48771251096247,0.06841691,-1.1059716,0.7495316,33.41988,-52.662224,33.890633,WAL
130405122260000,3.469977,2.71195251057339,10.4878311317285,7.53785655809094,0.10262536,-1.6007724,0.8127562,33.567772,-52.56575,33.887955,WAL
130405127236000,3.474953,4.27334041522066,12.5829583801404,6.23138912512538,0.20525073,-1.890628,0.8723156,33.80945,-52.463047,33.925037,WAL
130405132171000,3.479888,5.82186318640923,14.6608227231695,4.93568639568706,0.30818152,-1.9385809,0.93034774,34.104233,-52.363316,33.97006,WAL
130405137207000,3.484924,7.12338784595248,15.7066527458719,4.03755165310109,0.3118467,-1.8945986,0.9673051,34.457573,-52.2555,34.04224,WAL
130405142172000,3.489889,8.31546025080548,16.3864688242046,3.29071122413411,0.1337795,-1.7785342,1.1175779,34.782368,-52.09556,34.15862,WAL
130405147265000,3.494982,7.83219913873712,14.4925862236566,0.865319555638947,-0.30879238,-1.6307048,1.3139712,35.385796,-52.005966,34.365158,WAL
130405152192000,3.499909,6.86423040423296,11.9003200918643,-1.96775933419394,-0.8005389,-1.3139712,1.3393221,35.896866,-51.894165,34.54042,WAL
130405157276000,3.504993,5.54568982863703,9.41388369184172,-2.90546295810454,-0.9923506,-0.8078693,0.98990715,36.461464,-51.786854,34.74608,WAL
130405162252000,3.509969,4.16285680329262,7.03466580967269,-3.25000717805569,-0.7831292,-0.28405234,0.43371433,36.93145,-51.71771,34.870815,WAL
130405167262000,3.514979,2.91046847888347,5.29992260669152,-2.78014863936526,-0.38912117,-0.03359759,-0.05955936,37.643383,-51.696262,35.08195,WAL
130405172241000,3.519958,1.71623031727368,3.81396206976389,-2.01893569269668,-0.055588737,0.03145956,-0.44348818,38.28252,-51.805813,35.13989,WAL
130405177229000,3.524946,0.597199996883593,2.86547530308585,-1.33318628687748,0.18203785,0.005192355,-0.73639804,38.862144,-51.984673,35.120434,WAL
130405182249000,3.529966,-0.484855251512374,2.21917987911193,-0.68689083734087,0.36193767,-0.047647487,-0.95386606,39.45251,-52.270966,35.01229,WAL
130405187257000,3.534974,-1.29715484415791,2.1110123609998,-0.6721622962805,0.51159966,-0.054061573,-1.1157454,39.845325,-52.612247,34.77866,WAL
130405192262000,3.539979,-1.98176070618925,2.25839273240429,-0.957414755341202,0.68661255,-0.004581489,-1.2492194,40.24919,-53.023083,34.492386,WAL
130405197258000,3.544975,-2.44553834942775,2.83292624542203,-1.29970562610873,0.8775079,0.04886922,-1.3768903,40.49457,-53.556572,34.036407,WAL
130405202267000,3.549984,-2.79847686065808,3.62703798526466,-1.67225181818925,1.0977248,0.03359759,-1.5467108,40.756638,-54.158394,33.530354,WAL
130405207243000,3.55496,-2.98320485429494,4.82306912086404,-1.45216370643989,1.323745,-0.08277224,-1.7721201,41.08922,-54.947517,32.86814,WAL
130405212397000,3.560114,-3.10277817453316,6.23801967816695,-0.968888260169577,1.534188,-0.3359759,-2.01555,41.477528,-55.809628,32.15676,WAL
130405217256000,3.564973,-3.03553893048379,7.66313394104387,-0.471030430886076,1.6481144,-0.7144069,-2.21683,42.017735,-56.876556,31.285688,WAL
130405222248000,3.569965,-2.90290169823132,9.15944720478585,0.0553734415189873,1.642922,-1.1679744,-2.3545802,42.658703,-58.001587,30.372034,WAL
130405227256000,3.574973,-2.64113378672301,10.7282467026576,0.193197410379184,1.4660766,-1.6756034,-2.4016168,43.413162,-59.276608,29.290375,WAL
130405232259000,3.579976,-2.19892766807517,12.3905155664406,-0.217041980520405,1.2067643,-1.8942931,-2.3448062,44.1988,-60.549126,28.199013,WAL
130405237253000,3.58497,-1.82278523500731,13.6066035909313,-0.808664444323745,1.0671816,-2.2470677,-2.2791383,45.14394,-61.922466,26.990318,WAL
130405242258000,3.589975,-1.48625694149196,14.5507525499756,-1.51443915804388,0.8151997,-2.4452937,-2.125811,46.077923,-63.211,25.829649,WAL
130405247836000,3.595553,-1.10051633185707,15.271608835229,-2.15526637084046,0.6356053,-2.506991,-1.9446895,47.110065,-64.51826,24.669094,WAL
130405252256000,3.599973,-0.789489362556618,15.6763700571716,-2.58985189313538,0.48258355,-2.4410176,-1.7611245,48.128796,-65.737076,23.571537,WAL
130405257305000,3.605022,-0.404750039786772,15.7851587145114,-2.95807422655479,0.35979962,-2.2727242,-1.6071864,49.176277,-66.909225,22.533806,WAL
130405262338000,3.610055,-0.000307242041461014,15.642414288845,-3.23404708094768,0.26816985,-2.0280726,-1.4657712,50.14217,-67.989334,21.5629,WAL
130405267255000,3.614972,0.397595578181116,15.3025078947673,-3.41074499005599,0.18845193,-1.7333301,-1.3371841,51.05092,-68.973656,20.683155,WAL
130405272281000,3.619998,0.806526514025874,14.7959911278239,-3.51762464143657,0.12705997,-1.421178,-1.244638,51.848442,-69.88833,19.850758,WAL
130405277226000,3.624943,1.23597188714162,14.2358643194458,-3.54044560487103,0.099571034,-1.0952814,-1.176221,52.546265,-70.670876,19.140636,WAL
130405282332000,3.630049,1.70953759766037,13.5888140704286,-3.47245839969316,0.09254608,-0.74097955,-1.1218541,53.11818,-71.40048,18.466003,WAL
130405287211000,3.634928,2.16204976013999,12.9705300584907,-3.40749373575606,0.11789699,-0.39003745,-1.0900891,53.582428,-71.997635,17.913916,WAL
130405292236000,3.639953,2.62810297113817,12.333744413894,-3.34058505850992,0.13775012,-0.053145275,-1.0922271,53.92937,-72.567665,17.376812,WAL
130405297224000,3.644941,3.10189584988687,11.6699587405452,-3.21123908832022,0.18600847,0.2611449,-1.1087204,54.16471,-73.114174,16.854677,WAL
130405302210000,3.649927,3.60095265365801,10.9342360557052,-2.93855861097942,0.26908615,0.5647449,-1.1410962,54.291153,-73.64755,16.338152,WAL
130405307214000,3.654931,4.02929786987456,10.3156177199138,-2.6131373496472,0.39278635,0.83077675,-1.1707232,54.337704,-73.94547,16.050343,WAL
130405312273000,3.65999,4.37115711763034,9.84081291993336,-2.21904952927283,0.5714644,1.0033462,-1.1942415,54.315742,-74.23964,15.760324,WAL
130405317779000,3.665496,4.68213442585184,9.46985695645099,-1.76160539722435,0.77457714,1.0937542,-1.2095132,54.238445,-105.58768,15.585202,WAL
130405322290000,3.670007,4.8806075023928,9.30032789452527,-1.36052439107963,0.9837985,1.1016954,-1.2092078,54.130497,-105.425095,15.412237,WAL
130405327158000,3.674875,5.03190364383689,9.17186079957078,-0.973260789456005,1.1652255,1.0809261,-1.171945,54.004326,-105.369934,15.340433,WAL
130405332222000,3.679939,5.04547943542036,9.16281014584305,-0.674595217448913,1.251052,1.0152581,-1.1407908,53.88592,-105.325874,15.27032,WAL
130405337178000,3.684895,5.02566516837489,9.16794949577346,-0.405076457967033,1.3600914,0.9275989,-1.0458013,53.7745,-105.37619,15.289653,WAL
130405342232000,3.689949,4.8364383137891,9.24466306382079,-0.246534977197802,1.4156802,0.8222246,-0.9502009,53.68527,-105.44507,15.319639,WAL
130405347157000,3.694874,4.62199866194941,9.29782563736693,-0.0989818529836898,1.42973,0.713796,-0.84757555,53.612545,-105.55249,15.38687,WAL
130405352220000,3.699937,4.3189228041508,9.29308998437348,0.033613760630921,1.3921618,0.5946773,-0.77396625,53.572056,-105.684296,15.4727335,WAL
130405357262000,3.704979,4.00808346044199,9.2906622071321,0.14915768621999,1.3368785,0.4428773,-0.7287622,53.55885,-105.80113,15.54194,WAL
130405362230000,3.709947,3.67353504674033,9.29544156785535,0.211288113036665,1.276403,0.27366763,-0.689056,53.584568,-105.93844,15.628755,WAL
130405367224000,3.714941,3.35845152906304,9.30803735695007,0.229459318860709,1.2205088,0.12644911,-0.6621779,53.631294,-106.02421,15.665258,WAL
130405372209000,3.719926,3.10994754916136,9.34485302834008,0.109809245547137,1.1771374,0.008857546,-0.6310238,53.718117,-106.122215,15.712414,WAL
130405377241000,3.724958,2.86125100741451,9.35915453949359,0.00626892983748613,1.1304061,-0.059864793,-0.58368176,53.8206,-106.16636,15.706188,WAL
130405382215000,3.729932,2.62579083904973,9.2630479079996,-0.0129523096559064,1.1081096,-0.13225232,-0.5513059,53.957592,-106.21651,15.703162,WAL
130405387682000,3.735399,2.35928081621296,9.12823742189854,-0.0327246843174284,1.1007792,-0.20952678,-0.5170974,54.11859,-106.23798,15.662763,WAL
130405392203000,3.73992,2.12007227654445,8.94556949372175,-0.0457724220190859,1.1074986,-0.29352075,-0.4981606,54.301746,-106.26687,15.626437,WAL
130405397187000,3.744904,1.86925000551903,8.73648652631998,-0.0543420333503686,1.1117748,-0.37659842,-0.4972443,54.503044,-106.265366,15.552753,WAL
130405402220000,3.749937,1.6723778277645,8.49159673078302,-0.0375358728925583,1.1120802,-0.47952923,-0.50640726,54.733482,-106.270294,15.480124,WAL
130405407216000,3.754933,1.47695295193266,8.2485072377366,-0.0208532625911038,1.1010846,-0.56046885,-0.52534413,54.976723,-106.23988,15.363892,WAL
130405412193000,3.75991,1.28227128519625,8.00634222434748,-0.00423409696453477,1.0461067,-0.65240407,-0.5516113,55.251213,-106.20545,15.241285,WAL
130405417190000,3.764907,1.10495944258176,7.78303296035679,0.0210177214968285,0.9807441,-0.7296785,-0.5723807,55.545105,-106.17056,15.115524,WAL
130405422197000,3.769914,1.01466504560951,7.65471977720515,0.0875504263581764,0.8753699,-0.8173377,-0.5925393,55.866207,-106.12321,14.981003,WAL
130405427204000,3.774921,0.951884102783536,7.55691242528872,0.142167983540618,0.75594574,-0.86590147,-0.59895337,56.189114,-106.02131,14.791166,WAL
130405432200000,3.779917,1.03689281068996,7.62303035031093,0.132722574838614,0.69027776,-0.97158116,-0.61391956,56.5517,-105.910355,14.590654,WAL
130405437190000,3.784907,1.13155671146339,7.69335163251759,0.100815036675914,0.5644395,-1.0476339,-0.6249151,56.918423,-105.769066,14.381145,WAL
130405442214000,3.789931,1.29363653645101,7.79345979778064,-0.0851000719181611,0.453262,-1.0913107,-0.6252206,57.304497,-105.62368,14.1704,WAL
130405447208000,3.794925,1.45737625626325,7.89161822807863,-0.270373603450568,0.3735441,-1.0995574,-0.6252206,57.7024,-105.48164,13.97434,WAL
130405452130000,3.799847,1.63905691348044,7.97791637781846,-0.45659624034207,0.35796702,-1.0751228,-0.63285637,58.10125,-105.33462,13.778508,WAL
130405457370000,3.805087,1.83368248038782,8.07318120402571,-0.643054920613342,0.36163223,-1.0622946,-0.63285637,58.51858,-105.22876,13.619892,WAL
130405462146000,3.809863,2.02649028993572,8.20332657487617,-0.662335736800506,0.3747658,-1.061073,-0.6453791,58.929195,-105.11962,13.458709,WAL
130405467143000,3.81486,2.22036176573903,8.34171081249392,-0.674644448430476,0.3820962,-1.087951,-0.65179324,59.359535,-105.06753,13.343243,WAL
130405472166000,3.819883,2.36078489450229,8.49617649362654,-0.632517495138659,0.37720928,-1.1255192,-0.6603453,59.789425,-105.014145,13.225468,WAL
130405477149000,3.824866,2.49622684440991,8.64870856191718,-0.599671560597614,0.3494149,-1.1591167,-0.6600399,60.2293,-104.99499,13.148697,WAL
130405482166000,3.829883,2.58294533475384,8.79323921147097,-0.681572292194926,0.30665436,-1.1655309,-0.6621779,60.668926,-104.97186,13.070166,WAL
130405487142000,3.834859,2.66307586738528,8.93643745411392,-0.770677201681171,0.2751948,-1.1600331,-0.6740898,61.10963,-104.96344,13.020119,WAL
130405492171000,3.839888,2.6726015751879,9.07932232515823,-0.956427683237737,0.28160888,-1.104139,-0.6835582,61.534615,-104.95538,12.973107,WAL
130405497254000,3.844971,2.67861174179193,9.21469690901899,-1.14670517430775,0.28160888,-1.0305296,-0.6899723,61.955402,-104.9596,12.94114,WAL
130405502143000,3.84986,2.64156978268394,9.23784810324367,-1.35969630622033,0.31764993,-0.93431836,-0.68416905,62.350536,-104.971115,12.91381,WAL
130405507380000,3.855097,2.59881998869322,9.25280314388633,-1.57780621422854,0.36651915,-0.86376345,-0.70005155,62.739323,-104.990524,12.874174,WAL
130405512168000,3.859885,2.52540989743846,9.15645242905743,-1.66498063171903,0.4260785,-0.8237518,-0.71685034,63.10645,-105.0184,12.838987,WAL
130405517362000,3.865079,2.4549453880557,9.03602222656668,-1.76207598221746,0.46028697,-0.8014552,-0.7492262,63.467484,-105.05685,12.7856455,WAL
130405522257000,3.869974,2.49679366157829,8.7347149193894,-1.88343606282807,0.4999932,-0.79626286,-0.77946407,63.818172,-105.10236,12.729629,WAL
130405527289000,3.875006,2.53981317380825,8.42497470085699,-2.00819273813605,0.5519168,-0.79534656,-0.8020661,64.162025,-105.15069,12.6537485,WAL
130405532256000,3.879973,2.65619694053664,8.30164689040248,-2.03833976714138,0.5821546,-0.8023715,-0.8078693,64.50278,-105.20065,12.575085,WAL
130405537184000,3.884901,2.78769866255934,8.21884886191951,-2.04808062790506,0.61636305,-0.8594874,-0.82833326,64.85268,-105.252815,12.484887,WAL
130405542248000,3.889965,2.8227551786656,8.17800915910907,-2.0661874786656,0.65576386,-0.9486737,-0.84421575,65.23232,-105.36399,12.42883,WAL
130405547165000,3.894882,2.84156835143827,8.14508632775669,-2.08500065143827,0.7165449,-1.0177015,-0.84482664,65.618126,-105.48562,12.370274,WAL
130405552263000,3.89998,2.83326860500965,8.15869046613441,-2.09142499322688,0.7742717,-1.0726794,-0.86315256,66.03324,-105.64247,12.340057,WAL
130405557356000,3.905073,2.82043078652395,8.18008660686085,-2.09570422137217,0.8200866,-1.0916162,-0.88331115,66.452385,-105.80882,12.307523,WAL
130405562362000,3.910079,2.75744315654157,8.29526580489322,-1.99328441691893,0.8671232,-1.065349,-0.9056077,66.875275,-105.99375,12.279388,WAL
130405567270000,3.914987,2.66486024424632,8.46581371677379,-1.82760934613311,0.91354895,-1.0183123,-0.90224797,67.291916,-106.18954,12.252852,WAL
130405573046000,3.920763,2.57179617686808,8.75906872372931,-1.5514548715307,0.9459248,-0.9599747,-0.9086621,67.70073,-106.38591,12.218632,WAL
130405577245000,3.924962,2.50878485858388,8.99929914337479,-1.32697721977279,0.98471475,-0.8903361,-0.9211848,68.086365,-106.59274,12.186722,WAL
130405582259000,3.929976,2.45025918665592,9.33354691473493,-0.996814145525096,1.0164797,-0.83077675,-0.9324858,68.450455,-106.75667,12.127242,WAL
130405587270000,3.934987,2.40189258234227,9.69629695212659,-0.629227674969764,1.0445796,-0.79443026,-0.9450085,68.7947,-106.92549,12.067028,WAL
130405592268000,3.939985,2.39987431831489,9.94779862613507,-0.20215695972808,1.0650436,-0.768163,-0.956615,69.105316,-107.024704,11.971697,WAL
130405597261000,3.944978,2.42360128819531,10.1376145090557,0.258146590420781,1.0684034,-0.76174897,-0.9654725,69.405785,-107.12512,11.875781,WAL
130405602249000,3.949966,2.44730449784151,10.3272403099787,0.717989191691063,1.0552697,-0.7648033,-0.9654725,69.67909,-107.14147,11.754376,WAL
130405607518000,3.955235,2.47234303265023,10.5275487191733,1.20373711993748,1.006095,-0.7812967,-0.95111716,69.9509,-107.153435,11.635799,WAL
130405612286000,3.960003,2.57188090616684,10.5547815203943,1.56575444111877,0.93218035,-0.79045963,-0.9315695,70.222786,-107.16107,11.52236,WAL
130405617251000,3.964968,2.71964845792949,10.4947509238613,1.89823151696611,0.81153446,-0.81306165,-0.9114109,70.500465,-107.15239,11.412934,WAL
130405622278000,3.969995,2.94733619125038,10.3341653537799,2.03583614908196,0.6462954,-0.820392,-0.8900307,70.74837,-106.97139,11.317511,WAL
130405627262000,3.974979,3.2361984839163,10.0942626174992,2.01135631976613,0.550695,-0.8436049,-0.872621,71.00564,-106.78714,11.225568,WAL
130405632261000,3.979978,3.57742165860648,9.87385044741605,1.66324366583551,0.34238997,-0.8393288,-0.84604836,71.25334,-106.53782,11.195033,WAL
130405637264000,3.984981,3.95317004705409,9.66670733400362,1.0996207562035,0.11759156,-0.80909103,-0.8005389,71.49973,-106.28007,11.1749935,WAL
130405642925000,3.990642,4.32809580583869,9.55111900959921,0.165186379336962,-0.09896017,-0.6918049,-0.73364913,71.754265,-106.07984,11.275878,WAL
130405647263000,3.99498,4.59532733814943,9.51000653221178,-0.669397512637308,-0.38606682,-0.6169739,-0.7119634,72.00853,-105.83208,11.373439,WAL
130405652252000,3.999969,4.77717141015741,9.47387431868132,-1.57085515292545,-0.4615087,-0.4343252,-0.6432411,72.2453,-105.79261,11.63842,WAL
130405657378000,4.005095,4.87437104742105,9.44471432600733,-2.45537241024651,-0.55741453,-0.23640485,-0.5876524,72.45378,-105.70929,11.903254,WAL
130405662307000,4.010024,4.92607953852,9.33827639241949,-3.03792917058991,-0.6221663,-0.035124753,-0.5476407,72.678955,-105.84468,12.282306,WAL
130405667261000,4.014978,4.94861372071815,9.17602971587347,-3.43453110669706,-0.6102544,0.13072516,-0.50946164,72.860306,-105.99399,12.672071,WAL
130405672200000,4.019917,4.98522421935418,9.02396089123526,-3.59322184053306,-0.5170974,0.23304509,-0.4810564,73.048035,-106.27958,13.08388,WAL
130405677272000,4.024989,5.03999693193234,8.8795599333675,-3.46873806253203,-0.36957347,0.25228736,-0.46273044,73.217094,-106.57814,13.493827,WAL
130405682225000,4.029942,5.10509248861426,8.8279784803248,-3.21020510018738,-0.16340645,0.19853121,-0.4361578,73.4157,-106.97911,13.931283,WAL
130405687219000,4.034936,5.18190878223432,8.86211922361024,-2.81758935977514,0.086132,0.07544186,-0.38789943,73.63407,-107.410095,14.3635645,WAL
130405692271000,4.039988,5.23980649051368,8.99459529364298,-2.41707973481598,0.35216382,-0.0729984,-0.32345316,73.919815,-107.90884,14.843529,WAL
130405697233000,4.04495,5.24448274337729,9.3827245742964,-2.01492169557174,0.5714644,-0.20219639,-0.22876903,74.23753,-108.44528,15.325041,WAL
130405702209000,4.049926,5.25130904687226,9.80231859471065,-1.60381745963502,0.7330383,-0.31337386,-0.11789699,74.60301,-109.01249,15.860332,WAL
130405707362000,4.055079,5.26575695857324,10.3417074993657,-1.15111590449497,0.8173377,-0.3866777,-0.018936822,74.99085,-109.606186,16.39589,WAL
130405712472000,4.060189,5.30182756705415,10.8536449807281,-0.738524424876109,0.8176431,-0.41508293,0.08124508,75.34391,-110.13113,16.89456,WAL
130405717224000,4.064941,5.40391745729581,11.2573648608137,-0.469377778390945,0.7174612,-0.410196,0.16310102,75.7038,-110.65828,17.396332,WAL
130405722202000,4.069919,5.56042301380664,11.619973603311,-0.314176778800807,0.52503866,-0.33505958,0.20555615,76.011894,-111.0784,17.857233,WAL
130405727231000,4.074948,5.89775470325799,11.7681954129258,-0.615730834421097,0.39675698,-0.1414153,0.2843578,76.28073,-111.50982,18.340986,WAL
130405732156000,4.079873,6.26868476201887,11.9080566684906,-0.952901292407547,0.13194689,0.14172074,0.3924809,76.46693,-111.85331,18.824465,WAL
130405737222000,4.084939,6.73553783407547,12.0407892139623,-1.38771542243019,-0.14782938,0.46609017,0.5366451,76.583015,-112.19862,19.335339,WAL
130405742239000,4.089956,7.18593075029964,12.2076326784858,-1.76173833074311,-0.37690386,0.72509706,0.7281514,76.68408,-112.633385,19.95189,WAL
130405747229000,4.094946,7.59164426528166,12.4987916027767,-1.93356986789852,-0.50976706,0.89888823,0.9306532,76.71917,-113.07661,20.600492,WAL
130405752220000,4.099937,7.85717955295024,12.8035249893156,-1.96798257712966,-0.53969944,0.9306532,1.1246029,76.80739,-113.693726,21.408451,WAL
130405757344000,4.105061,7.60211522745211,13.1672283736645,-1.48619429714121,-0.4810564,0.81489426,1.2962561,76.89622,-114.33633,22.23192,WAL
130405762231000,4.109948,7.25999023741577,13.4919145449861,-0.980778152516845,-0.41416663,0.5479461,1.4269812,77.09136,-115.0846,23.138433,WAL
130405767224000,4.114941,6.29815399524376,13.6861764815696,-0.180037700951249,-0.4089743,0.20616703,1.473407,77.34383,-115.82894,24.015999,WAL
130405772216000,4.119933,5.3304753007034,13.8763323059789,0.591393103399765,-0.50885075,-0.12034045,1.4743233,77.58318,-116.43289,24.76004,WAL
130405777232000,4.124949,4.3124613867346,14.0366154218595,1.1458857807557,-0.70096785,-0.3594942,1.4431691,77.89342,-117.015175,25.465178,WAL
130405782335000,4.130052,3.27679053287041,14.19967856786,1.7099958550275,-0.9392053,-0.44440445,1.4214834,78.08769,-117.32451,25.928743,WAL
130405787255000,4.134972,2.34307888366521,14.2027313577894,1.78955344447876,-1.2391402,-0.31978795,1.4376713,78.28383,-117.61566,26.379833,WAL
130405792485000,4.140202,1.40289623379898,14.1666254122658,1.80512203867121,-1.5876387,-0.056505036,1.4993688,78.455864,-117.8946,26.827608,WAL
130405797265000,4.144982,1.09554394385009,13.8317495048602,1.49776981099309,-1.920255,0.24984388,1.5625933,78.4679,-117.9514,27.08281,WAL
130405802515000,4.150232,0.788403962898703,13.4591690351011,1.15025457143266,-2.2046127,0.51068336,1.6187929,78.38655,-117.89677,27.225006,WAL
130405807312000,4.155029,0.823459230040061,13.0691789748188,0.729591210167875,-2.4129176,0.69974613,1.6444492,78.22453,-117.86379,27.379902,WAL
