timestamp,rel_time,acc_x,acc_y,acc_z,gyro_x,gyro_y,gyro_z,azimuth,pitch,roll,label
21449792107000,0,-0.929496216392779,9.5444310874508,-0.672092273686839,-0.48930305,1.3182472,-0.43463063,281.40573,-76.63082,12.6081,STD
21449797081000,0.004974,-0.929646149075371,9.53624327346596,-0.670982855841973,-0.49938235,1.3377949,-0.4700608,281.3237,-76.71877,12.52002,STD
21449802084000,0.009977,-0.705901097142057,9.52281829980387,-0.845504008966097,-0.514654,1.3811663,-0.49754974,281.24097,-76.804756,12.430496,STD
21449807324000,0.015217,-0.464315729410628,9.51420875862978,-1.04209703642512,-0.53023106,1.462106,-0.5354234,281.0289,-76.977684,12.203476,STD
21449812101000,0.019994,-0.158924519449275,9.57046532885376,-1.38365299797101,-0.52534413,1.5228871,-0.5580254,280.81342,-77.146805,11.97896,STD
21449817095000,0.024988,0.160339391487923,9.62927741001318,-1.74072448048309,-0.516792,1.5427402,-0.55680364,280.48447,-77.35578,11.748111,STD
21449822972000,0.030865,0.350600082802242,9.71055289431545,-1.99816357157726,-0.50946164,1.5555683,-0.5222898,280.14038,-77.55551,11.525732,STD
21449827037000,0.03493,0.448002303683947,9.76899418534828,-2.14621496424139,-0.48075095,1.5674802,-0.50579643,279.7921,-77.75622,11.304722,STD
21449832108000,0.040001,0.51529440247005,9.81069480594422,-2.27593891767718,-0.46883908,1.575116,-0.46181414,279.49106,-77.89959,11.1767025,STD
21449837097000,0.04499,0.563357105369913,9.84127986245999,-2.38517233128487,-0.4202753,1.6032158,-0.4175264,279.1819,-78.0392,11.058404,STD
21449842107000,0.05,0.589833935536916,9.86300722025474,-2.47204980977529,-0.37690386,1.6255124,-0.37140608,278.78455,-78.21344,10.938495,STD
21449847110000,0.055003,0.59975683714197,9.87789188350419,-2.54151001739671,-0.32345316,1.649947,-0.33200526,278.37708,-78.37558,10.834344,STD
21449852088000,0.059981,0.554104422297645,9.87747259958051,-2.56948023045095,-0.26542094,1.6694947,-0.29871312,277.93024,-78.54578,10.740136,STD
21449857114000,0.065007,0.476093015181619,9.86829460320336,-2.57406927655639,-0.2012801,1.713477,-0.25595254,277.46735,-78.698296,10.664321,STD
21449862099000,0.069992,0.385323006429103,9.83770614049125,-2.52815233061035,-0.14049901,1.7666223,-0.21777347,277.00244,-78.838936,10.603771,STD
21449867089000,0.074982,0.283059321604019,9.78879736211388,-2.43922740141422,-0.07147124,1.8316795,-0.19242255,276.52112,-78.96589,10.555755,STD
21449872105000,0.079998,0.16461272952161,9.74917052027513,-2.30018469826507,-0.0076358155,1.9007072,-0.17012598,275.91602,-79.11731,10.494976,STD
21449877105000,0.084998,0.0220568369027821,9.72459193491428,-2.08389294177189,0.03481932,1.954158,-0.1591304,275.29593,-79.25177,10.443239,STD
21449882100000,0.089993,-0.118374206911911,9.69827919964207,-1.86662417916087,0.07360926,1.9715676,-0.14538592,274.60068,-79.38201,10.390813,STD
21449887128000,0.095021,-0.257210294324915,9.66955441260688,-1.64640137844502,0.103847094,1.9761491,-0.12950343,273.89386,-79.492004,10.347541,STD
21449892354000,0.100247,-0.382778686071093,9.62529948448373,-1.47079538916682,0.12522738,1.9657644,-0.1301143,273.08472,-79.59785,10.298503,STD
21449897104000,0.104997,-0.476889684754561,9.56968866071093,-1.36812892311454,0.13072516,1.9529362,-0.14446963,272.2768,-79.684456,10.255892,STD
21449902093000,0.109986,-0.564113969453512,9.52284438054122,-1.28223134454038,0.12156218,1.9446895,-0.15668693,271.3037,-79.75576,10.219621,STD
21449907115000,0.115008,-0.624884399842055,9.50258769379804,-1.24678190478046,0.10629055,1.9303342,-0.1853976,270.342,-79.81387,10.180889,STD
21449912062000,0.119955,-0.68730139390032,9.50954577147423,-1.25611893435877,0.0842994,1.9257526,-0.21319197,269.16403,-100.1711,10.170032,STD
21449917104000,0.124997,-0.754821121361366,9.55777412305234,-1.33328429688374,0.090713486,1.9251418,-0.23640485,268.00458,-100.17657,10.158797,STD
21449922054000,0.129947,-0.81873920897456,9.60106959941292,-1.40843147134051,0.070554934,1.9065105,-0.2510656,266.6884,-100.22274,10.160759,STD
21449927115000,0.135008,-0.880391538454012,9.63900927201566,-1.48431126223092,0.0693332,1.9220876,-0.2883284,265.3861,-100.28493,10.156093,STD
21449932034000,0.139927,-0.930769585319422,9.68090623328718,-1.47368033078521,0.06658431,1.9419407,-0.32559118,264.02002,-100.3765,10.148375,STD
21449937101000,0.144994,-0.964361334978244,9.73369332931171,-1.30092283985364,0.04886922,1.9550742,-0.3652974,262.6778,-100.48073,10.135162,STD
21449942045000,0.149938,-0.998857108335565,9.7821718821062,-1.24007388088353,0.021991149,1.9620992,-0.4007276,261.26636,-100.61454,10.11503,STD
21449947104000,0.154997,-1.03777203798304,9.82541064265953,-1.40438126128514,-0.00580322,1.9388863,-0.44104472,259.88806,-100.755135,10.087295,STD
21449952119000,0.160012,-1.08195400729129,9.86963693200875,-1.53571498795115,-0.049480084,1.8689423,-0.45204028,258.44385,-100.91322,10.057901,STD
21449957137000,0.16503,-1.17831204710171,9.92657559077652,-1.37365819316442,-0.087964594,1.7913623,-0.47158796,257.03854,-101.0675,10.017859,STD
21449962746000,0.170639,-1.28669754506753,9.99152803282354,-1.1879789075038,-0.122783914,1.7037032,-0.46883908,255.69576,-101.25246,9.996377,STD
21449967100000,0.174993,-1.39111827199714,10.0810313350326,-0.908280630542885,-0.16065755,1.6285667,-0.46792278,254.3982,-101.42978,9.968834,STD
21449972100000,0.179993,-1.51103183071282,10.1838141809319,-0.587083711662642,-0.1957823,1.5005904,-0.4605924,253.12561,-101.59078,9.934752,STD
21449977106000,0.184999,-1.55983661733967,10.296795695962,-0.601951228218527,-0.22937989,1.3445144,-0.43371433,251.9079,-101.748,9.903088,STD
21449982095000,0.189988,-1.57244644980206,10.4144881678543,-0.786895573726577,-0.24617869,1.2272283,-0.40530908,250.73907,-101.8995,9.87039,STD
21449987110000,0.195003,-1.5939855403662,10.545800172998,-0.833130810365148,-0.25686884,1.1276573,-0.376293,249.71992,-101.91042,9.774623,STD
21449992105000,0.199998,-1.62922207745975,10.6968139033989,-0.661981779248658,-0.2669481,1.0238101,-0.33841935,248.74783,-101.92436,9.685241,STD
21449997101000,0.204994,-1.6095430172342,10.7340244568672,-0.536940712606886,-0.2593123,0.93615097,-0.28344148,247.76419,-102.01306,9.63871,STD
21450002091000,0.209984,-1.5326984804389,10.6526594199773,-0.460096166371547,-0.25809056,0.8961393,-0.24556783,246.8108,-102.097275,9.594511,STD
21450007076000,0.214969,-1.44115441362711,10.5348469664156,-0.417209004707918,-0.2602286,0.8888089,-0.22052236,245.92807,-102.11956,9.528417,STD
21450012121000,0.220014,-1.323145106839,10.3529158255648,-0.431960171907185,-0.2724459,0.8784242,-0.1994475,245.06772,-102.14318,9.46917,STD
21450017092000,0.224985,-1.20415181584201,10.2118960705619,-0.418688818034593,-0.2761111,0.87995136,-0.1826487,244.24188,-102.154144,9.422648,STD
21450022121000,0.230014,-1.07982062043714,10.1248642078134,-0.364811969577489,-0.28710666,0.86834496,-0.18081611,243.43002,-102.158424,9.375119,STD
21450027089000,0.234982,-0.959193435730953,10.0476828035914,-0.317244229850867,-0.31215215,0.84299403,-0.16035213,242.63084,-102.19286,9.366298,STD
21450032310000,0.240203,-0.857741677782287,10.0679730386527,-0.332461996191539,-0.3481932,0.78984874,-0.13713925,241.85025,-102.218834,9.354406,STD
21450037119000,0.245012,-0.771742480551139,10.0953190349762,-0.35819388599894,-0.376293,0.713796,-0.111177474,241.11105,-102.242424,9.35915,STD
21450042105000,0.249998,-0.738002867673556,10.1881030254372,-0.47206501890832,-0.41905355,0.63804877,-0.080634214,240.39429,-102.25801,9.366438,STD
21450047066000,0.254959,-0.704432426541247,10.2804217933227,-0.58536519748101,-0.46822822,0.5534439,-0.043982297,239.71312,-102.28425,9.3934,STD
21450052095000,0.259988,-0.710851561925412,10.4320884645851,-0.779508875166233,-0.50885075,0.50701815,-0.015577064,239.0493,-102.30452,9.421533,STD
21450057068000,0.264961,-0.724620115380168,10.5927220674569,-0.986037301588128,-0.559858,0.49205196,0.016493361,238.4079,-102.31838,9.455188,STD
21450062098000,0.269991,-0.78297632550935,10.8060112412317,-1.19281980283747,-0.605062,0.49480084,0.06352998,237.7609,-102.37406,9.523866,STD
21450067080000,0.274973,-0.853995618448228,11.0323847189506,-1.39700027583031,-0.6627888,0.5045747,0.10751228,237.12408,-102.4187,9.595156,STD
21450072115000,0.280008,-0.963402475893364,11.1584207555303,-1.51741592788807,-0.7119634,0.5137377,0.160963,236.45477,-102.52565,9.709078,STD
21450077644000,0.285537,-1.10856742149745,11.2285007521271,-1.59250124277746,-0.76083267,0.49480084,0.20799962,235.80182,-102.621155,9.824942,STD
21450082107000,0.29,-1.25544607868886,11.1660086657195,-1.62343684632636,-0.8576548,0.4382958,0.26725355,235.12671,-102.75277,9.964665,STD
21450087126000,0.295019,-1.44568089850822,10.9952852466004,-1.63319249574285,-0.93828905,0.35827246,0.30573806,234.47725,-102.87171,10.10001,STD
21450092095000,0.299988,-1.63402057168662,10.8262625987416,-1.64285095797646,-1.0198395,0.29443705,0.33505958,233.83203,-102.98301,10.246186,STD
21450097103000,0.304996,-1.82383845924498,10.6559133492998,-1.65258522621271,-1.1074986,0.2434298,0.35308012,233.21875,-103.07377,10.386503,STD
21450102077000,0.30997,-2.02945011111111,10.4684054835224,-1.63738907902035,-1.1527027,0.20189096,0.36926803,232.63303,-103.15379,10.521901,STD
21450107130000,0.315023,-2.25166982222222,10.263614300108,-1.60253106817036,-1.1924089,0.16187929,0.36377025,232.07147,-103.20991,10.644121,STD
21450112038000,0.319931,-2.45931252459701,10.0842032256749,-1.56157002426685,-1.2070698,0.14905111,0.35155296,231.50739,-103.233,10.7374115,STD
21450117074000,0.324967,-2.65601175019421,9.93902089124102,-1.50537021059429,-1.2144,0.14049901,0.34238997,230.96188,-103.24333,10.819793,STD
21450122099000,0.329992,-2.85165975771325,9.83814252349264,-1.44730093498689,-1.2046263,0.1133155,0.30604348,230.44093,-103.190445,10.839247,STD
21450127083000,0.334976,-3.04416155662432,9.84776730187538,-1.38473791566848,-1.1725558,0.12644911,0.28038713,229.91666,-103.136406,10.854113,STD
21450132070000,0.339963,-3.18883197281156,9.89497300744689,-1.34490058190115,-1.1398746,0.16371189,0.22876903,229.40407,-103.01958,10.810446,STD
21450137087000,0.34498,-3.22040244435278,10.0317784695919,-1.35893188223699,-1.0952814,0.23426682,0.17012598,228.88057,-102.90003,10.755028,STD
21450142104000,0.349997,-3.25197291589399,10.1685839317369,-1.37296318257283,-1.0497719,0.32253686,0.09101892,228.34993,-102.71164,10.636552,STD
21450147876000,0.355769,-3.15510336627606,10.2494331182205,-1.38976212186042,-1.0210613,0.43799037,0.014660766,227.79147,-102.51401,10.503347,STD
21450152076000,0.359969,-3.02579711303536,10.2744602052266,-1.40227562180857,-1.0213667,0.58032197,-0.043066,227.20003,-102.30431,10.355053,STD
21450157080000,0.364973,-2.80622413143261,10.2401792275135,-1.33049557750905,-1.0180069,0.77671516,-0.096516706,226.55644,-102.070175,10.179834,STD
21450162116000,0.370009,-2.54654051769794,10.1678084535705,-1.20703943108836,-1.0351112,0.9935723,-0.13041973,225.86725,-101.824066,9.997789,STD
21450167092000,0.374985,-2.27524384852255,10.1150885933126,-1.03283552143079,-1.0754282,1.2324207,-0.1600467,225.11566,-101.600494,9.846683,STD
21450172136000,0.380029,-1.97474356091239,10.0942205359426,-0.765724186625194,-1.1139128,1.4398094,-0.17989981,224.31342,-101.36772,9.691186,STD
21450177213000,0.385106,-1.67286707398844,10.0696710459165,-0.498681428884952,-1.1820242,1.5757269,-0.18784106,223.488,-101.14673,9.578283,STD
21450182096000,0.389989,-1.38947807630058,10.004273854559,-0.26325056576543,-1.2324207,1.6545285,-0.183565,222.62346,-100.919945,9.461743,STD
21450187733000,0.395626,-1.06563915914538,9.93175449553492,0.00620636606179675,-1.2654073,1.6945401,-0.17012598,221.76923,-100.68495,9.3737545,STD
21450192104000,0.399997,-0.893682516345776,9.94670715645651,0.159472049994642,-1.2757921,1.717753,-0.15821409,220.90196,-100.44954,9.281112,STD
21450197127000,0.40502,-0.69607596938114,9.96389023030898,0.335599602132524,-1.2757921,1.6988163,-0.12370021,220.0756,-100.22818,9.222502,STD
21450202132000,0.410025,-0.586564729262534,9.99220803315583,0.467406483765699,-1.2724323,1.6881261,-0.07269296,219.24557,-100.02014,9.165527,STD
21450207114000,0.415007,-0.519452999637295,10.0257635776148,0.577661482451522,-1.2571607,1.6523905,-0.028710667,218.43365,-99.827255,9.108368,STD
21450212103000,0.419996,-0.509642537123925,10.03066889649,0.700279996296562,-1.2473868,1.643533,-0.0018325958,217.63994,-99.66445,9.086872,STD
21450217752000,0.425645,-0.529019118002328,10.0209809221884,0.84560427448245,-1.2342533,1.5491543,0.012217305,216.88657,-99.52096,9.064748,STD
21450222156000,0.430049,-0.563920670835528,9.95979948582868,0.971570155252344,-1.1835514,1.5036448,0.018020526,216.13205,-99.39492,9.049306,WAL
21450227106000,0.434999,-0.623857707501844,9.83493076809609,1.12640749041197,-1.1667526,1.4153748,0.028710667,215.42206,-99.28213,9.030462,WAL
21450232098000,0.439991,-0.668985165852003,9.71131150305499,1.22152403873048,-1.1414018,1.3096951,0.04062254,214.73373,-99.16969,8.999361,WAL
21450237141000,0.445034,-0.701772540190088,9.58835884928717,1.26660672124067,-1.1001683,1.2021828,0.06261369,214.07594,-99.075485,8.967828,WAL
21450242102000,0.449995,-0.750644358244736,9.45545501021472,1.29769432374401,-1.056186,1.0903945,0.10262536,213.45116,-98.982666,8.925216,WAL
21450247100000,0.454993,-0.870381414029602,9.27085981384198,1.27274907340004,-1.0005972,1.006095,0.1337795,212.85342,-98.90633,8.881686,WAL
21450252085000,0.459978,-0.991466491460083,9.10248734422746,1.23247099437418,-0.95447695,0.91904676,0.1600467,212.29056,-98.84965,8.844119,WAL
21450257077000,0.46497,-1.11723731246585,8.97671702833148,1.15023624233532,-0.90469146,0.84940815,0.1872302,211.7504,-81.18813,8.811865,WAL
21450262062000,0.469955,-1.27833885254821,8.92919187603306,1.07282663601928,-0.8546005,0.8014552,0.21655174,211.22746,-81.22697,8.7676525,WAL
21450267092000,0.474985,-1.52952742210744,9.0761130094451,1.00647492812869,-0.8020661,0.7666359,0.2510656,210.72365,-81.25099,8.729674,WAL
21450272136000,0.480029,-1.74548624768212,9.23101383425054,0.984112728821938,-0.74036866,0.74281216,0.29077184,210.21796,-81.25572,8.70433,WAL
21450277104000,0.484997,-1.86086887019868,9.40408799972018,1.08174419290178,-0.6954701,0.72601336,0.31398472,209.7226,-81.25353,8.680581,WAL
21450282100000,0.489993,-1.96779905078338,9.58554412887901,1.19284638484787,-0.64904433,0.71593404,0.3378085,209.21123,-81.27974,8.624991,WAL
21450287513000,0.495406,-2.00971896862428,9.84230378980087,1.41816605267361,-0.6035349,0.689056,0.3622431,208.71182,-81.29947,8.573614,WAL
21450292091000,0.499984,-2.04298644774415,10.0538056301161,1.61519144111936,-0.56779927,0.64873886,0.3830125,208.20575,-81.33283,8.500212,WAL
21450297101000,0.504994,-2.06582100342661,10.2501825133257,1.87093763500857,-0.54550266,0.61636305,0.39400807,207.70769,-81.3613,8.429279,WAL
21450302269000,0.510162,-2.07977383601317,10.4583132872917,2.13108635170477,-0.5180137,0.5910121,0.40866885,207.21219,-81.39425,8.342587,WAL
21450307116000,0.515009,-1.97186493980046,10.7235888836691,2.32891911682487,-0.5342017,0.57848936,0.41783184,206.72545,-81.41969,8.256988,WAL
21450312448000,0.520341,-1.85461511412849,11.0095916902291,2.54424195231747,-0.56107974,0.593761,0.44257188,206.23047,-81.43606,8.160783,WAL
21450317091000,0.524984,-1.78299987186829,11.1369077687903,2.68349385612026,-0.58184916,0.6114761,0.45265114,205.74243,-81.44569,8.063402,WAL
21450322073000,0.529966,-1.70615577603794,11.2735195937724,2.83291297840014,-0.602924,0.63346726,0.464563,205.24881,-81.4116,7.9878592,WAL
21450327104000,0.534997,-1.60950557306065,11.3054583767882,2.90629742903486,-0.6560693,0.655153,0.48502702,204.75426,-81.35872,7.917339,WAL
21450332064000,0.539957,-1.50741468824636,11.2990779026127,2.95096218073074,-0.7128797,0.6808093,0.50823987,204.25627,-81.29137,7.850298,WAL
21450337073000,0.544966,-1.40431524428773,11.2926343955269,2.99606817694943,-0.7706065,0.700357,0.51923543,203.75641,-81.1859,7.7948184,WAL
21450342111000,0.550004,-1.23825298636188,11.2030512323495,2.94023391918403,-0.8170323,0.7330383,0.52442783,203.24962,-81.062355,7.7425804,WAL
21450347096000,0.554989,-1.05406944884259,11.0879361006944,2.85274673645833,-0.8668178,0.7602218,0.52931476,202.7431,-80.9206,7.6918287,WAL
21450352116000,0.560009,-0.885430725484983,10.9475811167898,2.72110415074348,-0.9147707,0.75777835,0.52687126,202.24539,-80.731895,7.670317,WAL
21450357281000,0.565174,-0.719819412732644,10.791711538257,2.56523462307238,-0.9779953,0.7635816,0.5225952,201.74171,-80.527725,7.6462755,WAL
21450362100000,0.569993,-0.603513205763122,10.571940295952,2.22997228107689,-1.0491611,0.76174897,0.5006041,201.2543,-80.27869,7.664828,WAL
21450367117000,0.57501,-0.501147277418168,10.306719501259,1.78793765564594,-1.1325442,0.7501425,0.5006041,200.77127,-80.01263,7.6841693,WAL
21450372143000,0.580036,-0.45118431896412,10.1114407698923,1.50120631327469,-1.2092078,0.73761976,0.49296826,200.29903,-79.71661,7.7415442,WAL
21450377107000,0.585,-0.437087469137096,9.96577335030147,1.32264624817634,-1.2791518,0.7458665,0.47678033,199.82813,-79.4124,7.790223,WAL
21450382103000,0.589996,-0.422899745177424,9.81916689819116,1.14293511094198,-1.344209,0.76174897,0.45051312,199.35646,-79.09795,7.9003606,WAL
21450387108000,0.595001,-0.408686462867945,9.67229634318474,0.962900234669368,-1.38025,0.8219192,0.4382958,198.87448,-78.78571,7.999104,WAL
21450392105000,0.599998,-0.386309689252061,9.58962104192531,0.875760806777246,-1.396438,0.88453287,0.408058,198.38434,-78.46707,8.088417,WAL
21450397100000,0.604993,-0.357102719088226,9.56041449872799,0.866025156833215,-1.3891076,0.94042706,0.35918877,197.88522,-78.16209,8.158052,WAL
21450402092000,0.609985,-0.312699565921193,9.56678167944622,0.923371438338658,-1.3848315,1.0326678,0.3371976,197.3472,-77.86206,8.272851,WAL
21450407115000,0.615008,-0.256813071716526,9.59938181992448,1.03048724159164,-1.361924,1.0760391,0.32070425,196.81593,-77.58813,8.364114,WAL
21450412101000,0.619994,-0.156870884496877,9.63700567661346,1.22569171145038,-1.3414601,1.1618657,0.3155119,196.24529,-77.3017,8.456472,WAL
21450417082000,0.624975,-0.0149989483216021,9.67956712907703,1.50470647317339,-1.321607,1.2458596,0.32498032,195.66971,-77.03232,8.535472,WAL
21450422075000,0.629968,0.122809403741061,9.72526616884926,1.79315581507384,-1.2993103,1.2910637,0.37048978,195.08817,-76.74742,8.616164,WAL
21450427080000,0.634973,0.25636169509427,9.77423540122597,2.09142257740318,-1.2834278,1.2760975,0.4034765,194.50641,-76.47753,8.68481,WAL
21450432098000,0.639991,0.419735001616162,9.82664204264871,2.34716669102132,-1.2672399,1.2403619,0.45631635,193.93105,-76.16401,8.7684965,WAL
21450437149000,0.645042,0.641830764738292,9.88586773614937,2.51990790195898,-1.2452488,1.1985176,0.50823987,193.36557,-75.860634,8.853331,WAL
21450442090000,0.649983,0.866941626335272,9.94237653093601,2.64805038841883,-1.2257011,1.1847731,0.5726862,192.81297,-75.50817,8.954272,WAL
21450447100000,0.654993,1.10798241427816,9.99735052882073,2.7114820840825,-1.196685,1.2174544,0.65576386,192.25981,-75.16146,9.06618,WAL
21450452116000,0.660009,1.36281886822612,10.0442778752437,2.75276241910331,-1.1557571,1.2574661,0.7538077,191.71663,-74.77057,9.229922,WAL
21450457112000,0.665005,1.72034050582629,10.0287336820446,2.62322567229803,-1.1181889,1.3063353,0.84329945,191.16173,-74.38514,9.401973,WAL
21450462185000,0.670078,2.07242698402633,9.99347713356879,2.48922872459464,-1.0528263,1.3814718,0.9465357,190.59868,-73.965225,9.6456995,WAL
21450467089000,0.674982,2.38532367691443,9.91054056590143,2.35351452006743,-0.9957104,1.4556919,1.0384709,190.02171,-73.55215,9.895481,WAL
21450473642000,0.681535,2.80100798148848,9.78514107007934,2.1768368143181,-0.929126,1.5317446,1.1340714,189.43712,-73.10837,10.240591,WAL
21450477102000,0.684995,3.00129963014734,9.6036266858708,2.1205047595391,-0.8588765,1.5647314,1.2247849,188.84378,-72.67716,10.590956,WAL
21450482035000,0.689928,3.28685994888553,9.34483753636192,2.04019087912731,-0.7883216,1.5662584,1.280679,188.26492,-72.21519,11.037953,WAL
21450487164000,0.695057,3.49649327962309,8.97686310836278,1.94940468857479,-0.6963864,1.5625933,1.3038919,187.68202,-71.776436,11.477899,WAL
21450492087000,0.69998,3.65299238691509,8.57299471645787,1.85853424768176,-0.6010914,1.5409076,1.3112222,187.1087,-71.35911,11.909393,WAL
21450497098000,0.704991,3.63466184733552,8.18557262554332,1.7713642794284,-0.5027421,1.5497651,1.2977833,186.55672,-70.91647,12.396638,WAL
21450502118000,0.710011,3.56787029151533,7.80390686271708,1.68548950022824,-0.4175264,1.5650368,1.2486086,186.01917,-70.50779,12.85566,WAL
21450507081000,0.714974,3.37754407904507,7.52517904825293,1.65174343826683,-0.32467487,1.5858061,1.221425,185.49472,-70.08537,13.346714,WAL
21450512118000,0.720011,3.14770082904507,7.27139369825293,1.63258978826683,-0.2941316,1.6215417,1.1569787,184.97595,-69.694084,13.791737,WAL
21450517079000,0.724972,2.86948549747118,7.16237423179924,1.64204607526402,-0.23579398,1.6621643,1.0821478,184.44644,-69.31688,14.222979,WAL
21450522119000,0.730012,2.5701835763395,7.09690174579983,1.66075247890708,-0.20066923,1.7195857,1.0201449,183.91385,-68.96106,14.618159,WAL
21450527123000,0.735016,2.28652511279503,7.11603369311801,1.67467301754037,-0.20189096,1.7715092,0.9593639,183.36702,-68.6486,14.943944,WAL
21450532122000,0.740015,2.00899201768116,7.17154047773913,1.68656728417391,-0.20891592,1.8216002,0.91965765,182.8151,-68.35948,15.240005,WAL
21450537078000,0.744971,1.70436888828065,7.2663302927525,1.71969766599846,-0.22724187,1.8613064,0.8918633,182.2057,-68.080734,15.470712,WAL
21450542825000,0.750718,1.26183475959907,7.49669029606785,1.82275354857363,-0.23701571,1.8723019,0.89644474,181.59776,-67.814026,15.685442,WAL
21450547065000,0.754958,0.969363495881121,7.69720137010073,1.89274261548818,-0.23457226,1.8787161,0.9245446,180.94202,-67.58466,15.827549,WAL
21450552089000,0.759982,0.657465413822679,7.96591346983145,1.96951752259898,-0.21074851,1.8747455,0.97066486,180.29091,-67.36319,15.965242,WAL
21450557116000,0.765009,0.377018860610611,8.18852116265834,2.03543450622361,-0.18967366,1.865277,1.0173961,179.59056,-67.177734,16.03598,WAL
21450562115000,0.770008,0.135317450602993,8.35551501991922,2.0881694133468,-0.14813483,1.8527542,1.065349,178.89514,-67.001816,16.110405,WAL
21450567081000,0.774974,-0.0801639013881119,8.53686371445222,2.13163208578089,-0.10873401,1.8194622,1.1120802,178.15973,-66.8622,16.127714,WAL
21450572099000,0.779992,-0.232917931991418,8.76090268690401,2.1519992747616,-0.07086037,1.7996091,1.1661417,177.42584,-66.72885,16.151672,WAL
21450577051000,0.784944,-0.349279929724853,8.93508672455388,2.16253774826039,-0.050396383,1.7870862,1.1994339,176.66383,-66.63191,16.122969,WAL
21450582134000,0.790027,-0.412366942452398,9.03699654201974,2.15768490463563,-0.032070424,1.7760907,1.2159272,175.91003,-66.54274,16.099167,WAL
21450587054000,0.794947,-0.444819927259187,9.06975264468398,2.15654493240568,-0.021380283,1.7559321,1.2321151,175.141554046568,-66.4746974468085,16.0508044468085,WAL
21450592098000,0.799991,-0.430619408991671,8.99401652748653,2.16127843355218,-0.004886922,1.7644843,1.2308935,174.35371,-66.40494,16.001223,WAL
21450597034000,0.804927,-0.381449985386438,8.94393847698513,2.19071187761028,0.027488936,1.7577647,1.2241739,173.57474,-66.355774,15.937807,WAL
21450602014000,0.809907,-0.261226900274263,8.94153421784724,2.27005910765818,0.073303826,1.7486018,1.2238685,172.80006,-66.318695,15.870234,WAL
21450606964000,0.814857,-0.14172805061457,8.93914444219813,2.34892834234434,0.082161374,1.7449366,1.2198979,172.02374,-66.27183,15.810319,WAL
21450612020000,0.819913,-0.0196702356894379,8.93670349155533,2.4294864939753,0.12217305,1.7534887,1.2223413,171.25237,-66.24637,15.747035,WAL
21450617014000,0.824907,0.101328647451905,8.8701717008676,2.50476400413995,0.14630222,1.7681495,1.2153164,170.47165,-66.21323,15.686808,WAL
21450622057000,0.82995,0.224299938713693,8.68799213692946,2.57308138817427,0.16584991,1.7944167,1.1985176,169.69228,-66.195244,15.618162,WAL
21450627021000,0.834914,0.320560401647336,8.52493424395518,2.65459412966385,0.17531833,1.8274034,1.1792754,168.91669,-66.1359,15.590621,WAL
21450632017000,0.83991,0.339371387595833,8.41206805327305,2.78156829954787,0.16890424,1.8329011,1.1435398,168.15125,-66.09046,15.548817,WAL
21450637041000,0.844934,0.36034753860377,8.29622038087165,2.89863412691732,0.19333886,1.8267925,1.1157454,167.38963,-66.0223,15.535704,WAL
21450642018000,0.849911,0.388868781362322,8.17262827266381,2.97469069816495,0.19425514,1.7919732,1.0705414,166.6464,-65.96485,15.504722,WAL
21450647020000,0.854913,0.409108529587397,8.05708310877719,3.04572626339085,0.18692477,1.7699821,1.0253373,165.89944,-65.89572,15.472912,WAL
21450652072000,0.859965,0.395497681702926,7.97541807831958,3.09563276564141,0.20769419,1.7400496,0.9932669,165.17422,-65.84521,15.431842,WAL
21450657079000,0.864972,0.386561964088393,7.89515517338142,3.14087545444482,0.23518312,1.7412714,0.95294976,164.44675,-65.78292,15.38896,WAL
21450662102000,0.869995,0.430938631521302,7.82253878627977,3.13684121539752,0.26419923,1.7531832,0.9059132,163.73491,-65.73857,15.333437,WAL
21450667050000,0.874943,0.47465269691211,7.75100665739685,3.13286721284804,0.2932153,1.7605137,0.88117313,163.01872,-65.691635,15.277133,WAL
21450672120000,0.880013,0.399299274584887,7.71858115897939,3.11841326149166,0.32162055,1.7602082,0.86834496,162.31114,-65.662605,15.207963,WAL
21450677114000,0.885007,0.27257527976055,7.70450092149166,3.09963935012758,0.34025195,1.7608191,0.816116,161.61394,-65.65443,15.118087,WAL
21450682129000,0.890022,0.168573134414386,7.81003923350619,3.1024991954672,0.36163223,1.7751744,0.77579886,160.91629,-65.63943,15.045212,WAL
21450687206000,0.895099,0.0751870835893595,7.97813386199942,3.1165070446077,0.3622431,1.777007,0.74281216,160.23265,-65.636635,14.958999,WAL
21450692107000,0.9,-0.0118757030418174,8.13791357277845,3.11925107599518,0.34269542,1.7898352,0.6994407,159.53302,-65.65498,14.836273,WAL
21450697129000,0.905022,-0.0988987260632288,8.29987319898472,3.11441649231001,0.3182608,1.7925841,0.6600399,158.8449,-65.681335,14.705351,WAL
21450702111000,0.910004,-0.185228614691797,8.46054282418577,3.10962041586248,0.30543262,1.7913623,0.6395759,158.14116,-65.725716,14.549708,WAL
21450707145000,0.915038,-0.272459578031062,8.62288945069361,3.10477428000603,0.30848694,1.7873917,0.59956425,157.44989,-65.78173,14.3783455,WAL
21450712158000,0.920051,-0.32976297019342,8.69490330508475,3.08831972789631,0.29993483,1.7959439,0.55863625,156.75508,-65.83163,14.20654,WAL
21450717126000,0.925019,-0.367711179357926,8.7091336779661,3.06460201048853,0.30818152,1.8121318,0.5155703,156.06996,-65.8962,14.023659,WAL
21450722196000,0.930089,-0.372014244903275,8.67895558516561,3.02182727202982,0.3286455,1.8347337,0.47067168,155.36333,-66.004265,13.789853,WAL
21450727156000,0.935049,-0.354084282536567,8.62068342512032,2.96803741301312,0.34574974,1.8411479,0.43585235,154.66673,-66.12053,13.549964,WAL
21450733842000,0.941735,-0.28371364057935,8.51306436623215,2.87088811965653,0.37812558,1.8509218,0.41691554,153.96112,-66.251686,13.300214,WAL
21450737085000,0.944978,-0.235517513918891,8.4520160487275,2.81626584724809,0.39736784,1.8509218,0.38881573,153.26733,-66.39195,13.042515,WAL
21450742101000,0.949994,-0.164724539850281,8.34865579848272,2.7174930156049,0.42088616,1.8579466,0.37048978,152.56712,-66.533066,12.7992735,WAL
21450747151000,0.955044,-0.096689952380426,8.23688420734526,2.605721830416,0.43157628,1.8723019,0.35338554,151.87363,-66.68091,12.551561,WAL
21450752093000,0.959986,-0.0321605125510107,8.13834505509158,2.47728816213343,0.45265114,1.9028453,0.3371976,151.18182,-66.82995,12.325162,WAL
21450757115000,0.965008,0.0317406126838759,8.04705780141406,2.33122850858878,0.45662177,1.92392,0.3173445,150.49622,-66.98176,12.095686,WAL
21450762140000,0.970033,0.0834866984323866,7.99297817753285,2.24872192922425,0.4560109,1.953547,0.29718593,149.80428,-67.13124,11.888067,WAL
21450767080000,0.974973,0.119585454210259,7.98495627927088,2.24471095915218,0.45081854,1.9526308,0.28496864,149.1212,-67.28373,11.680621,WAL
21450772124000,0.980017,0.152842890010993,7.9981320666911,2.2485001919018,0.45356745,1.9511036,0.28588495,148.428,-67.432785,11.500255,WAL
21450777115000,0.985008,0.148464195090235,8.23239221408941,2.33388476686057,0.43890667,1.9303342,0.27855456,147.74724,-67.58121,11.318004,WAL
21450782108000,0.990001,0.144083745533162,8.46674623451814,2.41930355723708,0.43463063,1.8973475,0.27091873,147.06984,-67.72342,11.153007,WAL
21450787104000,0.994997,0.13970066402162,8.70124106449249,2.5047736707402,0.44440445,1.842675,0.2648101,146.40952,-67.86823,10.991885,WAL
21450792062000,0.999955,0.135350920600037,8.93395230688897,2.58959369130634,0.45265114,1.8054122,0.2761111,145.74954,-68.00604,10.841221,WAL
21450797726000,1.005619,0.0838560171093226,9.22239064060554,2.72649592805404,0.46914452,1.7739527,0.2883284,145.10802,-68.150665,10.695203,WAL
21450802071000,1.009964,0.0320263771663313,9.44964409035163,2.84211589097442,0.4981606,1.7061466,0.2968805,144.49036,-68.30076,10.559508,WAL
21450807077000,1.01497,-0.0475816583140272,9.69849375193565,2.99147092276521,0.5015204,1.6377298,0.3155119,143.86673,-68.44919,10.418204,WAL
21450812097000,1.01999,-0.13943040859457,9.94020056842635,3.15099768918049,0.5030475,1.593442,0.33383787,143.25867,-68.60357,10.285298,WAL
21450817095000,1.024988,-0.213921306132377,10.1812035836806,3.32394549657913,0.5030475,1.5552629,0.34330627,142.65587,-68.75689,10.143644,WAL
21450822129000,1.030022,-0.279328328150015,10.4241442090319,3.50615078265336,0.4908302,1.5219707,0.35827246,142.06607,-68.90397,10.014597,WAL
21450827081000,1.034974,-0.296495786214474,10.6718508696086,3.6016498571688,0.4596761,1.4865406,0.3494149,141.48193,-69.04975,9.864165,WAL
21450832131000,1.040024,-0.27893004926723,10.9309452625987,3.63678131272133,0.4034765,1.4798211,0.34269542,140.90215,-69.18306,9.721935,WAL
21450837100000,1.044993,-0.237578204104704,11.1782622560698,3.62606932765554,0.33750305,1.498147,0.32834008,140.32632,-69.30641,9.557448,WAL
21450842114000,1.050007,-0.155604945805766,11.4150738945372,3.53954197261002,0.28221974,1.5488489,0.31490102,139.74916,-69.41827,9.392889,WAL
21450847037000,1.05493,-0.0487615930824299,11.61638734189,3.45411456725302,0.21960606,1.6178766,0.29810223,139.15184,-69.51211,9.2244215,WAL
21450852089000,1.059982,0.13926429058785,11.7301927094498,3.36504963626509,0.16584991,1.7116444,0.28680122,138.54016,-69.59506,9.050884,WAL
21450857094000,1.064987,0.354236829344926,11.7921530059283,3.28357097359945,0.12339478,1.8020525,0.2669481,137.90962,-69.67945,8.881929,WAL
21450862180000,1.070073,0.638176234304911,11.7392150877384,3.21619556927181,0.08093964,1.8649716,0.26145032,137.26662,-69.75037,8.711416,WAL
21450867833000,1.075726,0.980506920964207,11.6688600891161,3.1642566880935,0.040927973,1.917506,0.25717425,136.60744,-69.80903,8.5667305,WAL
21450872117000,1.08001,1.27270095087655,11.6014308991965,3.15301850281227,0.007941248,1.9538525,0.26297748,135.94138,-69.85999,8.421442,WAL
21450877087000,1.08498,1.60184007351589,11.5132308319009,3.1624174906656,-0.03940081,1.9602666,0.28619036,135.28035,-69.87441,8.338831,WAL
21450882096000,1.089989,1.83675321278233,11.3262588686788,3.39253648729762,-0.084910266,1.9260582,0.30848694,134.62679,-69.88391,8.257801,WAL
21450887092000,1.094985,2.0524852757226,11.1491405442439,3.62309111854592,-0.12339478,1.8729129,0.32070425,133.98845,-69.84306,8.257431,WAL
21450892145000,1.100038,2.08590167144125,11.0632126268127,3.86655275371412,-0.19486602,1.8185458,0.31795537,133.36676,-69.78674,8.258275,WAL
21450897183000,1.105076,2.09854019576221,10.9970730138317,4.09787354068079,-0.2687807,1.7974709,0.3304781,132.77394,-69.66448,8.308381,WAL
21450902087000,1.10998,1.88661408110653,11.1445004158328,4.19922965706298,-0.3643811,1.7467692,0.3472769,132.21188,-69.52513,8.360972,WAL
21450907408000,1.115301,1.63046683170417,11.3632086321244,4.23571595129534,-0.40866885,1.6936239,0.39584067,131.66974,-69.345474,8.425806,WAL
21450912136000,1.120029,1.14839774358152,12.1280912435233,3.55439155336788,-0.45051312,1.582141,0.42058071,131.16582,-69.150925,8.493478,WAL
21450917088000,1.124981,0.643489510843921,12.9292119481865,2.84078782694301,-0.40500367,1.378112,0.47555858,130.69069,-68.97935,8.547289,WAL
21450922129000,1.130022,0.145050778986185,13.6454016257401,2.13351091807417,-0.22357668,1.0451905,0.5314528,130.28523,-68.836914,8.6271105,WAL
21450927110000,1.135003,-0.29099188005817,13.9922540031162,1.50422218136491,0.0711658,0.6728681,0.5702427,129.94815,-68.73803,8.736365,WAL
21450932087000,1.13998,-0.736549637009951,14.1948874519823,1.03533212904281,0.38973203,0.3481932,0.5653558,129.58084,-68.910805,8.733833,WAL
21450937698000,1.145591,-1.26702925519507,14.0124023285421,0.963186890759754,0.6420194,0.053450707,0.54641896,129.30798,-69.134766,8.770344,WAL
21450942140000,1.150033,-1.6869883469752,13.8679362942663,0.906072446194914,0.7816021,-0.19058995,0.49266282,129.07756,-69.52729,8.740877,WAL
21450947102000,1.154995,-2.39810590303589,13.2312429193321,1.09767772851133,0.8216137,-0.40775254,0.40378192,128.92792,-69.95154,8.723302,WAL
21450952062000,1.159955,-3.18609749449203,12.4432514892118,1.37064209741516,0.75441855,-0.6310238,0.29443705,128.85518,-70.378235,8.709082,WAL
21450957081000,1.164974,-3.74516988420185,11.5711311204323,1.45765330906676,0.64904433,-0.86284715,0.14385876,128.83781,-70.85481,8.592256,WAL
21450962043000,1.169936,-4.27176887123363,10.7007197932045,1.52293426085722,0.53878313,-1.0961977,-0.014966198,128.89493,-71.3142,8.465645,WAL
21450967090000,1.174983,-4.58333442458577,9.74009197212911,1.25726024920985,0.462425,-1.3100005,-0.160963,129.00719,-71.75337,8.228321,WAL
21450972135000,1.180028,-4.80545107107557,8.74982191514223,0.859301265635475,0.44868052,-1.4679092,-0.2843578,129.18329,-72.187164,7.972376,WAL
21450977158000,1.185051,-4.88943944528992,7.89576807562489,0.402181912344839,0.51007247,-1.539075,-0.39492437,129.40392,-72.62343,7.6250076,WAL
21450982081000,1.189974,-4.8974561669784,7.13016636196225,-0.0788242351130761,0.6429357,-1.5057828,-0.50732356,129.65303,-73.079834,7.250506,WAL
21450987068000,1.194961,-4.87728243588948,6.38602040220428,-0.52553210307358,0.82863873,-1.4220943,-0.6209445,129.92537,-73.59727,6.827405,WAL
21450992103000,1.199996,-4.78247093169823,5.71734874609335,-0.86984820464659,1.0800097,-1.3732251,-0.743423,130.20978,-74.17059,6.371181,WAL
21450997062000,1.204955,-4.63385578315727,5.18430225829796,-1.10634104178102,1.3304645,-1.2669345,-0.7987063,130.46912,-74.829796,5.8974156,WAL
21451002153000,1.210046,-4.37392899555731,4.88105437293909,-1.14966218980156,1.4602734,-1.1969905,-0.8979719,130.73752,-75.53224,5.3746414,WAL
21451007395000,1.215288,-4.06731717658279,4.67569836347171,-1.22358102064433,1.6893479,-1.1896601,-0.96883225,131.00261,-76.33748,4.856491,WAL
21451012096000,1.219989,-3.73177356277448,4.65765824771598,-1.33542884168136,1.8973475,-1.2458596,-1.0198395,131.27046,-77.17024,4.3119717,WAL
21451017083000,1.224976,-3.3758161064754,4.63852060524122,-1.45408127382593,2.0796907,-1.320996,-1.0580186,131.55272,-78.03415,3.7889853,WAL
21451022084000,1.229977,-2.85158361660987,4.7429723956382,-1.8213220127933,2.2336287,-1.3762794,-1.1206323,131.8471,-78.942024,3.2425082,WAL
21451027051000,1.234944,-2.29582854482524,4.87264862257813,-2.2381383770811,2.3634377,-1.3738359,-1.1765264,132.14517,-79.88139,2.6838658,WAL
21451032089000,1.239982,-1.70901122504734,5.30963473286309,-3.05829102707821,2.4318545,-1.289842,-1.244638,132.431,-80.83206,2.1737285,WAL
21451037055000,1.244948,-1.12364905294925,5.83195783237076,-3.98586478697216,2.4440718,-1.1282681,-1.3136657,132.69049,-81.78895,1.6412578,WAL
21451042074000,1.249967,-0.343868187775322,7.64904905154743,-4.68585490514469,2.360994,-0.8894198,-1.3646729,132.86488,-82.76036,1.1955509,WAL
21451047106000,1.254999,0.537428975801849,10.1525143051648,-5.26208767041801,2.187203,-0.54702985,-1.4013249,132.9547,-83.68999,0.7260053,WAL
21451052091000,1.259984,1.04172391729314,11.866368536052,-5.50926452570922,1.9712621,-0.08979719,-1.4123205,132.8504,-84.70291,0.3717698,WAL
21451057154000,1.265047,1.37127755966115,13.2275684542947,-5.60001102068558,1.7189748,0.4184427,-1.3726143,132.6183,-85.62871,0.017719217,WAL
21451062229000,1.270122,1.61727926125508,14.2386914324115,-5.20781860278476,1.502423,0.9251554,-1.2733486,132.0756,-86.528114,-0.08852953,WAL
21451067126000,1.275019,1.81227034826919,15.0367944730226,-4.58656819338619,1.2910637,1.3854424,-1.1053606,131.39415,-87.33012,-0.17226446,WAL
21451072195000,1.280088,1.86689520795948,15.0667082127352,-3.70064589761216,1.1404854,1.6890424,-0.87781334,130.55753,-88.060326,-0.13337834,WAL
21451077209000,1.285102,1.81725899212322,14.5356004959686,-2.65332086236304,1.0030408,1.752267,-0.6374379,129.664,-88.713295,-0.056439556,WAL
21451082103000,1.289996,1.64546183431766,13.6655436172592,-1.79256231665711,0.9193522,1.6368134,-0.42913285,128.7263,-89.16758,0.12551847,WAL
21451087116000,1.295009,1.40229938027523,12.582782087156,-0.998843305045872,0.8900307,1.3808609,-0.29871312,127.82401,-89.48292,0.33189613,WAL
21451092102000,1.299995,1.16734278596698,11.7123218820755,-0.403806919103774,0.92271197,1.2235631,-0.2302962,127.01544,-89.43662,0.55130374,WAL
21451097101000,1.304994,0.937487275362197,11.0106579976415,0.0317086726179245,0.9428705,0.8570439,-0.2125811,126.35004,-90.78999,0.7757077,WAL
21451102075000,1.309968,0.707526822909848,10.3612647310324,0.422641777929188,0.9416488,0.47219884,-0.17501289,125.784485,-91.02594,0.98237944,WAL
21451107100000,1.314993,0.468890255667956,9.95080949449569,0.604005565046117,0.94134337,0.105374254,-0.16035213,125.326294,-91.25831,1.1751479,WAL
21451112073000,1.319966,0.229357394350874,9.59072511807681,0.760094357000691,0.92271197,-0.18417588,-0.13255776,125.01092,-91.43037,1.3259724,WAL
21451117086000,1.324979,-0.0313267074173166,9.49119165416132,0.783792924754665,0.9059132,-0.42424592,-0.10598512,124.79001,-91.601105,1.4739754,WAL
21451123010000,1.330903,-0.305521271210568,9.42300835212934,0.81423249261041,0.89827734,-0.6087272,-0.07666359,124.70377,-91.725044,1.5671976,WAL
21451127131000,1.335024,-0.430019760585568,9.47228891462934,0.84016968636041,0.9193522,-0.72143185,-0.030848695,124.66626,-91.859856,1.6697478,WAL
21451132128000,1.340021,-0.580982864542587,9.53204503470032,0.871620343280757,0.95478237,-0.8029824,0.01160644,124.6987,-91.9619,1.7270154,WAL
21451137116000,1.345009,-0.730580022598771,9.59758355891133,0.886780379171203,0.9935723,-0.8671232,0.038179077,124.7574,-92.074974,1.791355,WAL
21451142109000,1.350002,-0.869119158489903,9.72352814820018,0.735646758049166,1.0207558,-0.9306532,0.040011674,124.83795,-92.1953,1.8589946,WAL
21451147048000,1.354941,-1.00615997406497,9.84811062897278,0.58614766837928,1.0302242,-0.95814216,0.028710667,124.96805,-92.29053,1.8785208,WAL
21451152094000,1.359987,-1.0192498408533,9.91130114786674,0.374911558274693,1.0189233,-0.9755518,-0.004886922,125.111176,-92.3841,1.8914331,WAL
21451157044000,1.364937,-1.00077909859731,9.95747800350672,0.153262489192285,0.97127575,-0.9816604,-0.032986723,125.25667,-92.4729,1.9022598,WAL
21451162102000,1.369995,-0.983809366363407,9.95118813596159,-0.0351512628819813,0.9211848,-0.9550878,-0.054367006,125.398544,-92.55499,1.8754486,WAL
21451167073000,1.374966,-0.967768165857973,9.92712625145312,-0.207594287240839,0.8671232,-0.9114109,-0.063224554,125.53476,-92.62724,1.8448951,WAL
21451172092000,1.379985,-0.942557524973931,9.83070811929093,-0.402992818168926,0.81397796,-0.86742866,-0.06963864,125.64094,-92.715195,1.8153101,WAL
21451177109000,1.385002,-0.902476717205422,9.61527426798749,-0.633457308508863,0.7672467,-0.820392,-0.087964594,125.73143,-92.791245,1.7808074,WAL
21451182100000,1.389993,-0.841882964286417,9.38699673315629,-0.895885904258877,0.7370089,-0.74464476,-0.1020145,125.80706,-92.89532,1.7428361,WAL
21451187110000,1.395003,-0.756937914124127,9.14159937405331,-1.19791282045835,0.72234815,-0.6936375,-0.12950343,125.873924,-92.98929,1.6966771,WAL
21451192852000,1.400745,-0.690798745674804,8.82334845674804,-1.49212298389682,0.7012733,-0.52412236,-0.16615535,125.875435,-93.10897,1.6507691,WAL
21451197101000,1.404994,-0.664558009857209,8.56094109857209,-1.67205930709351,0.6389651,-0.47250426,-0.1863139,125.89413,-93.21526,1.6015447,WAL
21451202053000,1.409946,-0.632744920333547,8.28858721103271,-1.86731762411802,0.59895337,-0.3643811,-0.2406809,125.816216,-93.360405,1.5532163,WAL
21451207110000,1.415003,-0.596502762625615,8.11255398171905,-2.02264131933932,0.5152648,-0.29840767,-0.3182608,125.733795,-93.474365,1.492753,WAL
21451212030000,1.419923,-0.521234325590198,8.06492155244546,-2.09512474794302,0.43554693,-0.2761111,-0.3811799,125.63094,-93.62349,1.4235289,WAL
21451217101000,1.424994,-0.376108357047515,8.22456030979181,-2.03707429991035,0.38362336,-0.28099802,-0.43279803,125.51471,-93.75312,1.3365227,WAL
21451222075000,1.429968,-0.233459263581136,8.40040704066499,-1.95291846151609,0.3622431,-0.33200526,-0.45631635,125.397385,-93.89884,1.2456189,WAL
21451227110000,1.435003,-0.0885585394395114,8.61074689889492,-1.82204038173711,0.36682457,-0.40653083,-0.45906523,125.28629,-94.037926,1.1463903,WAL
21451232030000,1.439923,0.0718847352296055,8.84874030170433,-1.71401730993872,0.39614612,-0.47433686,-0.44715336,125.188126,-94.17834,1.071707,WAL
21451237109000,1.445002,0.281462197135676,9.17009233737074,-1.64881542860015,0.4382958,-0.52870387,-0.42271876,125.10658,-94.32472,0.9991877,WAL
21451242051000,1.449944,0.47039703179715,9.48143563927448,-1.60703352597631,0.5018258,-0.57604593,-0.3817908,125.051476,-94.470406,0.95994073,WAL
21451247098000,1.454991,0.609056888080696,9.79453832963169,-1.6428167372941,0.5702427,-0.6209445,-0.3203988,125.01151,-94.629616,0.93200845,WAL
21451252156000,1.460049,0.744135997888544,10.1057289229864,-1.67831363221735,0.6658431,-0.6236934,-0.25503623,124.99452,-94.81026,0.9406668,WAL
21451257082000,1.464975,0.829918560062039,10.3782148624452,-1.7085898008771,0.7312057,-0.6020077,-0.18509217,124.98415,-95.00036,0.96586007,WAL
21451262251000,1.470144,0.888149777138616,10.586437408239,-1.73440783945073,0.81245077,-0.58276546,-0.10354166,125.00141,-95.22987,1.0131134,WAL
21451267102000,1.474995,0.836425420282984,10.5217820128039,-1.73871819914641,0.84940815,-0.5571091,-0.03970624,125.010925,-95.46149,1.0732,WAL
21451272251000,1.480144,0.775202856329182,10.4373764574986,-1.73594267146724,0.88147855,-0.54305923,0.012217305,125.034706,-95.723915,1.1555467,WAL
21451277101000,1.484994,0.636891355471936,10.1565622452626,-1.63954373535463,0.89736104,-0.5421429,0.04184427,125.05522,-95.98666,1.2459812,WAL
21451282033000,1.489926,0.49624139212597,9.87100024634542,-1.54151496155929,0.91415983,-0.5696318,0.06780604,125.08564,-96.262596,1.3383094,WAL
21451287099000,1.494992,0.278014347249493,9.57977342108046,-1.40796273846832,0.92149025,-0.6160576,0.08246681,125.12093,-96.53313,1.4309518,WAL
21451292111000,1.500004,0.0453588002044593,9.29212649449194,-1.26836946147881,0.91965765,-0.66950834,0.09254608,125.165794,-96.7989,1.5242544,WAL
21451297102000,1.504995,-0.268432304877791,9.06092470764998,-1.18698701592424,0.9242391,-0.68966687,0.09285152,125.20651,-97.0432,1.6006955,WAL
21451302091000,1.509984,-0.647588154400593,8.87387442323564,-1.15159911143794,0.9126327,-0.66828656,0.08277224,125.24934,-97.27499,1.6731954,WAL
21451307168000,1.515061,-1.02457156237351,8.72771225680322,-1.1555919582572,0.9034697,-0.6227771,0.050701816,125.32359,-97.49913,1.696879,WAL
21451312101000,1.519994,-1.38658213476766,8.60704251832204,-1.17879780021613,0.8915578,-0.5537493,-0.00030543262,125.382034,-97.71076,1.7125369,WAL
21451317083000,1.524976,-1.69103346752592,8.4920153250315,-1.19332827745906,0.8872818,-0.46273044,-0.06261369,125.431885,-97.91458,1.6631984,WAL
21451322137000,1.53003,-1.96308197602481,8.37944272788061,-1.20270925375521,0.88300574,-0.38423425,-0.11301007,125.46215,-98.10844,1.6055539,WAL
21451327137000,1.53503,-2.10630749859422,8.31233919286053,-1.15039674801769,0.86315256,-0.34422258,-0.15515977,125.49611,-98.308105,1.4737636,WAL
21451333897000,1.54179,-2.17277492364555,8.26632346390775,-1.0174620046912,0.86101454,-0.33536503,-0.20280726,125.51265,-98.507355,1.3298582,WAL
21451337311000,1.545204,-2.18649599454722,8.25228810710808,-0.953559035929893,0.8570439,-0.3454443,-0.25992316,125.52577,-98.70836,1.1337111,WAL
21451342108000,1.550001,-1.97910134920775,8.33768634186067,-0.900693735009295,0.8362745,-0.376293,-0.31429017,125.5389,-98.90352,0.92681336,WAL
21451347035000,1.554928,-1.76608625277507,8.42539889191821,-0.846395770107108,0.8313876,-0.42821655,-0.35460728,125.56889,-99.08534,0.6999546,WAL
21451352085000,1.559978,-1.43980392312739,8.58396599334182,-0.750126631356115,0.8054258,-0.4877759,-0.38362336,125.60637,-99.25651,0.46234733,WAL
21451357047000,1.56494,-1.08618317676491,8.76077605071967,-0.643109822316655,0.7703011,-0.59803706,-0.40591997,125.66969,-99.42544,0.21400398,WAL
21451362101000,1.569994,-0.730675806571693,8.9660455613321,-0.603204180092507,0.7483099,-0.6936375,-0.40653083,125.75501,-99.581085,4.610378e-05,WAL
21451367111000,1.575004,-0.380037103759482,9.17909198778908,-0.589888795818686,0.70829827,-0.7819075,-0.410196,125.86585,-99.72215,-0.22175969,WAL
21451372152000,1.580045,-0.0686523425672239,9.461763254633,-0.627001590445131,0.6936375,-0.8546005,-0.39553526,126.00861,-99.83763,-0.37993547,WAL
21451377122000,1.585015,0.208072823802689,9.79037425481468,-0.700506689482195,0.6719518,-0.9147707,-0.35827246,126.17101,-99.93808,-0.5322501,WAL
21451382100000,1.589993,0.45947853485684,10.1286358191941,-0.77308084437964,0.6536258,-0.93615097,-0.3203988,126.33341,-100.00946,-0.61303985,WAL
21451387094000,1.594987,0.667420189698834,10.4836583788971,-0.844085303361612,0.63713247,-0.95905846,-0.29535335,126.51216,-100.07254,-0.6871626,WAL
21451392103000,1.599996,0.840499353932584,10.7772971966292,-0.922709187640449,0.636827,-0.95417154,-0.2660318,126.694756,-100.133354,-0.70284754,WAL
21451397098000,1.604991,0.974870566512841,11.0028484059992,-1.00909071723515,0.6429357,-0.93309665,-0.21624629,126.87984,-100.18813,-0.70527244,WAL
21451402082000,1.609975,1.07624843770963,11.1377169516606,-1.01916784723775,0.65179324,-0.872621,-0.17073683,127.05506,-100.24202,-0.66829276,WAL
21451407135000,1.615028,1.1438789212759,11.1774995646169,-0.947559060835252,0.6600399,-0.80970186,-0.13561209,127.22462,-100.294914,-0.62051773,WAL
21451412190000,1.620083,1.21031820764465,11.2029117484946,-0.868627801784624,0.64965516,-0.72784597,-0.10873401,127.372345,-100.34779,-0.5432029,WAL
21451417082000,1.624975,1.25937981480059,11.0475502984554,-0.701000683135527,0.61208695,-0.6536258,-0.09773844,127.50507,-100.39365,-0.46093515,WAL
21451422104000,1.629997,1.30974518502487,10.8880602734968,-0.528919041709573,0.55680364,-0.61483586,-0.067500606,127.65768,-100.43438,-0.3600831,WAL
21451427117000,1.63501,1.25916442808777,10.8833824754142,-0.504847404863412,0.51007247,-0.571159,-0.057726767,127.787605,-100.46612,-0.26160738,WAL
21451432119000,1.640012,1.17764531310345,10.9262872256158,-0.526299802364532,0.44348818,-0.5421429,-0.064446285,127.91173,-100.475975,-0.16181082,WAL
21451437097000,1.64499,1.06845216576839,11.0438437334304,-0.612762192046613,0.36132678,-0.5216789,-0.062308256,128.05939,-100.461006,-0.051629405,WAL
21451442107000,1.65,0.933663409343461,11.2285543171366,-0.757535272225575,0.29168814,-0.51343226,-0.07360926,128.20154,-100.43134,0.050780755,WAL
21451447915000,1.655808,0.752877712802697,11.4702931288444,-0.923365826406457,0.23579398,-0.49938235,-0.0870483,128.33524,-100.38718,0.13871785,WAL
21451452087000,1.65998,0.614076163727393,11.6540009486053,-1.04175541255952,0.19242255,-0.51159966,-0.121256754,128.4725,-100.32808,0.21468186,WAL
21451457163000,1.665056,0.515544950029019,11.8206176899787,-1.15315571986845,0.16676621,-0.52290064,-0.15485434,128.61505,-100.29404,0.26141784,WAL
21451462103000,1.669996,0.456053501973302,11.9533294185529,-1.24468095105436,0.14966199,-0.535118,-0.19120082,128.7588,-100.25054,0.29641104,WAL
21451467084000,1.674977,0.428281664928179,12.0440857838619,-1.27794275778463,0.1337795,-0.56382865,-0.22052236,128.90477,-100.2225,0.29660395,WAL
21451472174000,1.680067,0.423582357881037,12.1051768245445,-1.26854419276005,0.11056661,-0.6081163,-0.2519819,129.0553,-100.18756,0.28525376,WAL
21451477144000,1.685037,0.428527529185442,12.1624059376083,-1.2307810404198,0.084910266,-0.66614854,-0.28069258,129.21361,-100.16591,0.25660422,WAL
21451482096000,1.689989,0.442226074280763,12.2171997746967,-1.16685451571346,0.06291912,-0.6936375,-0.29168814,129.3733,-100.13872,0.22496137,WAL
21451487081000,1.694974,0.461845038986991,12.2819847555959,-1.08703444390186,0.039095376,-0.7125743,-0.30298916,129.5588,-100.11283,0.1809576,WAL
21451492109000,1.700002,0.489481632891716,12.3602890980486,-0.985700211741917,-0.010079277,-0.72082096,-0.29901853,129.74696,-100.07358,0.1395631,WAL
21451497102000,1.704995,0.539002266511722,12.471096453466,-0.881324767558104,-0.05222898,-0.7144069,-0.29871312,129.94705,-100.022606,0.095436566,WAL
21451502088000,1.709981,0.631080757221151,12.6455609099767,-0.769861353542068,-0.09285152,-0.6609562,-0.29443705,130.13422,-99.95895,0.0579183,WAL
21451507102000,1.714995,0.767146014120225,12.8764267774995,-0.649210953830098,-0.1518,-0.5919284,-0.28191432,130.33426,-99.86542,0.024602342,WAL
21451512102000,1.719995,0.977032206981841,13.2012504051346,-0.51428411183469,-0.19761491,-0.49021935,-0.28191432,130.50732,-99.76601,-0.0044823117,WAL
21451517920000,1.725813,1.24033767375012,13.6147815742037,-0.332738545577359,-0.2489276,-0.38026363,-0.2666427,130.68504,-99.63685,-0.013416197,WAL
21451522154000,1.730047,1.44425819454689,13.9386552270979,-0.184796197627453,-0.30757064,-0.28252518,-0.25045475,130.8357,-99.49579,-0.016170476,WAL
21451527131000,1.735024,1.69454086634341,14.1884730522123,0.0120935261979392,-0.355829,-0.19303341,-0.21044308,130.98367,-99.32019,0.021221397,WAL
21451532126000,1.740019,1.95962995816954,14.2671716581522,0.239904434345831,-0.40958515,-0.12797627,-0.18325958,131.10983,-99.131645,0.06303752,WAL
21451537094000,1.744987,2.23558505086871,14.3214180139191,0.469581173484699,-0.46761733,-0.07971791,-0.13255776,131.24286,-98.89779,0.15732507,WAL
21451542077000,1.74997,2.60774466084896,14.1895131340573,0.723968783632774,-0.5534439,-0.032070424,-0.06536258,131.35837,-98.64937,0.26480564,WAL
21451547083000,1.754976,2.9807203353543,14.0597864346343,0.965834955513452,-0.6441574,0.03023783,0.020158553,131.48773,-98.35198,0.43114606,WAL
21451552090000,1.759983,3.34412366156688,13.9598503954149,1.06122831382152,-0.7831292,0.08979719,0.11209377,131.60603,-98.03089,0.6160881,WAL
21451557421000,1.765314,3.72843209171516,13.8539239764478,1.15470707118315,-0.94042706,0.15485434,0.24220806,131.74947,-97.66818,0.8755771,WAL
21451562062000,1.769955,4.00757921862012,13.7718219559435,1.06439478433084,-1.110553,0.22388211,0.3857614,131.87726,-97.289185,1.1614456,WAL
21451567079000,1.774972,4.30934201450078,13.6830682742219,0.966765664930267,-1.2822062,0.26908615,0.5421429,132.02225,-96.89854,1.528221,WAL
21451572066000,1.779959,4.45915332669917,13.4434566929048,0.898200385205493,-1.4343116,0.28038713,0.7122689,132.16183,-96.52052,1.9323946,WAL
21451577051000,1.784944,4.57317137376853,13.1679125417454,0.83644051132252,-1.5769486,0.267559,0.8707884,132.29938,-96.1682,2.369127,WAL
21451582127000,1.79002,4.4807435475216,12.7552393342428,0.855275469322419,-1.7333301,0.20677789,0.93279123,132.46126,-95.88483,2.8546274,WAL
21451587722000,1.795615,4.31992406321055,12.263033521146,0.899135435079582,-1.8127426,0.061086524,1.1246029,132.66039,-95.72042,3.408124,WAL
21451592063000,1.799956,3.98897509458585,11.7919704071563,1.00509718378886,-2.0772474,0.022602014,1.1795808,132.85461,-95.58838,3.937131,WAL
21451597169000,1.805062,3.48906685404757,11.1900403343417,1.16833249894012,-2.1832323,-0.05222898,1.2571607,133.10818,-95.63635,4.511742,WAL
21451602100000,1.809993,2.84338607149938,10.7350188128872,1.31807478822801,-2.4061983,-0.11026118,1.3170254,133.36298,-95.74465,5.0734024,WAL
21451607063000,1.814956,2.12190060639199,10.3325571300083,1.4653166560822,-2.6358836,-0.12705997,1.3729197,133.63051,-95.98882,5.646522,WAL
21451612020000,1.819913,1.3082066728062,10.1905867881783,1.38782776197674,-2.8457158,-0.05497787,1.3924674,133.85623,-96.29392,6.17283,WAL
21451617005000,1.824898,0.457021555286822,10.1397009032461,1.23054362142442,-2.9984322,0.115453534,1.3738359,134.059,-96.71108,6.6974854,WAL
21451622047000,1.82994,-0.476319252457132,10.3368192732366,1.0519857729394,-3.0918944,0.38728857,1.3002267,134.15585,-82.86161,7.1252513,WAL
21451627020000,1.834913,-1.43216930117693,10.6523428961419,0.866383795436477,-3.155119,0.6969972,1.1728612,134.19115,-82.361084,7.5244336,WAL
21451632017000,1.83991,-2.29663555766149,11.0949756909684,0.602234218268869,-3.1764994,0.9783007,0.99204516,134.07678,-81.93711,7.759432,WAL
21451637043000,1.844936,-3.10607417519042,11.6187297366703,0.287981567116431,-3.1435125,1.1826351,0.79412484,133.89606,-81.48925,7.9423428,WAL
21451642019000,1.849912,-3.73631166288402,12.1095196441509,0.00604815909536673,-3.097087,1.2675453,0.6218608,133.57336,-81.17184,7.9235377,WAL
21451647021000,1.854914,-4.25402852372661,12.5840934666266,-0.257603932244571,-3.0320296,1.2049317,0.48472157,133.23773,-80.852425,7.8500996,WAL
21451652086000,1.859979,-4.50009556914651,12.9486556790507,-0.974099780467366,-2.941927,1.0250319,0.37843102,132.83775,-80.672104,7.5997767,WAL
21451657111000,1.865004,-4.56159505568234,13.234189894021,-1.98005782848197,-2.8359418,0.75686204,0.3277292,132.4868,-80.48113,7.328448,WAL
21451662073000,1.869966,-4.49669865450601,13.3625993577204,-2.94589627811083,-2.7156014,0.49357912,0.35033122,132.1356,-80.36943,6.9659295,WAL
21451667073000,1.874966,-4.25590936245317,13.277614640702,-3.8807255524157,-2.5662448,0.28863382,0.4083634,131.85089,-80.25054,6.6107354,WAL
21451672129000,1.880022,-3.94794638797587,13.1878044720657,-4.82709404202512,-2.3738225,0.18387043,0.48166725,131.61403,-80.26896,6.254007,WAL
21451677174000,1.885067,-3.54185776076337,13.0922542772669,-5.77304176871354,-2.164601,0.18387043,0.5555819,131.40947,-80.292404,5.9273686,WAL
21451682029000,1.889922,-3.11217106417018,13.0407220469562,-6.29424621978237,-1.9401081,0.33750305,0.59406644,131.21822,-80.42738,5.653594,WAL
21451687113000,1.895006,-2.59192361478286,13.0598135858249,-6.13673990275463,-1.8365663,0.689056,0.6722572,130.9701,-80.55169,5.414144,WAL
21451692155000,1.900048,-2.07807225091555,13.0876044723468,-5.47779724000374,-1.6636915,1.1661417,0.7452556,130.68396,-80.803894,5.2476954,WAL
21451697102000,1.904995,-1.57792837874626,13.1318649633782,-3.86671430348468,-1.606881,1.6181821,0.8341365,130.30312,-81.02633,5.103596,WAL
21451702066000,1.909959,-1.06017007132675,13.1827074951876,-2.33446459882734,-1.7088956,1.8649716,0.9114109,129.89871,-81.17569,5.062771,WAL
21451707083000,1.914976,-0.465601012560401,13.2629272655667,-1.16420181001768,-1.9517145,1.9602666,0.97097033,129.40875,-81.28479,5.033786,WAL
21451712091000,1.919984,0.10154241651792,13.3214660245959,-0.0844347259311314,-2.2247713,1.9828686,1.0619892,128.90784,-81.09531,5.125356,WAL
21451717119000,1.925012,0.522106613470435,13.258622838972,0.500487904463407,-2.4480424,1.9743165,1.1924089,128.3923,-80.85038,5.238218,WAL
21451722094000,1.929987,0.913812804010312,13.1757680910914,1.02581563594958,-2.5592198,1.9361374,1.3136657,127.91257,-80.3651,5.4666224,WAL
21451727111000,1.935004,1.17989866606512,12.9830856863363,1.27355066960756,-2.5934284,1.831374,1.3952162,127.45935,-79.846275,5.71296,WAL
21451732153000,1.940046,1.43307243064489,12.7864193699383,1.46862823228795,-2.59465,1.6545285,1.4443909,127.07221,-79.20601,6.0441093,WAL
21451737092000,1.944985,1.51189231933011,12.5578410343276,1.01935457049158,-2.588236,1.4385877,1.462106,126.73122,-78.57013,6.3824706,WAL
21451742110000,1.950003,1.59197294322613,12.325606556074,0.562894713254458,-2.5830436,1.3344351,1.4727961,126.40034,-77.857124,6.7796326,WAL
21451747096000,1.954989,1.61304125994534,12.0583688820565,-0.183772626260142,-2.549446,1.3997977,1.4984524,126.087166,-77.16713,7.172532,WAL
21451752103000,1.959996,1.60485080173371,11.7717032722692,-1.08062843331113,-2.4966063,1.6276505,1.5238034,125.762634,-76.50038,7.5497737,WAL
21451757120000,1.965013,1.53998647375264,11.3828861784643,-1.81990616801867,-2.4507914,1.8304577,1.5274686,125.47553,-75.907135,7.948365,WAL
21451762085000,1.969978,1.36033755709523,10.7911011029003,-2.2267581522947,-2.4352143,1.9727893,1.5149459,125.14788,-75.33466,8.323353,WAL
21451767089000,1.974982,1.1923931757764,10.1853970621118,-2.59050498464951,-2.4208589,2.169488,1.5183055,124.658844,-74.82669,8.653187,WAL
21451772125000,1.980018,1.03548198129745,9.56726194824017,-2.9138371866016,-2.4129176,2.39337,1.4999796,124.13215,-74.34146,8.949709,WAL
21451777098000,1.984991,0.863454335967101,8.99124083171611,-3.06100709906663,-2.4028385,2.4926357,1.4902058,123.58081,-73.90279,9.217272,WAL
21451782097000,1.98999,0.67321298144349,8.4470621926809,-3.03446172072821,-2.4120014,2.6367998,1.4453071,122.965996,-73.48515,9.441249,WAL
21451787072000,1.994965,0.476642103798122,7.85901596872742,-2.96677975198679,-2.3890939,2.7354546,1.3671165,122.2867,-73.08893,9.625449,WAL
21451792112000,2.000005,0.262431596212199,7.16656813716586,-2.81234892940448,-2.3545802,2.7840183,1.2687671,121.59529,-72.72039,9.774167,WAL
21451797123000,2.005016,0.079185955807028,6.55858990823903,-2.62896169757792,-2.296548,2.8096747,1.1859949,120.879974,-72.37325,9.881134,WAL
21451802131000,2.010024,-0.0588782509827278,6.07298471911852,-2.40044169630733,-2.2018638,2.8243356,1.1194105,120.17022,-72.07303,9.953302,WAL
21451807755000,2.015648,-0.214130245106342,5.5986192127033,-2.20139460423443,-2.082745,2.8221974,1.0690142,119.41837,-71.761375,9.990312,WAL
21451812141000,2.020034,-0.335400211538832,5.29544425441247,-2.10033628480416,-1.9599612,2.8643472,1.0299188,118.66482,-71.49839,10.000184,WAL
21451817118000,2.025011,-0.473169630933907,5.03204303594466,-1.91993890490792,-1.8188512,2.9181032,1.0296134,117.85329,-71.211945,9.98981,WAL
21451822129000,2.030022,-0.612243267560998,4.95129060932972,-1.58795671180705,-1.6621643,2.910162,1.0439687,117.05939,-70.977875,9.968304,WAL
21451827075000,2.034968,-0.759868019052817,4.88228733504072,-1.24921727143001,-1.5253305,2.8799243,1.0619892,116.20625,-70.734924,9.925386,WAL
21451832108000,2.040001,-0.966283651566042,4.87014520669242,-0.844480755818289,-1.3695599,2.8237245,1.0775663,115.37062,-70.546616,9.8835945,WAL
21451837053000,2.044946,-1.16909018897473,4.85821537862121,-0.446820896946847,-1.2263119,2.716823,1.0644327,114.517975,-70.34751,9.817089,WAL
21451842105000,2.049998,-1.38183655239936,4.90124029735081,-0.121822367917413,-1.0925325,2.5925121,1.040609,113.69334,-70.19552,9.754031,WAL
21451847038000,2.054931,-1.59116927010465,4.95914084420666,0.172134232401244,-0.96486163,2.4165828,1.0042624,112.922195,-70.09232,9.694152,WAL
21451852071000,2.059964,-1.79708578068567,5.07642441062388,0.336863275536177,-0.8399397,2.1838431,0.93859446,112.15352,-69.97873,9.586789,WAL
21451857107000,2.065,-1.99896032013155,5.22542717354993,0.428187491788918,-0.70432764,1.9388863,0.87872964,111.44563,-69.91233,9.485037,WAL
21451862152000,2.070045,-2.21504082940887,5.36718382662536,0.412947162784499,-0.5375614,1.7327193,0.8155051,110.75617,-69.870224,9.33374,WAL
21451867089000,2.074982,-2.43360998218747,5.50204560297039,0.343191043273335,-0.37384954,1.5485435,0.76174897,110.1377,-69.874,9.187152,WAL
21451872112000,2.080005,-2.58229879365327,5.64705517979169,0.177273934833058,-0.21135938,1.4813483,0.7107417,109.516335,-69.937164,8.987361,WAL
21451877760000,2.085653,-2.69813414410591,5.81554294227587,-0.0754575549518154,-0.057726767,1.3582588,0.6612616,108.97034,-70.049644,8.795396,WAL
21451882101000,2.089994,-2.6730794261575,5.92499511716319,-0.276749710654649,0.059253927,1.3359623,0.6377433,108.385704,-70.23127,8.545275,WAL
21451887084000,2.094977,-2.57347147817837,6.03818566413662,-0.512186485199241,0.11026118,1.3087788,0.60139686,107.84636,-70.44407,8.292414,WAL
21451892103000,2.099996,-2.41017275530047,6.06809845149175,-0.690136957151926,0.1740966,1.3096951,0.56779927,107.28935,-70.73992,8.00838,WAL
21451897120000,2.105013,-2.17126021104528,5.99693311328819,-0.796885150232755,0.21074851,1.3368785,0.5198463,106.74135,-71.04754,7.715368,WAL
21451902125000,2.110018,-1.9642225326193,5.83589092041695,-0.730563734407574,0.24740042,1.3735305,0.4810564,106.19223,-71.40026,7.436228,WAL
21451907127000,2.11502,-1.78098382702496,5.60684237100507,-0.533582085234771,0.2761111,1.3756685,0.44318274,105.65276,-71.764725,7.1509767,WAL
21451912106000,2.119999,-1.64315869343387,5.36620844442091,-0.244190313111073,0.30757064,1.3335189,0.40286562,105.1325,-72.12358,6.912405,WAL
21451917089000,2.124982,-1.55420950480386,5.11149051292044,0.147994647979327,0.36926803,1.2507466,0.3576616,104.62906,-72.50167,6.671165,WAL
21451922131000,2.130024,-1.48393657907609,4.85183677377717,0.555376718682065,0.4465425,1.1175779,0.3213151,104.1692,-72.8182,6.486918,WAL
21451927108000,2.135001,-1.56012549111253,4.58136629913683,1.03536670142263,0.55771995,0.9419542,0.29657507,103.748886,-73.1627,6.307986,WAL
21451934298000,2.142191,-1.67955773333333,4.18895552047542,1.73674950653701,0.6924158,0.62888575,0.20066923,103.42764,-73.43006,6.163571,WAL
21451937086000,2.144979,-1.82668978666667,4.01874388801729,2.09448232023771,0.9184359,0.5131268,0.16340645,103.0996,-73.74586,6.02993,WAL
21451942104000,2.149997,-2.09150637333333,3.71238737019989,2.73835006024851,1.010982,0.2950479,0.11209377,102.90294,-73.95737,5.888065,WAL
21451947588000,2.155481,-2.2614661460454,3.64328984847515,3.20814604681532,1.1963795,0.10781772,0.0729984,102.733826,-74.25286,5.747763,WAL
21451952086000,2.159979,-2.37345379788021,3.64759706239376,3.53980174342566,1.3808609,-0.064446285,0.008246681,102.62864,-74.57691,5.603112,WAL
21451957111000,2.165004,-2.39300788283604,3.65235363905465,3.73731704661743,1.5757269,-0.19181168,-0.079107046,102.57032,-74.859276,5.407316,WAL
21451962108000,2.170001,-2.37887043243722,3.65706612252093,3.87869164902019,1.767844,-0.21746802,-0.15027285,102.537605,-75.18911,5.2045364,WAL
21451967077000,2.17497,-1.82491613473054,4.16131812482308,4.01750963091998,1.9208658,-0.20189096,-0.21533,102.5377,-75.50339,4.9663143,WAL
21451972118000,2.180011,-1.05841095479042,4.86212291173108,4.1576706523317,2.0619757,-0.15577064,-0.26542094,102.54356,-75.863174,4.7142344,WAL
21451977103000,2.184996,-0.371998400931034,5.58508383298851,4.34363246614943,2.1294763,-0.048563786,-0.35216382,102.53966,-76.212265,4.4374924,WAL
21451982103000,2.189996,0.251778294471264,6.33728507819923,4.5729621117433,2.2272146,0.10354166,-0.41386122,102.51528,-76.59993,4.1506968,WAL
21451987084000,2.194977,0.894062738712235,7.32269992347332,4.85312238143347,2.2715025,0.25534168,-0.48380527,102.47963,-76.87333,4.05718,WAL
21451992111000,2.200004,1.56973034797086,8.62761482009856,5.20385052723377,2.2910502,0.4156938,-0.5555819,102.40292,-77.16574,3.937836,WAL
21451997100000,2.204993,2.07274552154053,9.96755547773824,5.67832256418886,2.2623394,0.6068946,-0.605062,102.26196,-77.31873,3.9947438,WAL
21452002076000,2.209969,2.44851663830176,11.3377455744783,6.24656176257332,2.1832323,0.8231409,-0.6261369,102.06986,-77.46798,4.022775,WAL
21452007152000,2.215045,2.70511731573662,12.8302738911896,6.78367982472306,2.042428,0.960891,-0.6065892,101.8232,-77.47001,4.216023,WAL
21452012105000,2.219998,2.82788869433689,14.3821033003417,7.26494333347137,1.8616118,1.0396926,-0.5513059,101.530396,-77.45332,4.3837523,WAL
21452017310000,2.225203,2.89671885733936,15.730947823148,7.48794591440362,1.6383406,1.0943651,-0.45265114,101.207275,-77.31357,4.610014,WAL
21452022246000,2.230139,2.91994104480252,16.8131025348792,7.50187922688151,1.3542882,1.0998629,-0.31215215,100.869705,-77.12924,4.833599,WAL
21452027118000,2.235011,2.85986013252527,17.5807969938225,7.15029264139835,1.02717,1.0714576,-0.116980694,100.509636,-76.8745,5.05532,WAL
21452032091000,2.239984,2.72613079108948,18.1023410670161,6.47273084028454,0.6881397,1.0366384,0.0852157,100.14114,-76.56489,5.2904196,WAL
21452037084000,2.244977,2.41554952887828,18.4295702291169,5.79833355894988,0.37293324,1.0662653,0.32650748,99.74785,-76.25397,5.5412316,WAL
21452042110000,2.250003,1.81619660375636,18.4395596453253,5.12905638927052,0.12767084,1.1258247,0.54183745,99.345604,-75.88828,5.8152122,WAL
21452047098000,2.254991,1.26944252839316,18.0249581504273,4.69232447179487,-0.076052725,1.1792754,0.71959925,98.896034,-75.59729,6.0873423,WAL
21452052079000,2.259972,0.780190510950617,17.1098751308642,4.52471027407407,-0.2510656,1.1963795,0.8698721,98.43193,-75.25097,6.388098,WAL
21452057127000,2.26502,0.314817237454488,16.0024767306968,4.44710117906466,-0.42058071,1.1749994,0.98440933,97.95187,-74.987206,6.618361,WAL
21452062103000,2.269996,-0.0890318353222432,14.5865126679222,4.53684530176815,-0.5531385,1.112691,1.0577132,97.47625,-74.68708,6.867646,WAL
21452067092000,2.274985,-0.412329862905199,13.1787260642202,4.59932717446483,-0.6227771,1.0830641,1.0952814,97.01278,-74.38692,7.0651417,WAL
21452072187000,2.28008,-0.636154800223624,11.7565053102064,4.62730521981078,-0.65240407,1.029308,1.0922271,96.57537,-74.07017,7.2688913,WAL
21452077121000,2.285014,-0.834726075623685,10.3942667604448,4.63632176565474,-0.6722572,0.9975429,1.0644327,96.16362,-73.715126,7.43289,WAL
21452082097000,2.28999,-1.00183322753231,9.04786017192666,4.61244932962629,-0.6407976,0.9663888,1.0152581,95.771324,-73.379395,7.587208,WAL
21452087067000,2.29496,-1.16008513961139,7.83589132339361,4.62066169074644,-0.54183745,0.9233228,0.9560041,95.41922,-73.03247,7.715157,WAL
21452092111000,2.300004,-1.30412777712582,6.8601184611389,4.69035996027318,-0.4147775,0.8335256,0.8970556,95.094505,-72.71545,7.830077,WAL
21452097067000,2.30496,-1.42040904899729,6.0500557696477,4.71069381913279,-0.27916542,0.691194,0.84696466,94.81466,-72.403244,7.9250207,WAL
21452102083000,2.309976,-1.46814256466125,5.64215120596206,4.59786907159892,-0.116980694,0.53023106,0.7715228,94.57278,-72.14617,8.001105,WAL
21452107180000,2.315073,-1.50267831739412,5.28773112997966,4.45753676873497,0.03023783,0.34025195,0.65668017,94.39433,-71.89618,8.052412,WAL
21452112103000,2.319996,-1.36316553238395,5.68883062019604,4.00412004673571,0.20250183,0.121256754,0.50885075,94.27755,-71.70984,8.085923,WAL
21452118007000,2.3259,-1.19856308088725,6.21277924909427,3.46138538643253,0.44593164,-0.12095132,0.3567453,94.229706,-71.59507,8.098792,WAL
21452122195000,2.330088,-1.1095996650647,7.02456986691312,3.08699777171904,0.732122,-0.40591997,0.21960606,94.26534,-71.552,8.094437,WAL
21452127082000,2.334975,-1.00578777081331,7.97185275833641,2.65012282589649,1.065349,-0.7104363,0.0693332,94.381226,-71.67622,8.086798,WAL
21452134492000,2.342385,-0.924693600892357,10.0551849073629,2.0126632962585,1.3607023,-0.97524637,-0.09437868,94.57684,-71.88057,8.056135,WAL
21452137067000,2.34496,-0.902490475342137,10.8298276494598,1.79309900204082,1.5888605,-1.2073752,-0.2764165,94.86015,-72.170166,7.9991045,WAL
21452142139000,2.350032,-0.72039517960365,12.2438114159717,1.49874445362504,1.7217237,-1.4361442,-0.45234573,95.215,-72.626625,7.9273624,WAL
21452147101000,2.354994,-0.491955487195134,13.5864771120377,1.26098072849995,1.7195857,-1.6994271,-0.6001751,95.65083,-73.116875,7.831194,WAL
21452152086000,2.359979,-0.336587394351386,14.6502768755056,0.825527019431785,1.5714508,-1.9358319,-0.6918049,96.129234,-73.72501,7.6998363,WAL
21452157137000,2.36503,-0.212518760043405,15.5998793254415,0.295849367650192,1.3029755,-2.072971,-0.7672467,96.65416,-74.30312,7.5422826,WAL
21452162102000,2.369995,-0.258946570033686,15.8384219300084,-0.544134131164967,0.9221011,-2.0454822,-0.8729264,97.18301,-74.88113,7.376674,WAL
21452167144000,2.375037,-0.389975072066062,15.7345030405165,-1.5562162914513,0.50793445,-1.9422461,-1.0100657,97.72471,-75.37904,7.1857486,WAL
21452172201000,2.380094,-0.613764407292002,15.1034608314912,-2.5829384579783,0.30757064,-1.5488489,-1.0528263,98.152054,-75.909935,6.978025,WAL
21452177198000,2.385091,-0.911898356627813,14.0407572970257,-3.60717272451768,0.027794369,-0.9868528,-1.1074986,98.501625,-76.319565,6.717639,WAL
21452182100000,2.389993,-1.35943737598704,12.9887560741041,-4.08925371441587,-0.14172074,-0.46395215,-1.0522153,98.73789,-76.82816,6.4394045,WAL
21452187098000,2.394991,-1.94575549835999,11.9081867537963,-4.14255527450901,-0.19028452,0.016798794,-0.9007208,98.817726,-77.27337,6.150809,WAL
21452192109000,2.400002,-2.62742295352517,10.8496647347968,-4.21132511788787,-0.122478485,0.516792,-0.657291,98.73448,-77.799805,5.843221,WAL
21452197102000,2.404995,-3.37921787240186,9.81417341145061,-4.29170590077128,0.12767084,1.1001683,-0.3472769,98.47611,-78.31806,5.575243,WAL
21452202614000,2.410507,-4.04784308012691,8.39365846792616,-4.16008814346697,0.59620446,1.672549,-0.06047566,98.08059,-78.89948,5.271131,WAL
21452207134000,2.415027,-4.5014823786559,7.06603538514566,-3.92286388964523,1.1780536,2.0589213,0.08979719,97.56337,-79.542305,5.004608,WAL
21452212101000,2.419994,-4.77579358625916,5.71090967819497,-3.56471816217555,1.7617353,2.1817052,0.10048734,96.965744,-80.32501,4.6642437,WAL
21452217121000,2.425014,-4.79008188683376,4.46305947312265,-3.08843952021003,2.2968533,2.1267273,0.045814894,96.30678,-81.22215,4.347859,WAL
21452222174000,2.430067,-4.58632157969508,3.60479874978715,-2.66101453483813,2.7488935,1.9077321,-0.009162978,95.67783,-82.213425,3.9706874,WAL
21452227135000,2.435028,-4.12537385738046,3.23792201927532,-2.30354494279774,3.1395419,1.4990633,-0.05222898,95.122894,-83.31824,3.5971882,WAL
21452232054000,2.439947,-3.20353838506808,4.19295404770565,-2.32330820710688,3.4596353,0.9392053,-0.016493361,94.69237,-84.42162,3.2428176,WAL
21452237230000,2.445123,-1.55306921536094,7.12866234742585,-2.89195712260772,3.6685512,0.28405234,0.07941248,94.40972,-85.55711,2.9066038,WAL
21452242034000,2.449927,-0.342700504340649,9.59548308448242,-3.5063972720334,3.7610974,-0.2751948,0.21746802,94.268875,-86.5549,2.6685789,WAL
21452247097000,2.45499,0.0339735883006409,11.4741451740144,-4.39628968032628,3.6939023,-0.62125,0.3399465,94.25809,-87.355034,2.4561179,WAL
21452252047000,2.45994,0.39088264329818,13.0857479195616,-5.16177374669148,3.4077117,-0.7690793,0.3631594,94.26624,-92.621735,2.608773,WAL
21452257087000,2.46498,0.710267948757237,13.8542692346981,-5.53605367224979,2.8890872,-0.79504114,0.30970868,94.33366,-93.10067,2.7691844,WAL
21452262038000,2.469931,1.02911483233497,14.3012831776019,-5.58354611259141,2.214081,-0.7669413,0.19242255,94.38832,-93.894844,2.9804986,WAL
21452267130000,2.475023,1.37105181354302,13.9153827212261,-4.75312777702094,1.829236,-0.6637051,0.12614368,94.42619,-94.74395,3.1800952,WAL
21452272750000,2.480643,1.57153149924883,13.1910112396244,-3.76626424056338,1.0848967,-0.6133087,-0.09132435,94.45654,-95.421,3.3515158,WAL
21452277104000,2.484997,1.49322654676056,12.2356900833803,-2.90882427492958,0.17501289,-0.6301075,-0.17073683,94.47593,-95.97058,3.5306485,WAL
21452282072000,2.489965,1.31534995917759,11.2089048432658,-1.97472265405244,-0.0067195175,-0.7275405,-0.3173445,94.47006,-96.39136,3.7065814,WAL
21452287091000,2.494984,0.63264857599404,10.5309774264005,-1.28247309097139,-0.17654006,-0.86070913,-0.42210788,94.47953,-96.58591,3.858748,WAL
21452292082000,2.499975,-0.0429561498147714,9.9467161931644,-0.621997590976644,-0.11881329,-0.9737192,-0.464563,94.520004,-96.671684,4.0015936,WAL
21452297104000,2.504997,-0.702203827667057,9.92069318459735,-0.131898948902516,0.08399397,-1.0714576,-0.3933972,94.59669,-96.75319,4.1371355,WAL
21452302090000,2.509983,-1.35672571571395,9.89485672089458,0.354686441257102,0.43096542,-1.180497,-0.20769419,94.783516,-96.75189,4.1383395,WAL
21452307107000,2.515,-1.8142778568839,9.97413860120846,0.650888074415192,0.81031275,-1.2944235,0.042455133,95.00227,-96.82819,4.1765795,WAL
21452312111000,2.520004,-2.22619600996716,10.0408332124783,0.908113272146031,1.1530081,-1.3866642,0.29901853,95.24873,-97.00625,4.2664337,WAL
21452317138000,2.525031,-2.28664167948619,9.83624829524821,0.884864945932007,1.4092661,-1.4676038,0.46792278,95.5853,-97.13311,4.2439585,WAL
21452322430000,2.530323,-2.34586864816821,9.60574714711333,0.837434063651461,1.5647314,-1.509448,0.5390886,95.97531,-97.273094,4.183214,WAL
21452327106000,2.534999,-2.33948495830364,9.2003869401283,0.489526355548824,1.6337591,-1.4926492,0.50579643,96.37052,-97.46141,4.138717,WAL
21452332033000,2.539926,-2.33275860245189,8.77326766300784,0.122943533089095,1.6368134,-1.4046847,0.3903429,96.759674,-97.668884,4.076993,WAL
21452337069000,2.544962,-2.28577182519636,8.3013632335742,-0.2590993115122,1.5864171,-1.2901474,0.22907446,97.13085,-97.866135,3.992438,WAL
21452342372000,2.550265,-2.05176041476594,7.64187601144622,-0.695211595050791,1.4895949,-1.1887437,0.057421334,97.47352,-98.03323,3.8736506,WAL
21452347075000,2.554968,-1.83518727962382,7.13835379184953,-1.01990634930587,1.3805555,-1.0903945,-0.09896017,97.76849,-98.25331,3.7204459,WAL
21452352084000,2.559977,-1.58169482244514,6.80752457297806,-1.20895157236901,1.2767084,-1.0024298,-0.21899518,98.02992,-98.43555,3.5323207,WAL
21452357240000,2.565133,-1.32502757235104,6.48398919722864,-1.38304573759815,1.1542299,-0.9859365,-0.30024028,98.27123,-98.668816,3.350905,WAL
21452362104000,2.569997,-1.13138585061801,6.37210731196305,-1.31419535703464,1.0384709,-1.0015136,-0.3371976,98.49033,-98.87191,3.1511812,WAL
21452368044000,2.575937,-0.879625684535592,6.29115799796353,-1.23573964894011,0.98990715,-1.1200215,-0.4370741,98.70292,-99.10701,2.9669871,WAL
21452372164000,2.580057,-0.547260928082755,6.80979326964732,-1.23939200624826,0.8671232,-1.1737776,-0.46883908,98.89897,-99.295944,2.795255,WAL
21452377121000,2.585014,-0.147374496593261,7.43379206618532,-1.24378635944645,0.83658,-1.3084733,-0.5122105,99.12411,-99.48639,2.6372716,WAL
21452382095000,2.589988,0.172864147418034,8.04469042791601,-1.36740306731957,0.79076505,-1.4208726,-0.5510005,99.353165,-99.63712,2.4725206,WAL
21452387094000,2.594987,0.464317957665343,8.65294179018881,-1.53636176926063,0.76174897,-1.4984524,-0.5723807,99.60532,-99.78237,2.2985535,WAL
21452392104000,2.599997,0.785780761509671,9.25442552388918,-1.68095332375327,0.74067414,-1.5286902,-0.5696318,99.837135,-99.92312,2.2498157,WAL
21452397101000,2.604994,1.14100574738421,9.84479926262415,-1.79602621452169,0.7189884,-1.5039502,-0.5503896,100.0716,-100.05144,2.1993897,WAL
21452402078000,2.609971,1.43396799804654,10.2818535173801,-1.81110043249066,0.70921457,-1.4172074,-0.5225952,100.24793,-100.18923,2.2512136,WAL
21452407124000,2.615017,1.67922336070095,10.5965208790577,-1.74168853010629,0.6774496,-1.2901474,-0.49388456,100.40527,-100.31188,2.3075354,WAL
21452412038000,2.619931,1.86708695965058,10.7722027379368,-1.66137677420965,0.61269784,-1.1242975,-0.4633413,100.51648,-100.45734,2.464904,WAL
21452417127000,2.62502,1.99773543880569,10.7902231042707,-1.56226414782769,0.54702985,-0.9401216,-0.44440445,100.58842,-100.59068,2.6221952,WAL
21452422148000,2.630041,2.09683882976628,10.7441712372168,-1.45370468318259,0.49296826,-0.73548174,-0.41386122,100.587105,-100.69439,2.8581731,WAL
21452427158000,2.635051,2.12691480146861,10.5508257048446,-1.32051104935077,0.49388456,-0.539394,-0.36560285,100.54373,-100.798645,3.0957422,WAL
21452432166000,2.640059,2.15545314110547,10.3575796227608,-1.17930504668072,0.54275376,-0.36468655,-0.32345316,100.441475,-100.891975,3.3740532,WAL
21452437104000,2.644997,2.16451344159402,10.1673131232877,-0.939206894520548,0.62888575,-0.2284636,-0.2678644,100.30664,-101.00453,3.6576152,WAL
21452442454000,2.650347,2.17297644976718,9.96121073598435,-0.683969344244738,0.7287622,-0.13500121,-0.20738874,100.214554,-101.18196,3.9382215,WAL
21452447104000,2.654997,2.15224068891786,9.78288293285528,-0.563701836049544,0.8081747,-0.064446285,-0.17165314,100.098366,-101.37688,4.214866,WAL
21452452055000,2.659948,2.1301626777426,9.5930117601043,-0.435649269796983,0.8875872,-0.035430185,-0.1695151,100.01232,-101.58951,4.484779,WAL
21452457110000,2.665003,2.05455523554441,9.40671700130457,-0.443578656368289,0.9392053,-0.041233405,-0.18173242,99.92195,-101.81224,4.746182,WAL
21452462036000,2.669929,1.96934131807326,9.226820865429,-0.481451499240341,0.9654725,-0.11209377,-0.19211712,99.84591,-102.04293,4.9915667,WAL
21452467127000,2.67502,1.79296420975382,9.08161471242074,-0.705181281597352,0.9642508,-0.24495697,-0.19608775,99.81397,-102.264984,5.207391,WAL
21452472139000,2.680032,1.6005029423909,8.94733947482283,-0.964780284599963,0.960891,-0.41325033,-0.19517145,99.81379,-102.4853,5.404383,WAL
21452477149000,2.685042,1.29399413922585,8.80916400606716,-1.26036762663907,0.9575313,-0.5580254,-0.18753563,99.863,-102.71836,5.571211,WAL
21452482087000,2.68998,0.942575463227354,8.67126579244662,-1.56730285613771,0.947452,-0.63255095,-0.19058995,99.93861,-102.93884,5.721403,WAL
21452487096000,2.694989,0.480975957724195,8.55650245901469,-1.76330250167691,0.93126404,-0.65484756,-0.20341812,100.02888,-103.1771,5.8245997,WAL
21452492145000,2.700038,-0.0679782579887512,8.46081310212478,-1.86906435325487,0.906524,-0.6038403,-0.22479841,100.116104,-103.40045,5.919577,WAL
21452497102000,2.704995,-0.595730660662027,8.46973458456185,-1.83835320602509,0.874759,-0.54183745,-0.27977628,100.22954,-103.64432,5.913081,WAL
21452502082000,2.709975,-1.11977601506181,8.53524021225163,-1.73354411052101,0.87017757,-0.4352415,-0.35185838,100.309715,-103.8777,5.9010863,WAL
21452507120000,2.715013,-1.57951302851938,8.72735324137233,-1.57112358236009,0.84849185,-0.3005457,-0.42241332,100.38321,-104.07413,5.782747,WAL
21452512103000,2.719996,-1.95139193317478,9.0654246519583,-1.34413262681915,0.8054258,-0.1563815,-0.47128254,100.41785,-104.25654,5.660256,WAL
21452517110000,2.725003,-1.9446898578371,9.35858511447964,-1.0900659767991,0.78954333,-0.04917465,-0.50885075,100.44098,-104.373055,5.433488,WAL
21452522193000,2.730086,-1.5217780524371,9.60528380447964,-0.803719446579095,0.7498371,-0.0018325958,-0.528093,100.43684,-104.47185,5.207104,WAL
21452527715000,2.735608,-1.06234091109955,9.87328895226244,-0.492642220556109,0.70952,-0.01038471,-0.5308419,100.44999,-104.50329,4.9160056,WAL
21452532121000,2.740014,-0.69575633219095,10.0871300752489,-0.244433915982172,0.6618725,-0.09743301,-0.5216789,100.469986,-104.52716,4.624682,WAL
21452537162000,2.745055,-0.274067442371534,10.3135318291422,0.0205319278666137,0.61300325,-0.23823744,-0.48288897,100.51435,-104.55346,4.3391805,WAL
21452542074000,2.749967,0.165439560145115,10.3041804278899,0.0392343524876255,0.5910121,-0.42730024,-0.4370741,100.59607,-104.58078,4.0530705,WAL
21452547226000,2.755119,0.60957427000295,10.2995356925951,0.0371799346307405,0.56596667,-0.6453791,-0.38423425,100.76396,-104.532005,3.9092171,WAL
21452552118000,2.760011,0.821501473220572,10.3594284163635,-0.234639761441636,0.5467244,-0.84696466,-0.3390302,100.98086,-104.483536,3.768257,WAL
21452557442000,2.765335,1.02507796296855,10.4238200758311,-0.536640181430368,0.5329799,-1.01312,-0.2929099,101.25705,-104.46798,3.7058506,WAL
21452562126000,2.770019,0.920288958465409,10.4721843748428,-0.86712868545912,0.5320636,-1.0680978,-0.26939157,101.55754,-104.45154,3.6461067,WAL
21452567116000,2.775009,0.808654216264151,10.5237082544474,-1.21920759987062,0.5305365,-1.1215485,-0.24648413,101.88557,-104.496635,3.6384528,WAL
21452572070000,2.779963,0.564456610558832,10.6358576703084,-1.48836805491637,0.5177083,-1.1282681,-0.23396139,102.21343,-104.53572,3.6341395,WAL
21452577044000,2.784937,0.283519035965387,10.7648123352992,-1.73706685265397,0.5140431,-1.0760391,-0.23426682,102.53698,-104.5741,3.6332533,WAL
21452582136000,2.790029,-0.0379515094234216,10.9931968453495,-1.85159293259311,0.4990769,-0.9960158,-0.24220806,102.85138,-104.675575,3.6103554,WAL
21452587101000,2.794994,-0.36466634327624,11.2536220221072,-1.90841291272655,0.4801401,-0.87872964,-0.2501493,103.13674,-104.76957,3.594102,WAL
21452592061000,2.799954,-0.570978856834374,11.5086667333823,-1.81364605056923,0.45356745,-0.73731434,-0.2751948,103.38175,-104.87109,3.5241883,WAL
21452597864000,2.805757,-0.754661510992471,11.804599487881,-1.62996335911678,0.43035457,-0.6062838,-0.28955013,103.593735,-104.964485,3.4645724,WAL
21452602005000,2.809898,-0.721901028341259,12.0063500841958,-1.46322623633566,0.41325033,-0.49296826,-0.31245756,103.776,-105.029724,3.3448503,WAL
21452607024000,2.814917,-0.560560638078322,12.2438791144056,-1.23466069555245,0.38240165,-0.3943135,-0.33353242,103.9224,-105.08257,3.2334504,WAL
21452612021000,2.819914,-0.284691171169359,12.4346283193989,-0.963023631527511,0.33444872,-0.32528573,-0.35460728,104.06752,-105.08208,3.0887103,WAL
21452616995000,2.824888,0.18353255643882,12.5476478722178,-0.618583179250932,0.28955013,-0.30634892,-0.3680463,104.19598,-105.07425,2.9479039,WAL
21452622041000,2.829934,0.663509900154471,12.6078581395188,-0.395568877826517,0.20616703,-0.33536503,-0.3680463,104.33347,-105.000694,2.8336768,WAL
21452627018000,2.834911,1.14019479733043,12.6314563837014,-0.258698958075057,0.13194689,-0.3885103,-0.35460728,104.47059,-104.91983,2.7227437,WAL
21452632019000,2.839912,1.56604283197474,12.6578696666338,-0.190123194757722,0.055588737,-0.45448375,-0.34391713,104.65018,-104.79249,2.664495,WAL
21452637073000,2.844966,1.95772319344715,12.6865292831343,-0.17101684028422,-0.0015271631,-0.50823987,-0.32253686,104.84148,-104.65465,2.6124246,WAL
21452642020000,2.849913,2.17316231389718,12.7310799370685,-0.139250152177179,-0.05100725,-0.5549711,-0.29077184,105.064445,-104.50408,2.6315773,WAL
21452647018000,2.854911,2.25801324984605,12.7891358712913,-0.0968246646173726,-0.086437434,-0.5671884,-0.23548855,105.29524,-104.34784,2.6620278,WAL
21452652058000,2.859951,2.34357721887012,12.8476796705076,-0.0540426603553835,-0.121256754,-0.5497787,-0.15699236,105.54983,-104.21003,2.7619805,WAL
21452657225000,2.865118,2.43129726409778,12.9076986805374,-0.0101826174939354,-0.13897185,-0.48624873,-0.116675265,105.795944,-104.071846,2.866195,WAL
21452662070000,2.869963,2.46742362649053,13.0008925521436,0.0576145678319043,-0.19975294,-0.39461896,-0.04337143,106.036835,-103.922676,3.0011806,WAL
21452667500000,2.875393,2.37928454862413,13.208278490329,0.207969484539781,-0.2593123,-0.2874121,0.08246681,106.261826,-103.77975,3.1636565,WAL
21452672199000,2.880092,2.32219959811879,13.3966932309702,0.324185174621146,-0.3387248,-0.1908954,0.13255776,106.48893,-103.62077,3.3426032,WAL
21452677073000,2.884966,2.30593851292458,13.612152302038,0.413620960658422,-0.37293324,-0.09621128,0.21105394,106.6975,-103.47594,3.5650923,WAL
21452682396000,2.890289,2.29343571892473,13.8446576989247,0.510756144903226,-0.42180246,-0.019242255,0.30909783,106.9002,-103.2834,3.7826352,WAL
21452687102000,2.894995,2.399587753702,13.9877316651306,0.584601048718894,-0.4859433,0.031154128,0.4129449,107.08944,-103.095535,4.0221124,WAL
21452692310000,2.900203,2.52117817680176,14.1406207280396,0.661108798991381,-0.59498274,0.07544186,0.528093,107.27088,-102.877304,4.2832227,WAL
21452697062000,2.904955,2.68391901362553,14.2115595565744,0.665281635375023,-0.7128797,0.10048734,0.66737026,107.45097,-102.667915,4.574919,WAL
21452702034000,2.909927,2.85419414845039,14.2857825901339,0.669647658628278,-0.8686504,0.11026118,0.82558435,107.63678,-102.44369,4.909957,WAL
21452707054000,2.914947,3.07588199910394,14.3116562773298,0.755771825604839,-1.0473285,0.11026118,0.98746365,107.82605,-102.22299,5.276849,WAL
21452712167000,2.92006,3.29901764051559,14.2891481892312,0.886807576442088,-1.2464706,0.059864793,1.1490375,108.03513,-102.005295,5.676052,WAL
21452717025000,2.924918,3.35856040431484,13.8000472006582,1.33337794965719,-1.4566082,-0.014049901,1.2980887,108.2658,-101.807,6.1273623,WAL
21452722043000,2.929936,3.42006423073407,13.2948374928238,1.79465628082092,-1.6789632,-0.08460484,1.4272866,108.547554,-101.629105,6.617185,WAL
21452727018000,2.934911,2.94529824943115,12.9437041648195,2.05923319436544,-1.9190332,-0.14538592,1.5030339,108.85214,-101.46255,7.1184597,WAL
21452733436000,2.941329,2.22190933001177,12.5217272741761,2.3606451916683,-2.1844542,-0.18967366,1.5470163,109.17648,-101.31423,7.6324887,WAL
21452737017000,2.94491,1.81828581482934,12.2862802119459,2.52882162705963,-2.4678955,-0.2275473,1.5476271,109.518486,-101.14881,8.160962,WAL
21452742006000,2.949899,1.25596307893291,11.958258599696,2.76312272624068,-2.7546968,-0.24770586,1.5005904,109.866104,-101.013466,8.677857,WAL
21452747015000,2.954908,0.384966256535662,11.8703491839884,2.49367026198933,-3.0240884,-0.23915374,1.4263704,110.21397,-100.91703,9.1781,WAL
21452752042000,2.959935,-0.577418721572052,11.8516622078603,2.07788267720524,-3.2494977,-0.19730948,1.3787229,110.55633,-100.878,9.665123,WAL
21452757083000,2.964976,-1.67766638218563,11.9268565299401,1.46369832606786,-3.3496795,-0.06688975,1.2675453,110.77959,-100.75536,10.003534,WAL
21452762057000,2.96995,-2.81387139422156,12.0361981550898,0.78387694556487,-3.4941492,0.17256944,1.133155,110.95015,-100.704636,10.31964,WAL
21452767066000,2.974959,-3.88818546442863,12.1500989297807,0.19048045193536,-3.5463781,0.5207626,0.97035944,110.98684,-100.62839,10.47584,WAL
21452772104000,2.979997,-4.9416949905733,12.2661246125433,-0.371081914197768,-3.5424075,0.8323039,0.75716746,110.95653,-100.59962,10.57463,WAL
21452777059000,2.984952,-5.73096141584755,12.4232562113316,-0.904788888575668,-3.4978144,1.0512991,0.528093,110.78,-79.52605,10.470959,WAL
21452782057000,2.98995,-6.39229928782455,12.6052350412648,-1.43297144792285,-3.4034357,1.1325442,0.3268129,110.54977,-79.62151,10.308627,WAL
21452787041000,2.994934,-6.85811470404926,12.778319469381,-2.09691162975372,-3.259577,1.0531317,0.1863139,110.24036,-79.84225,9.951155,WAL
21452792063000,2.999956,-7.11955716038385,12.9437217749057,-2.91325204808076,-3.0787609,0.9257663,0.13622294,109.92173,-80.03272,9.559935,WAL
21452797057000,3.00495,-7.18342666489163,12.9987821233184,-3.4724056359772,-2.8597655,0.7806858,0.14508049,109.58807,-80.310265,9.050489,WAL
21452802133000,3.010026,-7.15617778260463,13.0033232085202,-3.92201086590994,-2.6175575,0.5992588,0.17745635,109.30464,-80.560234,8.539768,WAL
21452807114000,3.015007,-6.91290135798761,12.9654930596959,-4.06328777227332,-2.3588562,0.42424592,0.23457226,109.05527,-80.85817,8.011896,WAL
21452812104000,3.019997,-6.49575206476441,12.8937258623991,-3.96460740762155,-2.1135938,0.2660318,0.29535335,108.85641,-81.14186,7.506162,WAL
21452817212000,3.025105,-5.83586998629853,12.8608704208013,-3.5335295887897,-1.9376645,0.13408493,0.36010507,108.70397,-81.44045,7.032205,WAL
21452822187000,3.03008,-4.89623144960556,12.8806521651443,-2.69280044513182,-1.8842138,0.041233405,0.4361578,108.58817,-81.71725,6.591412,WAL
21452827111000,3.035004,-3.86136079033371,12.8948042577368,-2.01393603900075,-1.9822577,-0.036651913,0.51893,108.5252,-81.90266,6.246487,WAL
21452832101000,3.039994,-2.70763590489374,12.9037130450224,-1.47939168478747,-2.1939225,-0.057726767,0.61575216,108.473625,-82.03951,5.9354267,WAL
21452837078000,3.044971,-1.5316831730074,12.9162869030403,-0.989964039013969,-2.4541512,0.021991149,0.72326446,108.45668,-81.94918,5.788277,WAL
21452842110000,3.050003,-0.294252713434675,12.936086189811,-0.579137128709942,-2.6648996,0.1591304,0.8597928,108.427956,-81.79045,5.6786947,WAL
21452847100000,3.054993,0.737506710635359,12.8513738964088,-0.136575314834254,-2.83808,0.22052236,0.9789116,108.48638,-81.39769,5.793594,WAL
21452852701000,3.060594,1.56835046346685,12.5814820636346,0.419084522255328,-2.9678888,0.27947086,1.0164797,108.50656,-80.96177,5.918056,WAL
21452857102000,3.064995,2.13506956608499,12.32904680969,0.571214962521043,-3.0204232,0.24617869,1.0531317,108.653366,-80.35099,6.294826,WAL
21452862102000,3.069995,2.64625202348594,11.9800661075754,0.305793288326832,-3.0891457,0.24190263,1.0210613,108.77756,-79.72728,6.650367,WAL
21452867073000,3.074966,3.07070099627153,11.67828656321,-0.0804176370382924,-3.1166344,0.37965274,0.97005403,108.946205,-78.99179,7.13848,WAL
21452872201000,3.080094,3.39012207747343,11.430847879443,-0.651776479771895,-3.0912836,0.6224717,0.9257663,109.08703,-78.27391,7.5994716,WAL
21452877095000,3.084988,3.65816588512619,11.1872071464626,-1.18934077420356,-3.0277536,0.929126,0.8933904,109.280106,-77.555565,8.175072,WAL
21452882103000,3.089996,3.81691026477038,10.9143654220108,-1.71518149940008,-2.9691105,1.2498302,0.86376345,109.3973,-76.864944,8.702351,WAL
21452887179000,3.095072,3.89156653935951,10.5984745153266,-2.08879614486338,-2.874121,1.5332718,0.88178396,109.367455,-76.1986,9.209401,WAL
21452892118000,3.100011,3.78502489432964,10.2093658650475,-2.12122193021252,-2.7635543,1.7101172,0.9202685,109.27902,-75.56492,9.684399,WAL
21452897035000,3.104928,3.63851176961727,9.80515412679097,-2.18797053440628,-2.656653,1.788308,0.9746355,109.07367,-74.9618,10.130891,WAL
21452902082000,3.109975,3.36814417773307,9.34031155868498,-2.35872896917566,-2.5506678,1.8738291,1.040609,108.81812,-74.386024,10.566611,WAL
21452907177000,3.11507,3.05492763682589,8.88771957010786,-2.53707166610169,-2.486527,2.0344868,1.0842859,108.48862,-73.816025,10.976438,WAL
21452912103000,3.119996,2.62787801939522,8.50155750789676,-2.72788111101695,-2.4492643,2.2418754,1.1249083,108.12354,-73.26431,11.381555,WAL
21452917091000,3.124984,2.19145460614154,8.11371395899966,-2.88551082674379,-2.402533,2.4294112,1.1621711,107.68952,-72.74638,11.748811,WAL
21452923043000,3.130936,1.64355310876148,7.67248373375298,-2.83217521599183,-2.3283129,2.5638015,1.1695015,107.218094,-72.25456,12.095903,WAL
21452927051000,3.134944,1.27460331012249,7.37536499336509,-2.7962597039129,-2.2354615,2.6853635,1.1771374,106.71056,-71.82791,12.405497,WAL
21452932122000,3.140015,0.812939305911335,6.97814494115324,-2.76403775818523,-2.085494,2.8112018,1.1728612,106.170685,-71.44451,12.69051,WAL
21452937061000,3.144954,0.364599469352291,6.58584750552923,-2.73601658941548,-1.9587394,2.9593368,1.135293,105.59836,-71.095276,12.944974,WAL
21452942108000,3.150001,-0.0093584007894737,6.29393621368421,-2.62076881289474,-1.8497,3.095865,1.1206323,104.926476,-70.79069,13.117707,WAL
21452947063000,3.154956,-0.351612565847953,6.03955810432749,-2.48201707736842,-1.7498235,3.1563408,1.1114693,104.24497,-70.531006,13.267339,WAL
21452952081000,3.159974,-0.642949590527144,5.88515500849725,-2.31690912777341,-1.7079792,3.2601879,1.1029172,103.379906,-70.28557,13.297663,WAL
21452957170000,3.165063,-0.916157004898702,5.77012038568057,-2.13956403421518,-1.6145169,3.3124168,1.1032226,102.52233,-70.08469,13.321937,WAL
21452962103000,3.169996,-1.0751497083511,5.66027738574982,-1.91182882270789,-1.5125023,3.3179145,1.1068878,101.57472,-69.88833,13.278309,WAL
21452967132000,3.175025,-1.19067632883795,5.54902934696162,-1.65510292990405,-1.4193454,3.3105843,1.078788,100.6275,-69.72792,13.218175,WAL
21452972112000,3.180005,-1.31697971095586,5.38496611654494,-1.12971036249603,-1.3191634,3.199712,1.0088439,99.66253,-69.59544,13.1026945,WAL
21452977164000,3.185057,-1.46037934322007,5.14938098729755,-0.248826647411877,-1.2345587,3.052799,0.97402465,98.717186,-69.488945,12.988425,WAL
21452982103000,3.189996,-1.56698025831186,5.07431907880155,0.270785449291237,-1.1533136,2.9089403,0.95325524,97.78326,-69.385605,12.844397,WAL
21452987092000,3.194985,-1.64749551274782,5.12404916671293,0.519435443754956,-1.0341948,2.718045,0.92057395,96.914696,-69.32697,12.6998205,WAL
21452992495000,3.200388,-1.73469212924762,5.17790598470956,0.788719051709952,-0.89858276,2.4758368,0.8784242,96.081406,-69.19333,12.54619,WAL
21452997099000,3.204992,-1.80899403973533,5.2237984130006,1.01818078241971,-0.7473936,2.2369885,0.82772243,95.31031,-69.10418,12.392911,WAL
21453002101000,3.209994,-1.90516404559391,5.31440398294447,1.10885146813536,-0.57543504,2.0088303,0.77488256,94.60281,-69.057495,12.243204,WAL
21453007206000,3.215099,-2.01829073731199,5.44638501664096,1.04757448756267,-0.4196644,1.7867808,0.7131852,93.970726,-69.05762,12.095228,WAL
21453012073000,3.219966,-2.12339686618741,5.5861413120476,0.953464396083292,-0.28069258,1.6013832,0.65668017,93.3726,-69.05328,11.917549,WAL
21453017116000,3.225009,-2.22875216188399,5.74896315539911,0.809798051948438,-0.15607607,1.4239268,0.6075055,92.8436,-69.09397,11.742695,WAL
21453022161000,3.230054,-2.32775316807336,5.85413512443305,0.688940853303096,-0.030848695,1.2641857,0.58276546,92.34958,-69.198494,11.546119,WAL
21453027179000,3.235072,-2.4177819857819,5.88256534509959,0.598912085071978,0.0711658,1.1334605,0.57604593,91.90376,-69.33348,11.354841,WAL
21453032032000,3.239925,-2.48870597752831,5.88142310379124,0.529777080335795,0.17562376,1.003957,0.58032197,91.48827,-69.53665,11.148303,WAL
21453037095000,3.244988,-2.53645318360414,5.8336758478582,0.486804515096012,0.26939157,0.88789266,0.5925393,91.10912,-69.761345,10.954413,WAL
21453042038000,3.249931,-2.56807048293376,5.75003325963417,0.474551104565796,0.376293,0.8436049,0.6038403,90.74172,-70.03872,10.748289,WAL
21453047086000,3.254979,-2.57236325515894,5.59549821079737,0.517477513494939,0.4334089,0.77763146,0.61361414,90.41528,-70.32378,10.559334,WAL
21453052094000,3.259987,-2.57409968113582,5.43404307049245,0.570400019499603,0.5329799,0.7284568,0.6261369,90.08035,-70.63777,10.369418,WAL
21453057142000,3.265035,-2.55490034086577,5.20365188939635,0.709594609968229,0.64751714,0.68569624,0.63071835,89.7653,-70.966896,10.187612,WAL
21453062180000,3.270073,-2.53435027809945,4.97707147523263,0.856204702453238,0.7620544,0.65057147,0.6178902,89.45779,-71.29394,10.0138235,WAL
21453067086000,3.274979,-2.50343699061002,4.78275924410189,1.05934930143811,0.88300574,0.5946773,0.59498274,89.17167,-71.64845,9.845867,WAL
21453072635000,3.280528,-2.46591091341463,4.56124606097561,1.29193458902439,0.999681,0.54305923,0.56016344,88.89566,-71.986275,9.686777,WAL
21453077107000,3.285,-2.40694318650669,4.36328265420928,1.51095786998426,1.1093313,0.46211955,0.4990769,88.650185,-72.35615,9.522367,WAL
21453082053000,3.289946,-2.34172530249803,4.14433654287962,1.75319605147522,1.2498302,0.37507126,0.43035457,88.42615,-72.707054,9.367061,WAL
21453087093000,3.294986,-2.21223492627451,4.04200572666667,2.00904883701961,1.3881912,0.28985557,0.35308012,88.23202,-73.091064,9.199579,WAL
21453092092000,3.299985,-2.07872873525054,3.9502203837037,2.2635449428671,1.5234979,0.21013765,0.25717425,88.06951,-73.517395,9.015243,WAL
21453097102000,3.304995,-1.89633342989059,3.93700641978118,2.519982764814,1.6603317,0.13775012,0.15057829,87.937744,-73.91744,8.83548,WAL
21453102076000,3.309969,-1.68786498129103,3.96827666258206,2.77535652319475,1.7941113,0.105068825,0.035124753,87.826355,-74.360596,8.630642,WAL
21453107090000,3.314983,-1.43171575392425,4.19365035708708,3.00284679648575,1.9297233,0.06291912,-0.06536258,87.750534,-74.76139,8.449206,WAL
21453112126000,3.320019,-1.16335953522062,4.46671457704022,3.22412295353378,2.0540345,0.0070249503,-0.18020524,87.697784,-75.205894,8.236141,WAL
21453117096000,3.324989,-0.959721649180328,4.83032154918033,3.44105648196721,2.1664336,-0.029932396,-0.2938262,87.663216,-75.61028,8.051605,WAL
21453122148000,3.330041,-0.771750147882119,5.22918803169715,3.66112070196153,2.2547035,-0.06566802,-0.41141775,87.652214,-76.05012,7.8393373,WAL
21453127100000,3.334993,-0.597641838944464,5.77941898620506,3.84877245931826,2.307849,-0.04734206,-0.5149594,87.64826,-76.43098,7.6777706,WAL
21453132130000,3.340023,-0.426152566267355,6.42250376993592,4.02454888927554,2.317928,0.009468411,-0.60231316,87.649254,-76.83058,7.4905777,WAL
21453137090000,3.344983,-0.22542150699862,7.27390161758149,4.21961470304703,2.289523,0.11575896,-0.68203104,87.62691,-77.15808,7.336718,WAL
21453142090000,3.349983,0.0236832493449411,8.45333627094171,4.44838447690838,2.1841488,0.20097467,-0.7244862,87.5971,-77.47055,7.17028,WAL
21453147099000,3.354992,0.316107392819149,10.2011986724924,5.01283253381459,2.1175644,0.38515055,-0.73364913,87.504944,-77.7263,7.039554,WAL
21453152078000,3.359971,0.646232307446808,12.4597363819656,5.88242997551503,1.9599612,0.6337727,-0.7171558,87.37184,-77.93458,6.8995576,WAL
21453157084000,3.364977,0.943806721447061,14.5364923158445,6.68091676407487,1.7815884,0.84391034,-0.67011917,87.188614,-78.065506,6.8174186,WAL
21453162104000,3.369997,1.04431815899995,15.5009230510727,7.04467235121211,1.5583172,1.0177015,-0.5910121,86.94467,-78.14395,6.738762,WAL
21453167105000,3.374998,1.14444917477724,16.4617035504505,7.40705117417492,1.2910637,1.1468995,-0.48166725,86.65087,-78.04524,6.7175145,WAL
21453172130000,3.380023,1.24506072332371,17.4270948740604,7.77116906767385,0.98929626,1.2730432,-0.34269542,86.30567,-77.894455,6.710293,WAL
21453177065000,3.384958,1.31279617484267,18.2857999304549,8.05283654242014,0.6597345,1.3674219,-0.19242255,85.93357,-77.682365,6.725056,WAL
21453182102000,3.389995,1.16677064374253,18.5432663479646,7.81458439600096,0.34300083,1.4926492,0.004886922,85.51164,-77.398026,6.7749405,WAL
21453189286000,3.397179,0.938282578111386,18.8785273700312,7.47255040256383,0.034208454,1.668273,0.3381139,85.03622,-76.99391,6.883369,WAL
21453192078000,3.399971,0.670408465816654,18.7258675591942,7.31989089249165,-0.31337386,1.707063,0.43371433,84.570404,-76.54953,6.966159,WAL
21453197095000,3.404988,0.189060177355812,18.4515501268986,7.04557400064634,-0.40133846,1.7003434,0.59498274,84.05615,-76.15406,7.0981245,WAL
21453202082000,3.409975,-0.195143177135046,17.6004296673107,6.90384705771832,-0.49327368,1.5439619,0.713796,83.57558,-75.69658,7.2387686,WAL
21453207130000,3.415023,-0.554732304781105,16.5590221959042,6.80110743291151,-0.5522222,1.2968669,0.7996226,83.12036,-75.23607,7.408948,WAL
21453212239000,3.420132,-0.812453418868475,15.112752297074,6.70003067303393,-0.5714644,1.0283916,0.8585711,82.72161,-74.8379,7.5326905,WAL
21453217105000,3.424998,-1.01630618019831,13.5815918654613,6.60489926142704,-0.5870415,0.75533485,0.8924741,82.39294,-74.43629,7.6828914,WAL
21453222104000,3.429997,-1.20693305942857,12.0216649180952,6.53229417619048,-0.57910025,0.52290064,0.8772025,82.1374,-74.050255,7.799865,WAL
21453227105000,3.434998,-1.38704577806593,10.4684852356044,6.47381606043956,-0.5348125,0.25625798,0.8249735,81.9694,-73.68342,7.9325657,WAL
21453232097000,3.43999,-1.56683435863736,8.91810071750916,6.41544318424908,-0.46395215,-0.015271631,0.76052725,81.87382,-73.305435,8.056277,WAL
21453237096000,3.444989,-1.74687504659341,7.36554218266178,6.35698845506715,-0.38240165,-0.14569137,0.66950834,81.81896,-72.9616,8.163534,WAL
21453242108000,3.450001,-1.9865278303449,6.21093834271764,6.06981521843964,-0.29535335,-0.36651915,0.6151413,81.87012,-72.65161,8.285744,WAL
21453247809000,3.455702,-2.31549608142531,5.2807520247247,5.52531623825057,-0.23701571,-0.62888575,0.38912117,81.98873,-72.398224,8.346181,WAL
21453252096000,3.459989,-2.58623892054706,5.14522343053048,5.08667902081415,0.031154128,-0.71868294,0.29260445,82.106606,-72.13211,8.401469,WAL
21453257109000,3.465002,-2.91342913864432,5.24249645262479,4.56052178006999,0.1563815,-0.91232723,0.10995574,82.34942,-71.88707,8.397821,WAL
21453262061000,3.469954,-3.23235439884298,5.57406577834711,3.91977924297521,0.44318274,-1.061073,-0.055283304,82.6079,-71.80178,8.339369,WAL
21453267115000,3.475008,-3.55236212286501,6.21408141202938,3.11087053168044,0.72418076,-1.2134838,-0.21074851,82.93408,-71.76664,8.247635,WAL
21453272088000,3.479981,-3.86005160375,7.0392225296875,2.339105138125,1.0225884,-1.3921618,-0.3472769,83.32406,-71.92153,8.074838,WAL
21453277104000,3.484997,-4.15059956084677,8.40964050186492,1.627262633125,1.3038919,-1.5601498,-0.49449542,83.76614,-72.16045,7.8648667,WAL
21453282055000,3.489948,-4.33431522637106,9.8684694655776,1.00225697724621,1.5091426,-1.6924021,-0.65179324,84.265785,-72.63232,7.5639825,WAL
21453287088000,3.494981,-4.24995130124465,11.6307432896733,0.571062278173862,1.6044376,-1.7910569,-0.75228053,84.80814,-73.15292,7.2440605,WAL
21453292068000,3.499961,-4.08216433529201,13.3100963914955,0.164150277651386,1.5873333,-1.8270979,-0.75716746,85.381386,-73.864845,6.8521433,WAL
21453297102000,3.504995,-3.61507511424599,14.7805617970754,-0.17751670920427,1.4318681,-1.8112154,-0.63194007,85.961464,-74.54976,6.4695497,WAL
21453302481000,3.510374,-3.1064118407318,16.2909573738856,-0.558503550633358,1.1612549,-1.6914859,-0.46853364,86.516014,-75.300835,6.0949664,WAL
21453307158000,3.515051,-2.55318311433878,16.8982611329866,-1.0742957152526,0.8713993,-1.4963144,-0.2657264,87.027306,-75.9675,5.763675,WAL
21453312086000,3.519979,-1.97026432800892,17.5381569903418,-1.61776883632244,0.6621779,-1.1954633,-0.032070424,87.450775,-76.61058,5.554826,WAL
21453317624000,3.525517,-1.28572854057567,15.5708386081708,-1.81026546722377,0.5674938,-0.8258898,0.21533,87.78046,-77.159584,5.396507,WAL
21453322130000,3.530023,-0.724778441467038,13.6075133240483,-1.91043514421541,0.5873469,-0.5152648,0.45631635,88.0241,-77.63736,5.293016,WAL
21453327135000,3.535028,-0.68907788883473,11.8045641632902,-1.86261087624524,0.68752885,-0.34574974,0.6383542,88.18299,-78.11539,5.329862,WAL
21453332128000,3.540021,-0.907586627692308,10.1693905076923,-1.74607284923077,0.8151997,-0.34147367,0.7492262,88.29004,-78.558556,5.405858,WAL
21453337157000,3.54505,-1.13967109460117,8.50966956439838,-1.65052698485804,1.0125091,-0.36774087,0.8035932,88.33882,-78.9107,5.6303263,WAL
21453342104000,3.549997,-1.51116747525913,6.72477858810275,-1.81705985899054,1.282817,-0.4596761,0.7883216,88.40217,-79.27962,5.863015,WAL
21453347087000,3.55498,-1.88536728621902,4.92689871446598,-1.98480461577287,1.4514158,-0.54305923,0.6780604,88.48482,-79.62599,6.041625,WAL
21453352079000,3.559972,-2.22766336803751,3.52621901914624,-2.18442314973137,1.8304577,-0.59620446,0.4654793,88.58893,-80.078705,6.184478,WAL
21453357110000,3.565003,-2.56653475967569,2.18956001779818,-2.39151123878089,2.1881194,-0.66828656,0.16707164,88.72749,-80.569084,6.2708707,WAL
21453362103000,3.569996,-2.80609521466667,1.63630951904368,-2.57682330372414,2.499355,-0.7672467,-0.15332718,88.920425,-81.1989,6.2149644,WAL
21453367090000,3.574983,-3.02128758933333,1.27619162263908,-2.75688220606897,2.7171285,-0.8784242,-0.47067168,89.14463,-81.91066,6.0723805,WAL
21453372125000,3.580018,-3.10911028850527,1.7341107959479,-3.0368020441596,2.8417451,-0.95172805,-0.7629707,89.41107,-82.747055,5.786192,WAL
21453377201000,3.585094,-3.11916023330577,2.69388616497829,-3.37850216125698,2.9034426,-1.0311406,-0.9993755,89.7133,-83.62556,5.4200196,WAL
21453382103000,3.589996,-2.93356391362253,4.2064629086758,-3.84076587952816,2.9452868,-1.1148291,-1.1600331,90.044495,-84.551094,4.9505157,WAL
21453387241000,3.595134,-2.65270979708904,6.05073803767123,-4.3837503744863,2.9584203,-1.1768318,-1.212873,90.387115,-85.40857,4.4349627,WAL
21453392086000,3.599979,-2.18969739769656,8.21879433906634,-4.87061490076781,2.9077187,-1.208597,-1.1414018,90.734116,-86.099945,3.8996913,WAL
21453397111000,3.605004,-1.57386703144963,10.7609422506143,-5.35835252285012,2.7855456,-1.2174544,-0.88086766,91.0829,-93.55786,3.3961382,WAL
21453402085000,3.609978,-1.06366507608938,12.5049597786148,-5.82464131401421,2.5326474,-1.1746938,-0.5332854,91.3923,-93.71777,3.001843,WAL
21453407167000,3.61506,-0.601179321513569,13.8299191014468,-6.29129364729047,2.1743748,-1.0225884,-0.19517145,91.66523,-94.20832,2.6796792,WAL
21453412089000,3.619982,-0.0843092189755155,14.7230694842139,-6.56406478118557,1.7492126,-0.79717916,0.01985312,91.85284,-94.94431,2.574425,WAL
21453417133000,3.625026,0.610807335191151,14.7023198592139,-6.4136292145189,1.321607,-0.6215554,0.10170906,92.00864,-95.66252,2.528077,WAL
21453422185000,3.630078,1.21108125012204,14.2870145699399,-5.94472460622418,0.9789116,-0.58184916,0.09132435,92.1092,-96.40608,2.6344974,WAL
21453427100000,3.634993,1.67948347247465,13.4076554566279,-5.10513569620728,0.784351,-0.64843345,0.044593163,92.190254,-97.05847,2.7450376,WAL
21453432037000,3.63993,2.05652938667006,12.5551994350788,-4.15740723196746,0.713796,-0.72082096,0.010079277,92.23222,-97.66171,2.9932847,WAL
21453437085000,3.644978,2.21382460472801,11.7588919349263,-2.93345339461108,0.72204274,-0.9108001,-0.0012217305,92.32631,-98.20773,3.211753,WAL
21453442039000,3.649932,2.25193298472795,11.1124987489681,-1.841549948,0.8081747,-1.1139128,0.016493361,92.39096,-98.66402,3.566702,WAL
21453447099000,3.654992,2.04737028566604,10.7351945801126,-0.955111318,0.9245446,-1.284955,0.0571159,92.50071,-99.12009,3.899155,WAL
21453452046000,3.659939,1.82578947597881,10.4029876235331,-0.147514042128985,1.0616838,-1.4657712,0.13225232,92.64497,-99.49747,4.344587,WAL
21453457225000,3.665118,1.50128099502544,10.2124026825215,0.444842632066674,1.2052372,-1.5735888,0.2284636,92.81822,-99.91036,4.779208,WAL
21453462061000,3.669954,1.09897266402538,9.90369562186246,0.853672644326771,1.3353515,-1.641395,0.32559118,93.05765,-100.24072,5.1779284,WAL
21453467160000,3.675053,0.406382911531212,9.22477569030512,0.894681245964356,1.459357,-1.6930131,0.40317106,93.32276,-100.6115,5.5754156,WAL
21453472174000,3.680067,-0.218326618502356,8.5957551175336,0.883006150840461,1.570229,-1.7116444,0.4474588,93.6371,-100.91441,5.882219,WAL
21453477161000,3.685054,-0.522607122129516,8.18726893777274,0.578725642860883,1.643533,-1.6957619,0.4560109,93.95303,-101.23801,6.188545,WAL
21453482096000,3.689989,-0.823714859326235,7.78304208854076,0.27761790135713,1.6902641,-1.6548339,0.44990227,94.36937,-101.53714,6.3052354,WAL
21453487090000,3.694983,-1.1137432819696,7.38121907767361,-0.0491156745326295,1.6685784,-1.5555683,0.40469822,94.75775,-101.82414,6.413031,WAL
21453492086000,3.699979,-1.40115729154455,6.98058125712205,-0.380077283776281,1.6010778,-1.4184291,0.3313944,95.1167,-102.09754,6.5114584,WAL
21453497098000,3.704991,-1.55014275276079,6.79416741378986,-0.73091457699652,1.4999796,-1.2788464,0.22907446,95.470505,-102.3717,6.51622,WAL
21453502802000,3.710695,-1.63235686394507,6.71709178515662,-1.14198489147305,1.366811,-1.1527027,0.1282817,95.7813,-102.604805,6.5053124,WAL
21453507126000,3.715019,-1.58636123362637,6.74700778791209,-1.24653192153846,1.239751,-1.0855075,0.02565634,96.09118,-102.83873,6.4013677,WAL
21453512103000,3.719996,-1.45303600523477,6.84700173406593,-1.2132006393007,1.1582005,-1.1123856,-0.07544186,96.38327,-103.03514,6.2703605,WAL
21453517113000,3.725006,-1.26162222434488,7.044730043808,-1.08004804499551,1.0586295,-1.235475,-0.17165314,96.676155,-103.23308,6.0949497,WAL
21453522189000,3.730082,-1.01422122617703,7.33578983903802,-0.852051002784153,0.9810496,-1.4251486,-0.24770586,96.98717,-103.40629,5.8913403,WAL
21453527172000,3.735065,-0.767078438438496,7.67769049521989,-0.738921728808158,0.904386,-1.6465873,-0.3313944,97.33877,-103.55739,5.678142,WAL
21453532129000,3.740022,-0.517463451040472,8.06724150573614,-0.723793558763544,0.829555,-1.7507398,-0.398895,97.70272,-103.68294,5.4454517,WAL
21453537348000,3.745241,-0.255872552044158,8.48087709788409,-0.714350490965961,0.7837401,-1.9666806,-0.42455134,98.13788,-103.76447,5.2409306,WAL
21453542077000,3.74997,-0.0392199819576817,8.91418227286109,-0.814343977824287,0.6768387,-2.0030272,-0.42638394,98.544876,-103.80473,5.032487,WAL
21453547040000,3.754933,0.188152973284269,9.3689282198712,-0.919285334406624,0.6310238,-2.053729,-0.4361578,99.008575,-103.86585,4.880342,WAL
21453552094000,3.759987,0.397264666174182,9.72762374191432,-0.994334166302616,0.56321776,-2.0216584,-0.44593164,99.45455,-103.890236,4.7342596,WAL
21453557088000,3.764981,0.599026732543358,10.0594098956595,-1.06158820559201,0.5131268,-1.9336939,-0.44257188,99.89483,-103.90538,4.5932136,WAL
21453562070000,3.769963,0.722283745689402,10.1739359349251,-1.22779929576279,0.48930305,-1.7931949,-0.4718934,100.29497,-103.93009,4.511499,WAL
21453567195000,3.775088,0.813539388364811,10.193147538311,-1.44393106256972,0.48930305,-1.5650368,-0.50579643,100.64225,-103.94517,4.4426117,WAL
21453572789000,3.780682,0.880967629556924,10.1114191580036,-1.67361171994348,0.51068336,-1.2495248,-0.5174029,100.91963,-103.984146,4.4429007,WAL
21453577135000,3.785028,0.922974890891199,10.0148024635143,-1.85004230088817,0.5354234,-0.8866709,-0.53023106,101.1156,-104.018166,4.450329,WAL
21453582129000,3.790022,0.988899002583277,9.85310290618627,-2.0035122964747,0.5873469,-0.49113566,-0.56169057,101.195404,-104.10332,4.5018315,WAL
21453592059000,3.799952,1.19255562119192,9.54259635808801,-2.07678299478921,0.7892379,0.086132,-0.5403103,101.12248,-104.389496,4.6727023,WAL
21453597141000,3.805034,1.36229176264232,9.45273581793004,-1.89706238362909,0.8753699,0.14813483,-0.49510628,101.00753,-104.593216,4.7828293,WAL
21453602031000,3.809924,1.48054455451025,9.40046429434543,-1.78173344133446,0.9447031,0.08827003,-0.45906523,100.86891,-104.8669,4.925432,WAL
21453607139000,3.815032,1.58011517914412,9.36403578200864,-1.69187699367522,0.9868528,-0.07727446,-0.41508293,100.74809,-105.153534,5.071723,WAL
21453612018000,3.819911,1.67522188971355,9.32924041950057,-1.60604895762796,1.0082331,-0.30848694,-0.3549127,100.66004,-105.44378,5.265903,WAL
21453617013000,3.824906,1.77258979692697,9.29361778459018,-1.51818032879909,1.0152581,-0.55741453,-0.29352075,100.62781,-105.7374,5.449316,WAL
21453622048000,3.829941,1.66576237531304,9.26929585131833,-1.4206295053955,0.9972375,-0.7812967,-0.23335053,100.6914,-106.05423,5.6152167,WAL
21453627017000,3.83491,1.4356504184689,9.25234039712919,-1.31889581913876,0.9673051,-0.86529064,-0.1826487,100.78724,-106.36416,5.778713,WAL
21453632017000,3.83991,1.20410286680444,9.23527916329024,-1.21652744898707,0.9611965,-0.9560041,-0.15454891,100.96165,-106.682526,5.977243,WAL
21453637041000,3.844934,0.971443886891988,9.21813603552886,-1.11366771065866,0.95630956,-0.97402465,-0.122478485,101.14056,-106.987076,6.178853,WAL
21453642191000,3.850084,0.120403162112718,9.2577448965586,-0.916554400674314,0.9260717,-0.9324858,-0.113926366,101.32534,-107.272285,6.3690186,WAL
21453647020000,3.854913,-0.922159084315212,9.31771553705736,-0.695125232362095,0.89736104,-0.8216137,-0.13439035,101.49302,-107.54585,6.5542774,WAL
21453652044000,3.859937,-1.36124540651844,9.42339598096682,-0.456023431421593,0.86345804,-0.66981375,-0.17165314,101.69485,-107.73517,6.5982633,WAL
21453657181000,3.865074,-1.50625650500253,9.55183439236988,-0.207432953021223,0.81581056,-0.49846604,-0.21594086,101.85518,-107.90399,6.6437764,WAL
21453662036000,3.869929,-1.54751884130952,9.65647135476191,0.0172458537674603,0.77182823,-0.38881573,-0.25992316,102.03195,-107.92497,6.4572034,WAL
21453667098000,3.874991,-1.3791931797619,9.72861088095238,0.228855277230159,0.72234815,-0.3726278,-0.31429017,102.18066,-107.926636,6.265057,WAL
21453672097000,3.87999,-1.16543533065393,9.78372603437069,0.377850011544219,0.66614854,-0.43493605,-0.35033122,102.33803,-107.849655,6.033196,WAL
21453677108000,3.885001,-0.844056785109316,9.80263054264329,0.392028476643687,0.6133087,-0.5467244,-0.364992,102.500175,-107.75981,5.79351,WAL
21453682053000,3.889946,-0.52938517048636,9.85113517881759,0.354850390855936,0.5555819,-0.691194,-0.37843102,102.6942,-107.62749,5.5633245,WAL
21453687096000,3.894989,-0.215258281778468,9.98241179759247,0.176688875752645,0.47036624,-0.8570439,-0.36896262,102.924095,-107.47748,5.329265,WAL
21453692063000,3.899956,0.0621889570503597,10.1205484613309,-0.0105241539217626,0.40439278,-1.0177015,-0.35735616,103.1912,-107.34265,5.1426907,WAL
21453697098000,3.904991,0.22263060852518,10.2939992306655,-0.244682251960881,0.3268129,-1.1554517,-0.32498032,103.49857,-107.186714,4.9579716,WAL
21453702506000,3.910399,0.391913432873685,10.4845008115442,-0.504416595341642,0.26542094,-1.2739595,-0.30787608,103.83168,-107.06928,4.832386,WAL
21453707147000,3.91504,0.501918481953505,10.6966531342703,-0.822645428131353,0.23854288,-1.3371841,-0.29229903,104.18797,-106.94438,4.713201,WAL
21453712238000,3.920131,0.622589825384955,10.929376141165,-1.17173032098471,0.21471913,-1.3136657,-0.2929099,104.53844,-106.8567,4.6390295,WAL
21453717105000,3.924998,0.724981033385193,11.1705958876178,-1.44697426846344,0.22235495,-1.2522738,-0.28221974,104.895424,-106.77319,4.573521,WAL
21453722157000,3.93005,0.826819265104786,11.4274055023337,-1.71263928510113,0.23243423,-1.1652255,-0.2843578,105.23529,-106.68362,4.5114136,WAL
21453727177000,3.93507,1.01835751361482,11.7417509605484,-1.84091954091009,0.23884831,-1.1139128,-0.28863382,105.57785,-106.68479,4.4790816,WAL
21453732119000,3.940012,1.27720994495734,12.0972417818858,-1.86162772100197,0.24373524,-0.9822713,-0.28680122,105.87149,-106.68664,4.462057,WAL
21453737075000,3.944968,1.5367956693065,12.4537396593743,-1.88239456449355,0.24617869,-0.8546005,-0.28893927,106.148,-106.73866,4.466784,WAL
21453742109000,3.950002,1.82725325784049,12.6155273027837,-1.82725507022732,0.24617869,-0.729984,-0.2919936,106.38639,-106.78768,4.4809136,WAL
21453747065000,3.954958,2.11983755847621,12.7252464692256,-1.7541090070025,0.2312125,-0.61727935,-0.28130344,106.591606,-106.83085,4.506167,WAL
21453752081000,3.959974,2.40840134254054,12.7313691626126,-1.74275361578378,0.22113322,-0.5112942,-0.26847526,106.77486,-106.88858,4.598935,WAL
21453757151000,3.965044,2.69710331172973,12.6963747436937,-1.75587642010811,0.18906279,-0.41905355,-0.25320363,106.93114,-106.933716,4.6978374,WAL
21453762103000,3.969996,2.90965715843703,12.6941931085117,-1.68721021632653,0.16920967,-0.35643986,-0.23609942,107.08299,-106.991974,4.850278,WAL
21453767123000,3.975016,3.05802372070682,12.7229093076157,-1.53884360408163,0.14385876,-0.31337386,-0.21135938,107.21723,-107.03862,5.00619,WAL
21453772137000,3.98003,3.06764209258946,12.7883320031759,-1.33218591158162,0.09621128,-0.3023783,-0.15577064,107.36699,-107.12349,5.225006,WAL
21453777102000,3.984995,2.94179821232268,12.8890070232903,-1.07043070159856,0.030543262,-0.30451632,-0.08979719,107.512665,-107.19493,5.4437985,WAL
21453782150000,3.990043,2.74867471358494,13.0665818628197,-0.789966849325981,-0.025961773,-0.3115413,-0.015271631,107.68211,-107.250435,5.684343,WAL
21453787103000,3.994996,2.51869753930031,13.2875405653579,-0.505877366055709,-0.08552113,-0.27580565,0.052839845,107.846596,-107.29069,5.932642,WAL
21453792101000,3.999994,2.2660456826649,13.5774974256922,-0.196671583882329,-0.13072516,-0.22143865,0.115453534,108.021225,-107.26302,6.157246,WAL
21453797101000,4.004994,1.99309103079194,13.933312775855,0.134773275645358,-0.16615535,-0.17501289,0.1731803,108.19415,-107.23134,6.3930016,WAL
21453802093000,4.009986,1.79043339680493,14.1596574321749,0.458245374355381,-0.20066923,-0.12950343,0.23457226,108.365776,-107.11494,6.591179,WAL
21453807138000,4.015031,1.64599397219731,14.2770149536622,0.778720374215247,-0.2565634,-0.10781772,0.29840767,108.5355,-106.99771,6.802199,WAL
21453812053000,4.019946,1.59061932818732,14.290557165195,1.041257080127,-0.3277292,-0.08002335,0.3640757,108.72126,-106.80058,6.9656672,WAL
21453817099000,4.024992,1.66733259630916,14.1467193806925,1.23304027546384,-0.43066,-0.05681047,0.4361578,108.90525,-106.600105,7.14633,WAL
21453822091000,4.029984,1.79291913343129,14.0051129144872,1.37714934275639,-0.59589905,-0.03176499,0.52626044,109.09606,-106.324554,7.3204474,WAL
21453827106000,4.034999,1.99991479353512,13.8639796438437,1.44771597807817,-0.8005389,-0.02107485,0.57848936,109.28307,-106.03259,7.501469,WAL
21453832044000,4.039937,2.19342024222816,13.7481088207905,1.52287792111408,-0.9108001,0.0033597588,0.68844515,109.47204,-105.74418,7.731078,WAL
21453837112000,4.045005,2.37092998987199,13.6764221782248,1.611632794936,-1.1511755,-0.0033597588,0.83077675,109.6684,-105.40674,7.979141,WAL
21453842090000,4.049983,2.54528743339429,13.6060085817977,1.69881151669714,-1.3949108,-0.040927973,0.9673051,109.8747,-105.095764,8.2807255,WAL
21453847120000,4.055013,2.67894387890721,13.5604824221019,1.84347517686439,-1.6154331,-0.09560041,1.1129965,110.09395,-104.78854,8.617813,WAL
21453852150000,4.060043,2.76984062966609,13.5407222678645,2.04502891515301,-1.8307631,-0.15332718,1.2483032,110.328705,-104.48494,8.98207,WAL
21453857276000,4.065169,2.79534406863884,13.489113208419,2.25538294811869,-2.0204368,-0.204029,1.3652838,110.59561,-104.21844,9.402999,WAL
21453862144000,4.070037,2.1953560857628,13.1474534833318,2.50121129220663,-2.2321017,-0.25686884,1.4337007,110.88082,-103.97067,9.838117,WAL
21453868192000,4.076085,1.44151463865938,12.7217499529673,2.78371103613554,-2.463314,-0.28680122,1.4688255,111.17476,-103.74348,10.302473,WAL
21453872137000,4.08003,0.790910680794371,12.4209330195815,2.53536227403018,-2.7101038,-0.2666427,1.45783,111.466156,-103.54979,10.765619,WAL
21453877141000,4.085034,-0.0343420961781317,12.0393644683363,2.22034650582353,-2.9681942,-0.1685988,1.3997977,111.70693,-103.29664,11.142221,WAL
21453882219000,4.090112,-1.00604592981818,11.7402550630499,1.63510643022483,-3.2192597,-0.0061086523,1.2687671,111.91261,-103.07273,11.4926815,WAL
21453887093000,4.094986,-2.00073450836364,11.4938643577713,0.950687677399805,-3.4581082,0.22724187,1.094976,112.05971,-102.885445,11.81404,WAL
21453892086000,4.099979,-3.00431527261917,11.3788008294194,0.175436351663835,-3.6682458,0.5155703,0.89644474,112.10029,-102.65094,11.987699,WAL
21453897631000,4.105524,-4.10809315375237,11.3469615469172,-0.737303119306486,-3.7791178,0.7965683,0.6973027,112.06623,-102.45455,12.110613,WAL
21453902031000,4.109924,-4.86362131680237,11.454499453738,-1.35955215203553,-3.7830884,1.0219775,0.5345071,111.91832,-102.19214,12.0527,WAL
21453907049000,4.114942,-5.66142786782278,11.6475988006767,-2.01507481734165,-3.702149,1.1224649,0.39858958,111.71986,-101.966736,11.941689,WAL
21453912020000,4.119913,-6.16805257938788,11.9241701483756,-2.45750961832409,-3.5341609,1.094976,0.32070425,111.45516,-78.33827,11.660827,WAL
21453917009000,4.124902,-6.56084505875594,12.2365113954041,-2.81717491038035,-3.350596,0.9443977,0.2678644,111.19531,-78.60919,11.345417,WAL
21453922050000,4.129943,-6.73287091533992,12.5472700387372,-3.10423768241333,-3.1465669,0.8228355,0.2574797,110.908325,-78.95306,10.909922,WAL
21453927019000,4.134912,-6.80199804956421,12.8514290443541,-3.35309546186326,-3.0262265,0.5305365,0.2687807,110.714676,-79.260445,10.46971,WAL
21453932008000,4.139901,-6.72486119333333,13.0856044071685,-3.65141321985663,-2.794403,0.226631,0.2929099,110.54634,-79.61412,9.974892,WAL
21453937075000,4.144968,-6.55590328476191,13.2794092440348,-3.98435943340502,-2.5595255,-0.0018325958,0.32895094,110.441185,-79.93388,9.496683,WAL
21453942052000,4.149945,-6.16428217281134,13.4478594037592,-3.79973004550206,-2.3243423,-0.087964594,0.35521814,110.38227,-80.264885,9.018816,WAL
21453947021000,4.154914,-5.66683892411298,13.6057021934868,-3.37403338319429,-2.1224513,-0.065973446,0.3747658,110.35911,-80.58152,8.561411,WAL
21453952037000,4.15993,-4.99558730760234,13.7303185929825,-2.45531397707602,-2.0295997,0.014049901,0.42149702,110.35754,-80.87632,8.151938,WAL
21453957133000,4.165026,-4.23316142222222,13.8404011333333,-1.28925098222222,-2.083356,0.07147124,0.50671273,110.35641,-81.14222,7.769817,WAL
