timestamp,rel_time,acc_x,acc_y,acc_z,gyro_x,gyro_y,gyro_z,azimuth,pitch,roll,label
19282660132000,0,0.621743886536394,9.78267841704826,0.428155018438222,-1.8564194,-1.8982637,-0.5534439,273.86465,-22.894886,4.42848,WAL
19282665738000,0.005606,0.700381442326914,9.73481472250376,0.441489006867508,-1.8640553,-1.7986927,-0.5439755,274.4405,-23.305265,4.693881,WAL
19282670148000,0.010016,0.729058644682487,9.62685347883829,0.462996911386433,-1.8445076,-1.7082846,-0.52106804,275.0057,-23.71922,4.924776,WAL
19282675110000,0.014978,0.761325374407737,9.50537871895892,0.487196961777114,-1.824349,-1.6856827,-0.4370741,275.55823,-24.024698,5.4369636,WAL
19282680149000,0.020017,0.794092817189989,9.38201892149173,0.511772547008603,-1.7953329,-1.6936239,-0.376293,276.1088,-24.342089,5.9205475,WAL
19282685532000,0.0254,0.829097211811315,9.25023765739849,0.538025846334084,-1.7553213,-1.6786577,-0.39461896,276.65747,-24.671915,6.379765,WAL
19282690138000,0.030006,0.859048956493802,9.13747813623678,0.560489657720517,-1.6902641,-1.674687,-0.4007276,277.19434,-25.018055,6.839488,WAL
19282695135000,0.035003,0.891543283063143,9.01514654109021,0.58486040576611,-1.6639969,-1.6872098,-0.41263947,277.74258,-25.368254,7.283477,WAL
19282700392000,0.04026,0.925728329045739,8.88644988395884,0.610499193533908,-1.600467,-1.745242,-0.464563,278.31305,-25.751892,7.7190385,WAL
19282705114000,0.044982,0.956434394697216,8.7708505659116,0.633528745719478,-1.5225816,-1.8249599,-0.5421429,278.90253,-26.151068,8.1450405,WAL
19282710118000,0.049986,0.988974240635375,8.6483476037116,0.657933633296054,-1.3988814,-1.8594738,-0.5864306,279.50348,-26.584114,8.557931,WAL
19282715253000,0.055121,1.02236594904714,8.52263762951156,0.682977417809587,-1.2773192,-1.8500054,-0.5907067,280.12372,-27.041985,8.960692,WAL
19282720164000,0.060032,1.05430103765671,8.40241140102151,0.706928737331682,-1.2308935,-1.8203784,-0.5934556,280.76178,-27.516827,9.346591,WAL
19282725654000,0.065522,1.09000122834426,8.26801066911144,0.733703883773609,-1.1792754,-1.78617,-0.62980205,281.41248,-28.03002,9.708462,WAL
19282730154000,0.070022,1.1192636797275,8.15784613475893,0.755650725119451,-1.0916162,-1.754405,-0.679893,282.068,-28.567583,10.045878,WAL
19282735190000,0.075058,1.15201161420883,8.03455978031464,0.780211679123375,-0.98868537,-1.7269161,-0.72784597,282.73187,-29.125593,10.355839,WAL
19282740153000,0.080021,1.18428484670105,7.91306053942763,0.804416606589912,-0.8897252,-1.7159204,-0.7623598,283.40625,-29.708351,10.6416,WAL
19282745148000,0.085016,1.21676616773644,7.79077790629634,0.828777600483796,-0.8151997,-1.7131716,-0.7742717,284.08713,-30.313076,10.9037285,WAL
19282750241000,0.090109,1.24988475993529,7.66609613441692,0.853616547811434,-0.7675522,-1.7171422,-0.7819075,284.77753,-30.937721,11.145052,WAL
19282755075000,0.094943,1.28131913548787,7.54775494351469,0.877192332492723,-0.7284568,-1.702176,-0.7706065,285.4651,-31.577734,11.366847,WAL
19282760088000,0.099956,1.31391750632879,7.42503165224598,0.901641113751991,-0.68875057,-1.68385,-0.7816021,286.1618,-32.230167,11.568965,WAL
19282765075000,0.104943,1.34634680522839,7.30294486717576,0.925963091039038,-0.6432411,-1.6432275,-0.79229224,286.85095,-32.890984,11.748836,WAL
19282770072000,0.10994,1.37884113179773,7.1806132720292,0.950333839084632,-0.5858198,-1.5964963,-0.7984009,287.53842,-33.562824,11.907105,WAL
19282775063000,0.114931,1.41129644176523,7.05842856292844,0.974675324675098,-0.52290064,-1.5222762,-0.82833326,288.2229,-34.246975,12.029277,WAL
19282780071000,0.119939,1.44386229877129,6.9358276766979,0.999099720555092,-0.441961,-1.4682146,-0.8552113,288.903,-34.94755,12.130628,WAL
19282785094000,0.124962,1.47652569728195,6.81285957535286,1.02359727257291,-0.40561453,-1.3805555,-0.87598073,289.5688,-35.649525,12.189586,WAL
19282790060000,0.129928,1.5088184380751,6.69128689144295,1.04781683126701,-0.312763,-1.284955,-0.9108001,290.23108,-36.386578,12.214314,WAL
19282795048000,0.134916,1.54125423974168,6.56917562536509,1.07214368562991,-0.21166481,-1.1774428,-0.915687,290.87036,-37.128716,12.205956,WAL
19282800178000,0.140046,1.57461343431857,6.44358805620322,1.09716308476417,-0.12003502,-1.0754282,-0.93218035,291.50012,-37.890068,12.15785,WAL
19282805049000,0.144917,1.60628841224918,6.32434106801853,1.12091932125208,-0.0290161,-0.9639453,-0.93951076,292.10257,-38.670773,12.073941,WAL
19282810046000,0.149914,1.63878273881852,6.20200947287197,1.14529006929767,0.061391957,-0.8564331,-0.93279123,292.68176,-39.467976,11.95848,WAL
19282815057000,0.154925,1.6713681041255,6.07933514361854,1.16972909640523,0.13683382,-0.732122,-0.9184359,293.23035,-40.276592,11.806702,WAL
19282820092000,0.15996,1.70410953583985,5.95607327018189,1.1942851733333,0.22418754,-0.60994893,-0.88239485,293.7456,-41.1011,11.630234,WAL
19282825055000,0.164923,1.73638276833208,5.83457402929488,1.21849010079984,0.30573806,-0.4783075,-0.84482664,294.22406,-41.932823,11.422237,WAL
19282830057000,0.169925,1.76890960873629,5.71212002911014,1.2428852342247,0.40866885,-0.3295618,-0.8188649,294.6619,-42.78134,11.184751,WAL
19282835094000,0.174962,1.80166404598459,5.58880919365823,1.26745106530448,0.5152648,-0.18478674,-0.816116,295.06293,-43.640396,10.919785,WAL
19282840050000,0.179918,1.833891759108,5.46748131982466,1.29162185324004,0.6407976,-0.018936822,-0.8023715,295.41312,-44.51777,10.62501,WAL
19282845050000,0.184918,1.86640559397826,5.34507628165519,1.31600723251319,0.7623598,0.16554448,-0.8014552,295.72266,-45.411022,10.2942095,WAL
19282850249000,0.190117,1.90021347947636,5.21779952296658,1.34136314988142,0.8927795,0.321926,-0.81183994,295.99353,-46.327263,9.9367695,WAL
19282855129000,0.194997,1.93194698230974,5.09833220571319,1.36516328005202,1.0195341,0.45081854,-0.8249735,296.2219,-47.26145,9.549842,WAL
19282860127000,0.199995,1.96444781164606,4.97597612955899,1.38953890517347,1.1374311,0.5742133,-0.82894415,296.4083,-48.213825,9.136658,WAL
19282865093000,0.204961,1.9967405524392,4.85440344564908,1.41375846386757,1.2534955,0.70066243,-0.8405506,296.55984,-49.18597,8.698347,WAL
19282870204000,0.210072,1.95837201628344,5.04233854910091,1.35636968184235,1.3515394,0.7959574,-0.84665924,296.68073,-50.168747,8.248561,WAL
19282875137000,0.215005,1.90963950210505,5.27488254937882,1.28752908770562,1.4679092,0.8927795,-0.86406887,296.76715,-51.17274,7.7767916,WAL
19282880118000,0.219986,1.86043280169503,5.50968929281776,1.21801864793366,1.5677856,0.9272934,-0.88422745,296.75662,-51.812748,7.4968214,WAL
19282885242000,0.22511,1.80981342147,5.75123712525726,1.14651262637343,1.6081028,1.0079277,-0.91446525,296.7143,-52.464195,7.1898336,WAL
19282890198000,0.230066,1.76085369305562,5.98486535663317,1.07735106453648,1.6878207,1.0748174,-0.9275989,296.66327,-53.148216,6.883374,WAL
19282895131000,0.234999,1.71212117887722,6.21740935691108,1.00851047039975,1.7647897,1.106277,-0.9651671,296.60693,-53.838898,6.5617366,WAL
19282900206000,0.240074,1.66198586376363,6.45664730570703,0.93768824959214,1.820073,1.1074986,-0.9810496,296.53635,-54.537792,6.2413235,WAL
19282905137000,0.245005,1.61327310734488,6.6890970250199,0.868875565690207,1.8555032,1.0919216,-0.9941832,296.4638,-55.24662,5.916078,WAL
19282910731000,0.250599,1.55801065360194,6.95280088424445,0.790810638951733,1.8597792,1.033584,-1.0091494,296.3998,-55.954697,5.599068,WAL
19282915160000,0.255028,1.51425709485551,7.16158608133159,0.729003423984857,1.8142698,0.9569204,-0.9868528,296.33606,-56.64884,5.298786,WAL
19282920165000,0.260033,1.46481330132969,7.39752419635104,0.659158061395286,1.6969837,0.8390234,-0.9663888,296.29523,-57.315994,5.015405,WAL
19282925134000,0.265002,1.41572514747758,7.63176525399973,0.589815083032133,1.5302174,0.7333437,-0.91690874,296.25867,-57.945286,4.759168,WAL
19282930110000,0.269978,1.36656784146669,7.86633629502606,0.520374418847177,1.2812898,0.6450737,-0.86559606,296.2403,-58.50905,4.5279603,WAL
19282935180000,0.275048,1.31648192075222,8.10533854140941,0.449621973626572,0.9578367,0.61453044,-0.7855727,296.2194,-58.993656,4.3269224,WAL
19282940134000,0.280002,1.2675419500975,8.33887249182027,0.380488322024427,0.58184916,0.6407976,-0.6969972,296.1954,-59.383953,4.1488333,WAL
19282945139000,0.285007,1.21809815657167,8.57481060683973,0.310642959434855,0.12767084,0.657291,-0.63224554,296.17184,-59.65296,3.993645,WAL
19282950171000,0.290039,1.16838763329057,8.81202151488726,0.24042080867547,-0.36193767,0.59315014,-0.61361414,296.1549,-59.79986,3.8596153,WAL
19282955128000,0.294996,1.11941802599636,9.04569688674568,0.171245291721123,-0.86620694,0.42332962,-0.66614854,296.16098,-59.8119,3.7393599,WAL
19282960129000,0.299997,1.07001374798984,9.28144643983505,0.101455749601154,-1.3530666,0.17134771,-0.73761976,296.20377,-59.689796,3.6425304,WAL
19282965153000,0.305021,1.02038225574734,9.51828022402241,0.0313452397809725,-1.7528778,-0.13194689,-0.73364913,296.29846,-59.450493,3.5857491,WAL
19282970175000,0.310043,0.97077052126449,9.75501972724473,-0.0387373598044077,-2.0418172,-0.45570546,-0.636827,296.45734,-59.108044,3.576312,WAL
19282975117000,0.314985,0.921949097167666,9.98798799186534,-0.107703549997746,-2.1768184,-0.6078109,-0.5558874,296.6496,-58.70245,3.5854447,WAL
19282980836000,0.320704,0.865451783446552,10.2575844114051,-0.187512866411285,-2.1481075,-1.1368202,-0.48075095,296.99927,-58.26648,3.7220082,WAL
19282985147000,0.325015,0.822863932519517,10.4608070315547,-0.2476733775249,-2.028378,-1.303281,-0.44135013,297.2879,-57.82503,3.8404868,WAL
19282990137000,0.330005,0.773568322191076,10.6960380393363,-0.317309413353464,-1.949271,-1.582141,-0.31490102,297.70532,-57.383884,4.094595,WAL
19282995137000,0.335005,0.724173923064381,10.9317404519432,-0.387085000356032,-1.7189748,-1.7354681,-0.18478674,298.1219,-57.02655,4.3643193,WAL
19283000157000,0.340025,0.67458194634118,11.1683856742004,-0.457139689706611,-1.430341,-1.8075503,-0.05497787,298.5625,-56.711517,4.6921816,WAL
19283005158000,0.345026,0.62517766833466,11.4041352272898,-0.526929231826581,-1.1249083,-1.7950275,0.07971791,298.99448,-56.46776,5.058753,WAL
19283010146000,0.350014,0.57590181576587,11.6392719541064,-0.596537357420343,-0.8170323,-1.7143933,0.22174409,299.4021,-56.305298,5.4528475,WAL
19283015143000,0.355011,0.526537053278652,11.8748329452657,-0.666271079070711,-0.5366451,-1.5861117,0.35521814,299.77225,-56.21838,5.860546,WAL
19283020209000,0.360077,0.476490648083485,12.1136466297189,-0.736967703821713,-0.28680122,-1.41904,0.5002986,300.08704,-56.202675,6.2782507,WAL
19283025140000,0.365008,0.427777891664739,12.3460963490318,-0.805780387723647,-0.06536258,-1.2000448,0.6200282,300.33972,-56.250862,6.6851544,WAL
19283030159000,0.370027,0.378195793821363,12.5826944308066,-0.875821121956826,0.07391469,-0.95111716,0.7131852,300.5252,-56.336464,7.081162,WAL
19283035293000,0.375161,0.327477624798073,12.8247136680713,-0.947466694691063,0.1432479,-0.6969972,0.77396625,300.64233,-56.45496,7.455068,WAL
19283040210000,0.380078,0.278903172696882,13.0565034206288,-1.01608400694939,0.12461651,-0.4538729,0.81245077,300.69067,-56.578255,7.801702,WAL
19283045145000,0.385013,0.230150900758834,13.2891417018718,-1.08495251132092,0.04550946,-0.23243423,0.8491027,300.67368,-56.69477,8.120201,WAL
19283050592000,0.39046,0.176340642350214,13.5459159101657,-1.16096603580152,-0.07238753,-0.02321288,0.895223,300.59338,-56.78692,8.409317,WAL
19283055172000,0.39504,0.131095372750162,13.7618193201136,-1.22488047349588,-0.21838433,0.1863139,0.9398162,300.45407,-56.842445,8.66834,WAL
19283060147000,0.400015,0.0819479456191005,13.9963432206574,-1.29430718256343,-0.3381139,0.42363504,0.9242391,300.25955,-56.87046,8.883774,WAL
19283065089000,0.404957,0.0331265215222757,14.229311485278,-1.36327337275677,-0.38240165,0.7131852,0.81122905,300.00977,-56.88114,9.043041,WAL
19283070132000,0.41,0.0322428962103657,14.1196687930044,-1.30560023664599,-0.38423425,1.0030408,0.6411031,299.71384,-56.8754,9.145782,WAL
19283075153000,0.415021,0.0360785080094624,13.977031981494,-1.23584004456238,-0.3368922,1.133155,0.473726,299.40454,-56.87953,9.200618,WAL
19283080149000,0.420017,0.0398950219605253,13.8351053711961,-1.16642719460226,-0.28160888,1.3307699,0.3885103,299.26245,-57.9254,8.7842655,WAL
19283085193000,0.425061,0.043748203779813,13.6918151745703,-1.09634744776503,-0.26236662,1.464244,0.23732115,299.1175,-58.92031,8.329295,WAL
19283090241000,0.430109,0.047604441254786,13.5484113457504,-1.02621212618803,-0.22510384,1.5613716,0.09773844,298.9234,-59.87428,7.860539,WAL
19283095148000,0.435016,0.0513529668668488,13.4090130517688,-0.958035814187572,-0.12797627,1.6224581,-0.029626964,298.7067,-60.799957,7.371071,WAL
19283100176000,0.440044,0.0551939260633949,13.266177383919,-0.888178366309377,0.043982297,1.6071864,-0.122478485,298.4832,-61.708572,6.879354,WAL
19283105103000,0.444971,0.0589577299538847,13.1262109289674,-0.819724180610119,0.27947086,1.5375478,-0.14721853,298.25174,-62.614132,6.39803,WAL
19283110132000,0.45,0.0627994530643521,12.983346853069,-0.749852839046983,0.4999932,1.4590516,-0.12034045,298.01935,-63.51764,5.9345903,WAL
19283115125000,0.454993,0.0666136752736509,12.8415054669166,-0.680481670141686,0.68752885,1.4370605,-0.049785517,297.7771,-64.430374,5.5016894,WAL
19283120111000,0.459979,0.0704225500855003,12.6998629371037,-0.61120775703097,0.8362745,1.4630222,0.070554934,297.5244,-65.34569,5.1149025,WAL
19283125130000,0.464998,0.0742566340567543,12.5572829416903,-0.541475352317234,0.96883225,1.4957036,0.24281894,297.25446,-66.26077,4.7828608,WAL
19283130163000,0.470031,0.0781014128229071,12.4143052335979,-0.471548436014338,1.0903945,1.5057828,0.44593164,296.96185,-67.167305,4.5094657,WAL
19283135152000,0.47502,0.0819125793765206,12.2725774796395,-0.402232841848801,1.1737776,1.5085317,0.63407815,296.643,-68.055145,4.2923055,WAL
19283140135000,0.480003,0.0857191624466059,12.131020173972,-0.333000609792905,1.2125676,1.5332718,0.7965683,296.29645,-68.92011,4.1345334,WAL
19283145131000,0.484999,0.0895356763976688,11.9890935636741,-0.263587759832788,1.2287555,1.566564,0.9126327,295.93384,-69.76122,4.0273333,WAL
19283150175000,0.490043,0.0933888582169565,11.8458033670482,-0.193508012995553,1.2287555,1.598329,0.99265605,295.55533,-70.569984,3.9639502,WAL
19283155163000,0.495031,0.0971992608566486,11.7041040211383,-0.124206312514956,1.2229522,1.6136005,1.0479393,295.16757,-71.34619,3.9344468,WAL
19283160132000,0.5,0.100995149131835,11.5629444281498,-0.0551685920482192,1.2030991,1.6282613,1.0619892,294.7724,-72.08739,3.922297,WAL
19283165107000,0.504975,0.10479562089055,11.4216143868703,0.0139524905281577,1.1991285,1.6804903,1.0451905,294.36554,-72.80243,3.9211264,WAL
19283170130000,0.509998,0.108632760517489,11.278920759263,0.0837404699816534,1.1896601,1.7583756,0.9828822,293.95514,-73.48648,3.9163423,WAL
19283175129000,0.514997,0.112451566210316,11.1369089248195,0.15319500099659,1.215011,1.7910569,0.88300574,293.55206,-74.15818,3.9040482,WAL
19283180116000,0.519984,0.116261204936087,10.9952379869581,0.222482807792247,1.2425,1.8362609,0.81336707,293.13147,-74.80684,3.884005,WAL
19283185176000,0.525044,0.120126609378116,10.8514932615563,0.292784853588521,1.325883,1.8551978,0.66339964,292.7271,-75.46932,3.8221242,WAL
19283190106000,0.529974,0.12389270501037,10.7114415824592,0.3612807203426,1.4321736,1.8606955,0.4877759,292.3248,-76.132126,3.7399263,WAL
19283195125000,0.534993,0.127726788981624,10.5688615870458,0.431013125056335,1.541213,1.8435913,0.3042109,291.93817,-76.81085,3.6230803,WAL
19283200162000,0.54003,0.131574623403462,10.4257702467595,0.500995616098991,1.6154331,1.774869,0.121256754,291.5793,-77.50353,3.4699323,WAL
19283205128000,0.544996,0.135368219936884,10.2846958779165,0.569991655510908,1.6737708,1.6743816,-0.065973446,291.24875,-78.21766,3.2773151,WAL
19283210131000,0.549999,0.139190081285397,10.1425704112791,0.639501761265604,1.7012597,1.5613716,-0.23945917,290.95334,-78.93841,3.0522802,WAL
19283215139000,0.555007,0.143015762203516,10.0003029043992,0.709081335445,1.7095064,1.4089607,-0.3830125,290.70798,-79.6638,2.80115,WAL
19283220148000,0.560016,0.146842207035556,9.85800698947074,0.778674803309337,1.7290541,1.2687671,-0.4700608,290.49872,-80.39065,2.5327094,WAL
19283225130000,0.564998,0.15064802619172,9.71647809185179,0.847893141680294,1.756543,1.2186762,-0.47219884,290.3113,-81.108406,2.261398,WAL
19283230111000,0.569979,0.154453081433963,9.57497760228134,0.91709758636631,1.781283,1.2366967,-0.45845437,290.14865,-81.818306,1.9837619,WAL
19283235976000,0.575844,0.158933436582679,9.40836439783831,0.998584048539265,1.7873917,1.2608259,-0.40011674,289.99802,-82.510216,1.7298833,WAL
19283240140000,0.580008,0.162114374151179,9.29007328389104,1.05643735262932,1.8106046,1.2901474,-0.3387248,289.8418,-83.19577,1.4892495,WAL
19283245125000,0.584993,0.165922485049107,9.14845916212659,1.1256973720551,1.8176296,1.2880094,-0.26083946,289.68716,-83.857544,1.2786883,WAL
19283250170000,0.590038,0.169776430782316,9.00514055745224,1.19579101257727,1.8383989,1.2678508,-0.19853121,289.53033,-84.51139,1.0886132,WAL
19283255167000,0.595035,0.1735937086473,8.86318553910581,1.26521775622233,1.8298469,1.2437216,-0.13408493,289.37576,-85.13957,0.9284238,WAL
19283260139000,0.600007,0.17739188866425,8.72194072197184,1.33429715774389,1.7809776,1.2098186,-0.0711658,289.2312,-85.74468,0.7924723,WAL
19283265108000,0.604976,0.181187776939437,8.58078112898337,1.40333487821062,1.717753,1.1969905,-0.011301007,289.0893,-86.326515,0.6794985,WAL
19283270136000,0.610004,0.162489786128314,8.46642289799636,1.42904921900425,1.6148223,1.1866057,0.05681047,288.9583,-86.86682,0.59206486,WAL
19283275085000,0.614953,0.138509006481481,8.36090733333333,1.44343767777778,1.5409076,1.1133019,0.08582657,288.85187,-87.38426,0.5155274,WAL
19283280112000,0.61998,0.0175669273413589,8.27711827116915,1.32958952734136,1.5189165,0.9923506,0.12186762,288.83865,-87.60539,0.47797877,WAL
19283285148000,0.625016,-0.125121828667619,8.19839313731891,1.18690077133238,1.4822645,0.8979719,0.1554652,288.8393,-87.79511,0.44764322,WAL
19283290131000,0.629999,-0.255065048504031,8.22943331083906,1.06933672921768,1.4587462,0.84971356,0.18753563,288.84763,-87.98216,0.44532937,WAL
19283295075000,0.634943,-0.382305893365184,8.27655927082711,0.956233711719916,1.4434745,0.8356637,0.21471913,288.87225,-88.154236,0.4502557,WAL
19283300180000,0.640048,-0.518355910493136,8.32514486903902,0.878588982868497,1.4367551,0.8384125,0.24648413,288.89648,-88.347084,0.4723095,WAL
19283305585000,0.645453,-0.663283828945087,8.37657145231214,0.803787492947977,1.4187346,0.86009824,0.2837469,288.9184,-88.522095,0.50156426,WAL
19283310139000,0.650007,-0.745665043455271,8.53560841512895,0.795274904112442,1.3976597,0.8881981,0.3115413,288.83978,-88.74895,0.5539147,WAL
19283315139000,0.655007,-0.818005229060106,8.76296300669041,0.810776355499083,1.3738359,0.92149025,0.34147367,288.75623,-88.937706,0.6157295,WAL
19283320156000,0.660024,-0.969290837628097,8.96945543030544,0.859398101928166,1.3316863,0.9447031,0.37201694,288.5868,-89.11473,0.68371654,WAL
19283325127000,0.664995,-1.13980395195503,9.16838742174908,0.916235801758034,1.3026701,0.9761627,0.3943135,288.4099,-89.19658,0.75692475,WAL
19283330138000,0.670006,-1.29984809301371,9.29647738121444,0.977710607210148,1.2635747,0.9993755,0.42241332,288.18158,-90.85254,0.8519028,WAL
19283335244000,0.675112,-1.45948529463669,9.40594323925007,1.04156554024811,1.1985176,1.0048733,0.4465425,287.95374,-91.00116,0.9512995,WAL
19283340188000,0.680056,-1.5961052038171,9.44580501749503,1.03536898803181,1.1417072,1.0308352,0.4474588,287.67163,-91.19777,1.0393898,WAL
19283345147000,0.685015,-1.7235671793837,9.45052592634195,0.992881646411531,1.0937542,1.0934488,0.46211955,287.3814,-91.423325,1.1379194,WAL
19283350195000,0.690063,-1.84269934273586,9.43294800297145,0.973607478393293,1.0555751,1.1765264,0.46089783,287.04224,-91.65278,1.2249204,WAL
19283355124000,0.694992,-1.95290734700202,9.4028911984506,0.968598028409212,1.0128145,1.2073752,0.45204028,286.70367,-91.87805,1.3137243,WAL
19283360130000,0.699998,-2.04554166024118,9.37865742257783,0.884686358175524,0.98715824,1.2049317,0.4437936,286.32202,-92.12317,1.4036539,WAL
19283365107000,0.704975,-2.13077654497684,9.35680211912513,0.773225394557293,0.94897914,1.1753048,0.4166101,285.94263,-92.3499,1.4856113,WAL
19283370419000,0.710287,-2.2217485577789,9.33347574340869,0.654262035356963,0.91415983,1.1438452,0.40103304,285.52814,-92.59703,1.5777628,WAL
19283375603000,0.715471,-2.31052847388693,9.3107114490348,0.538165263125315,0.90377516,1.0302242,0.37812558,285.14877,-92.83128,1.6590592,WAL
19283380115000,0.719983,-2.35204943224138,9.30484687209052,0.453846741501078,0.8723156,0.98746365,0.37110063,284.70776,-93.09837,1.7821231,WAL
19283385152000,0.72502,-2.34165323793103,9.32044148922414,0.386271429633621,0.8582657,0.890947,0.3408628,284.31766,-93.35298,1.8896377,WAL
19283390117000,0.729985,-2.28920799834177,9.32564947874847,0.384590125373538,0.8405506,0.7669413,0.32895094,283.91052,-93.66164,2.003988,WAL
19283395098000,0.734966,-2.19761732860883,9.3214864008553,0.442875080818642,0.83291477,0.61575216,0.3145956,283.54297,-93.95716,2.1068792,WAL
19283400118000,0.739986,-2.08600215714753,9.31234387880275,0.517864966944717,0.8313876,0.4615087,0.3100141,283.22754,-94.243645,2.1995947,WAL
19283405238000,0.745106,-1.90421926760441,9.28561084641806,0.651528816906553,0.84421575,0.3213151,0.28221974,282.95456,-94.519875,2.2786088,WAL
19283410088000,0.749956,-1.71082753298938,9.25914744744562,0.76144187188872,0.91415983,0.22143865,0.28924468,282.69528,-94.80914,2.3763967,WAL
19283415135000,0.755003,-1.47612457144158,9.22980949428427,0.849455506721295,1.0103711,0.15241088,0.33078352,282.47052,-95.102715,2.4730163,WAL
19283420112000,0.75998,-1.27483733309273,9.16894429853785,0.881909949339256,1.0943651,0.07147124,0.3943135,282.23688,-95.420395,2.6126566,WAL
19283425211000,0.765079,-1.112153893809,9.06048886109569,0.836720097229317,1.1731668,0.020158553,0.4700608,282.0191,-95.7601,2.7645898,WAL
19283430144000,0.770012,-1.03363350185623,8.99369221718553,0.765285125245398,1.2522738,-0.0036651916,0.5699373,281.798,-96.13942,2.9887946,WAL
19283460070000,0.799938,-1.90560121172439,9.24030879728941,-0.141913567994714,1.6157386,0.514654,0.8503244,280.22394,-99.08175,4.8783317,WAL
19283465106000,0.804974,-2.02005101055307,9.21864116053274,-0.0734462006638878,1.6468927,0.6059783,0.83291477,279.92102,-99.6218,5.164276,WAL
19283470067000,0.809935,-2.12148671541277,9.17516885969906,0.0714619109475397,1.6597209,0.806953,0.83291477,279.54016,-100.157616,5.4609084,WAL
19283475067000,0.814935,-2.09760676893668,9.33708906571087,0.416562493381123,1.6551393,0.9776898,0.7993172,279.16498,-100.66296,5.690007,WAL
19283480042000,0.81991,-2.03594004900438,9.56003781620868,0.819767604467344,1.6001616,1.0693196,0.74097955,278.76038,-101.142845,5.9145427,WAL
19283485095000,0.824963,-1.78274385053034,9.88107219512661,1.13283967203536,1.5170839,1.0436633,0.66859204,278.32028,-101.57742,6.1199417,WAL
19283490042000,0.82991,-1.47489872949833,10.2251347451505,1.40899484996656,1.396438,0.8903361,0.59315014,277.89276,-101.96817,6.303585,WAL
19283495058000,0.834926,-1.15934620001943,10.5994426680913,1.52519038624575,1.2687671,0.6814202,0.54092115,277.41144,-102.277275,6.503266,WAL
19283500224000,0.840092,-0.832564509742593,10.9983080477902,1.55882970224381,1.131017,0.46517387,0.5149594,276.9765,-102.53662,6.6776695,WAL
19283505076000,0.844944,-0.702925331720656,11.2911780030501,1.45098192336979,0.9639453,0.28955013,0.50335294,276.51074,-102.73721,6.914113,WAL
19283510075000,0.849943,-0.677749467606226,11.5429371699621,1.25461007812369,0.7968737,0.15424347,0.5137377,276.0965,-102.89656,7.1343484,WAL
19283515081000,0.854949,-0.87164095937088,11.578330804483,0.941526952627613,0.6411031,0.071776666,0.5177083,275.64917,-103.04922,7.4171987,WAL
19283520102000,0.85997,-1.15694554731588,11.523986920324,0.579235368845357,0.50976706,0.057726767,0.53023106,275.2235,-103.16724,7.69238,WAL
19283525080000,0.864948,-1.42876217021148,11.3974407033233,0.343566253373615,0.40225476,0.12095132,0.54244834,274.81543,-103.26926,7.948535,WAL
19283530056000,0.869924,-1.69270785141994,11.2198771794562,0.194796882175227,0.31612277,0.19700404,0.5109888,274.40707,-103.33846,8.187006,WAL
19283535118000,0.874986,-1.80331027761076,11.2019442143987,0.260380804796282,0.2843578,0.23945917,0.44226643,274.07773,-103.39102,8.327692,WAL
19283540081000,0.879949,-1.80801059984177,11.2912507294304,0.467195130201741,0.3023783,0.24617869,0.35521814,273.7342,-103.423744,8.451793,WAL
19283545078000,0.884946,-1.69922347914275,11.5113798695943,0.779678713069269,0.35155296,0.22785273,0.28221974,273.42365,-103.43774,8.505423,WAL
19283550108000,0.889976,-1.50565317872178,11.829387807788,1.17142802975507,0.40439278,0.19517145,0.23793201,273.11154,-103.443474,8.540721,WAL
19283555131000,0.894999,-1.30258352204772,12.152754674922,1.55598674038055,0.42638394,0.2171626,0.24862215,272.75046,-103.42399,8.58216,WAL
19283560846000,0.900714,-1.06014082890365,12.5274390044297,1.98577165581395,0.35979962,0.26236662,0.30298916,272.39148,-103.39493,8.622117,WAL
19283565133000,0.905001,-0.96714220926887,12.6751054908732,2.14537772100641,0.2312125,0.28405234,0.4016439,271.93335,-103.347664,8.739353,WAL
19283570128000,0.909996,-0.929383045203749,12.7411838949186,2.2020164375333,0.15699236,0.3381139,0.453262,271.45367,-103.299324,8.858532,WAL
19283575130000,0.914998,-0.955627707393807,12.7433783381302,2.0870281865919,-0.04550946,0.35033122,0.5360342,270.891,-103.21283,9.070619,WAL
19283580110000,0.919978,-1.0502932470127,12.6771126076816,1.788831707632,-0.22143865,0.31429017,0.5421429,270.32684,-103.11769,9.267002,WAL
19283585215000,0.925083,-1.24469304524698,12.6540344696625,1.44674854702993,-0.35033122,0.23609942,0.5222898,269.7287,-103.02551,9.491828,WAL
19283590170000,0.930038,-1.5382261093787,12.6799345201492,1.07551553877922,-0.42088616,0.14630222,0.47342056,269.145,-102.91462,9.696722,WAL
19283595078000,0.934946,-1.86392052217548,12.675335672476,0.737632814447115,-0.4905248,0.0125227375,0.45173484,268.66626,-102.79633,9.850513,WAL
19283600161000,0.940029,-2.30273284730569,12.5826976920072,0.474345449915865,-0.6026186,-0.14813483,0.42821655,268.21948,-102.655365,9.977941,WAL
19283605086000,0.944954,-2.6967315105155,12.5403907639148,0.255574096626821,-0.7519751,-0.3295618,0.31398472,267.91058,-102.45883,9.983007,WAL
19283610132000,0.95,-3.01263726413896,12.6306495102727,0.133724704221143,-0.87964594,-0.51343226,0.17470746,267.64563,-102.24255,9.96589,WAL
19283615139000,0.955007,-3.28298930028417,12.7232653848114,0.02378295073317,-0.9434814,-0.66981375,0.059253927,267.49057,-101.962166,9.83979,WAL
19283620147000,0.960015,-3.26889014857423,12.836058500343,-0.0138148126784909,-1.0393872,-0.79168135,-0.054061573,267.37024,-101.63124,9.672293,WAL
19283625094000,0.964962,-3.24206581241151,12.9449204821142,-0.0415992244296366,-1.131017,-0.88208944,-0.11911872,267.31268,-101.24875,9.430123,WAL
19283630929000,0.970797,-3.04164443935819,13.0398566756017,0.048063005822369,-1.2379184,-0.9615019,-0.15821409,267.27945,-100.83743,9.165946,WAL
19283635715000,0.975583,-2.87138451002057,13.10901575933,0.121858744178666,-1.3692545,-1.0665708,-0.18081611,267.27805,-100.40876,8.890255,WAL
19283640160000,0.980028,-2.65872763770203,13.0923368862768,0.192744376992849,-1.5537357,-1.1710287,-0.18387043,267.29376,-99.96383,8.614148,WAL
19283645106000,0.984974,-2.42210201554511,13.0737781222451,0.271619594067979,-1.7229455,-1.2702943,-0.19883664,267.3272,-99.52545,8.363361,WAL
19283650165000,0.990033,-2.07395570246489,12.9536046723952,0.132605342074831,-1.8683313,-1.3423764,-0.2275473,267.3783,-99.07933,8.112675,WAL
19283655121000,0.994989,-1.72438293082589,12.8277583850535,-0.0212066594386723,-1.9599612,-1.4227052,-0.258396,267.45557,-98.6358,7.8616123,WAL
19283660129000,0.999997,-1.30147874812756,12.6814872679196,-0.166320310808957,-2.0158553,-1.4602734,-0.2932153,267.5185,-98.23027,7.6489525,WAL
19283665092000,1.00496,-0.873839796581026,12.5341899131261,-0.308866627825752,-2.0769417,-1.4743233,-0.28893927,267.594,-97.848366,7.4436054,WAL
19283670130000,1.009998,0.175122710980847,12.3930773874057,-0.255452852013929,-2.1197023,-1.5173893,-0.25320363,267.70782,-97.553734,7.2922363,WAL
19283675095000,1.014963,1.28818328840395,12.2550942838073,-0.177262641160766,-2.2275202,-1.527774,-0.19822577,267.81284,-97.29348,7.15254,WAL
19283680157000,1.020025,1.75709534961326,12.1966929112339,-0.100681695720074,-2.3698518,-1.5601498,-0.14782938,267.9613,-97.14959,7.092326,WAL
19283685223000,1.025091,2.07874912430939,12.1564863176796,-0.0247356756906077,-2.5305092,-1.6166549,-0.10170906,268.11725,-97.05808,7.0490727,WAL
19283690160000,1.030028,2.32123021765285,12.0883036410369,-0.0275436629441102,-2.6789496,-1.6920967,-0.053145275,268.21136,-82.76922,7.2283025,WAL
19283695094000,1.034962,2.52795418659083,12.0056139455321,-0.0688884858726895,-2.8047879,-1.7583756,-0.03145956,268.32098,-82.55284,7.4087353,WAL
19283700471000,1.040339,2.66336752386823,11.8891707222606,-0.122902196635368,-2.9223793,-1.7895297,-0.0070249503,268.4339,-82.21339,7.6693363,WAL
19283705134000,1.045002,2.76466978465332,11.7834642513068,-0.171351072933623,-3.0182853,-1.751656,0.00580322,268.54813,-81.83845,7.925902,WAL
19283710126000,1.049994,2.94935382221008,11.6620613147173,-0.310450128878068,-3.0680707,-1.6426166,0.0076358155,268.66644,-81.400566,8.215796,WAL
19283715134000,1.055002,3.15429354420153,11.5381442943456,-0.472495437561363,-3.0976977,-1.4679092,0.0061086523,268.75647,-80.939995,8.499061,WAL
19283720147000,1.060015,3.32178911587664,11.3508723781238,-0.649363323809996,-3.1135802,-1.2147056,0.032070424,268.8146,-80.43998,8.803313,WAL
19283725135000,1.065003,3.4781139954879,11.1471760905395,-0.829373862889726,-3.0967813,-0.91324353,0.062002823,268.8094,-79.93612,9.095421,WAL
19283730111000,1.069979,3.47816015810651,10.9534077017751,-0.927941553964497,-3.0665436,-0.5839872,0.11881329,268.74835,-79.38647,9.441336,WAL
19283735246000,1.075114,3.4289161391716,10.7564317195266,-1.00404599360947,-3.012482,-0.29046643,0.17837265,268.61212,-78.841286,9.778761,WAL
19283740192000,1.08006,3.31756166147875,10.5998558029303,-0.996502690510382,-2.9294043,-0.029626964,0.22999077,268.42538,-78.27892,10.155523,WAL
19283745117000,1.084985,3.1619595694935,10.4671364671065,-0.932431221754318,-2.837469,0.1685988,0.25900686,268.175,-77.729706,10.522679,WAL
19283750172000,1.09004,2.97303507822004,10.4267693837371,-0.802701168618077,-2.7464502,0.29077184,0.25778514,267.92224,-77.195946,10.881064,WAL
19283755132000,1.095,2.76013987386618,10.4774586676982,-0.615150680345747,-2.6422975,0.36560285,0.27458394,267.62833,-76.679695,11.235208,WAL
19283760130000,1.099998,2.43181043966667,10.5110436628431,-0.415085105033333,-2.5470026,0.37048978,0.28069258,267.3521,-76.19328,11.548368,WAL
19283765144000,1.105012,2.03636712333333,10.5345816892157,-0.207948157666667,-2.4840834,0.32162055,0.28160888,267.07208,-75.72638,11.853746,WAL
19283770196000,1.110064,1.68333142628284,10.5512394341899,-0.0455744336751503,-2.4623978,0.2144137,0.25350907,266.83316,-75.28698,12.103026,WAL
19283775127000,1.114995,1.36827651068281,10.562908167861,0.0827812792990693,-2.411696,0.08582657,0.22327125,266.6153,-74.87162,12.346837,WAL
19283780165000,1.120033,1.06937517090837,10.5924612003781,0.230868596640135,-2.3735168,-0.039095376,0.18387043,266.43597,-74.493195,12.502513,WAL
19283785208000,1.125076,0.881977120316386,10.7077828846881,0.461512351600836,-2.3521366,-0.100792766,0.15363261,266.27554,-74.1306,12.650293,WAL
19283790167000,1.130035,0.701152540363208,10.8072125431432,0.656559848424463,-2.3209825,-0.15882497,0.13225232,266.15192,-73.8067,12.7208805,WAL
19283795154000,1.135022,0.537062655888878,10.8353423170708,0.689377803779327,-2.286163,-0.38637227,0.095294975,266.09583,-73.49989,12.787932,WAL
19283800236000,1.140104,0.353221698764122,10.8646234099143,0.700809036948773,-2.1789563,-0.86070913,0.0076358155,266.1159,-73.22655,12.808843,WAL
19283805137000,1.145005,0.0743853417121153,10.8966207158161,0.577389671271913,-1.9413297,-1.3271047,-0.092240654,266.20013,-72.99598,12.828073,WAL
19283810192000,1.15006,-0.19576375252139,10.9235588106952,0.465540360347594,-1.7513506,-1.6282613,-0.17684549,266.38635,-72.80001,12.818144,WAL
19283815107000,1.154975,-0.250301192659537,10.8774121297683,0.541053728217469,-1.7214183,-1.7919732,-0.23701571,266.66837,-72.636765,12.80661,WAL
19283820185000,1.160053,-0.306647300700535,10.8297350502674,0.61907140513369,-1.8020525,-1.8781052,-0.269697,267.0431,-72.5327,12.749613,WAL
19283825129000,1.164997,-0.253960020113509,10.6319167290659,0.716052520273539,-1.9193386,-1.9822577,-0.32650748,267.47174,-72.44537,12.6820135,WAL
19283830127000,1.169995,-0.178252638407146,10.40034117901,0.818480164194269,-1.9761491,-2.044566,-0.3747658,267.91095,-72.3595,12.61292,WAL
19283835209000,1.175077,-0.0515207733339992,10.2122469452657,0.796560375409509,-1.9843957,-2.0216584,-0.42241332,268.36353,-72.25711,12.527123,WAL
19283840192000,1.18006,0.096237723752497,10.0501889552537,0.715531529714343,-1.9642372,-1.9486601,-0.45204028,268.81754,-72.155136,12.437056,WAL
19283845128000,1.184996,0.195561395589528,9.90047464809861,0.646781267962928,-1.9517145,-1.8515326,-0.4728097,269.24234,-72.03018,12.3539505,WAL
19283850208000,1.190076,0.27458423694248,9.75172617112555,0.581703633336518,-1.9404135,-1.7779233,-0.47769663,269.6499,-71.911896,12.267288,WAL
19283855136000,1.195004,0.347149653345984,9.51152199209361,0.532202322501581,-1.9156734,-1.7525724,-0.49846604,270.1062,-71.77913,12.216279,WAL
19283860121000,1.199989,0.417607725325743,9.19949283807717,0.491940564832385,-1.8567249,-1.7599027,-0.51893,270.547,-71.65894,12.163865,WAL
19283865105000,1.204973,0.517291573684211,8.75550523834586,0.469983603984962,-1.815797,-1.7846428,-0.51923543,271.01517,-71.52824,12.142353,WAL
19283870149000,1.210017,0.632452115404365,8.2417122336512,0.456695850594168,-1.7592919,-1.8102992,-0.52015173,271.48276,-71.42099,12.117115,WAL
19283875130000,1.214998,0.767370052605976,7.90449930064529,0.443033567761342,-1.6982054,-1.8497,-0.5149594,271.98648,-71.30218,12.12911,WAL
19283880133000,1.220001,0.924336309312022,7.73802019182964,0.428763902191006,-1.6600263,-1.8854356,-0.5213735,272.49258,-71.19794,12.139499,WAL
19283885151000,1.225019,1.00899113205185,7.54222306700545,0.433943096116266,-1.6169603,-1.8952094,-0.51068336,273.0172,-71.06668,12.2101,WAL
19283890128000,1.229996,1.01601186170275,7.31755949824716,0.45968579593951,-1.5690074,-1.9052887,-0.49968776,273.54684,-70.9528,12.279959,WAL
19283895095000,1.234963,1.02301848500516,7.09334733308293,0.485376772435803,-1.5103643,-1.9016235,-0.49846604,274.07178,-70.840004,12.390453,WAL
19283900213000,1.240081,1.03023811416998,6.86231897364855,0.511848771169048,-1.4272866,-1.9086485,-0.50915617,274.59668,-70.75068,12.498496,WAL
19283905103000,1.244971,1.03249318714499,6.66582444910314,0.539337797511211,-1.3307699,-1.8894062,-0.54244834,275.17444,-70.66268,12.6156435,WAL
19283910114000,1.249982,1.02800987765321,6.49994181065022,0.570720982679372,-1.2253957,-1.865277,-0.5665775,275.7462,-70.60257,12.727577,WAL
19283915086000,1.254954,1.03267641307841,6.3370363847365,0.589782984845758,-1.1151345,-1.847562,-0.59131753,276.29114,-70.54832,12.842933,WAL
19283920149000,1.260017,1.06383799584404,6.1760348828192,0.574202198886033,-1.0219775,-1.840537,-0.623388,276.8284,-70.525566,12.943763,WAL
19283925069000,1.264937,1.06774188771248,6.02713214958718,0.53796165594949,-0.9272934,-1.8255708,-0.6478226,277.38498,-70.50771,13.049697,WAL
19283930109000,1.269977,1.03023464341914,5.88648016707139,0.467635615735794,-0.8338311,-1.8011361,-0.6881397,277.9337,-70.52458,13.135723,WAL
19283935190000,1.275058,1.01358626332764,5.76348608950863,0.403732084132043,-0.7305948,-1.7470746,-0.70524395,278.4878,-70.55048,13.237112,WAL
19283940167000,1.280035,1.03619290018023,5.67758095444887,0.353997549151964,-0.6258314,-1.6789632,-0.73364913,279.02774,-70.61147,13.315102,WAL
19283945070000,1.284938,1.05894531019424,5.60151527279172,0.321031450579895,-0.5320636,-1.6200147,-0.77396625,279.58417,-70.69614,13.380864,WAL
19283950171000,1.290039,1.08434177622761,5.55303115858027,0.344119161438631,-0.42424592,-1.5387696,-0.7984009,280.1093,-70.811516,13.430636,WAL
19283955737000,1.295605,1.11205334845692,5.50012730057186,0.369311515612269,-0.3277292,-1.4895949,-0.8063421,280.6541,-70.940216,13.489663,WAL
19283960128000,1.299996,1.13391492115885,5.45839161237299,0.389185685065457,-0.2302962,-1.3875804,-0.81489426,281.15613,-71.098236,13.525853,WAL
19283965431000,1.305299,1.16166570473701,5.4105768709572,0.414036538980725,-0.18661933,-1.1963795,-0.82558435,281.64368,-71.25724,13.551102,WAL
19283970130000,1.309998,1.20577034578025,5.40567625863008,0.448340144701078,-0.060170226,-1.1383474,-0.8381071,282.13492,-71.4549,13.568941,WAL
19283975127000,1.314995,1.26107944240766,5.39058933173735,0.487270823413133,-0.014966198,-1.0189233,-0.84757555,282.57056,-71.618965,13.586392,WAL
19283980111000,1.319979,1.35902229876881,5.32529425649795,0.538574217175103,0.07574729,-0.9108001,-0.84849185,282.98688,-71.8169,13.593328,WAL
19283985256000,1.325124,1.45657359482178,5.25606988176897,0.582788477773465,0.15699236,-0.788627,-0.84238315,283.35568,-72.01104,13.5976925,WAL
19283990220000,1.330088,1.52940461596364,5.17838315501992,0.573077654674701,0.23671028,-0.6750061,-0.8374963,283.69116,-72.22031,13.590231,WAL
19283995125000,1.334993,1.60102231288021,5.08545784842961,0.574801025542455,0.31429017,-0.54825157,-0.8341365,284.04312,-72.39375,13.612889,WAL
19284000195000,1.340063,1.67318283472704,4.90265137057366,0.637340151174081,0.41722095,-0.40286562,-0.8136725,284.3482,-72.5796,13.626797,WAL
19284005118000,1.344986,1.73771014342496,4.72424745230312,0.703069969420505,0.5296202,-0.25350907,-0.79229224,284.64883,-72.75096,13.657619,WAL
19284010128000,1.349996,1.76890060377043,4.5371047832838,0.80109705872214,0.636827,-0.099571034,-0.8020661,284.8987,-72.93913,13.669217,WAL
19284015433000,1.355301,1.80168691925347,4.34163419722096,0.906871701227863,0.77640975,0.06261369,-0.8216137,285.0994,-73.12139,13.673372,WAL
19284020188000,1.360056,1.82650084205794,4.21756445364635,1.03921272649351,0.9263771,0.22021692,-0.84391034,285.2511,-73.32161,13.660995,WAL
19284025396000,1.365264,1.85367874110435,4.08167481651984,1.18416163492326,1.094976,0.39400807,-0.86834496,285.3391,-73.52216,13.629714,WAL
19284030121000,1.369989,1.7866626496412,4.00515881519629,1.39664531473195,1.2635747,0.5342017,-0.90133166,285.38864,-73.747116,13.581505,WAL
19284035197000,1.375065,1.69432267813423,3.93333887902068,1.64288525660616,1.4401149,0.6374379,-0.94134337,285.3975,-73.998276,13.516953,WAL
19284040129000,1.379997,1.59884051321599,4.02183589065012,1.85272089250178,1.6242907,0.72082096,-0.9789116,285.34772,-74.248184,13.439225,WAL
19284045075000,1.384943,1.50245857759691,4.12785585880558,2.05994193834571,1.7999145,0.8396343,-1.010982,285.25876,-74.51977,13.347466,WAL
19284050503000,1.390371,1.48051602630245,4.2897926362527,2.36094852886511,1.9639318,0.95630956,-1.031446,285.10977,-74.7966,13.2286825,WAL
19284055135000,1.395003,1.46802384449451,4.43137091414625,2.62328460771614,2.1493294,1.031446,-1.0384709,284.94153,-75.09162,13.106069,WAL
19284060134000,1.400002,1.42352746215839,4.67141180802912,3.09115944554159,2.2256875,1.1636983,-1.0491611,284.69598,-75.38798,12.94735,WAL
19284065141000,1.405009,1.37091810512667,4.93445874300818,3.60768797785757,2.3716843,1.2880094,-1.0491611,284.43576,-75.7011,12.794265,WAL
19284070128000,1.409996,1.27006307984519,5.38632506993153,4.29229692750819,2.4810293,1.3884968,-1.0680978,284.09482,-76.00458,12.610955,WAL
19284075156000,1.415024,1.15538087133075,5.89283801616553,5.02817444045847,2.5622742,1.4422529,-1.0839803,283.73898,-76.30591,12.434697,WAL
19284080145000,1.420013,0.981772940688823,6.74955760472521,5.88035145795581,2.6068676,1.4269812,-1.0888673,283.29724,-76.5762,12.244731,WAL
19284085360000,1.425228,0.782408748291868,7.75101493989974,6.80762653161901,2.5772405,1.349096,-1.0363328,282.86703,-76.822365,12.076605,WAL
19284090137000,1.430005,0.568871957080537,9.14240147068693,7.8060663674694,2.4446826,1.241889,-0.93034774,282.3093,-77.02262,11.891719,WAL
19284095448000,1.435316,0.312853063422819,10.9746938497829,9.00584160568496,2.171015,1.0922271,-0.77854776,281.79694,-77.16723,11.7475,WAL
19284100354000,1.440222,0.113902094051748,12.7451624847445,9.90668596568673,1.7559321,0.90469146,-0.57879484,281.17136,-77.217926,11.605513,WAL
19284105149000,1.445017,-0.0607016654400445,14.5167515643142,10.6774972236854,1.1881329,0.732122,-0.3454443,280.59622,-77.16157,11.525454,WAL
19284110124000,1.449992,-0.639415731370986,16.0316465023256,11.2042303936877,0.5018258,0.61086524,-0.160963,279.91785,-76.98932,11.415474,WAL
19284115151000,1.455019,-1.7430170796722,17.1405793209302,11.3801670431894,-0.23976462,0.5018258,-0.10567969,279.30737,-76.69054,11.33985,WAL
19284120201000,1.460069,-2.96577099223816,17.8596133371979,11.0355148467282,-0.99387777,0.36651915,-0.1572978,278.69125,-76.275734,11.209904,WAL
19284125130000,1.464998,-4.22262952596777,18.3419497415013,10.4094044811358,-1.5790867,0.11636983,-0.30176744,278.17575,-75.75146,11.076427,WAL
19284130115000,1.469983,-4.53323789061757,18.6806796082406,9.80953524778761,-1.9575176,-0.12217305,-0.50579643,277.76974,-75.27591,10.7579155,WAL
19284135164000,1.475032,-4.17895053592159,18.9199389816348,9.22519169026549,-2.1545217,-0.34116822,-0.56291234,277.45648,-74.681404,10.461721,WAL
19284140138000,1.480006,-3.13560113214719,18.0613490197269,9.0718992947648,-2.2864685,-0.6591236,-0.50579643,277.40668,-74.24181,9.984169,WAL
19284145128000,1.484996,-1.38161235557284,16.0852787314112,9.34836772704856,-2.3674083,-1.1774428,-0.4813618,277.48956,-73.735634,9.5321865,WAL
19284150183000,1.490051,0.278974759753966,13.6158555671738,9.68416683187655,-2.3881776,-1.4740179,-0.45020768,277.66586,-73.23287,9.150155,WAL
19284155137000,1.495005,1.7278267317708,10.4775294441567,10.0988557100464,-2.3612995,-2.0500638,-0.42180246,278.06366,-72.69544,8.850571,WAL
19284160132000,1.5,2.64353552047425,7.99095801607054,9.88782525042343,-2.3005185,-2.4938574,-0.3191771,278.2841,-71.864845,8.87005,WAL
19284165146000,1.505014,3.07888939601475,6.09645096159211,9.11758378215602,-2.0934353,-2.6847527,-0.1459968,278.58154,-71.07826,8.947158,WAL
19284170204000,1.510072,3.34387810844029,5.3423239640714,7.50256572284743,-1.7910569,-2.5870142,0.036957346,278.64252,-70.051636,9.288808,WAL
19284175136000,1.515004,3.45227470696133,5.60327866220994,5.20616376718232,-1.4361442,-2.2785273,0.2171626,278.67328,-69.09653,9.665467,WAL
19284180115000,1.519983,3.49525892621926,6.05021066469362,3.17562751121301,-1.061073,-1.8781052,0.41263947,278.7081,-68.189674,10.101433,WAL
19284185208000,1.525076,3.20045580126094,7.44290170493956,2.56569002228012,-0.7305948,-1.4712689,0.6038403,278.63956,-67.35004,10.549234,WAL
19284190081000,1.529949,2.9161376625,8.838196,1.9440918625,-0.51893,-1.1099422,0.78038037,278.79807,-66.93776,11.0042095,WAL
19284195124000,1.534992,2.6147909843698,10.480535797005,1.18068009959443,-0.43310347,-0.8393288,0.9016371,278.8554,-66.56156,11.458445,WAL
19284200173000,1.540041,2.38004171648569,11.9638466252715,0.361035228805528,-0.46639562,-0.6417139,0.9957104,278.87747,-66.39067,11.857332,WAL
19284205135000,1.545003,2.28153009693978,13.1037659545903,-0.553715300197433,-0.5696318,-0.4810564,1.0656544,278.832,-66.21264,12.2463875,WAL
19284210098000,1.549966,2.16895806407134,13.7973122307987,-1.40811204118324,-0.6621779,-0.34422258,1.1001683,278.87772,-66.25313,12.553126,WAL
19284215146000,1.555014,2.02062179267427,13.4264717943235,-2.13125137634481,-0.6948592,-0.1881465,1.0705414,278.8828,-66.2801,12.830943,WAL
19284220149000,1.560017,1.8609973852349,12.8503949266321,-2.72413991934106,-0.70707655,0.063224554,0.93584555,279.0245,-66.50208,13.007078,WAL
19284225126000,1.564994,1.65743029127517,11.5369029328859,-2.8743917738255,-0.70157874,0.3109304,0.70524395,279.13684,-66.729706,13.126852,WAL
19284230142000,1.57001,1.47023246253717,10.2048518949058,-3.08080082473736,-0.71685034,0.55741453,0.4728097,279.3032,-67.02771,13.188605,WAL
19284235229000,1.575097,1.33504102611497,8.82879565717542,-3.45740565212091,-0.7266242,0.8454375,0.27214047,279.402,-67.349266,13.1682,WAL
19284240211000,1.580079,1.22610021956843,7.58546797345551,-3.70237703671298,-0.70096785,1.1643091,0.049480084,279.43323,-67.656975,13.068389,WAL
19284245127000,1.584995,1.18898948136762,6.67161655991723,-3.57248952566755,-0.5552765,1.4278975,-0.121256754,279.40897,-68.009514,12.910382,WAL
19284250178000,1.590046,1.17730839614677,5.86762672249008,-3.34986848234098,-0.29077184,1.5244142,-0.2657264,279.39282,-68.38209,12.724471,WAL
19284255134000,1.595002,1.26461508473231,5.58273133358505,-2.79845799183851,-0.1282817,1.6105462,-0.31123585,279.3075,-68.77435,12.50124,WAL
19284260112000,1.59998,1.34302141104893,5.35129452727929,-2.28015820222062,0.18081611,1.6212363,-0.3472769,279.18408,-69.20818,12.26805,WAL
19284265133000,1.605001,1.36038374622676,5.48151238104351,-1.99367878796714,0.4596761,1.6600263,-0.28893927,279.02176,-69.662384,12.043407,WAL
19284270147000,1.610015,1.37772187579888,5.61154869229103,-1.70759876743997,0.72234815,1.7531832,-0.20097467,278.76776,-70.082436,11.830539,WAL
19284275130000,1.614998,1.32939473706276,6.0265495673813,-1.49067684110754,0.97402465,1.8832976,-0.06688975,278.4849,-70.54187,11.646304,WAL
19284280811000,1.620679,1.26800463113445,6.52711558889853,-1.24983858530509,1.1963795,2.0320432,0.12156218,278.16104,-71.02389,11.498866,WAL
19284285189000,1.625057,1.08930616644643,7.13910401432662,-1.04837087493668,1.38025,2.1810944,0.3173445,277.7657,-71.48255,11.385109,WAL
19284290102000,1.62997,0.830244125492787,7.92665245002753,-0.815214967745843,1.4987578,2.317928,0.5326745,277.32303,-71.927704,11.325516,WAL
19284295125000,1.634993,0.482639081068591,8.67856608685725,-0.685895795232441,1.5696182,2.4480424,0.71593404,276.83517,-72.35516,11.282385,WAL
19284300290000,1.640158,0.103152949887661,9.43753828317655,-0.581988911270436,1.5989398,2.53112,0.8378017,276.32516,-72.75239,11.281601,WAL
19284305134000,1.645002,-0.221686842465605,10.1947673678908,-0.466797496390424,1.6194037,2.5207355,0.9230174,275.83383,-73.13675,11.270182,WAL
19284310150000,1.650018,-0.53912515505579,11.0065768914527,-0.336699823020258,1.6035212,2.4449883,0.9969321,275.34964,-73.47601,11.293168,WAL
19284315166000,1.655034,-0.72653312777336,11.5178140526839,-0.225826054532803,1.5778649,2.3130412,1.0296134,274.93634,-73.8368,11.270983,WAL
19284320175000,1.660043,-0.874353906021869,11.9374343142147,-0.120920986162624,1.5479325,2.1649065,1.0290025,274.56262,-74.16407,11.2704115,WAL
19284325137000,1.665005,-0.9920069121864,12.0585986220637,0.0549507486052306,1.5244142,1.9822577,0.9850202,274.24643,-74.52346,11.224667,WAL
19284330165000,1.670033,-1.10191202997242,12.0860749804089,0.256443487179838,1.4993688,1.7342464,0.8933904,274.00537,-74.866615,11.182273,WAL
19284335169000,1.675037,-1.12985219588443,11.9845786214924,0.332136642743712,1.5100589,1.4682146,0.75808376,273.80383,-75.23933,11.108475,WAL
19284340135000,1.680003,-1.11502418025359,11.8165278808979,0.34202198649761,1.5326608,1.2541064,0.59864795,273.6717,-75.61542,11.017164,WAL
19284345126000,1.684994,-0.981030943455246,11.54344053205,0.334774375181906,1.5604553,1.1615603,0.4111123,273.5502,-76.00651,10.881154,WAL
19284350647000,1.690515,-0.78256427786333,11.1973955172281,0.319507710232916,1.609019,1.0012082,0.22540927,273.52164,-76.42345,10.719469,WAL
19284355129000,1.694997,-0.663058436205375,10.9048996801043,0.285053092340554,1.6337591,0.9947941,0.14508049,273.47696,-76.83432,10.544535,WAL
19284360132000,1.7,-0.547744925367028,10.5733736675692,0.23700579448556,1.6618589,1.0192287,0.013439035,273.48273,-77.29153,10.315546,WAL
19284365130000,1.704998,-0.513782273655475,10.2528929666235,0.0246037198166783,1.7263051,1.0714576,-0.06627888,273.46475,-77.72114,10.116596,WAL
19284370107000,1.709975,-0.523279908986749,9.93947188333167,-0.27457105923782,1.8035797,1.1713341,-0.09101892,273.43225,-78.157524,9.901269,WAL
19284375125000,1.714993,-0.600828453445721,9.77165114088551,-0.388772573177103,1.9068159,1.2800682,-0.0720821,273.37933,-78.58241,9.700766,WAL
19284380174000,1.720042,-0.717277680288996,9.68655379084846,-0.397730208169692,1.9895881,1.3475688,-0.05131268,273.3148,-79.00106,9.500054,WAL
19284385158000,1.725026,-0.871680531670823,9.59703570324189,-0.315628620389027,2.0378466,1.3448198,-0.02076942,273.29312,-79.41828,9.314749,WAL
19284390115000,1.729983,-1.06583131358603,9.50232807710723,-0.140419389412868,2.0427334,1.2990049,0.007941248,273.2693,-79.810875,9.141295,WAL
19284395118000,1.734986,-1.19087362118227,9.47256176206897,0.0398782045241379,2.0201313,1.2379184,0.028099801,273.19302,-80.20112,8.968487,WAL
19284400149000,1.740017,-1.23834246926108,9.5152836262069,0.225006846852414,1.9804251,1.1010846,0.030543262,273.1574,-80.557014,8.807439,WAL
19284405095000,1.744963,-1.23452546319521,9.55330637483774,0.374261428089865,1.9804251,0.9935723,0.025961773,273.07004,-80.901886,8.633457,WAL
19284410118000,1.749986,-1.16728030773839,9.58692862656016,0.484735609905142,1.9370537,0.9184359,0.026267206,273.0176,-81.20734,8.468457,WAL
19284415677000,1.755545,-1.09077095729331,9.55838645098425,0.603506609872047,1.8915442,0.8576548,0.016493361,272.9414,-81.48358,8.305683,WAL
19284420548000,1.760416,-1.02189995541339,9.4757414980315,0.704517390255906,1.8466456,0.7415904,-0.01038471,272.9071,-81.73358,8.143974,WAL
19284425085000,1.764953,-0.91254649222206,9.39338173779209,0.759408651397141,1.8393153,0.62888575,-0.04520403,272.85495,-81.94579,7.995213,WAL
19284430143000,1.770011,-0.728231156188107,9.29413498877994,0.76649771512025,1.8148806,0.50671273,-0.0888809,272.8426,-82.1396,7.841051,WAL
19284445092000,1.78496,-0.160639908802494,8.99511981165351,0.713679740958784,1.7528778,0.39370266,-0.015577064,272.84073,-97.505905,7.482674,WAL
19284450159000,1.790027,0.099411970127643,8.87691449741791,0.477268939687226,1.7333301,0.42455134,0.0076358155,272.8167,-97.45837,7.3975563,WAL
19284455404000,1.795272,0.320806716845496,8.81105209377013,0.293894373632097,1.6777414,0.47586402,0.10415252,272.8017,-97.48468,7.375191,WAL
19284460055000,1.799923,0.419178058921505,8.86843525609644,0.257005112863716,1.5586227,0.5656612,0.13958271,272.76917,-97.50916,7.34404,WAL
19284465080000,1.804948,0.524927980483081,8.93172644761179,0.221085544297683,1.5149459,0.65148777,0.22021692,272.70538,-97.641754,7.400666,WAL
19284470065000,1.809933,0.623618809511479,9.00964019149168,0.231474059753019,1.4514158,0.732122,0.2929099,272.62192,-97.77976,7.4647427,WAL
19284475067000,1.814935,0.6974061060941,9.08340928254917,0.259829722262385,1.3866642,0.8045095,0.36285394,272.53342,-97.95375,7.566573,WAL
19284480069000,1.819937,0.690251042076176,9.14303481603186,0.34569055522828,1.3439035,0.88208944,0.42149702,272.4255,-98.14033,7.683428,WAL
19284485056000,1.824924,0.683117434667663,9.20248154443615,0.43129390868708,1.2858714,0.95386606,0.48533243,272.24725,-98.36193,7.837644,WAL
19284490045000,1.829913,0.675980966377894,9.26195211351755,0.516931592746826,1.2412782,1.010982,0.52290064,272.05795,-98.58402,7.996449,WAL
19284495044000,1.834912,0.653675700364395,9.31651525365344,0.58811483502657,1.2027937,1.0522153,0.5537493,271.8327,-98.815765,8.167145,WAL
19284500086000,1.839954,0.575779833793889,9.35317238308977,0.606443251422471,1.1554517,1.0888673,0.5751296,271.59985,-99.04188,8.34046,WAL
19284505098000,1.844966,0.500297414951386,9.38059525043162,0.612101964792367,1.0968086,1.1319333,0.5983425,271.33755,-99.251366,8.518862,WAL
19284510123000,1.849991,0.439077216677874,9.34123906687869,0.52464453151204,1.0262536,1.1798862,0.6102544,271.06943,-99.448524,8.694249,WAL
19284515137000,1.855005,0.377991032768741,9.30196903616538,0.437378547339391,0.95722586,1.2263119,0.6169739,270.727,-99.65376,8.87433,WAL
19284520167000,1.860035,0.315852918836793,9.27247467686501,0.320105260726135,0.9062186,1.2892311,0.625526,270.37344,-99.848,9.05285,WAL
19284525080000,1.864948,0.255093896151783,9.24443197367637,0.203260987833515,0.8509353,1.3536774,0.6236934,270.01276,-100.02458,9.224561,WAL
19284530163000,1.870031,0.230129050716815,9.18501456722824,-0.0584638423682799,0.8206975,1.4114041,0.6227771,269.65527,-100.19226,9.383124,WAL
19284535231000,1.875099,0.211998441683967,9.12931436833619,-0.318979176801371,0.8008443,1.457219,0.6053675,269.2884,-100.34275,9.5317545,WAL
19284540133000,1.880001,0.230922355060969,9.16716197772851,-0.361557989309685,0.8353582,1.502423,0.5910121,268.87473,-100.509926,9.674685,WAL
19284545227000,1.885095,0.247060742660713,9.21492839719305,-0.392931988124448,0.8891144,1.5125023,0.5882632,268.48325,-100.68921,9.806853,WAL
19284550152000,1.89002,0.223915306626754,9.35380140975562,-0.281833887427618,0.9682214,1.4746287,0.5864306,268.09985,-100.866005,9.931435,WAL
19284555435000,1.895303,0.192548639240121,9.49956956465151,-0.175107525324908,0.9993755,1.3665055,0.6197228,267.72565,-101.05965,10.066329,WAL
19284560140000,1.900008,0.099056678508724,9.59731091426955,-0.204854973245308,1.0384709,1.2409728,0.63346726,267.375,-101.2524,10.19046,WAL
19284566011000,1.905879,-0.0189101502039339,9.72883072518092,-0.239061204746706,1.0684034,1.0699304,0.6963864,267.03845,-101.46233,10.3359,WAL
19284570139000,1.910007,-0.114276587693635,9.9122276002969,-0.235393259584338,1.0830641,1.0228939,0.71929383,266.70868,-101.66235,10.470028,WAL
19284575129000,1.914997,-0.229557237663017,10.1339210128039,-0.230959382074596,1.0998629,0.9138544,0.77732605,266.461,-101.87617,10.607253,WAL
19284580187000,1.920055,-0.426150255149116,10.2768621321797,-0.246601010964654,1.1337659,0.8210029,0.8313876,266.2282,-102.093445,10.7454195,WAL
19284585207000,1.925075,-0.647411158738954,10.3919182772459,-0.268727104558174,1.1670581,0.77518797,0.88270026,266.01993,-102.321205,10.89376,WAL
19284590213000,1.930081,-0.922233712091898,10.3014251269649,-0.378058041837969,1.1954633,0.77213365,0.93737274,265.79535,-102.56343,11.045647,WAL
19284595129000,1.934997,-1.22876988383406,10.07371203795,-0.544463384373547,1.2253957,0.8436049,0.97341377,265.56778,-102.81273,11.203855,WAL
19284600155000,1.940023,-1.54038299571689,9.82802166131277,-0.716781751418782,1.2415836,0.9779953,0.9486737,265.3163,-103.046326,11.337409,WAL
19284605147000,1.945015,-1.84752997419424,9.56694738440947,-0.890831714798158,1.2592987,1.1728612,0.8918633,265.03043,-103.27957,11.472832,WAL
19284610123000,1.949991,-2.00457200875993,9.46462733819996,-0.895811086989466,1.2632693,1.3713925,0.8216137,264.73788,-103.49764,11.5655365,WAL
19284615112000,1.95498,-2.04430661389762,9.48670211883201,-0.767777267122528,1.2620476,1.5402967,0.76052725,264.3991,-103.70195,11.648441,WAL
19284620142000,1.96001,-2.0209426929573,9.56967891753872,-0.522763777670573,1.2498302,1.7088956,0.7324274,264.02792,-103.89862,11.700046,WAL
19284625130000,1.964998,-1.90097007047928,9.74463891586438,-0.102859478943072,1.1820242,1.8261817,0.70616025,263.62372,-104.06981,11.738561,WAL
19284630137000,1.970005,-1.78736432255366,10.0292334135846,0.404532520511942,1.0940597,1.8567249,0.6621779,263.17596,-104.20322,11.763795,WAL
19284635185000,1.975053,-1.68018281389701,10.4335999358057,1.00864637295173,0.99112886,1.7693712,0.5891795,262.7297,-104.30621,11.7721,WAL
19284640686000,1.980554,-1.70239257603646,10.8103763124571,1.49114351471136,0.872621,1.6917913,0.5143485,262.2035,-104.338684,11.787052,WAL
19284645127000,1.984995,-1.8107720406057,11.0729877069489,1.76626057020484,0.72356987,1.473407,0.46975538,261.74493,-104.33477,11.77873,WAL
19284650166000,1.990034,-2.0273972028418,11.2856358819962,1.8073016269624,0.6386596,1.2409728,0.42119157,261.15472,-104.2662,11.7876,WAL
19284655130000,1.994998,-2.34866416905216,11.3968437607001,1.53546039417779,0.453262,1.10139,0.4364632,260.60498,-104.159805,11.793189,WAL
19284660096000,1.999964,-2.68657199668799,11.4746042752786,1.23078574738341,0.25809056,1.0458013,0.47067168,260.0255,-103.99297,11.780733,WAL
19284665115000,2.004983,-3.12795384546017,11.3506206826248,0.724932295790342,0.116675265,1.0671816,0.4822781,259.4666,-103.80686,11.759963,WAL
19284670137000,2.010005,-3.48465331339513,11.2155216681267,0.292521362016909,0.036957346,1.1038336,0.43890667,258.9834,-103.5859,11.668214,WAL
19284675280000,2.015148,-3.52479061187736,11.0349037201793,0.131972049689518,0.044593163,1.1734722,0.39706242,258.48566,-103.36321,11.58019,WAL
19284680165000,2.020033,-3.48317640317328,10.8888390989916,0.0900985335241003,0.0983493,1.2635747,0.39584067,258.04315,-103.155716,11.442813,WAL
19284685232000,2.0251,-3.20483506287353,10.8125195502822,0.372929302390045,0.15393804,1.319469,0.41416663,257.58835,-102.94509,11.300774,WAL
19284690212000,2.03008,-2.93506575288052,10.7591941584531,0.671794229051066,0.17501289,1.310306,0.44501534,257.14612,-102.75933,11.161412,WAL
19284695126000,2.034994,-2.70174684021815,10.8945189455627,1.14776483914328,0.14660765,1.2263119,0.4709771,256.7088,-102.57762,11.025776,WAL
19284700214000,2.040082,-2.46051527036001,11.0851139527204,1.63208814101778,0.08582657,1.1215485,0.4804455,256.20392,-102.41554,10.9476185,WAL
19284705132000,2.045,-2.23103481409366,11.8033030313092,2.0103059037535,-0.02565634,1.0348058,0.48258355,255.71896,-102.24741,10.870937,WAL
19284711089000,2.050957,-1.95251921759145,12.6555435758323,2.44608488756679,-0.1572978,0.9868528,0.45265114,255.13638,-102.06105,10.833874,WAL
19284715130000,2.054998,-1.7536912216605,12.9179968094945,2.34269437452733,-0.31215215,0.979217,0.4129449,254.56905,-101.86064,10.788368,WAL
19284720166000,2.060034,-1.5059065674887,13.2450729007398,2.21384641024455,-0.4654793,1.0057896,0.35246924,253.88,-101.643616,10.770511,WAL
19284725132000,2.065,-1.29279894234583,13.3751231287414,2.14401064022719,-0.6230826,1.0519099,0.2687807,253.19281,-101.40855,10.726434,WAL
19284730129000,2.069997,-1.0813934510458,13.487297038947,2.07929462477461,-0.7715228,1.0772609,0.1704314,252.50925,-101.15803,10.652893,WAL
19284735210000,2.075078,-0.825785607259605,13.6546429051157,1.99113110966886,-0.904386,1.047023,0.06352998,251.8267,-100.93297,10.580613,WAL
19284740085000,2.079953,-0.563165414625345,13.8379816070898,1.89698426319253,-1.0598512,1.0100657,0.022907447,251.14685,-100.71038,10.491751,WAL
19284745129000,2.084997,-0.203984679325496,14.0137770146464,1.71785652509154,-1.1618657,0.9257663,-0.057726767,250.47838,-100.50635,10.3877535,WAL
19284750187000,2.090055,0.178751685303527,14.1864752065909,1.51715330129119,-1.3552046,0.818254,-0.12889257,249.83713,-100.31037,10.266981,WAL
19284755135000,2.095003,0.499623896712929,14.2820623338203,1.35248436712929,-1.5525141,0.7150178,-0.22113322,249.21033,-100.157845,10.152413,WAL
19284760111000,2.099979,0.802963722988626,14.3516816780758,1.19832811560054,-1.7437148,0.62888575,-0.27458394,248.62021,-79.97358,10.021594,WAL
19284765106000,2.104974,0.984083267181314,14.2010436888361,1.16073480091053,-1.9199494,0.5561928,-0.2929099,248.07599,-80.03302,9.923151,WAL
19284770137000,2.110005,1.1366752797407,13.9959975760095,1.15119775966944,-2.1096232,0.48075095,-0.26816985,247.56769,-80.05601,9.815926,WAL
19284775132000,2.115,1.29726982371036,13.6777055991481,1.19576380189304,-2.3185391,0.4166101,-0.22327125,247.1063,-80.00273,9.741322,WAL
19284780496000,2.120364,1.47231184203502,13.3033100765736,1.25897345205868,-2.5421157,0.3622431,-0.17501289,246.67276,-79.89391,9.6691675,WAL
19284785184000,2.125052,1.68145886499549,13.0344678432768,1.33972448236238,-2.73576,0.32620203,-0.105374254,246.24164,-79.68299,9.647973,WAL
19284790207000,2.130075,1.92745501415823,12.7691780957585,1.43619353182593,-2.9022207,0.31337386,-0.04062254,245.82742,-79.41013,9.631491,WAL
19284795135000,2.135003,2.31253834806392,12.4488159743162,1.66723179427507,-3.00057,0.3295618,0.018020526,245.41972,-79.05283,9.64864,WAL
19284800211000,2.140079,2.77478246436624,12.0914105399471,1.96745214020194,-3.0952542,0.36865717,0.074830994,245.0155,-78.63552,9.673912,WAL
19284805138000,2.145006,3.23956953348124,11.8135031586766,2.19340554873155,-3.1905491,0.4269948,0.11911872,244.59518,-78.123405,9.751295,WAL
19284810127000,2.149995,3.71887725357384,11.5692409101958,2.38697215576348,-3.287066,0.4718934,0.14630222,244.17505,-77.576744,9.82758,WAL
19284815134000,2.155002,4.14197033952,11.4506118480941,2.43233761749647,-3.37106,0.5314528,0.15210545,243.72871,-76.94206,9.946421,WAL
19284820179000,2.160047,4.52394302992,11.4278753982118,2.36412822036706,-3.4437528,0.6093381,0.14477506,243.27417,-76.28942,10.053772,WAL
19284825104000,2.164972,4.8828862353338,11.513380704692,2.16689475160202,-3.487735,0.6988298,0.116980694,242.88708,-75.548584,10.202238,WAL
19284830139000,2.170007,5.23205816614423,11.7381901333201,1.79859002057336,-3.5011742,0.8081747,0.10415252,242.48022,-74.80277,10.337974,WAL
19284835191000,2.175059,5.51736197010177,11.9134778921055,1.37354741719988,-3.481321,0.8713993,0.11209377,242.12952,-74.03107,10.517693,WAL
19284840197000,2.180065,5.7163090460824,12.0224247941903,0.880916725849224,-3.436117,1.0348058,0.12736541,241.72627,-73.2738,10.674693,WAL
19284845077000,2.184945,5.8050229126668,12.0350587661961,0.455682668400696,-3.3774738,1.2211196,0.16707164,241.35681,-72.54572,10.89294,WAL
19284850182000,2.19005,5.73411366300522,11.9026950309418,0.0964088702281957,-3.2296445,1.4156802,0.20463985,240.94246,-71.861984,11.091897,WAL
19284855111000,2.194979,5.58362974575342,11.7631832360583,-0.127075724024746,-3.021034,1.5906931,0.23457226,240.51492,-71.25609,11.336294,WAL
19284860163000,2.200031,5.26293570630137,11.5964221408749,-0.105696124371189,-2.7892108,1.7348573,0.23518312,240.04553,-70.70491,11.556495,WAL
19284865186000,2.205054,4.91676696380448,11.4254182792257,-0.0750433471936844,-2.5531113,1.7751744,0.21960606,239.56285,-70.24511,11.785771,WAL
19284870139000,2.210007,4.27556000395804,11.1997131705418,0.0583276965978155,-2.3420575,1.7571539,0.19181168,239.06458,-69.84735,11.990716,WAL
19284875134000,2.215002,3.65254377996288,10.9715538899013,0.207849752076268,-2.1749856,1.6646078,0.15882497,238.56458,-69.49752,12.151865,WAL
19284880140000,2.220008,3.11055776354509,10.7410080144267,0.410083316716443,-2.0060816,1.5192219,0.11789699,238.09549,-69.21122,12.29798,WAL
19284885209000,2.225077,2.56175090832701,10.5075607425968,0.614861970164515,-1.9016235,1.3652838,0.048563786,237.62497,-68.95868,12.357682,WAL
19284890233000,2.230101,2.15990288856691,10.2789867446435,0.894697275711275,-1.8044959,1.2202033,0.048563786,237.433837800444,-68.8623472607554,12.3888904669764,WAL
19284895111000,2.234979,1.7907063955216,10.0574686603442,1.17774798034773,-1.7614299,1.0656544,-0.038179077,237.24826,-68.768814,12.419192,WAL
19284900186000,2.240054,1.09731015263648,9.82932095705459,1.70263466885445,-1.7143933,0.8784242,-0.093767814,236.89276,-68.59249,12.4683275,WAL
19284905137000,2.245005,0.199248588591107,9.60840746743644,2.37978268310544,-1.724778,0.6035349,-0.15088372,236.59982,-68.43246,12.445507,WAL
19284910126000,2.249994,-0.346659393302297,9.55493068301262,2.69725619894475,-1.6881261,0.13958271,-0.25411993,236.3776,-68.26999,12.375484,WAL
19284915106000,2.254974,-0.652570283060211,9.61413941051107,2.77126685071384,-1.6142114,-0.25320363,-0.41080686,236.2248,-68.134834,12.29284,WAL
19284920194000,2.260062,-0.776030896617779,9.54019604898733,2.72830638296917,-1.5855007,-0.5326745,-0.52106804,236.06595,-67.95205,12.093475,WAL
19284925113000,2.264981,-0.804231033337324,9.4038956286541,2.62960600751272,-1.566564,-0.70707655,-0.56382865,235.9938,-67.79749,11.8995905,WAL
19284930287000,2.270155,-0.75013401003851,9.15207831202465,2.46433086140368,-1.5861117,-0.79412484,-0.5983425,235.99136,-67.62954,11.664378,WAL
19284935229000,2.275097,-0.659003601406566,8.8604608217002,2.27751350776933,-1.5613716,-0.81122905,-0.61911196,236.01733,-67.4791,11.436593,WAL
19284940228000,2.280096,-0.508898423290926,8.57593833049579,2.09448082229186,-1.5027285,-0.8142834,-0.6178902,236.09041,-67.31791,11.224581,WAL
19284945140000,2.285008,-0.324077700881197,8.30310728690365,1.91846107134705,-1.4575244,-0.81092364,-0.63041294,236.16608,-67.163574,11.009697,WAL
19284950207000,2.290075,-0.0941117695778591,7.98562292052552,1.77436798283437,-1.3478742,-0.76174897,-0.6218608,236.27022,-67.01879,10.833493,WAL
19284955142000,2.29501,0.175634262217316,7.63444447286237,1.67766653560198,-1.2498302,-0.6795876,-0.5885687,236.35956,-66.881584,10.6613245,WAL
19284960142000,2.30001,0.416719314441093,7.31564674718947,1.62728069733114,-1.1585059,-0.59864795,-0.55771995,236.45859,-66.77068,10.533492,WAL
19284965757000,2.305625,0.662463605136642,6.98634939868385,1.60762116639247,-1.0763446,-0.52106804,-0.52106804,236.52896,-66.67872,10.411368,WAL
19284970142000,2.31001,0.868397992567325,6.77289322549372,1.59586048298025,-0.9923506,-0.45112398,-0.4908302,236.5831,-66.599396,10.346619,WAL
19284975136000,2.315004,1.12169855897666,6.58828423249551,1.58727403070018,-0.93523467,-0.3903429,-0.4718934,236.61378,-66.53292,10.283499,WAL
19284980137000,2.320005,1.36577400544787,6.40766960772114,1.5748503569594,-0.8588765,-0.3408628,-0.46120325,236.61024,-66.48018,10.281117,WAL
19284985157000,2.325025,1.56517811951025,6.24661237552844,1.54417277938901,-0.78984874,-0.30085114,-0.45570546,236.59105,-66.44012,10.277239,WAL
19284990130000,2.329998,1.76271530262423,6.08706304969291,1.51378242216639,-0.72387534,-0.28313604,-0.47219884,236.64737,-66.329,10.370675,WAL
19284995134000,2.335002,1.94997042484143,5.9216478500994,1.48543859699896,-0.65270954,-0.2764165,-0.48930305,236.69452,-66.2403,10.459332,WAL
19285000241000,2.340109,2.1351782480072,5.7503308445328,1.4576574936287,-0.5720753,-0.26236662,-0.5002986,236.73534,-66.17549,10.539852,WAL
19285005137000,2.345005,2.27545158859667,5.62637213408099,1.43029558222509,-0.49418998,-0.28252518,-0.52473325,236.81396,-66.10615,10.674423,WAL
19285010126000,2.349994,2.38925550123065,5.53153528439857,1.40184456693132,-0.4071417,-0.3145956,-0.56291234,236.89453,-66.065956,10.7977705,WAL
19285015108000,2.354976,2.474579176042,5.45501658050695,1.35885125707922,-0.32162055,-0.3491095,-0.57818395,237.01025,-66.02564,10.957082,WAL
19285020170000,2.360038,2.53627534097996,5.39332052293987,1.30229633184855,-0.24037547,-0.37568212,-0.5900958,237.13588,-66.01312,11.105047,WAL
19285025135000,2.365003,2.542210994405,5.33411823635331,1.26849572530531,-0.16340645,-0.41172317,-0.6047566,237.3035,-66.00701,11.272034,WAL
19285030140000,2.370008,2.51952241918962,5.27512798817571,1.24580719747231,-0.08307768,-0.410196,-0.623388,237.46906,-66.02582,11.428739,WAL
19285035686000,2.375554,2.46652350290404,5.20549029760101,1.26817723522727,-0.004886922,-0.4034765,-0.6414085,237.65326,-66.06708,11.592731,WAL
19285040128000,2.379996,2.40833521917088,5.14730173343855,1.31293753617424,0.07819075,-0.4007276,-0.6426302,237.83774,-66.129654,11.751892,WAL
19285045134000,2.385002,2.30500250604104,5.11474446306966,1.41079866316601,0.11789699,-0.37751472,-0.65240407,238.01625,-66.204124,11.895398,WAL
19285050189000,2.390057,2.1790664275171,5.10075157627903,1.53673469298584,0.18295415,-0.35643986,-0.65240407,238.19334,-66.30244,12.0371895,WAL
19285055138000,2.395006,2.030904672097,5.0921424734353,1.67945948831757,0.24831672,-0.32834008,-0.65240407,238.37572,-66.38679,12.160942,WAL
19285060137000,2.400005,1.86229868379956,5.08732506319179,1.83843085733548,0.29535335,-0.28710666,-0.6478226,238.54729,-66.48028,12.279128,WAL
19285065108000,2.404976,1.69226273230769,5.11382632777778,1.98881632871795,0.364992,-0.23151793,-0.6395759,238.6961,-66.57153,12.3659525,WAL
19285070195000,2.410063,1.51645514273504,5.16471830864197,2.13686484045584,0.42149702,-0.17501289,-0.643852,238.83282,-66.67038,12.444132,WAL
19285075135000,2.415003,1.37033217248452,5.23199984491099,2.28627360694659,0.47311515,-0.13439035,-0.64721173,238.93207,-66.76791,12.481202,WAL
19285080143000,2.420011,1.24968811520898,5.32016269057663,2.44403883434598,0.5360342,-0.115453534,-0.6731735,239.02321,-66.88335,12.506676,WAL
19285085211000,2.425079,1.14199483677278,5.40254895126235,2.56981144972558,0.5946773,-0.115453534,-0.68416905,239.08557,-66.99807,12.487371,WAL
19285090135000,2.430003,1.05729152149486,5.47313496543259,2.64510329644746,0.6453791,-0.16890424,-0.7089091,239.16019,-67.1287,12.461529,WAL
19285095080000,2.434948,0.955232897307506,5.54320412069734,2.67490463262954,0.68325275,-0.27885997,-0.7309003,239.22809,-67.26185,12.403359,WAL
19285100178000,2.440046,0.82283272696368,5.61413292798063,2.63234746676029,0.72692966,-0.3747658,-0.7703011,239.30966,-67.41087,12.33969,WAL
19285105423000,2.445291,0.624618558715769,5.69749148838468,2.47411404667947,0.7687739,-0.47494772,-0.79473567,239.41539,-67.56035,12.267411,WAL
19285110133000,2.450001,0.353009663292085,5.78802772575268,2.15920514834628,0.81061816,-0.5338962,-0.8185594,239.538,-67.72193,12.192693,WAL
19285115341000,2.455209,0.0462878975833333,5.8837507,1.83156429583333,0.8695667,-0.5403103,-0.8396343,239.67809,-67.914085,12.090789,WAL
19285120150000,2.460018,-0.305134776652209,5.9253665113253,1.7483326248996,0.93431836,-0.4978552,-0.8582657,239.82066,-68.11567,11.988123,WAL
19285125246000,2.465114,-0.674580555519847,5.96904570952836,1.67085625755233,1.0137309,-0.4447099,-0.8753699,239.98918,-68.43631,11.803175,WAL
19285130115000,2.469983,-0.99049284642578,6.00549706589942,1.73160863094762,1.0961977,-0.41416663,-0.9294315,240.15573,-68.77492,11.6064005,WAL
19285135195000,2.475063,-1.3200953187614,6.04352805591071,1.79499373196387,1.1487321,-0.33017266,-0.9602802,240.27773,-69.162254,11.334385,WAL
19285140210000,2.480078,-1.5925617190874,6.045840015213,1.93399712623026,1.2666291,-0.22632557,-1.0326678,240.39307,-69.59213,11.037799,WAL
19285145096000,2.484964,-1.84173107654242,6.03724793127984,2.09294998368527,1.3836098,-0.092240654,-1.1139128,240.47894,-70.03222,10.7268505,WAL
19285150189000,2.490057,-1.90814525209903,6.14719640688913,2.44176620796555,1.5152513,0.0852157,-1.1911873,240.49075,-70.52107,10.326078,WAL
19285155140000,2.495008,-1.83037227229996,6.34162891983187,2.91569514421036,1.641395,0.30482176,-1.271516,240.46017,-71.039,9.896109,WAL
19285160129000,2.499997,-1.75200236799426,6.53755374452817,3.39326158794403,1.7672331,0.537256,-1.3255776,240.3403,-71.57932,9.389355,WAL
19285165108000,2.504976,-1.67378954908504,6.73308585560511,3.86987079286483,1.8677205,0.7504479,-1.3542882,240.1704,-72.13755,8.8633375,WAL
19285170167000,2.510035,-1.52452093523002,7.01145164225182,4.40548187384988,1.9098701,0.9309586,-1.3326025,239.94693,-72.69684,8.333325,WAL
19285175133000,2.515001,-1.3435653748357,7.32401118410585,4.9565740615358,1.9272798,1.0729848,-1.2840388,239.67719,-73.25828,7.8026237,WAL
19285180140000,2.520008,-1.13686757736977,7.66535446968403,5.545707323655,1.8903224,1.1453724,-1.2134838,239.29651,-73.616646,7.3304157,WAL
19285185257000,2.525125,-0.880545860760034,8.06291445356533,6.21005101686593,1.8408424,1.128879,-1.1255192,238.9021,-73.948456,6.887781,WAL
19285190207000,2.530075,-0.769069073813291,8.47398103085443,6.76682455537975,1.7650951,1.063211,-1.0290025,238.45053,-74.12415,6.5168304,WAL
19285195132000,2.535,-0.793945544936709,8.90931925386779,7.23533145850914,1.6786577,0.93523467,-0.93492925,238.02145,-74.26139,6.185938,WAL
19285200181000,2.540049,-0.901999646369744,9.44116843899003,7.73159873938015,1.591304,0.7443393,-0.8594874,237.58444,-74.29602,5.8927655,WAL
19285205138000,2.545006,-1.3084047490117,10.2745562750325,8.27690172158648,1.4724907,0.49388456,-0.8002335,237.20163,-74.28601,5.6416645,WAL
19285210084000,2.549952,-1.77840863028804,11.1515334847251,8.73098549675104,1.3304645,0.18753563,-0.7492262,236.83813,-74.19998,5.395877,WAL
19285215108000,2.554976,-2.37569075120745,12.1267829511202,9.02495990388905,1.1563679,-0.13652839,-0.7156286,236.55429,-74.07062,5.1879377,WAL
19285220213000,2.560081,-3.0165629632056,13.116637971924,9.22169916747119,0.93523467,-0.42149702,-0.691194,236.29181,-73.879776,4.9340515,WAL
19285225132000,2.565,-3.70803572406659,14.0679932151512,9.18921419032608,0.7415904,-0.65668017,-0.6826419,236.11227,-73.653534,4.715411,WAL
19285230161000,2.570029,-4.4260253900167,14.9873620565,9.14191683983492,0.51007247,-0.7538077,-0.7257079,235.93607,-73.39783,4.4094205,WAL
19285235297000,2.575165,-5.18965547888376,15.7799906362386,9.05492076161934,0.40011674,-0.9450085,-0.81581056,235.86136,-73.13269,4.1329904,WAL
19285240158000,2.580026,-5.77115030291971,16.3945447408759,9.02167638084435,0.16554448,-1.1523973,-0.8594874,235.82042,-72.84422,3.782156,WAL
19285245132000,2.585,-5.91680862846715,16.5918890985401,9.14384160850266,-0.062002823,-1.357648,-0.9114109,235.8436,-72.536835,3.4402761,WAL
19285250182000,2.59005,-5.84466275124023,16.6105152037448,9.21493963526687,-0.2837469,-1.6120734,-0.9101892,235.94145,-72.24182,3.0312824,WAL
19285255234000,2.595102,-4.95276382071229,15.9520973714892,9.08886002943731,-0.50885075,-1.8487836,-0.829555,236.08942,-71.88116,2.670633,WAL
19285260111000,2.599979,-4.07508777245431,15.2339685058747,8.94663816906005,-0.7147123,-2.021353,-0.70341134,236.26642,-71.46873,2.3385477,WAL
19285265139000,2.605007,-3.05582749725849,13.9273397453376,8.6592699650317,-0.8509353,-2.169488,-0.58001655,236.49048,-71.01783,2.067771,WAL
19285270437000,2.610305,-1.99043554544041,12.5486144298964,8.3518665611399,-0.9245446,-2.31915,-0.47067168,236.7621,-70.53711,1.9435937,WAL
19285275134000,2.615002,-1.20732469160622,11.2900430584456,7.99294031709845,-0.95325524,-2.4346035,-0.3640757,237.04584,-70.044106,1.8725648,WAL
19285280193000,2.620061,-0.381413110716785,9.9631684636609,7.59671221683495,-0.9428705,-2.5335636,-0.26328292,237.37823,-69.543304,1.9503324,WAL
19285285220000,2.625088,0.200937726751974,9.03429490227932,7.07211514155753,-0.9098838,-2.5961773,-0.16737708,237.71368,-69.05681,2.0645895,WAL
19285290878000,2.630746,0.787856928484071,8.11165921954828,6.46467607653615,-0.84696466,-2.6340508,-0.09407325,238.08463,-68.59886,2.2744882,WAL
19285295133000,2.635001,0.996848394111845,7.83434350793964,5.95023570717033,-0.75502944,-2.6532931,-0.03176499,238.45074,-68.17246,2.5086143,WAL
19285300529000,2.640397,1.18142360798346,7.66060657938772,5.21676309247956,-0.6478226,-2.669481,0.029932396,238.91287,-67.80066,2.8011997,WAL
19285305135000,2.645003,0.720101585296634,8.88101353051911,3.96699970094124,-0.50885075,-2.6908615,0.0983493,239.36731,-67.470825,3.1126869,WAL
19285310120000,2.649988,0.220820151711352,10.2018404196615,2.6144008067123,-0.3539964,-2.6648996,0.17562376,239.85307,-67.242096,3.468182,WAL
19285315109000,2.654977,0.0265042148441788,11.509421629557,1.42957394155037,-0.22296582,-2.5537221,0.269697,240.30644,-67.04837,3.8348942,WAL
19285320171000,2.660039,-0.144526820347903,12.8349115880047,0.241858476983536,-0.11484267,-2.2971587,0.34483343,240.70255,-66.894104,4.192721,WAL
19285325238000,2.665106,-0.261151025321101,14.1267855565749,-1.01391151168196,-0.06536258,-1.9101756,0.40103304,241.0786,-67.03058,4.519105,WAL
19285330104000,2.669972,-0.366884179473217,15.3634038288448,-2.22754436866923,-0.08979719,-1.6978999,0.41783184,241.43112,-67.174355,4.837018,WAL
19285335165000,2.675033,-0.418718242958988,16.1111882541204,-2.73416923008816,-0.1020145,-1.1994339,0.4334089,241.77853,-67.5188,5.0978894,WAL
19285340082000,2.67995,-0.459327904267919,16.7474068749521,-3.09965616302223,-0.13072516,-0.66614854,0.39645153,242.06479,-67.8473,5.316044,WAL
19285345147000,2.685015,-0.0761447140477816,16.2250247131156,-3.08448545487079,-0.18967366,-0.17501289,0.33108896,242.39322,-68.36288,5.481504,WAL
19285350182000,2.69005,0.436375531412969,15.3410441733788,-2.94812685331058,-0.29901853,0.24037547,0.22510384,242.60419,-68.84548,5.57523,WAL
19285355153000,2.695021,1.1221938780187,13.7229933967732,-3.11047126837941,-0.49235737,0.6236934,0.06658431,242.75629,-69.34964,5.5904346,WAL
19285360753000,2.700621,1.97092863498099,11.5846232395437,-3.41910205247148,-0.6957755,1.0070114,-0.12644911,242.80313,-69.8116,5.528048,WAL
19285365146000,2.705014,2.60243107797793,9.99033766358578,-3.88514590363105,-0.829555,1.3817772,-0.30207285,242.73105,-70.18908,5.4518423,WAL
19285370207000,2.710075,3.3246775432802,8.16643641233613,-4.45654325688956,-0.88025683,1.767844,-0.43768495,242.56305,-70.53126,5.302128,WAL
19285375154000,2.715022,4.21428491064558,6.87283674297512,-4.31256737304865,-0.806953,2.043955,-0.56077427,242.36525,-70.8246,5.1855164,WAL
19285380219000,2.720087,5.22066444705408,5.80294774851445,-3.79960698569846,-0.6404922,2.0754147,-0.6542367,242.14075,-71.1294,5.0336194,WAL
19285385197000,2.725065,6.27648855869827,5.53365135106468,-3.09071142740056,-0.46578476,1.8832976,-0.70280045,242.004,-71.42712,4.969167,WAL
19285390141000,2.730009,7.35603231185215,5.62876544925673,-2.29175407521093,-0.32467487,1.5558738,-0.6239988,241.88966,-71.756096,4.9275975,WAL
19285395120000,2.734988,8.23192846539947,6.1633726966142,-1.40889985594694,-0.16126843,1.1646146,-0.43279803,241.84741,-72.014084,5.035532,WAL
19285400163000,2.740031,9.0160599971488,6.91881694238194,-0.476547819213939,0.03604105,0.7538077,-0.16737708,241.88126,-72.30415,5.218558,WAL
19285405137000,2.745005,9.35887273767358,7.41302871902797,-0.0996477474924532,0.24281894,0.38698313,0.1863139,241.97525,-72.49487,5.6239424,WAL
19285410140000,2.750008,9.47940234755484,7.7794373536929,-0.00322439184544174,0.44440445,0.1740966,0.6389651,242.10257,-72.68301,6.1515493,WAL
19285415137000,2.755005,8.70569897117583,7.91040051756287,-0.254138993519531,0.6606508,0.106901415,1.0048733,242.24075,-72.76538,6.8410544,WAL
19285420205000,2.760073,7.47072947669218,7.92487280333963,-0.683483763725276,0.91354895,0.15577064,1.2333369,242.37038,-72.82989,7.6186657,WAL
19285425143000,2.765011,5.97934862678612,8.30424309367463,-1.12239419397293,1.1490375,0.23396139,1.3826935,242.48639,-72.84887,8.478907,WAL
19285430614000,2.770482,4.16623128334728,8.92838872384937,-1.62016328979079,1.241889,0.70829827,1.4767667,242.45515,-72.80963,9.343321,WAL
19285440167000,2.780035,1.00031829086488,10.0182193224711,-2.48932581443859,1.4117095,1.393689,1.5247196,242.25336,-72.878586,10.790349,WAL
19285445181000,2.785049,-0.533903049068108,10.8608317422512,-2.93617980223287,1.4123205,1.8029687,1.4874569,242.06346,-73.06046,11.220987,WAL
19285450129000,2.789997,-1.96398741830954,11.8705869722675,-3.37100270700449,1.3900238,2.0906863,1.4398094,241.78781,-73.201256,11.626211,WAL
19285455160000,2.795028,-2.95586681416135,12.6196796568002,-3.51028960123815,1.423316,2.289523,1.3460416,241.46925,-73.54642,11.729738,WAL
19285460147000,2.800015,-3.6719364827336,13.2017756301993,-3.47333119411879,1.4737124,2.4474316,1.2250903,241.10178,-73.876755,11.802377,WAL
19285465133000,2.805001,-4.02956630021912,13.4500474460159,-3.11914113537849,1.4752395,2.5488353,1.128879,240.6412,-74.36734,11.712785,WAL
19285470137000,2.810005,-4.11070954938247,13.4405009703187,-2.51772532756972,1.4376713,2.5622742,1.0687088,240.17609,-74.849335,11.606082,WAL
19285475154000,2.815022,-4.03850154833235,13.172222175153,-1.83336975127294,1.3762794,2.4556782,1.0012082,239.69281,-75.400024,11.3854475,WAL
19285480231000,2.820099,-3.84178969145451,12.6924369078844,-1.07530887368265,1.3041973,2.225382,0.9074403,239.25322,-75.93495,11.158412,WAL
19285485204000,2.825072,-3.59417432175728,12.1354954124342,-0.562002719779346,1.2476922,1.9547688,0.77396625,238.79196,-76.42145,10.904164,WAL
19285490233000,2.830101,-3.29738189604413,11.4988275613756,-0.23648839094921,1.2235631,1.6624697,0.6224717,238.41437,-76.90885,10.638821,WAL
19285495150000,2.835018,-3.02624941404886,10.9854328570588,0.0259625167487491,1.2425,1.368949,0.4541783,238.04865,-77.32482,10.37204,WAL
19285500213000,2.840081,-2.76461837991759,10.5573095905033,0.244781234158736,1.2993103,1.0534371,0.2724459,237.78516,-77.77089,10.077224,WAL
19285505150000,2.845018,-2.4601657608096,10.2402474941959,0.425093745909316,1.3906348,0.73853606,0.15088372,237.5812,-78.17394,9.811952,WAL
19285510146000,2.850014,-2.09938833741443,10.0266289633892,0.572252955735688,1.4740179,0.49113566,0.057726767,237.45818,-78.61166,9.517309,WAL
19285515169000,2.855037,-1.79646594561339,9.8604296477837,0.721351822089388,1.5244142,0.30695978,0.01282817,237.3902,-79.011055,9.256405,WAL
19285520163000,2.860031,-1.56335861853964,9.75047346974434,0.870892316075041,1.5641204,0.22968534,-0.016493361,237.36798,-79.43014,8.983156,WAL
19285525086000,2.864954,-1.3182009058948,9.63607792676474,1.0568470941052,1.6221527,0.108123146,-0.013744468,237.41086,-79.796196,8.766615,WAL
19285530279000,2.870147,-1.01819625622817,9.49923366589057,1.35685174377183,1.6270396,0.024740042,0.022907447,237.46698,-80.14797,8.557055,WAL
19285535122000,2.87499,-0.760142404423582,9.34379512316936,1.56526300593316,1.6291776,-0.054061573,0.08093964,237.54698,-80.44831,8.394592,WAL
19285540160000,2.880028,-0.524609784284641,9.13996848347728,1.67397038944799,1.611768,-0.07666359,0.13255776,237.63556,-80.72758,8.245309,WAL
19285545098000,2.884966,-0.303070190501836,8.92520827906977,1.71552605838433,1.5839735,-0.07147124,0.18387043,237.74068,-80.92017,8.1519785,WAL
19285550162000,2.89003,-0.102730889314565,8.66179931395349,1.57083655318237,1.5628988,-0.009468411,0.24923302,237.83519,-81.08604,8.079587,WAL
19285555138000,2.895006,0.0941270022154223,8.40296775581395,1.4286613995716,1.5283848,0.105068825,0.3222314,237.89128,-81.17426,8.070244,WAL
19285560131000,2.899999,0.19125660692105,8.2937006870376,1.34428681393534,1.4727961,0.2452624,0.3885103,237.9212,-81.23639,8.07697,WAL
19285565107000,2.904975,0.234723482364447,8.26472268602412,1.29116066365663,1.426065,0.38331795,0.4529566,237.91791,-81.27219,8.102264,WAL
19285570163000,2.910031,0.276338730015018,8.2962198955448,1.295588720574,1.3820826,0.4990769,0.51251596,237.89825,-81.24876,8.189935,WAL
19285575130000,2.914998,0.316025031007008,8.35574971792091,1.3273377796012,1.3387111,0.5720753,0.571159,237.85147,-81.200905,8.291886,WAL
19285580191000,2.920059,0.341775289450901,8.42576769250453,1.39816584000426,1.3213016,0.63346726,0.61544675,237.76398,-81.13319,8.413076,WAL
19285585310000,2.925178,0.331321373425738,8.51985271841348,1.56542860556563,1.294118,0.6945538,0.67103547,237.6568,-81.04073,8.549477,WAL
19285590172000,2.93004,0.320018577687741,8.60479926731367,1.69034476998021,1.2635747,0.72143185,0.6872234,237.52661,-80.93559,8.692576,WAL
19285595128000,2.934996,0.306602205171017,8.68529772656176,1.77084299574107,1.2330315,0.7150178,0.6927212,237.39078,-80.81757,8.843015,WAL
19285600146000,2.940014,0.29070781470538,8.76831774382654,1.81270821825939,1.2125676,0.6899723,0.68203104,237.21555,-80.693756,8.990101,WAL
19285605132000,2.945,0.269138367193837,8.85459526360169,1.75518968822526,1.1939361,0.6988298,0.6835582,237.03534,-80.566734,9.136104,WAL
19285610073000,2.949941,0.247763589786188,8.94009410540052,1.69819027849829,1.169807,0.7516697,0.69974613,236.81729,-80.42912,9.286376,WAL
19285615770000,2.955638,0.223118354633106,9.03867473720137,1.63246964761092,1.135293,0.8060367,0.7180721,236.59962,-80.29362,9.431317,WAL
19285620213000,2.960081,0.189587172083208,9.10647697393484,1.57068750761905,1.1133019,0.8546005,0.7309003,236.34831,-80.1569,9.578203,WAL
19285625129000,2.964997,0.12351056505203,9.16311422225564,1.48101217657143,1.0775663,0.8744536,0.74189585,236.09363,-80.018196,9.7227545,WAL
19285630114000,2.969982,0.0453507038291441,9.22067985864382,1.38031415655864,1.0549643,0.89827734,0.7629707,235.81247,-79.89468,9.860109,WAL
19285635218000,2.975086,-0.0613138555773054,9.27993831754627,1.25389686717045,1.010982,0.9074403,0.7672467,235.53464,-79.77375,9.989919,WAL
19285640123000,2.979991,-0.163819667467712,9.3368863467227,1.13240846504486,0.9783007,0.8875872,0.77488256,235.2493,-79.66409,10.114037,WAL
19285645128000,2.984996,-0.280959855217684,9.32411726343104,0.985255081565593,0.9468411,0.86498517,0.79809546,234.9667,-79.550285,10.238468,WAL
19285650166000,2.990034,-0.401521771110043,9.2962947208073,0.832234181427199,0.9407325,0.84635377,0.8167268,234.6933,-79.43931,10.358721,WAL
19285655135000,2.995003,-0.531057647184505,9.2287264513778,0.709073815803714,0.95569867,0.840856,0.84696466,234.41331,-79.34174,10.473013,WAL
19285660076000,2.999944,-0.663339208146965,9.14841300239617,0.595689621397764,0.9718866,0.8417723,0.8723156,234.14093,-79.242775,10.586961,WAL
19285665124000,3.004992,-0.828960424406421,9.08569051494761,0.510356434082476,1.0118983,0.8445212,0.90133166,233.87347,-79.15691,10.695122,WAL
19285670198000,3.010066,-1.00645955771412,9.02963800817072,0.435619959980775,1.061073,0.8368854,0.9242391,233.61258,-79.06806,10.804969,WAL
19285675134000,3.015002,-1.20694187139097,9.03185640033695,0.421843352210172,1.0968086,0.81489426,0.95264435,233.3547,-78.987236,10.909697,WAL
19285680139000,3.020007,-1.42396535385911,9.06213883742234,0.436984528592187,1.1297953,0.79473567,0.9837985,233.1022,-78.90087,11.018251,WAL
19285685928000,3.025796,-1.66503823051046,9.09085076080579,0.561575850792099,1.1517864,0.7461719,1.0079277,232.85834,-78.83004,11.11112,WAL
19285690237000,3.030105,-1.84259781055154,9.11102797144533,0.674568314648934,1.169807,0.6957755,1.0216721,232.62427,-78.75312,11.206728,WAL
19285695128000,3.034996,-2.00368823931413,9.20831572660098,0.780337375871542,1.1716396,0.63071835,1.0338894,232.38554,-78.69151,11.283449,WAL
19285700161000,3.040029,-2.15437056643615,9.33616756280788,0.88079223678003,1.1664472,0.55680364,1.0442741,232.16714,-78.625694,11.360772,WAL
19285705109000,3.044977,-2.28543765466437,9.42918813445548,0.972074057204421,1.176221,0.47067168,1.040609,231.93716,-78.58513,11.408552,WAL
19285710129000,3.049997,-2.40730836060637,9.50231052747921,1.05982100518657,1.1917981,0.39370266,1.0418307,231.7285,-78.54003,11.458101,WAL
19285715097000,3.054965,-2.48469514618149,9.59799113477089,1.11577977403414,1.1866057,0.34483343,1.0112875,231.50688,-78.52623,11.473617,WAL
19285720271000,3.060139,-2.53910804377558,9.71176335040431,1.1553528421184,1.1847731,0.23732115,0.95905846,231.32681,-101.48172,11.481323,WAL
19285725127000,3.064995,-2.5435743963266,9.81635351836698,1.22478872348128,1.1957687,0.12461651,0.9279043,231.13551,-101.4727,11.470291,WAL
19285730132000,3.07,-2.52225807328115,9.92293513359424,1.31431732478876,1.1917981,-0.013133603,0.84879726,230.98412,-101.43552,11.42946,WAL
19285735143000,3.075011,-2.50306737262087,10.069355190221,1.40380044126012,1.1835514,-0.17348573,0.7583892,230.85217,-101.38209,11.370754,WAL
19285740214000,3.080082,-2.48713088702691,10.2818429590899,1.49410750728506,1.1505647,-0.32925636,0.6795876,230.7593,-101.31071,11.292709,WAL
19285745129000,3.084997,-2.49320058339768,10.517688557722,1.55534267686293,1.0961977,-0.4437936,0.6133087,230.67224,-101.223045,11.198454,WAL
19285750191000,3.090059,-2.51659718648649,10.7844100283784,1.59745661128378,0.9966267,-0.52290064,0.5537493,230.6194,-101.11586,11.085024,WAL
19285755655000,3.095523,-2.66288373824458,11.0006151063028,1.60702441501884,0.8698721,-0.5665775,0.5027421,230.55936,-100.99592,10.9611025,WAL
19285760122000,3.09999,-2.86761247496182,11.1269369176255,1.58960070435801,0.6960809,-0.5531385,0.4728097,230.50429,-100.86467,10.829117,WAL
19285765130000,3.104998,-3.11085173795043,11.1385164363203,1.53049876415634,0.49327368,-0.4746423,0.44104472,230.42009,-100.711105,10.678873,WAL
19285770169000,3.110037,-3.36847054089609,11.0281085357483,1.43389167102002,0.2932153,-0.33567044,0.37232238,230.31284,-100.53874,10.513419,WAL
19285775075000,3.114943,-3.39969203372128,10.8796842808117,1.26406412558042,0.13561209,-0.12858713,0.301462,230.13959,-100.33121,10.314665,WAL
19285780134000,3.120002,-3.11534961270268,10.6676322674326,0.979721684432508,0.034513887,0.12003502,0.24220806,229.91293,-100.11123,10.103625,WAL
19285785196000,3.125064,-2.78364528298755,10.6280701023513,0.902034522019364,0.016798794,0.3930918,0.19425514,229.61417,-99.85227,9.850432,WAL
19285790132000,3.13,-2.39602401185536,10.8242156336692,1.10752053362181,0.044898596,0.6221663,0.16982053,229.25572,-80.409966,9.589982,WAL
19285795071000,3.134939,-2.05411820470782,11.0747226371578,1.34822049669967,0.095294975,0.71776664,0.16401732,228.90071,-80.62856,9.369536,WAL
19285800158000,3.140026,-1.77984145492137,11.4246620186372,1.65559953366337,0.12675454,0.66920286,0.16646078,228.52185,-80.848114,9.14542,WAL
19285805074000,3.144942,-1.48191483433949,11.795595188108,1.84424795151377,0.1160644,0.5039638,0.18600847,228.11491,-81.00319,8.981487,WAL
19285810128000,3.149996,-1.10347123163015,12.2488474104919,1.80024286219656,0.03390302,0.33444872,0.22724187,227.72656,-81.1467,8.824651,WAL
19285815127000,3.154995,-0.745707246868213,12.7003783309009,1.7543701199027,-0.05467244,0.27305678,0.3191771,227.2993,-81.21888,8.729178,WAL
19285820158000,3.160026,-0.502940037212232,13.1775414301972,1.69158550387455,-0.086437434,0.19700404,0.3631594,226.93109,-81.28744,8.631253,WAL
19285825230000,3.165098,-0.258194402671358,13.6585931574146,1.62828922629659,-0.18906279,0.16035213,0.45173484,226.59279,-81.25949,8.621005,WAL
19285830130000,3.169998,0.00553645509706044,13.9990058731743,1.53107270745055,-0.30634892,0.15332718,0.5381723,226.27419,-81.21452,8.620245,WAL
19285835203000,3.175071,0.283975600662784,14.3268455672952,1.4232898399242,-0.42821655,0.14966199,0.5928447,225.97108,-81.1452,8.632585,WAL
19285840126000,3.179994,0.578503093750439,14.5153591395431,1.30552580260105,-0.5390886,0.13408493,0.5882632,225.6727,-81.02833,8.687725,WAL
19285845143000,3.185011,0.890934229390158,14.6420203142355,1.17886453973638,-0.63255095,0.099571034,0.5122105,225.38889,-80.90925,8.732982,WAL
19285850176000,3.190044,1.22322783236461,14.7356717499196,1.11543767586059,-0.7119634,0.054061573,0.3915646,225.1479,-80.770256,8.795299,WAL
19285855134000,3.195002,1.57965959549598,14.7764065715818,1.15108088407507,-0.7965683,-0.0067195175,0.25717425,224.92963,-80.648186,8.827864,WAL
19285860128000,3.199996,1.80993887508197,14.7531286810029,1.17315243542912,-0.89461213,-0.070249505,0.13469578,224.75095,-80.50786,8.880192,WAL
19285865103000,3.204971,1.92020608,14.6704285411765,1.18234136117647,-1.0216721,-0.10323623,0.059253927,224.58797,-80.380066,8.904444,WAL
19285870163000,3.210031,1.96672931728715,14.4805181424868,1.28825782133154,-1.1823297,-0.087964594,0.057421334,224.43524,-80.20832,8.959792,WAL
19285875129000,3.214997,1.93220596131909,14.1648756187908,1.5101937841232,-1.3927728,-0.05131268,0.086437434,224.29181,-80.027794,8.999055,WAL
19285880134000,3.220002,1.83362613916002,13.7680663692397,1.68579167946724,-1.6154331,-0.0015271631,0.1469131,224.14183,-79.799774,9.062594,WAL
19285885272000,3.22514,1.67097866813144,13.2849080505542,1.81973663210189,-1.8603901,0.06261369,0.19058995,223.98186,-79.53733,9.124044,WAL
19285890123000,3.229991,1.58096066895271,12.7975122094588,1.84268472181946,-2.0839667,0.1695151,0.2003638,223.76584,-79.21275,9.191312,WAL
19285895123000,3.234991,1.56172821589517,12.259002820966,1.74652240632594,-2.2757785,0.29871312,0.18509217,223.53102,-78.85016,9.254742,WAL
19285900169000,3.240037,1.67828663154389,11.7885308393417,1.6839681262931,-2.424524,0.37415496,0.15974127,223.26678,-78.44496,9.298202,WAL
19285905133000,3.245001,1.9437391088558,11.406651992163,1.66068279396552,-2.5176811,0.4120286,0.13316862,222.98326,-78.01661,9.327292,WAL
19285910123000,3.249991,2.20946930688783,11.0583550033736,1.71373949949396,-2.5815165,0.42546764,0.09407325,222.69435,-77.56275,9.352053,WAL
19285915099000,3.254967,2.47294946282448,10.7591489300909,1.8700413438197,-2.6578746,0.4297437,0.06872234,222.40363,-77.09107,9.365181,WAL
19285920138000,3.260006,2.76985930142903,10.4962835117308,2.10633066791085,-2.701857,0.42149702,0.014966198,222.15297,-76.58421,9.403279,WAL
19285925195000,3.265063,3.1417217543884,10.33101096886,2.53500539063666,-2.8066204,0.37232238,-0.058337633,221.92023,-76.06109,9.424886,WAL
19285930100000,3.269968,3.51256866447758,10.3227891779577,2.86439305452301,-2.903748,0.30482176,-0.12705997,221.73679,-75.48168,9.470621,WAL
19285935150000,3.275018,3.90898543566068,10.5329382002765,3.07931793255975,-3.0234776,0.2556471,-0.21197024,221.57126,-74.89432,9.489689,WAL
19285940076000,3.279944,4.31512112698413,10.8076479220152,3.11151049351277,-3.1444287,0.2565634,-0.27091873,221.44429,-74.21009,9.536222,WAL
19285945127000,3.284995,4.76341169387755,11.2034789015084,2.85398189964508,-3.227201,0.34666604,-0.30634892,221.31422,-73.52015,9.5619,WAL
19285950088000,3.289956,5.16636806101924,11.530729219708,2.49809443859395,-3.2824843,0.50701815,-0.30024028,221.1983,-72.76655,9.626937,WAL
19285955134000,3.295002,5.50750469403346,11.7503651407988,1.94666818318344,-3.3014212,0.7360926,-0.2764165,221.04344,-72.0111,9.674254,WAL
19285960071000,3.299939,5.64623988883547,11.8871141976152,1.45728534168478,-3.2629366,0.92271197,-0.26083946,220.91068,-71.27614,9.786012,WAL
19285965099000,3.304967,5.28969429868257,11.8269181731897,1.08684830474661,-3.1560352,1.0070114,-0.24129178,220.74338,-70.56235,9.891214,WAL
19285970155000,3.310023,4.9311631722281,11.7663869282623,0.714348372614675,-2.9794953,0.96669424,-0.20555615,220.61116,-69.92887,10.073622,WAL
19285975197000,3.315065,4.57362481392442,11.7060232935859,0.342879888079623,-2.7415633,0.81092364,-0.16065755,220.48592,-69.34889,10.259162,WAL
19285980156000,3.320024,4.15983537094026,11.6136082632318,0.0227257161407378,-2.482251,0.63194007,-0.122478485,220.37517,-68.8162,10.460478,WAL
19285985167000,3.325035,3.35648461954691,11.3153583251804,-0.0205686306776263,-2.250122,0.46181414,-0.08857546,220.30098,-68.344444,10.677627,WAL
19285990153000,3.330021,2.56292470019996,10.9960835604879,-0.0314094742171566,-2.051591,0.26297748,-0.0720821,220.24171,-68.04751,10.840659,WAL
19285995127000,3.334995,1.80567905130974,10.5436410211958,0.149567471877624,-1.881465,0.06994407,-0.08399397,220.2286,-67.80865,11.014005,WAL
19286000163000,3.340031,1.04712271694978,10.110847843296,0.41598921934861,-1.7476854,-0.06261369,-0.09865474,220.24118,-67.59728,11.087061,WAL
19286005134000,3.345002,0.346142486504144,9.83231284885422,1.16803422785958,-1.6307048,-0.19028452,-0.12614368,220.30748,-67.433815,11.16922,WAL
19286010572000,3.35044,-0.319911726446369,9.58275037268069,1.90396190978972,-1.5561792,-0.26450464,-0.1554652,220.3477,-67.274315,11.139496,WAL
19286015100000,3.354968,-0.438685119144725,9.61340138805443,2.1415086791836,-1.5512923,-0.4196644,-0.17623462,220.44603,-67.13412,11.125072,WAL
19286020154000,3.360022,-0.571255951012546,9.64761301166284,2.40665032505743,-1.5766432,-0.6160576,-0.22082779,220.47134,-66.956764,10.9734335,WAL
19286025131000,3.364999,-0.711547911833943,9.72181298391447,2.42886529105182,-1.6337591,-0.92149025,-0.29077184,220.57184,-66.780975,10.838052,WAL
19286030086000,3.369954,-0.853239826118282,9.80408593373146,2.40144111762666,-1.627345,-1.348485,-0.398895,220.76523,-66.628204,10.715302,WAL
19286035233000,3.375101,-0.8561647437866,9.8985913919975,2.24862669598833,-1.5943583,-1.7232509,-0.53786683,221.00789,-66.44717,10.56818,WAL
19286040076000,3.379944,-0.812669436305095,9.99041461144108,2.06497985339168,-1.6074919,-1.9498819,-0.6462954,221.33028,-66.26809,10.433629,WAL
19286045222000,3.38509,-0.70675799040216,9.89443838460797,1.85834195799981,-1.6423112,-2.0518963,-0.6914995,221.71794,-66.11525,10.282161,WAL
19286050151000,3.390019,-0.592947404170122,9.76241828787733,1.65803531748481,-1.6945401,-2.0680842,-0.7156286,222.14722,-65.96621,10.1281805,WAL
19286055132000,3.395,-0.392513858002492,9.51251354775748,1.52639499443522,-1.7366899,-2.0253236,-0.7287622,222.61006,-65.834076,9.98557,WAL
19286060073000,3.399941,-0.166530251637251,9.22757758897425,1.41831585180648,-1.7672331,-1.9614882,-0.7452556,223.0686,-65.695885,9.840811,WAL
19286065100000,3.404968,0.161691059683802,8.95326100581959,1.3600551613773,-1.756543,-1.8985692,-0.77121735,223.58047,-65.52649,9.733014,WAL
19286070240000,3.410108,0.519776328762367,8.67634163627546,1.31231054391853,-1.7336355,-1.8393153,-0.7761043,224.0708,-65.35474,9.625142,WAL
19286075128000,3.414996,0.811152819096651,8.44381080832536,1.28491426252632,-1.6835446,-1.7938058,-0.79259765,224.57742,-65.176704,9.562169,WAL
19286080795000,3.420663,1.13314799555789,8.18413720894737,1.25894687547368,-1.6270396,-1.767844,-0.8042041,225.06885,-65.01069,9.499148,WAL
19286085175000,3.425043,1.35754868388081,8.02360206852436,1.22455738009763,-1.5500705,-1.7302758,-0.820392,225.56664,-64.84745,9.506188,WAL
19286090130000,3.429998,1.6036695758263,7.85469572819079,1.18112430819689,-1.46852,-1.6875153,-0.8191703,226.05089,-64.70533,9.514177,WAL
19286095127000,3.434995,1.78335001927568,7.65741042968533,1.1280921840095,-1.4013249,-1.6166549,-0.818254,226.56105,-64.53538,9.590675,WAL
19286100199000,3.440067,1.9371550817732,7.44592840601623,1.07041527302593,-1.3570372,-1.502423,-0.82772243,227.04529,-64.388405,9.656733,WAL
19286105138000,3.445006,2.00693582400818,7.34384566098671,1.03504614996748,-1.2932017,-1.4819591,-0.86284715,227.56125,-64.24655,9.783437,WAL
19286110125000,3.449993,2.042434849633,7.28615974434637,1.0084218344142,-1.1982121,-1.4944818,-0.87872964,228.05077,-64.130104,9.904043,WAL
19286115105000,3.454973,2.0505186096364,7.2309036616886,0.978998304489181,-1.1563679,-1.5668694,-0.9092729,228.57729,-63.99774,10.06783,WAL
19286120174000,3.460042,2.03427564760205,7.17676051144323,0.946512352152576,-1.0980303,-1.6615535,-0.9166033,229.10875,-63.90044,10.237196,WAL
19286125136000,3.465004,2.00292649856827,7.07454292751994,0.890653140358413,-1.0751228,-1.7880026,-0.9221011,229.68816,-63.795815,10.428287,WAL
19286130128000,3.469996,1.96617632226386,6.95510466265975,0.826340288654752,-1.054048,-1.9007072,-0.93126404,230.28688,-63.713802,10.6248865,WAL
19286135162000,3.47503,1.86741698737748,6.80903581046209,0.721394662420484,-1.0247264,-1.9929478,-0.9651671,230.92438,-63.64045,10.828892,WAL
19286140135000,3.480003,1.73880251374275,6.65184026531306,0.597543704020804,-0.98837996,-2.0732768,-1.0030408,231.58664,-63.58278,11.039509,WAL
19286145144000,3.485012,1.62638305329665,6.48598243564901,0.527345449668861,-0.93431836,-2.1181753,-1.028697,232.2763,-63.53819,11.249291,WAL
19286150400000,3.490268,1.5175704770168,6.30792571331434,0.482831214857031,-0.8698721,-2.147802,-1.0549643,232.98419,-63.516846,11.454823,WAL
19286155131000,3.494999,1.43557422865538,6.15155420497753,0.475182402592465,-0.7965683,-2.149024,-1.0946705,233.69974,-63.536312,11.62446,WAL
19286160118000,3.499986,1.35774774840749,5.98882596439682,0.48461591729001,-0.73975784,-2.151162,-1.131017,234.42271,-63.576008,11.790385,WAL
19286165096000,3.504964,1.28006172100143,5.82639139820256,0.494032407397166,-0.65393126,-2.1536055,-1.1554517,235.17096,-63.631367,11.929377,WAL
19286170175000,3.510043,1.20079950059256,5.66066115278258,0.503639951240926,-0.5503896,-2.160325,-1.1640037,235.91968,-63.712723,12.06309,WAL
19286175132000,3.515,1.10909404791361,5.51471798905502,0.58570787192319,-0.45662177,-2.144137,-1.185384,236.68065,-63.81309,12.182169,WAL
19286180129000,3.519997,1.00620956334408,5.37909775852634,0.721328312430372,-0.3735441,-2.1551325,-1.219287,237.44952,-63.943222,12.298267,WAL
19286185158000,3.525026,0.926101053901652,5.29569436187583,0.853315872996013,-0.2828306,-2.1529946,-1.2507466,238.2019,-64.08412,12.375992,WAL
19286190124000,3.529992,0.867409241579647,5.25957630539206,0.979729014118094,-0.19058995,-2.1432207,-1.2608259,238.95293,-64.250305,12.450399,WAL
19286195126000,3.534994,0.812807655237903,5.23647604765128,1.08401060650571,-0.1151481,-2.1197023,-1.2733486,239.67442,-64.42303,12.487082,WAL
19286200160000,3.540028,0.764106108071522,5.23160589802,1.15706290182847,-0.043982297,-2.0662518,-1.2739595,240.38092,-64.61844,12.519996,WAL
19286205135000,3.545003,0.733110705738619,5.23969518565345,1.22292128803609,0.020158553,-2.037541,-1.273654,241.06448,-64.817726,12.532647,WAL
19286210121000,3.549989,0.723428068650512,5.26390177837372,1.28101716111731,0.07513642,-1.9938642,-1.2699889,241.72502,-65.03188,12.539134,WAL
19286215103000,3.554971,0.705218595364756,5.2529105641991,1.32941180618032,0.092240654,-1.9556851,-1.2507466,242.40257,-65.225006,12.530273,WAL
19286220232000,3.5601,0.676398289947193,5.2000733877567,1.36783888007041,0.1469131,-1.9150625,-1.2476922,243.06462,-65.44249,12.514073,WAL
19286225079000,3.564947,0.666707231612391,5.13996906192415,1.37485275957109,0.17592919,-1.8875736,-1.2483032,243.72388,-65.64393,12.491606,WAL
19286230129000,3.569997,0.681112366640191,5.06314142441422,1.34124077783956,0.2489276,-1.8127426,-1.2443326,244.35403,-65.86783,12.463026,WAL
19286235133000,3.575001,0.694983457174556,4.99279769985207,1.3252349714497,0.312763,-1.7327193,-1.2507466,244.98038,-66.08622,12.418328,WAL
19286240132000,3.58,0.708262235798817,4.93083006627219,1.33408749053254,0.40530908,-1.6392568,-1.2742649,245.57957,-66.330345,12.362484,WAL
19286245075000,3.584943,0.725076719046182,4.88076338454573,1.3623376560821,0.5412266,-1.509448,-1.3051136,246.16104,-66.59415,12.297631,WAL
19286250165000,3.590033,0.75450382247711,4.86604980722407,1.45552332144079,0.68477994,-1.3561208,-1.3344351,246.70828,-66.88363,12.216977,WAL
19286255078000,3.594946,0.786037785324988,4.85429474693308,1.55480765691863,0.82711154,-1.1930199,-1.3756685,247.23213,-67.19587,12.116512,WAL
19286260133000,3.600001,0.827992192258065,4.84963319483871,1.68533262451613,0.9850202,-1.0094548,-1.4349225,247.70874,-67.55003,11.988921,WAL
19286265129000,3.604997,0.870971205920916,4.86579322167534,1.83343833174818,1.1459832,-0.81214535,-1.4865406,248.14381,-67.91481,11.843934,WAL
19286270219000,3.610087,0.92169541289282,4.97738641345473,2.07184201447451,1.2996159,-0.60139686,-1.5244142,248.52518,-68.31689,11.672157,WAL
19286275104000,3.614972,0.967434546867193,5.09678864378935,2.29218053424603,1.4422529,-0.4034765,-1.559539,248.86044,-68.720985,11.486451,WAL
19286280129000,3.619997,1.00590635260318,5.25548494287998,2.4941576650045,1.5769486,-0.21105394,-1.5754215,249.13757,-69.154755,11.282618,WAL
19286285158000,3.625026,1.06847370620417,5.45925572129487,2.73108652267464,1.6927075,-0.018936822,-1.5778649,249.35086,-69.57303,11.067423,WAL
19286290136000,3.630004,1.19727090657082,5.78584840093593,3.0622792412775,1.8115209,0.18600847,-1.5567901,249.50427,-70.013016,10.843481,WAL
19286295133000,3.635001,1.36173142228611,6.1419125539308,3.42829378878755,1.8603901,0.38789943,-1.5158621,249.60706,-70.42276,10.606168,WAL
19286300261000,3.640129,1.68792956722514,6.63364403349856,3.95410575198771,1.8719965,0.589485,-1.4648548,249.64914,-70.83582,10.368436,WAL
19286305142000,3.64501,2.02093163989784,7.28761941375536,4.5900833237435,1.840537,0.6747007,-1.4300356,249.67412,-71.174255,10.153614,WAL
19286310132000,3.65,2.46991384257959,8.85251855267719,5.8934393254766,1.8161024,0.77763146,-1.348485,249.62889,-71.492294,9.954417,WAL
19286315460000,3.655328,2.93387474784165,10.5272045361129,7.26631408946094,1.7299703,0.81245077,-1.1502593,249.55734,-71.67578,9.831425,WAL
19286320177000,3.660045,3.00997299936829,12.0919741813013,8.07485730423247,1.4996742,0.75686204,-1.0690142,249.48259,-71.82002,9.69938,WAL
19286325140000,3.665008,3.0820344062653,13.7138931875963,8.90438077912775,1.3942999,0.6059783,-0.8686504,249.28299,-71.82591,9.613341,WAL
19286330157000,3.670025,3.06025223806329,15.0643796100281,9.49249609085139,1.1472049,0.3839288,-0.64599,249.11319,-71.73322,9.5650425,WAL
19286335739000,3.675607,3.03601702520627,16.5669538994469,10.1468432445371,0.82436264,0.116675265,-0.39095375,248.96109,-71.53267,9.562064,WAL
19286340132000,3.68,2.25753283465871,17.2912911175171,10.2711562516015,0.41447207,-0.15424347,-0.15210545,248.85674,-71.240814,9.627073,WAL
19286345233000,3.685101,1.32583231707447,18.0911027537336,10.3354647619424,-0.0720821,-0.43218717,0.06352998,248.79773,-70.86241,9.704444,WAL
19286350167000,3.690035,0.199561512699041,18.4509495091485,9.53632609217684,-0.6252206,-0.73884153,0.19822577,248.80946,-70.37463,9.841442,WAL
19286355317000,3.695185,-0.88325805834693,18.7828974996862,8.71397278031376,-1.1398746,-1.0687088,0.18417588,248.86409,-69.90222,9.85583,WAL
19286360134000,3.700002,-0.78814160657463,18.5719863098162,8.08537721018377,-1.5338826,-1.3396275,0.076052725,248.98566,-69.34084,9.905314,WAL
19286365102000,3.70497,-0.690043509749888,18.3544636211564,7.43707685884357,-1.7318029,-1.5231925,-0.089186326,249.20859,-68.910545,9.81253,WAL
19286370450000,3.710318,0.283511806578667,16.3986406076219,7.43133082384501,-1.808772,-1.6698002,-0.19058995,249.49869,-68.4278,9.740105,WAL
19286375110000,3.714978,1.3049087525016,14.3510959365552,7.56434986408346,-1.8768835,-1.8310685,-0.22571471,249.8494,-67.92004,9.671189,WAL
19286380162000,3.72003,2.18174742257785,12.6550623884083,7.63715533477509,-1.9620992,-1.9914207,-0.24465153,250.3097,-67.47655,9.615116,WAL
19286385146000,3.725014,3.02818475579585,11.0241229759516,7.70321877214533,-2.0387628,-2.125811,-0.22418754,250.7991,-67.024864,9.582746,WAL
19286390101000,3.729969,3.67546908300417,9.92624632982225,7.28955864159535,-2.0470095,-2.1526892,-0.1441642,251.24222,-66.421646,9.711777,WAL
19286395118000,3.734986,4.20791706166338,9.14602521329822,6.56732725224929,-1.9559906,-2.0430388,-0.011301007,251.66028,-65.83383,9.860505,WAL
19286400167000,3.740035,4.51537550336684,9.68440504580804,5.67512631292678,-1.7599027,-1.9285016,0.183565,252.03513,-65.14674,10.157795,WAL
19286405779000,3.745647,4.79062510219082,10.6681672495258,4.63529440643968,-1.5219707,-1.4269812,0.4202753,252.24849,-64.48906,10.443349,WAL
19286410099000,3.749967,4.65061355257957,11.8036243000832,4.05768534342625,-1.2675453,-1.2382239,0.56230146,252.56732,-63.903736,10.8411455,WAL
19286415134000,3.755002,4.37475981246099,13.2480947842729,3.45582284243811,-1.1685852,-0.8894198,0.8570439,252.6591,-63.30213,11.260701,WAL
19286420144000,3.760012,4.12293171661498,14.2079342755827,2.53411494189257,-1.0476339,-0.59895337,1.0900891,252.81772,-62.92125,11.714319,WAL
19286425136000,3.765004,3.87904078293488,15.0161224472342,1.51551124878464,-1.0601566,-0.39614612,1.255328,252.877,-62.509552,12.186453,WAL
19286430105000,3.769973,3.89117064204529,14.1163040922559,0.417260398706832,-1.1337659,-0.269697,1.3475688,252.93155,-62.267914,12.602166,WAL
19286440107000,3.779975,4.07626220381509,11.2307749143338,-1.84655089165634,-1.1820242,-0.0143553335,1.3301591,252.98001,-61.94189,13.3509655,WAL
19286445124000,3.784992,4.16910407198137,9.78339440187286,-2.98207791062776,-1.1239921,0.18753563,1.2116512,252.99783,-61.871292,13.650023,WAL
19286450201000,3.790069,3.98666943724934,8.11592398460604,-3.59562228770508,-0.9960158,0.44073927,1.0509937,253.10593,-61.89938,13.982553,WAL
19286455066000,3.794934,3.71299224715414,6.4455498353251,-3.9919821250557,-0.8940013,0.7473936,0.90041536,253.15976,-61.948395,14.247856,WAL
19286460044000,3.799912,3.34880180843049,5.20089607623318,-4.47672307174888,-0.82253003,1.1160508,0.7476991,253.19415,-61.970924,14.5324,WAL
19286465057000,3.804925,2.95172080457399,4.11490343497758,-4.99340676233184,-0.7147123,1.4844025,0.57971114,253.16656,-62.05243,14.734904,WAL
19286470052000,3.80992,2.76460305268496,3.37061894639022,-4.82473054325776,-0.5186246,1.6881261,0.4202753,253.08496,-62.135128,14.910798,WAL
19286475057000,3.814925,2.65497354463007,2.7509740155529,-4.40051249681782,-0.22113322,1.6994271,0.28588495,252.97354,-62.29203,15.030336,WAL
19286480047000,3.819915,2.67670603595236,2.56628711221785,-3.84638008077994,0.1151481,1.5836681,0.22235495,252.85733,-62.519703,15.122439,WAL
19286485331000,3.825199,2.75447584745942,2.55170518056863,-3.20477884401114,0.4596761,1.4697418,0.226631,252.74506,-62.831047,15.198439,WAL
19286490046000,3.829914,2.66509250051387,2.84346506857143,-2.91074483496403,0.7623598,1.4428637,0.2874121,252.57976,-63.129898,15.275875,WAL
19286495040000,3.834908,2.48813911819116,3.31042547142857,-2.74362224172662,1.0558805,1.4676038,0.36987892,252.42917,-63.49987,15.371312,WAL
19286500242000,3.84011,2.08089790635133,4.2765474484074,-2.62805804419226,1.3582588,1.5711454,0.42058071,252.20316,-63.85594,15.468431,WAL
19286505132000,3.845,1.60750081165363,5.37965207800877,-2.54320381321762,1.4953982,1.7699821,0.5555819,251.92686,-64.20493,15.6025715,WAL
19286510132000,3.85,0.903499164028436,6.70402571872038,-2.4890279056872,1.7018706,2.019826,0.7290677,251.60196,-64.63444,15.703904,WAL
19286515409000,3.855277,0.0103228765047394,8.23589765728673,-2.45409925094787,1.8368717,2.286163,0.895223,251.20703,-65.04297,15.823634,WAL
19286520161000,3.860029,-0.831495056374468,9.58730707517731,-2.29845806808511,1.8863518,2.5644124,1.0155635,250.80731,-65.54241,15.813658,WAL
19286525131000,3.864999,-1.7361704941617,10.9825775905437,-2.05541096879433,1.8994855,2.7559185,1.0732902,250.35948,-66.025536,15.82125,WAL
19286530137000,3.870005,-2.55926379941726,12.2737488942028,-1.72922032763991,1.881465,2.7898216,1.0629056,249.93616,-66.64039,15.653699,WAL
19286535185000,3.875053,-3.28784392681604,13.4443340926354,-1.30664384360494,1.8521434,2.6771169,1.0042624,249.51334,-67.23025,15.496873,WAL
19286540138000,3.880006,-3.82302676842843,14.2843406960961,-0.899621666186186,1.8597792,2.5033257,0.88789266,249.0409,-67.95897,15.177168,WAL
19286545127000,3.884995,-4.16737768623624,14.7960847492493,-0.49787892042042,1.9156734,2.324953,0.7651087,248.61246,-68.68039,14.864835,WAL
19286550320000,3.890188,-4.30461953898783,15.0114548277372,0.00103457473479321,1.9840903,2.079996,0.63407815,248.20949,-69.48629,14.421129,WAL
19286555152000,3.89502,-4.22355372160584,14.9123741386861,0.541474047007299,2.0054705,1.7928895,0.49938235,247.8804,-70.291985,13.979946,WAL
19286560178000,3.900046,-3.97536431017201,14.5957753949791,1.02932373288703,1.9853121,1.5134187,0.3213151,247.5852,-71.124954,13.462348,WAL
19286565319000,3.905187,-3.49927181160391,13.9823486937239,1.42759334610879,1.9526308,1.246776,0.12003502,247.37962,-71.96447,12.942094,WAL
19286570157000,3.910025,-2.86323692239082,13.1816616471981,1.69828937321773,1.9074267,0.9923506,-0.10873401,247.18686,-72.74609,12.41,WAL
19286575207000,3.915075,-1.71007588489884,11.7644772200145,1.70993745606936,1.8536706,0.7507534,-0.32589662,247.07965,-73.53665,11.859776,WAL
19286580213000,3.920081,-0.566962191099872,10.3596405383349,1.72148405067437,1.8173242,0.40622538,-0.4990769,247.03404,-74.226006,11.371576,WAL
19286585207000,3.925075,0.104043410523053,9.58389445830105,1.32888582420573,1.8096883,0.18325958,-0.5693264,247.03119,-74.91771,10.871985,WAL
19286590183000,3.930051,0.653331345432003,8.96998431417086,0.834988278603255,1.8289305,0.19272798,-0.56016344,247.06683,-75.61059,10.366608,WAL
19286595177000,3.935045,1.01865176849504,8.64897179245283,0.506637319163015,1.8848248,0.2932153,-0.48075095,247.14873,-76.08348,10.111178,WAL
19286600239000,3.940107,1.31776361484038,8.43655881132075,0.237870141729411,1.9611828,0.3576616,-0.41325033,247.23953,-76.5533,9.862515,WAL
19286605092000,3.94496,1.48652395435602,8.294003366911,0.0557089418839791,2.0112739,0.5009095,-0.26939157,247.36835,-76.93094,9.761113,WAL
19286610052000,3.94992,1.53128927875393,8.21442107581152,-0.0487434353139267,2.0925188,0.6026186,-0.11728613,247.48859,-77.29736,9.684009,WAL
19286615045000,3.954913,1.49207399492188,8.18891793359375,-0.0751180755234375,2.1380284,0.68416905,0.007330383,247.59738,-77.59323,9.706168,WAL
19286620095000,3.959963,1.38344647294922,8.20780956933594,-0.0373345821152344,2.1432207,0.72082096,0.10476339,247.6876,-77.84781,9.761966,WAL
19286625145000,3.965013,1.28884284013497,8.26670418221516,0.00325816762763001,2.1371121,0.7153232,0.16646078,247.75923,-78.06578,9.855601,WAL
19286630070000,3.969938,1.20926581825129,8.36032463924176,0.0453871846184994,2.1203132,0.675617,0.18509217,247.83237,-78.2465,9.963055,WAL
19286635063000,3.974931,1.11460857947854,8.50427316298206,0.102099756691782,2.0909917,0.6423248,0.17165314,247.88702,-78.417015,10.055201,WAL
19286640052000,3.97992,1.00566535385645,8.69847568821255,0.173149655264201,2.0751092,0.6133087,0.1386664,247.95575,-78.564735,10.146724,WAL
19286645030000,3.984898,0.895422980387551,8.88230137933059,0.252395441021726,2.060143,0.5714644,0.0888809,247.98367,-78.72741,10.207794,WAL
19286650178000,3.990046,0.779624040692895,9.06082482971227,0.344069607281268,2.053729,0.5516113,0.053450707,248.01755,-78.8708,10.263292,WAL
19286655040000,3.994908,0.660624569668385,9.17331395847515,0.432398002049985,2.0399845,0.537256,0.021380283,248.04692,-79.024765,10.2819,WAL
19286660488000,4.000356,0.513482794388797,9.21897850850919,0.533875100141982,2.0124955,0.4841107,-0.029321533,248.09702,-79.16998,10.286758,WAL
19286665053000,4.004921,0.404926902102324,9.23983765413384,0.587745857373093,2.0134118,0.43157628,-0.062002823,248.10327,-79.32505,10.265457,WAL
19286670088000,4.009956,0.308748143296101,9.23502861902862,0.59736372672584,2.01219,0.40958515,-0.07360926,248.11865,-79.464615,10.237622,WAL
19286675055000,4.014923,0.233938475913927,9.20861672439673,0.626763161027931,2.000889,0.43127087,-0.07696902,248.10376,-79.61328,10.18096,WAL
19286680114000,4.019982,0.192513287452024,9.14417767585028,0.691202334535436,1.9715676,0.4822781,-0.06780604,248.0883,-79.7407,10.126873,WAL
19286685083000,4.024951,0.172179805009385,9.07653950479666,0.742770730792492,1.9410243,0.5476407,-0.0571159,248.0588,-79.86469,10.059077,WAL
19286690082000,4.02995,0.207124660312826,8.99666549322211,0.762739259749739,1.9159788,0.6197228,-0.027488936,248.01405,-79.96193,10.001386,WAL
19286695108000,4.034976,0.23145721637347,8.90600456162824,0.793473783034443,1.887879,0.66767573,0.022296581,247.92331,-80.04144,9.946576,WAL
19286700171000,4.040039,0.236057979221938,8.79558657994117,0.844082068678243,1.8729129,0.78954333,0.056505036,247.79227,-80.10129,9.897738,WAL
19286705127000,4.044995,0.237671940085267,8.70032534925633,0.878735215881014,1.8216002,0.8668178,0.10995574,247.64313,-99.88125,9.879491,WAL
19286710127000,4.049995,0.230712386284579,8.64232912814302,0.869455820502883,1.7751744,0.93615097,0.15668693,247.46375,-99.88295,9.870561,WAL
19286715133000,4.055001,0.22374448101933,8.58426331156436,0.860165289850298,1.7269161,0.9947941,0.20158553,247.24973,-99.90872,9.878364,WAL
19286720209000,4.060077,0.216679142000872,8.52538554789012,0.85074484766242,1.6954565,1.0421361,0.2648101,247.02243,-99.95946,9.905415,WAL
19286725129000,4.064997,0.202266528573261,8.4556192403014,0.82651421739945,1.6511687,1.0864239,0.34269542,246.76839,-100.03192,9.950311,WAL
19286730817000,4.070685,0.124614529423684,8.27258216872009,0.676756805030038,1.5946637,1.1325442,0.41538838,246.50417,-100.1226,10.01152,WAL
19286735184000,4.075052,0.0658066416296296,8.14245531481482,0.553305773551198,1.5173893,1.1734722,0.47586402,246.23473,-100.231674,10.090956,WAL
19286740145000,4.080013,0.00280128655394525,8.04344701610306,0.373290458565881,1.4462235,1.2147056,0.52778757,245.95612,-100.35616,10.187194,WAL
19286745286000,4.085154,-0.0654265051610322,7.94609428395679,0.182526386505301,1.3912456,1.2342533,0.571159,245.68796,-100.487976,10.287161,WAL
19286750187000,4.090055,-0.164011669186837,7.91323263287658,-0.0475056808621724,1.3564262,1.25319,0.59528816,245.41202,-100.62441,10.394341,WAL
19286755294000,4.095162,-0.269569543738006,7.88995883143117,-0.279931784244016,1.3622295,1.2370021,0.6160576,245.16379,-100.768394,10.499334,WAL
19286760125000,4.099993,-0.400408417945662,7.988088000505,-0.42011626966973,1.3900238,1.2162327,0.6236934,244.91522,-100.91321,10.60512,WAL
19286765219000,4.105087,-0.532624151957975,8.11075048137536,-0.545228562999045,1.4214834,1.1737776,0.6221663,244.6573,-101.06349,10.691552,WAL
19286770163000,4.110031,-0.600457579121299,8.43182857421203,-0.427650619434575,1.4718798,1.1029172,0.63071835,244.41806,-101.22401,10.780755,WAL
19286775458000,4.115326,-0.669615038442544,8.78288057004155,-0.294731320888605,1.5054774,1.0012082,0.63407815,244.20346,-101.37654,10.84215,WAL
19286780196000,4.120064,-0.651485365783123,9.26150356932236,-0.0155345732012146,1.5354098,0.840856,0.6386596,244.03035,-101.54015,10.903199,WAL
19286785190000,4.125058,-0.632376124486975,9.76598716121944,0.278747520076714,1.559539,0.6374379,0.6563747,243.87216,-101.69087,10.947739,WAL
19286790156000,4.130024,-0.60007326432139,10.0823745074195,0.448655641000982,1.5943583,0.37201694,0.66859204,243.78128,-101.84931,10.986794,WAL
19286795146000,4.135014,-0.553127550206297,10.1985035284111,0.485718046202368,1.6447546,0.23884831,0.6921103,243.71393,-102.02361,11.031803,WAL
19286800590000,4.140458,-0.501910622823018,10.3251981958017,0.526152461816866,1.6630806,-0.14385876,0.7165449,243.7349,-102.163155,11.060059,WAL
19286805150000,4.145018,-0.459010330966341,10.431320106768,0.56002111266222,1.7052304,-0.25259277,0.73639804,243.7166,-102.3177,11.096401,WAL
19286810135000,4.150003,-0.570855320450451,10.468338978979,0.510895316462462,1.7012597,-0.38148534,0.78038037,243.81696,-102.48364,11.136247,WAL
19286815134000,4.155002,-0.786506025525525,10.4539624754755,0.405466086206206,1.7076738,-0.38881573,0.81581056,243.914,-102.66068,11.17924,WAL
19286820157000,4.160025,-1.10873740477202,10.2844825517774,0.406284367132921,1.7168368,-0.23823744,0.8588765,243.96375,-102.85917,11.250703,WAL
19286825130000,4.164998,-1.49518821634467,10.0176468979907,0.475293427588872,1.7006488,-0.0021380284,0.86651236,243.99088,-103.0548,11.324067,WAL
19286830178000,4.170046,-1.84146107639589,9.86919537391655,0.64419032870389,1.7107282,0.25259277,0.8371908,243.97185,-103.24558,11.370095,WAL
19286835138000,4.175006,-2.14306966821205,9.82610856077404,0.893137117818988,1.7055358,0.52626044,0.77366084,243.8787,-103.424774,11.416657,WAL
19286840193000,4.180061,-2.27200631747459,9.95939748493569,1.1898314505621,1.6829338,0.8405506,0.6930266,243.68509,-103.54996,11.407022,WAL
19286845127000,4.184995,-2.25925734781905,10.2271261139491,1.51280557037503,1.5949692,1.1096367,0.60903263,243.42426,-103.647766,11.387311,WAL
19286850155000,4.190023,-2.07970663909283,10.5657575753165,1.83892268164557,1.4669929,1.2864822,0.5170974,243.05745,-103.65775,11.314702,WAL
19286855131000,4.194999,-1.56697167318565,11.0332512006329,2.15561201329114,1.3362677,1.3219124,0.43951756,242.65315,-103.635735,11.22809,WAL
19286860155000,4.200023,-1.02829944870477,11.5914189033024,2.30168157421396,1.221425,1.2638801,0.3717115,242.15425,-103.531494,11.129778,WAL
19286865131000,4.204999,-0.467606484496737,12.2557695143366,2.22158253715642,1.0873401,1.1517864,0.29626966,241.66046,-103.38246,11.006848,WAL
19286870251000,4.210119,-0.206227029891873,12.7104870645274,2.18656174482037,0.9251554,1.0311406,0.27122417,241.11456,-103.221886,10.95519,WAL
19286875130000,4.214998,-0.369203090143007,12.8449420598186,2.21508253749564,0.6826419,0.86467975,0.3304781,240.62025,-103.03224,10.897832,WAL
19286880148000,4.220016,-0.551107147245441,12.9123653634936,2.19470899560248,0.4098906,0.54458636,0.45540005,240.1839,-102.89047,10.918759,WAL
19286885151000,4.225019,-0.839562011505104,12.4483295834569,1.80174157047378,0.12492194,0.2144137,0.5705481,239.80893,-102.73039,10.942239,WAL
19286890120000,4.229988,-1.12605655887793,11.9874473545938,1.41144472149027,-0.12858713,0.086132,0.66553766,239.45306,-102.54914,10.959285,WAL
