timestamp,rel_time,acc_x,acc_y,acc_z,gyro_x,gyro_y,gyro_z,azimuth,pitch,roll,label
60408510000,0,0.216859320713,-9.72386630140439,-0.610980946416997,-0.026572637,0.020158553,0.014660766,149.42262,111.65844,-21.649954,STD
60413460000,0.00495,0.212203689096147,-9.72852202700756,-0.569080261865322,-0.024129177,0.0106901415,0.021685716,150.65605,111.004654,-20.984497,STD
60418514000,0.010004,0.207450242188758,-9.73327556987593,-0.526299239698825,-0.015271631,0.027488936,0.021380283,151.82422,110.38184,-20.346071,STD
60423511000,0.015001,0.202750405584836,-9.73797550135856,-0.484000710263528,-0.013439035,0.015882496,0.016493361,152.91113,109.79164,-19.737453,STD
60428547000,0.020037,0.207406432715397,-9.72387927642601,-0.554225686443957,-0.024740042,0.015882496,0.01985312,153.96478,109.24165,-19.165522,STD
60433526000,0.025016,0.216916387261667,-9.70010440247307,-0.682610095161548,-0.019242255,0.015271631,0.023518313,154.95557,108.71692,-18.617462,STD
60438502000,0.029992,0.217214175917499,-9.70088599475715,-0.648475526046098,-0.022907447,0.017715093,0.018325957,155.84901,108.2213,-18.100883,STD
60443453000,0.034943,0.212523827040261,-9.71495684548422,-0.526526381773667,-0.022296581,0.0143553335,0.019242255,156.69415,107.75003,-17.608618,STD
60448518000,0.040008,0.213651383445345,-9.70861252806879,-0.546957965630559,-0.023823744,0.01863139,0.016187929,157.5192,107.290764,-17.123339,STD
60453523000,0.045013,0.218388671842261,-9.68966347341372,-0.655915672959083,-0.03359759,0.013133603,0.021380283,158.29865,106.85537,-16.661173,STD
60458461000,0.049951,0.234112427417776,-9.68769017169146,-0.862488198590446,-0.021685716,0.012217305,0.02687807,159.01857,106.44391,-16.226933,STD
60463498000,0.054988,0.257721663894871,-9.69713356059123,-1.14107709534064,-0.027794369,0.01863139,0.02076942,159.7052,106.04872,-15.807785,STD
60468482000,0.059972,0.254939390605,-9.693378393,-1.20336697265,-0.03390302,0.0070249503,0.02076942,160.37985,105.66709,-15.400709,STD
60473473000,0.064963,0.23104046125,-9.67903925,-1.0934319625,-0.030543262,0.009468411,0.018325957,161.02914,105.29905,-15.007092,STD
60478473000,0.069963,0.228010978053323,-9.67773805626348,-0.999986884336405,-0.033292156,0.014966198,0.025961773,161.69066,104.929634,-14.60346,STD
60483488000,0.074978,0.242133998666928,-9.68715359341306,-0.919956391589884,-0.0421497,0.0036651916,0.02076942,162.3147,104.573944,-14.21319,STD
60488482000,0.079972,0.242930204332078,-9.69415562872857,-0.883492912348627,-0.02687807,0.0061086523,0.02107485,162.8918,104.24635,-13.856531,STD
60493459000,0.084949,0.231121720667922,-9.69887887127143,-0.888216317651372,-0.023518313,-0.0009162979,0.018936822,163.437,103.93221,-13.512268,STD
60498478000,0.089968,0.219213587352591,-9.70364197240115,-0.892979582914478,-0.022296581,0.0143553335,0.022296581,163.96059,103.62912,-13.182195,STD
60503478000,0.094968,0.207350533641364,-9.70838704226539,-0.897724816290754,-0.02687807,0.01282817,0.019242255,164.45573,103.3362,-12.862519,STD
60509101000,0.100591,0.206658965951644,-9.69979001179884,-0.902992871528046,-0.025961773,0.0143553335,0.017715093,164.93497,103.04998,-12.553051,STD
60513498000,0.104988,0.214803881151838,-9.68350027495164,-0.907065327001934,-0.025961773,0.015577064,0.018936822,165.39474,102.7754,-12.254904,STD
60518512000,0.110002,0.224246049542207,-9.67058521179193,-0.929694134856625,-0.023518313,0.008552114,0.016493361,165.82387,102.510216,-11.968858,STD
60523512000,0.115002,0.23388164165409,-9.66576732266828,-0.977872040078479,-0.025350908,0.006414085,0.014049901,166.23831,102.256,-11.693354,STD
60528497000,0.119987,0.243508060749166,-9.66095401587302,-1.00760864144171,-0.013133603,0.010995574,0.016187929,166.63428,102.01082,-11.42623,STD
60533526000,0.125016,0.253246550700637,-9.65608466666667,-1.01247788895966,-0.028405234,0.02321288,0.013744468,167.01733,101.77561,-11.166268,STD
60538454000,0.129944,0.256588936260472,-9.6554058751904,-1.01117183252094,-0.024740042,0.022602014,0.024129177,167.39073,101.54899,-10.915626,STD
60543467000,0.134957,0.252018439459254,-9.65997646744098,-1.00203083891851,-0.03023783,0.025350908,0.01863139,167.75496,101.328384,-10.6680355,STD
60548449000,0.139939,0.252224389923225,-9.65735007010809,-0.987919353140721,-0.024129177,0.018020526,0.015271631,168.10594,101.11606,-10.429935,STD
60553507000,0.144997,0.262011134510557,-9.64022343378119,-0.963452500614204,-0.02443461,0.0143553335,0.024740042,168.44682,100.91483,-10.2015915,STD
60558457000,0.149947,0.271588909462572,-9.62346249075664,-0.939508071985049,-0.02443461,0.011911872,0.02321288,168.77266,100.71746,-9.977994,STD
60563526000,0.155016,0.281396937994242,-9.60629860788969,-0.914988009617133,-0.03268129,0.007330383,0.020158553,169.08618,100.53028,-9.763755,STD
60568407000,0.159897,0.285591581099589,-9.58911038133438,-0.898507241099589,-0.029321533,-0.00030543262,0.0290161,169.37717,100.35036,-9.556639,STD
60573513000,0.165003,0.280807865505772,-9.56997511935042,-0.893723525505772,-0.040317107,-0.0018325958,0.032070424,169.65913,100.17723,-9.353425,STD
60578561000,0.170051,0.271620451884058,-9.55917976811594,-0.881482633043478,-0.040317107,-0.004581489,0.035430185,169.92984,100.00704,-9.156875,STD
60583538000,0.175028,0.254350974172101,-9.5634972254529,-0.855578402951087,-0.031154128,-0.00580322,0.03268129,170.19221,99.84199,-8.9651375,STD
60588480000,0.17997,0.241773637704067,-9.57017182059417,-0.826710188549178,-0.022907447,-0.017104227,0.036651913,170.4378,99.68714,-8.783109,STD
60593512000,0.185002,0.260306656744544,-9.59333808229978,-0.775744364416883,-0.025350908,-0.040011674,0.041233405,170.67232,99.53706,-8.605882,STD
60598567000,0.190057,0.280773457888041,-9.61420019592875,-0.725095846437659,-0.012217305,-0.042455133,0.05681047,170.90053,99.399376,-8.444083,STD
60603520000,0.19501,0.327195380101781,-9.60027382188295,-0.683316094147583,-0.026267206,-0.050701816,0.06383542,171.11406,99.26878,-8.28623,STD
60608741000,0.200231,0.374591512216679,-9.58473991681092,-0.637809817527747,-0.021380283,-0.053145275,0.071776666,171.32423,99.13594,-8.133051,STD
60613525000,0.205015,0.393251703692088,-9.5567495467875,-0.572499152235007,-0.02076942,-0.046120327,0.06688975,171.52895,99.00793,-7.982258,STD
60618684000,0.210174,0.41257095997014,-9.52738644968647,-0.504881761307853,-0.011911872,-0.047036625,0.074830994,171.72946,98.87125,-7.830098,STD
60623503000,0.214993,0.421757910779337,-9.50901266318304,-0.472727447865034,-0.01740966,-0.062308256,0.094989546,171.92279,98.742256,-7.6842237,STD
60628711000,0.220201,0.432048700942123,-9.48733880820014,-0.44016896673285,-0.029321533,-0.079107046,0.099571034,172.10616,98.61259,-7.537063,STD
60633528000,0.225018,0.445787853261193,-9.44612148992356,-0.435589254075251,-0.03145956,-0.10170906,0.09865474,172.27931,98.48949,-7.3980265,STD
60638782000,0.230272,0.460981535786018,-9.40507238227466,-0.432251105786019,-0.0125227375,-0.10293079,0.105374254,172.44972,98.36859,-7.2646313,STD
60643455000,0.234945,0.476862447696948,-9.41301258534422,-0.448132017696948,-0.0070249503,-0.1001819,0.10598512,172.61082,98.25132,-7.1328735,STD
60648901000,0.240391,0.495370354024131,-9.42226624378992,-0.466639924024131,0.008246681,-0.10476339,0.112399206,172.77068,98.135445,-7.007021,STD
60653477000,0.244967,0.513509365140545,-9.47400327640545,-0.508052039625213,0.0012217305,-0.1020145,0.11056661,172.92967,98.02312,-6.8817263,STD
60658454000,0.249944,0.533809107820486,-9.53997767195485,-0.558801372478705,0.0067195175,-0.1151481,0.11728613,173.07959,97.913315,-6.7639585,STD
60663481000,0.254971,0.583182449299607,-9.66741091111559,-0.522412246852766,0.025961773,-0.13103059,0.119729586,173.23286,97.80507,-6.6437654,STD
60668436000,0.259926,0.635785843837549,-9.80131026111055,-0.474590939143404,0.022907447,-0.15882497,0.14355333,173.3761,97.70887,-6.5348353,STD
60673485000,0.264975,0.677610901641696,-9.87546316200815,-0.481957019894876,0.0143553335,-0.20066923,0.12736541,173.51535,97.605705,-6.413454,STD
60678458000,0.269948,0.717382628540551,-9.94096937363069,-0.495994105724812,0.005497787,-0.22113322,0.12705997,173.65022,97.51531,-6.3062134,STD
60683482000,0.274972,0.757562229574102,-10.0071473762833,-0.510175147190647,0.009162978,-0.24281894,0.12980886,173.7783,97.4089,-6.1849976,STD
60688436000,0.279926,0.797182003363953,-10.0724033128162,-0.524158602489561,0.004886922,-0.24373524,0.12156218,173.90332,97.30558,-6.063769,STD
60693463000,0.284953,0.859449473339974,-10.1118760022911,-0.546366427293555,-0.00030543262,-0.26633725,0.12034045,174.02242,97.20893,-5.9525876,STD
60698452000,0.289942,0.926079777335392,-10.1451913307102,-0.570162948461002,-0.009468411,-0.28344148,0.12064589,174.13983,97.11493,-5.842327,STD
60703474000,0.294964,1.01267408013849,-10.170927360267,-0.605828217176447,-0.019547688,-0.30848694,0.118507855,174.25516,97.00671,-5.7117987,STD
60708454000,0.299944,1.10295579409684,-10.1946856864601,-0.643841588701803,-0.015577064,-0.3295618,0.122478485,174.3641,96.90293,-5.5870557,STD
60713533000,0.305023,1.18302508355335,-10.191481506402,-0.698126882054591,-0.028710667,-0.34147367,0.13072516,174.47743,96.79765,-5.451767,STD
60718467000,0.309957,1.25806542028784,-10.1821012745409,-0.754407097875931,-0.030543262,-0.34788775,0.12156218,174.5834,96.69087,-5.316929,STD
60723498000,0.314988,1.29238016492646,-10.1428153481056,-0.796008260494789,-0.046120327,-0.3567453,0.124005646,174.69554,96.57907,-5.1705484,STD
60728510000,0.32,1.31575555298529,-10.0960646696211,-0.833408852098958,-0.058643065,-0.36254853,0.110872045,174.8035,96.46632,-5.021587,STD
60733509000,0.324999,1.37197004478989,-10.0591919030188,-0.867944344936315,-0.06536258,-0.37873647,0.108123146,174.9163,96.35505,-4.8646665,STD
60738498000,0.329988,1.43905470759202,-10.0256498718283,-0.90148670635844,-0.07971791,-0.40439278,0.09621128,175.02145,96.24792,-4.706396,STD
60743465000,0.334955,1.49927770743453,-9.99386128245565,-0.943337498941143,-0.09621128,-0.43249258,0.102319926,175.13179,96.14956,-4.556137,STD
60748521000,0.340011,1.55836570292875,-9.9620445052098,-0.988789785643481,-0.103847094,-0.45845437,0.101098195,175.23224,96.05325,-4.405365,STD
60753504000,0.344994,1.61539887823778,-9.94149568571147,-1.01437113689645,-0.112704635,-0.46822822,0.095294975,175.33676,95.95928,-4.246136,STD
60758469000,0.349959,1.67150923722097,-9.92746830347133,-1.02839871443603,-0.119729586,-0.4831944,0.089491755,175.42978,95.871704,-4.0918016,STD
60763525000,0.355015,1.74179271549609,-9.92431899188484,-1.05352367031205,-0.13164146,-0.4868596,0.09407325,175.53035,95.78919,-3.9307346,STD
60768483000,0.359973,1.81977461681963,-9.92890625553087,-1.08563389315042,-0.14049901,-0.514654,0.086437434,175.61688,95.70994,-3.7701068,STD
60773507000,0.364997,1.85546198467339,-9.92871043374792,-1.11596389195965,-0.15607607,-0.5375614,0.087659165,175.71266,95.634254,-3.6073565,STD
60778603000,0.370093,1.85068249463324,-9.92393084389384,-1.14464083220057,-0.17195857,-0.5439755,0.087964594,175.80261,95.56515,-3.4471872,STD
60783517000,0.375007,1.84369239562062,-9.91462501925112,-1.17616101560248,-0.17684549,-0.54825157,0.0852157,175.89006,95.50118,-3.273079,STD
60788503000,0.379993,1.83406685012851,-9.90018665075845,-1.2122568614524,-0.19425514,-0.5510005,0.077579886,175.9738,95.44992,-3.1028626,STD
60793495000,0.384985,1.82442972154916,-9.88573090757446,-1.24839614393993,-0.20922135,-0.5525276,0.07238753,176.0544,95.4092,-2.9384573,STD
60798513000,0.390003,1.8147423995918,-9.87119987406138,-1.28472365185708,-0.24129178,-0.5458081,0.06841691,176.13438,95.38223,-2.7769523,STD
60803509000,0.394999,1.79222774968106,-9.85966372535083,-1.3357996865318,-0.26175576,-0.55955255,0.06291912,176.206,95.3613,-2.618761,STD
60808507000,0.399997,1.75733443174777,-9.85094022507746,-1.40122461780572,-0.2687807,-0.5589417,0.0720821,176.28203,95.352104,-2.46772,STD
60813542000,0.405032,1.71215647706276,-9.86129969682489,-1.47224621491983,-0.2910773,-0.57726765,0.060170226,176.342,95.36275,-2.3169029,STD
60818623000,0.410113,1.6449825492195,-9.9129719075077,-1.55492175201232,-0.31337386,-0.59040123,0.061086524,176.40245,95.38273,-2.1765182,STD
60823492000,0.414982,1.60584616255594,-9.96416465091994,-1.6319383313277,-0.34269542,-0.6047566,0.051618114,176.44603,95.42096,-2.0394404,STD
60828560000,0.42005,1.59860570173048,-10.0196750017902,-1.70916998907011,-0.36132678,-0.6420194,0.03940081,176.47794,95.465614,-1.9068948,STD
60834119000,0.425609,1.59066376768772,-10.0805633286425,-1.79388403512183,-0.37934732,-0.6908886,0.034208454,176.49445,95.53219,-1.7902933,STD
60838512000,0.430002,1.58438765395326,-10.1286803316758,-1.86082931382397,-0.4034765,-0.7449502,0.034208454,176.49768,95.60652,-1.676855,STD
60843445000,0.434935,1.57088662857702,-10.1925660144743,-1.93364395608802,-0.41447207,-0.7984009,0.029932396,176.48622,95.68263,-1.5660602,STD
60848532000,0.440022,1.54706399613692,-10.273562994621,-2.00511170415648,-0.43035457,-0.85062987,0.019242255,176.4592,95.76704,-1.4589279,STD
60853404000,0.444894,1.52901929119109,-10.3515905931597,-2.07559430461324,-0.45081854,-0.90041536,0.0067195175,176.40097,95.87938,-1.350584,STD
60858532000,0.450022,1.51925396400875,-10.4345960781467,-2.15371702404056,-0.46914452,-0.9575313,-0.0125227375,176.32571,95.99427,-1.243677,STD
60863479000,0.454969,1.51788999059935,-10.4905661519374,-2.22009908507349,-0.473726,-1.0155635,-0.02321288,176.2344,96.11802,-1.146274,STD
60868517000,0.460007,1.53170407793472,-10.5020778713495,-2.27075069856843,-0.49174652,-1.0574077,-0.0421497,176.13156,96.247894,-1.0471988,STD
60873474000,0.464964,1.54529606501718,-10.5134045075396,-2.32058794511357,-0.48899764,-1.0928379,-0.064446285,176.01753,96.38478,-0.9546863,STD
60878517000,0.470007,1.5591238622447,-10.524927651842,-2.37128982817332,-0.4896085,-1.1081096,-0.080634214,175.89821,96.524796,-0.8642784,STD
60883519000,0.475009,1.57833265253802,-10.5275253061426,-2.41567629525973,-0.50915617,-1.1227703,-0.099265605,175.76811,96.67489,-0.7733014,STD
60888507000,0.479997,1.62550737926131,-10.4850681949437,-2.42982864923958,-0.51251596,-1.1307116,-0.118507855,175.63673,96.81719,-0.6829115,STD
60893518000,0.485008,1.67231307351179,-10.4403654077107,-2.44472956179584,-0.5204572,-1.135293,-0.13958271,175.50142,96.97514,-0.58402216,WAL
60898513000,0.490003,1.71531397682781,-10.3830306703955,-2.46384112427087,-0.5335908,-1.1328496,-0.1572978,175.36697,97.132164,-0.48606324,WAL
60903454000,0.494944,1.75813684685562,-10.3272862986733,-2.4895259460286,-0.5299256,-1.1365148,-0.16462818,175.22205,97.29222,-0.37510237,WAL
60908515000,0.500005,1.80406642463818,-10.2771807419021,-2.56468340920055,-0.53878313,-1.1114693,-0.1872302,175.08687,97.456154,-0.25945458,WAL
60913506000,0.504996,1.849360738551,-10.2277682080462,-2.6388013500603,-0.5537493,-1.074512,-0.20738874,174.95674,97.62183,-0.13769376,WAL
60918510000,0.51,1.86577553307023,-10.1948272297106,-2.7315259129326,-0.57360244,-1.0326678,-0.22876903,174.83617,97.78852,-0.013760056,WAL
60923449000,0.514939,1.87534845660797,-10.1661088589354,-2.82725524826958,-0.5928447,-0.9877691,-0.267559,174.72731,97.95641,0.116790116,WAL
60928528000,0.520018,1.84940001979566,-10.1096341749681,-2.87986698722861,-0.6102544,-0.95630956,-0.29993483,174.61618,98.14835,0.2649337,WAL
60933420000,0.52491,1.81718192968857,-10.0498002906965,-2.92129029399745,-0.6227771,-0.93462384,-0.32895094,174.5152,98.34169,0.41844806,WAL
60938476000,0.529966,1.77163574847995,-9.95205567528533,-2.98423591586708,-0.627664,-0.9285152,-0.35277468,174.40266,98.54981,0.5860137,WAL
60943435000,0.534925,1.72366948164832,-9.8465302989597,-3.05138851913948,-0.63529986,-0.9068295,-0.37415496,174.30106,98.75976,0.75626636,WAL
60948513000,0.540003,1.67949411672234,-9.78332651129888,-2.98734634898801,-0.6239988,-0.9120218,-0.39828414,174.18254,98.97765,0.9240026,WAL
60953410000,0.5449,1.63802439810375,-9.73264126223227,-2.89519152564355,-0.61361414,-0.9419542,-0.41141775,174.0644,99.194405,1.0882314,WAL
60958502000,0.549992,1.55696648267918,-9.73823164505119,-2.64199746587031,-0.61086524,-0.98929626,-0.42730024,173.9285,99.419914,1.2481661,WAL
60963464000,0.554954,1.46686389183732,-9.76075728100114,-2.34916401035267,-0.59986967,-1.069625,-0.44532076,173.77599,99.63657,1.4034209,WAL
60968505000,0.559995,1.2960399881853,-9.72820545828583,-1.93948452486268,-0.59895337,-1.1838568,-0.45875978,173.59653,99.84011,1.545996,WAL
60973460000,0.56495,1.0894870464815,-9.66919017069126,-1.48211732981656,-0.6068946,-1.321607,-0.47342056,173.38994,100.03943,1.6829255,WAL
60978532000,0.570022,0.887287155704353,-9.55085756367273,-1.14794161754453,-0.63041294,-1.4627168,-0.48441613,173.16139,100.19155,1.7855084,WAL
60983509000,0.574999,0.69207409840461,-9.41466273373655,-0.866471575473855,-0.63621616,-1.5714508,-0.48380527,172.90782,100.33666,1.8782824,WAL
60988507000,0.579997,0.55381749783945,-9.2631048165504,-0.697469584137094,-0.64934975,-1.6444492,-0.4700608,172.59926,100.44394,1.9301559,WAL
60993500000,0.58499,0.447460817852593,-9.10356935486806,-0.591112929390355,-0.65301496,-1.6911805,-0.47067168,172.27304,100.546875,1.9770538,WAL
60998507000,0.589997,0.444970488273191,-8.97470066049499,-0.567515826914793,-0.65057147,-1.6988163,-0.46700647,171.91663,100.61702,1.981218,WAL
61003512000,0.595002,0.494776933039864,-8.86150425958814,-0.585627269971661,-0.6469063,-1.6807957,-0.47128254,171.56032,100.684616,1.9829552,WAL
61008511000,0.600001,0.598486020830595,-8.77655244935763,-0.690843438198387,-0.6383542,-1.616044,-0.47250426,171.2022,100.74288,1.9671984,WAL
61013542000,0.605032,0.747236983047505,-8.71417326023304,-0.868384882886167,-0.6249151,-1.4944818,-0.473726,170.87112,100.79543,1.9532489,WAL
61018507000,0.609997,0.923470537454331,-8.67598341249263,-0.991371612669417,-0.6017023,-1.359786,-0.49296826,170.56174,100.853355,1.9614605,WAL
61023521000,0.615011,1.12625770484384,-8.65711960400707,-1.07154329117069,-0.5537493,-1.2113458,-0.52748215,170.295,100.8982,1.9783032,WAL
61028525000,0.620015,1.33992976088951,-8.66485022437176,-1.1424687530714,-0.51068336,-1.0497719,-0.5726862,170.07246,100.97793,2.0413208,WAL
61033531000,0.625021,1.56462562840048,-8.69831524451536,-1.20461868236937,-0.44348818,-0.86742866,-0.61666846,169.90048,101.03646,2.1191206,WAL
61038500000,0.62999,1.83075433745941,-8.79913060343839,-1.2877713586915,-0.37720928,-0.72387534,-0.68844515,169.76263,101.1156,2.2697952,WAL
61043500000,0.63499,2.14174898884432,-8.96834836848138,-1.39296070921681,-0.28771752,-0.5849035,-0.75869465,169.67647,101.17179,2.437273,WAL
61048504000,0.639994,2.37674903890254,-9.09700358036446,-1.43782398599509,-0.183565,-0.44409904,-0.82741696,169.6345,101.23874,2.67909,WAL
61053510000,0.645,2.49944933783784,-9.16571564527027,-1.39365187837838,-0.070554934,-0.31795537,-0.9053023,169.62671,101.287895,2.943457,WAL
61058500000,0.64999,2.59996071275046,-9.24650436885246,-1.31058342238616,0.05100725,-0.22052236,-0.9654725,169.66472,101.35144,3.2902644,WAL
61063558000,0.655048,2.67495823078324,-9.34355992622951,-1.17823509418944,0.18387043,-0.14019357,-1.0140363,169.7326,101.39683,3.652306,WAL
61068482000,0.659972,2.72684901682372,-9.45846797342509,-1.01230247440974,0.30115658,-0.10140363,-1.0622946,169.8078,101.44702,4.0549016,WAL
61073514000,0.665004,2.7166445257279,-9.63704563525675,-0.731680221281101,0.419359,-0.10873401,-1.1123856,169.89244,101.48198,4.462696,WAL
61078461000,0.669951,2.71721865071399,-9.78759200183598,-0.527525375271318,0.505491,-0.16126843,-1.1542299,169.96223,101.52052,4.8936853,WAL
61083525000,0.675015,2.73700523382293,-9.89641841554468,-0.448378980852713,0.58184916,-0.2764165,-1.2098186,170.01181,101.55786,5.326941,WAL
61088405000,0.679895,2.7628729323498,-9.99570253411628,-0.36819349827526,0.6188065,-0.39645153,-1.2400564,170.0355,101.582726,5.7516813,WAL
61093517000,0.685007,2.8008864550131,-10.090736216733,-0.27791143528778,0.6646214,-0.45234573,-1.2638801,170.04631,101.614,6.175022,WAL
61098419000,0.689909,2.82984483985659,-10.1764115879892,-0.221828826145802,0.68936145,-0.5870415,-1.273654,169.9909,101.6683,6.585728,WAL
61103507000,0.694997,2.84440322886167,-10.2540566671646,-0.226681610657305,0.6994407,-0.7724391,-1.2986995,169.90787,101.73945,6.9898367,WAL
61108433000,0.699923,2.85843961460177,-10.3410537584071,-0.245013701876106,0.6948592,-0.9599747,-1.3469579,169.7791,101.82651,7.401915,WAL
61113517000,0.705007,2.87280203957719,-10.4559526583088,-0.292888325152409,0.6914995,-1.1386528,-1.3747523,169.60532,101.927376,7.7945404,WAL
61118534000,0.710024,2.89430669792244,-10.5286441739216,-0.34898688313613,0.6765333,-1.3106114,-1.3967434,169.38472,102.05216,8.178873,WAL
61123526000,0.715016,2.93214391454294,-10.5097256396913,-0.424661469475663,0.64934975,-1.4660766,-1.4129313,169.12347,102.19458,8.5496235,WAL
61128512000,0.720002,2.97548985925909,-10.5052123868828,-0.479442444554522,0.59956425,-1.6148223,-1.4074335,168.8238,102.352936,8.897328,WAL
61133498000,0.724988,3.03289439499978,-10.5371036722917,-0.481568537648604,0.5357288,-1.720502,-1.3991868,168.49908,102.52617,9.231543,WAL
61139495000,0.730985,3.10193871927512,-10.5754614818781,-0.484125733855025,0.46303585,-1.8188512,-1.3891076,168.08076,102.75161,9.577292,WAL
61143455000,0.734945,3.14753076932188,-10.6007903006145,-0.485814327648159,0.3680463,-1.9107865,-1.3811663,167.64331,102.98904,9.903285,WAL
61148420000,0.73991,3.20469352903958,-10.6325472665301,-0.487931466078187,0.25228736,-2.007914,-1.3775011,167.16605,103.24456,10.223906,WAL
61153474000,0.744964,3.09729572759501,-10.5051430650879,-0.708173098737947,0.13927728,-2.1087067,-1.3875804,166.67096,103.51131,10.528607,WAL
61159217000,0.750707,2.92051507946682,-10.3075641571185,-1.03053795534127,0.042760566,-2.1282544,-1.3610078,166.18344,103.77814,10.808033,WAL
61163516000,0.755006,2.75969476442829,-10.2427878006961,-1.27099293979937,-0.051618114,-2.125811,-1.3374895,165.69577,104.07205,11.093953,WAL
61168469000,0.759959,2.56547246970007,-10.1942322777152,-1.54775957289385,-0.12705997,-2.1267273,-1.3304645,165.21274,104.36645,11.363239,WAL
61173391000,0.764881,2.39949436502772,-10.1458859690002,-1.88842598600903,-0.20219639,-2.1252003,-1.3093897,164.72755,104.658066,11.57935,WAL
61178416000,0.769906,2.24142108002464,-10.0964880835557,-2.26385027645247,-0.2501493,-2.0680842,-1.2822062,164.26994,104.94288,11.78308,WAL
61183413000,0.774903,2.04335228665228,-10.2140509195438,-2.50779791982121,-0.29718593,-1.9868392,-1.2528846,163.80457,105.21656,11.936645,WAL
61188383000,0.779873,1.83305025017468,-10.3852273817304,-2.70831837121866,-0.3371976,-1.9434677,-1.2495248,163.35556,105.485466,12.081536,WAL
61193411000,0.784901,1.71878366047563,-10.4916450810731,-2.8092418194772,-0.3707952,-1.881465,-1.2452488,162.81938,105.79283,12.241195,WAL
61198402000,0.789892,1.62953843981918,-10.5808901055425,-2.88439570499214,-0.38240165,-1.8124372,-1.2281445,162.31177,106.08702,12.389121,WAL
61203411000,0.794901,1.49468435134731,-10.645739002994,-2.94967083652695,-0.40744713,-1.7675385,-1.2046263,161.77596,106.36408,12.49896,WAL
61208410000,0.7999,1.34656981850299,-10.7030738411178,-3.01178336163673,-0.43371433,-1.7284433,-1.2159272,161.27061,106.63586,12.609178,WAL
61213440000,0.80493,1.22533385051945,-10.6372963958036,-3.06396166577714,-0.44623706,-1.6985108,-1.2162327,160.74977,106.893196,12.695713,WAL
61218420000,0.80991,1.11360766718273,-10.5352855239356,-3.11253827384396,-0.46731192,-1.6811012,-1.2208142,160.24892,107.149414,12.781187,WAL
61223408000,0.814898,1.07671196313472,-10.3611323472263,-3.07690685013208,-0.4428773,-1.6459764,-1.2180653,159.73,107.38311,12.84794,WAL
61228832000,0.820322,1.05638339911946,-10.1527641945994,-3.01592110501908,-0.42180246,-1.6526959,-1.2250903,159.21666,107.613884,12.911267,WAL
61233411000,0.824901,1.11216643622047,-9.92451249212598,-2.96674895144357,-0.41325033,-1.6594155,-1.2232577,158.71663,107.82403,12.952282,WAL
61238407000,0.829897,1.18944602277408,-9.66369390642035,-2.9136192703614,-0.38728857,-1.6475036,-1.2281445,158.2318,108.01997,12.992813,WAL
61243385000,0.834875,1.32814536395057,-9.36974682660745,-2.86247407559374,-0.37690386,-1.6600263,-1.2257011,157.6998,108.23442,13.060054,WAL
61248473000,0.839963,1.48809036244449,-9.05926535605329,-2.81072708196563,-0.35827246,-1.6355917,-1.2156218,157.19511,108.43148,13.12358,WAL
61253480000,0.84497,1.83696471065749,-8.89008306584209,-2.68097146308007,-0.35613444,-1.6554449,-1.2266175,156.66724,108.65651,13.225034,WAL
61258507000,0.849997,2.26229234116991,-8.77367760513345,-2.51979470729099,-0.36071593,-1.6792686,-1.2538009,156.15738,108.87029,13.322601,WAL
61263516000,0.855006,2.63100159952647,-8.60821511785752,-2.38481533741976,-0.34972036,-1.6380352,-1.2562444,155.66272,109.11504,13.469797,WAL
61268476000,0.859966,2.95590550439861,-8.40827434967905,-2.2698493435231,-0.35308012,-1.582141,-1.2629639,155.17584,109.3593,13.616893,WAL
61273499000,0.864989,3.19509473442623,-8.25337591803279,-2.14640837814208,-0.36071593,-1.5375478,-1.2586879,154.71568,109.66103,13.858763,WAL
61278515000,0.870005,3.38970589372527,-8.12212628094969,-2.01968486112681,-0.32925636,-1.5216653,-1.2409728,154.27534,109.94372,14.09038,WAL
61283505000,0.874995,3.52529826762768,-7.96040102388797,-1.86541049312191,-0.31764993,-1.5344934,-1.2174544,153.84163,110.28205,14.385303,WAL
61288509000,0.879999,3.61411648533773,-7.77289632125206,-1.6877741092257,-0.28130344,-1.5601498,-1.2049317,153.42029,110.597496,14.667178,WAL
61293459000,0.884949,3.61780023235294,-7.60404861019608,-1.48055363598039,-0.24801129,-1.5971072,-1.2018774,152.99649,110.938774,14.990729,WAL
61298704000,0.890194,3.56363018088235,-7.43661381215686,-1.23925098328431,-0.23762658,-1.6783522,-1.1704178,152.5664,111.25901,15.285735,WAL
61303472000,0.894962,3.47130301635083,-7.29134186407382,-1.09045612064193,-0.19547687,-1.7821994,-1.1633929,152.10826,111.58932,15.613918,WAL
61308459000,0.899949,3.34336298851077,-7.1444477726957,-0.986208696963985,-0.18295415,-1.890017,-1.1481212,151.63983,111.905334,15.912317,WAL
61313464000,0.904954,3.23037780457516,-7.00621641830065,-0.952735778703704,-0.16615535,-1.9822577,-1.1294898,151.11961,112.206345,16.195518,WAL
61318485000,0.909975,3.12998214384532,-6.87526567538126,-0.978925950077161,-0.13927728,-2.0748038,-1.1111639,150.5819,112.48954,16.454401,WAL
61323471000,0.914961,3.03035732701323,-6.75060217246588,-1.04218584426503,-0.1001819,-2.1242838,-1.0842859,150.0018,112.75489,16.690884,WAL
61328521000,0.920011,2.92959091384519,-6.6347206394937,-1.17822060726117,-0.058337633,-2.1578815,-1.063211,149.41315,113.00176,16.907328,WAL
61333475000,0.924965,2.83427397250334,-6.55418210924193,-1.30496015598625,-0.027794369,-2.175902,-1.0418307,148.78319,113.24256,17.099316,WAL
61338435000,0.929925,2.7435714176055,-6.51790113463815,-1.4228735247088,0.013439035,-2.1731532,-1.01312,148.16501,113.45688,17.272514,WAL
61343454000,0.934944,2.66047144110002,-6.4785126312643,-1.53753745475151,0.055283304,-2.1523838,-0.9807441,147.51802,113.67114,17.427668,WAL
61348491000,0.939981,2.59527078068205,-6.43337376891246,-1.64286144944895,0.09193522,-2.1178699,-0.95722586,146.89207,113.86327,17.568949,WAL
61353463000,0.944953,2.53938085861229,-6.38729876512477,-1.73209052927572,0.124005646,-2.0775528,-0.92179567,146.24477,114.04507,17.683943,WAL
61358461000,0.949951,2.49568197267194,-6.33874444741327,-1.80006662477176,0.15882497,-2.0286834,-0.8885035,145.62616,114.20419,17.787922,WAL
61363468000,0.954958,2.43176873107446,-6.2623064327804,-1.89146088168709,0.1853976,-1.9755383,-0.8524625,144.9964,114.35832,17.87134,WAL
61368477000,0.959967,2.34134419526861,-6.1492756331951,-2.01353408292177,0.21624629,-1.9083431,-0.8185594,144.40149,114.48841,17.94397,WAL
61373461000,0.964951,2.27628379787514,-6.06120859256299,-2.13327522549833,0.25900686,-1.8558086,-0.79473567,143.79407,114.61836,18.014309,WAL
61378476000,0.969966,2.26656455230193,-6.02719123305676,-2.24990617237681,0.29871312,-1.8133535,-0.75869465,143.22043,114.72404,18.070112,WAL
61383442000,0.974932,2.24868539049868,-6.00894806362976,-2.36291715469162,0.32406402,-1.7760907,-0.7254025,142.63239,114.83391,18.11414,WAL
61388473000,0.979963,2.2136733960941,-6.0220775158325,-2.47232963720592,0.34605515,-1.7519615,-0.6951646,142.06865,114.92143,18.145998,WAL
61393439000,0.984929,2.17898891222376,-6.04437266873065,-2.59307640499626,0.3643811,-1.7040086,-0.68203104,141.49686,115.0228,18.181152,WAL
61398480000,0.98997,2.14291156178072,-6.13198930650155,-2.80438686953133,0.40194935,-1.6566665,-0.64873886,140.94931,115.09754,18.199627,WAL
61403419000,0.994909,2.11884103676062,-6.22104371069869,-3.01484930094284,0.43676865,-1.6136005,-0.61850107,140.39287,115.180565,18.219849,WAL
61408457000,0.999947,2.12841783676062,-6.32160021069869,-3.23990425094283,0.47250426,-1.5552629,-0.58368176,139.87038,115.24081,18.230827,WAL
61413520000,1.00501,2.14785411178126,-6.43276276246482,-3.45824767265782,0.50243664,-1.4831808,-0.5580254,139.33232,115.30891,18.2321,WAL
61418482000,1.009972,2.19562258946522,-6.57129149738641,-3.64932168315239,0.5345071,-1.393689,-0.5183192,138.83305,115.35265,18.223412,WAL
61423448000,1.014938,2.24324964887613,-6.70941008174077,-3.8303470764036,0.56138515,-1.2974777,-0.47983465,138.33754,115.41063,18.218822,WAL
61428472000,1.019962,2.29089183443905,-6.84757241987325,-3.98280207020497,0.571159,-1.210124,-0.4297437,137.88104,115.449356,18.204775,WAL
61433459000,1.024949,2.35132480444094,-6.98241362815553,-4.11973923112602,0.5842926,-1.1120802,-0.3811799,137.44232,115.49727,18.197195,WAL
61438487000,1.029977,2.45586914586006,-7.11071818475279,-4.21002788009474,0.59681535,-1.02717,-0.33322698,137.03899,115.52859,18.18082,WAL
61443452000,1.034942,2.56225170045867,-7.23768547690697,-4.28376071562469,0.6026186,-0.93584555,-0.2864958,136.6526,115.56819,18.165464,WAL
61448487000,1.039977,2.68245124283578,-7.36750066939874,-4.29818444181873,0.59895337,-0.8689558,-0.23915374,136.29634,115.59358,18.141058,WAL
61453472000,1.044962,2.7988164928664,-7.49055393625093,-4.30507498260548,0.5928447,-0.8063421,-0.19639318,135.95802,115.634735,18.137373,WAL
61458465000,1.049955,2.90499780272021,-7.59231125777202,-4.28295388601036,0.5870415,-0.7510588,-0.1441642,135.64946,115.66147,18.122211,WAL
61463507000,1.054997,3.01395318194921,-7.70106833846456,-4.26243019521522,0.5726862,-0.7144069,-0.11026118,135.33682,115.70575,18.120361,WAL
61468479000,1.059969,3.15556986966369,-7.92672128365526,-4.27799245609047,0.571159,-0.69027776,-0.07238753,135.04936,115.73344,18.105759,WAL
61473468000,1.064958,3.29767076568291,-8.1531457694872,-4.29360792662679,0.54550266,-0.68539083,-0.038179077,134.76033,115.77688,18.106745,WAL
61478536000,1.070026,3.44202180617708,-8.38315565006373,-4.30947066558813,0.5195409,-0.66950834,-0.00580322,134.49196,115.809494,18.09937,WAL
61484014000,1.075504,3.59805081166781,-8.63177327551721,-4.32661669637546,0.48380527,-0.6747007,0.014049901,134.19817,115.85706,18.090694,WAL
61488478000,1.079968,3.72519821592313,-8.83437077095794,-4.3405889273785,0.46700647,-0.6728681,0.014660766,133.91968,115.89954,18.079254,WAL
61493462000,1.084952,3.86715669773507,-9.06056833307187,-4.35618874801451,0.44684792,-0.6747007,0.017104227,133.63068,115.95176,18.066595,WAL
61498490000,1.08998,4.0270525732926,-9.37570445540554,-4.38800937313492,0.41813725,-0.68569624,0.017104227,133.34702,116.00551,18.052427,WAL
61503407000,1.094897,4.18483637512565,-9.6912719621563,-4.42049428206366,0.4007276,-0.68752885,-0.002443461,133.07114,116.06064,18.042372,WAL
61508470000,1.09996,4.34304186012216,-9.96982178888779,-4.47496597419959,0.37293324,-0.71959925,-0.01863139,132.7895,116.12814,18.054304,WAL
61513473000,1.104963,4.49880184464585,-10.2388615515713,-4.53160598649394,0.36010507,-0.754724,-0.03940081,132.51073,116.19565,18.069382,WAL
61518476000,1.109966,4.66901837141975,-10.3906756080247,-4.61166402469136,0.36132678,-0.8011498,-0.05681047,132.21104,116.2699,18.095564,WAL
61523402000,1.114892,4.83888849135802,-10.5217188641975,-4.69417249753086,0.38056904,-0.8378017,-0.06688975,131.90974,116.33948,18.119156,WAL
61528464000,1.119954,5.00865370586015,-10.5096426379164,-4.78088900608663,0.41263947,-0.8924741,-0.07391469,131.58078,116.41582,18.152977,WAL
61533419000,1.124909,5.17433876861376,-10.4827747267151,-4.86597042875342,0.46273044,-0.9468411,-0.065973446,131.24919,116.47664,18.17745,WAL
61538455000,1.129945,5.229255924619,-10.2784026808837,-5.03606043402884,0.51343226,-0.9807441,-0.04795292,130.92194,116.54094,18.211067,WAL
61543466000,1.134956,5.25379788268385,-10.028074093587,-5.22748786069346,0.5644395,-0.98899084,-0.02687807,130.59468,116.58601,18.234293,WAL
61548490000,1.13998,5.16615255112395,-9.72870821440823,-5.42605345138575,0.62858033,-0.9221011,0.004886922,130.27255,116.65312,18.291824,WAL
61554236000,1.145726,5.04195745824682,-9.37599448885077,-5.65457223968584,0.68386364,-0.79717916,0.027488936,129.97275,116.70204,18.345306,WAL
61558458000,1.149948,4.86856129508354,-9.13030752442269,-5.83514613307439,0.73273283,-0.6084218,0.05497787,129.71402,116.77408,18.42231,WAL
61563538000,1.155028,4.62523270085134,-8.84038424252421,-6.05776576700011,0.7806858,-0.39706242,0.08155051,129.5047,116.824356,18.502022,WAL
61568475000,1.159965,4.48985088164563,-8.74172148998766,-6.11680992692417,0.8549059,-0.16279559,0.12675454,129.3663,116.880875,18.588526,WAL
61573455000,1.164945,4.38574851171111,-8.70098587453735,-6.12586225965645,0.906524,0.04795292,0.18753563,129.28802,116.91928,18.67667,WAL
61578487000,1.169977,4.33797601486631,-8.84447297540107,-6.04340529925134,0.93126404,0.23243423,0.27397305,129.25488,116.95593,18.748003,WAL
61583478000,1.174968,4.32263987290909,-9.08985188727273,-5.91049171309091,0.9505063,0.31612277,0.3659083,129.25955,116.967476,18.808096,WAL
61588471000,1.179961,4.37051453271028,-9.55684702803738,-5.67833042429907,0.9560041,0.48808134,0.4202753,129.34071,116.960754,18.873718,WAL
61593489000,1.184979,4.43740540067608,-10.0919749695765,-5.41554428001591,0.93767816,0.64751714,0.52839845,129.45457,116.925285,18.904438,WAL
61598483000,1.189973,4.52063093835377,-10.8464850476746,-5.0376444290718,0.90408057,0.79809546,0.64904433,129.61148,116.848465,18.916418,WAL
61603478000,1.194968,4.60906124614711,-11.670283648813,-4.62341808931699,0.84513205,0.97249746,0.77579886,129.82727,116.759285,18.913755,WAL
61608459000,1.199949,4.53361671055713,-12.506513561567,-4.16694145241487,0.76052725,1.1414018,0.88331115,130.06839,116.6118,18.882854,WAL
61613495000,1.204985,4.38773992207045,-13.3582469004293,-3.6869593047712,0.6786713,1.3298537,0.9642508,130.36728,116.45979,18.843271,WAL
61618477000,1.209967,4.06809110351156,-13.9171523738178,-3.24231447155164,0.58093286,1.5253305,1.0219775,130.702,116.222115,18.764338,WAL
61623811000,1.215301,3.62801167869651,-14.3572315988388,-2.78310132592003,0.48166725,1.7076738,1.0549643,131.08151,115.99739,18.687607,WAL
61628477000,1.219967,3.07499278960589,-14.4364949138155,-2.37878096808142,0.40317106,1.8551978,1.0729848,131.4759,115.66606,18.552898,WAL
61633486000,1.224976,2.33746884443482,-14.2599043434387,-1.94249912895193,0.3643811,1.9587394,1.0516045,131.89572,115.359856,18.435022,WAL
61638471000,1.229961,1.56575172153349,-13.9224655364277,-1.48275642003525,0.33933565,2.0253236,1.024421,132.30829,114.96248,18.252184,WAL
61643459000,1.234949,0.775213092019193,-13.5061467957305,-1.01030436265178,0.31490102,2.0045543,0.95417154,132.705,114.60128,18.092562,WAL
61648439000,1.239929,0.0775722306891787,-13.0388288808187,-0.483358710130408,0.29810223,1.9260582,0.88453287,133.07126,114.17079,17.872702,WAL
61653476000,1.244966,-0.572327292451852,-12.5347399803955,0.0832203633336212,0.2828306,1.8002199,0.81336707,133.3979,113.77566,17.672016,WAL
61658460000,1.24995,-1.17728554989532,-11.9636182339394,0.472539160083747,0.27122417,1.6389514,0.75533485,133.68819,113.29902,17.397865,WAL
61663522000,1.255012,-1.70613424871625,-11.2210933951515,0.483222981026997,0.27214047,1.4892895,0.7131852,133.93034,112.84927,17.135288,WAL
61668465000,1.259955,-2.05642403222105,-10.5646546200402,0.540688072373076,0.2782491,1.3225232,0.67103547,134.14874,112.30163,16.795635,WAL
61673480000,1.26497,-2.24469592609236,-9.96769508518979,0.646303977167989,0.26511553,1.16492,0.63163465,134.31691,111.77781,16.460747,WAL
61678458000,1.269948,-2.34811109667406,-9.37771892642612,0.68533336069744,0.25961772,1.031446,0.59712076,134.48476,111.23281,16.084246,WAL
61683507000,1.274997,-2.3286175905765,-8.78317144305584,0.626853269854868,0.27550024,0.98715824,0.5885687,134.62772,110.69738,15.709532,WAL
61688468000,1.279958,-2.16372820198727,-8.16664176524719,0.542475726930984,0.3036,0.9309586,0.5842926,134.74806,110.16406,15.32756,WAL
61693613000,1.285103,-1.78749054501224,-7.48169594880078,0.4170631410279,0.33108896,0.9300423,0.602924,134.86911,109.63034,14.943867,WAL
61698414000,1.289904,-1.49794217929818,-7.00886674533629,0.33236067684582,0.40103304,0.9407325,0.60994893,134.99231,109.12104,14.580134,WAL
61703472000,1.294962,-1.29767812343451,-6.79394928043763,0.298169249688414,0.47861293,0.9645562,0.6188065,135.11655,108.60494,14.21221,WAL
61708458000,1.299948,-1.08025389734197,-6.52320239158077,0.318861453915899,0.54702985,1.0167851,0.6630942,135.26143,108.15811,13.908429,WAL
61713514000,1.305004,-0.828501683356745,-6.15661582717322,0.424862359419867,0.61727935,1.0598512,0.7076874,135.40556,107.6986,13.603357,WAL
61718416000,1.309906,-0.562578889120682,-5.83583741293176,0.512396460874052,0.6401868,1.071763,0.75747293,135.5523,107.26679,13.322256,WAL
61723467000,1.314957,-0.195812210143218,-5.65245398567818,0.537866383689975,0.66889745,1.0164797,0.80664754,135.68752,106.816505,13.028645,WAL
61728462000,1.319952,0.140460441622736,-5.57700051070641,0.538854876497652,0.7339546,0.9266826,0.840856,135.78476,106.40858,12.791566,WAL
61733480000,1.32497,0.416832041452123,-5.74742974064986,0.48358054595035,0.8200866,0.86437434,0.88025683,135.86853,105.98557,12.539488,WAL
61738437000,1.329927,0.634999827338584,-5.94951673196227,0.412204043055231,0.89980453,0.86376345,0.92087936,135.88638,105.62933,12.357183,WAL
61743469000,1.334959,0.649057754705368,-6.28222034915403,0.2763109881972,0.97310835,0.84757555,0.958753,135.87645,105.25698,12.161309,WAL
61748453000,1.339943,0.64598265773642,-6.63731708199354,0.200238242209363,1.0366384,0.9242391,1.03786,135.92343,104.87741,11.96807,WAL
61753476000,1.344966,0.55068687887603,-7.13385820280471,0.440985436905432,1.0497719,1.1059716,1.1636983,135.99174,104.481865,11.755215,WAL
61758494000,1.349984,0.571188877540902,-7.56900272836887,0.762768666377789,1.0195341,1.2660183,1.2705997,136.09105,104.067726,11.516943,WAL
61763571000,1.355061,0.952060911923649,-7.81970312571145,1.34130843249479,0.9505063,1.1636983,1.2330315,136.15553,103.67227,11.283724,WAL
61768490000,1.35998,1.39270064651855,-8.01271867506447,1.88235637026384,0.86345804,0.91965765,1.133155,136.23048,103.21507,11.0024395,WAL
61773468000,1.364958,2.07834188694703,-8.04109011505654,2.36466951700059,0.82863873,0.48899764,1.024421,136.20802,102.78378,10.728842,WAL
61778457000,1.369947,2.70668717883551,-8.15895245798735,2.80493456137802,0.87689704,0.27916542,1.0467176,136.18782,102.31932,10.470691,WAL
61783484000,1.374974,3.11120687728351,-8.62533988671412,3.08095974691578,0.9098838,-0.1001819,1.0845913,135.98264,101.89588,10.220728,WAL
61788473000,1.379963,3.49535466908789,-9.11502438527715,3.25626398029133,0.89644474,-0.4016439,1.1258247,135.83647,101.45845,10.002979,WAL
61793472000,1.384962,3.80425225740542,-9.72345922885913,2.99884934779548,0.80939645,-0.61208695,1.1071932,135.59932,101.04738,9.786312,WAL
61798468000,1.389958,4.09831634127907,-10.3255792325581,2.69030323546512,0.7107417,-0.6924158,1.0589349,135.33499,100.64854,9.590452,WAL
61803474000,1.394964,4.3018332940107,-10.8918873713547,2.0620555482189,0.63591075,-0.66950834,0.9691377,135.03365,100.291046,9.412358,WAL
61808457000,1.399947,4.50441519082687,-11.4555936149871,1.43669433656331,0.5928447,-0.52290064,0.86467975,134.76988,100.01397,9.282814,WAL
61813490000,1.40498,4.67260976405167,-11.9440946961773,0.902123774230204,0.57971114,-0.20799962,0.73975784,134.5575,99.78581,9.18965,WAL
61818491000,1.409981,4.83659895195425,-12.3726114818498,0.395776887189856,0.6114761,0.16890424,0.59773165,134.40184,99.60528,9.135012,WAL
61823469000,1.414959,4.97409537158627,-12.0976184445549,0.172937790516957,0.59986967,0.4914411,0.47952923,134.35703,99.52846,9.138021,WAL
61828573000,1.420063,5.10063118331143,-11.7992109500657,-0.0407297440269382,0.54153204,0.7180721,0.41691554,134.41602,99.52217,9.183481,WAL
61833486000,1.424976,5.05205224723109,-11.3178384011639,-0.0716435781914774,0.49938235,0.8518516,0.3915646,134.53827,99.53981,9.251119,WAL
61838454000,1.429944,5.00292948019523,-10.8310769879857,-0.102903486217008,0.47708577,0.9202685,0.36987892,134.73337,99.611046,9.358148,WAL
61843463000,1.434953,4.73372572493504,-10.35962773326,-0.021311891551669,0.4550946,0.9309586,0.31673363,134.94698,99.70057,9.478291,WAL
61848455000,1.439945,4.44705326505097,-9.89139599390366,0.0694677402020788,0.4083634,0.89369583,0.25900686,135.1632,99.79958,9.602323,WAL
61853473000,1.444963,4.12900282517869,-9.44085941932717,0.0723932857449728,0.35216382,0.86590147,0.20066923,135.40388,99.91306,9.735747,WAL
61858458000,1.449948,3.81052128010102,-8.99498530372629,0.0678435508798246,0.28313604,0.8671232,0.16920967,135.63945,100.037125,9.874784,WAL
61863561000,1.455051,3.57685334891395,-8.61636144026734,0.0248340936716792,0.226631,0.85918194,0.14049901,135.86586,100.1394,9.9912,WAL
61868461000,1.459951,3.3710361047619,-8.26843176190476,-0.0241700357142857,0.20677789,0.8698721,0.111177474,136.09573,100.25178,10.115168,WAL
61873473000,1.464963,3.19703569758673,-8.03862390799397,0.0409505986425339,0.22602014,0.8680395,0.10781772,136.31898,100.32838,10.201771,WAL
61879138000,1.470628,3.00449681793985,-7.79313755895662,0.12759304170881,0.2779437,0.8524625,0.14630222,136.53929,100.40103,10.284036,WAL
61883475000,1.474965,2.83820621033956,-7.63765474800742,0.301751502902064,0.31703907,0.8164214,0.16798794,136.75853,100.45593,10.346404,WAL
61888432000,1.479922,2.64124758991156,-7.47179468621029,0.540175214549623,0.41874814,0.7458665,0.21777347,136.96109,100.488266,10.389465,WAL
61893483000,1.484973,2.43957237822717,-7.46085983315115,0.780993719475306,0.52564955,0.655153,0.27030787,137.15392,100.48379,10.398852,WAL
61898442000,1.489932,2.24135730935109,-7.48445684756037,1.01696404097386,0.61850107,0.52015173,0.3191771,137.31049,100.465454,10.394985,WAL
61903481000,1.494971,2.03817746624776,-7.56605752333932,1.14351972157989,0.6951646,0.35094208,0.36254853,137.41266,100.40542,10.353881,WAL
61908513000,1.500003,1.83486027414722,-7.66122736894075,1.24301528035907,0.7657196,0.16768251,0.39370266,137.46846,100.33698,10.302438,WAL
61913521000,1.505011,1.66128306169803,-7.78798299540205,1.29850414266467,0.86193085,-0.04886922,0.419359,137.46664,100.21518,10.1983185,WAL
61918503000,1.509993,1.50823028962789,-7.93593379886655,1.32401302679641,0.94225967,-0.27183503,0.44104472,137.40662,100.09274,10.087389,WAL
61923459000,1.514949,1.36237703455431,-8.10690282240623,1.21170913125183,1.0103711,-0.47739118,0.45448375,137.28835,99.92447,9.924396,WAL
61928506000,1.519996,1.2164093869849,-8.29053987179737,1.04219822431564,1.0729848,-0.6389651,0.47036624,137.11542,80.23989,9.756666,WAL
61933477000,1.524967,1.1078636068917,-8.45288220102471,0.862212790516375,1.1420126,-0.7449502,0.4914411,136.898,80.43189,9.551259,WAL
61938498000,1.529988,1.01607958565401,-8.60746559538879,0.673814086009644,1.1988231,-0.7974846,0.5195409,136.64722,80.61625,9.342386,WAL
61943456000,1.534946,0.983122526276771,-8.69360770793863,0.494526903550247,1.2583824,-0.8167268,0.5519168,136.3959,80.83632,9.088625,WAL
61948737000,1.540227,0.977915042668863,-8.75088986449753,0.307057363163097,1.3271047,-0.7883216,0.6178902,136.14047,81.05565,8.82181,WAL
61953476000,1.544966,0.935754993411176,-8.74395005448168,0.20310837398067,1.3753631,-0.7498371,0.6774496,135.90646,81.29949,8.522551,WAL
61958459000,1.549949,0.879565538365304,-8.71819665000245,0.114141749700044,1.4062119,-0.68630713,0.7254025,135.6839,81.53625,8.214292,WAL
61963485000,1.554975,0.822891205421184,-8.69222101064613,0.0244074021916303,1.4285084,-0.5928447,0.75411314,135.4949,81.7652,7.9026713,WAL
61968478000,1.559968,0.766588988073394,-8.66641592363735,-0.0647377623745278,1.434617,-0.48166725,0.7800749,135.32501,81.98361,7.5849533,WAL
61973482000,1.564972,0.667122108141819,-8.59292422628167,-0.0404742804812414,1.4428637,-0.3631594,0.7825184,135.19576,82.17738,7.269572,WAL
61978479000,1.569969,0.544922367506384,-8.49422464245728,0.0441255469049303,1.4147639,-0.29993483,0.79779,135.07697,82.359856,6.950468,WAL
61983479000,1.574969,0.437036848442696,-8.4360018580423,0.102738929213576,1.396438,-0.18295415,0.8029824,135.00865,82.53411,6.6289086,WAL
61988474000,1.579964,0.338211557212986,-8.40305991903591,0.145092630509198,1.3377949,-0.050396383,0.81031275,134.95758,82.69796,6.3094134,WAL
61993457000,1.584947,0.29417655892662,-8.44337210850898,0.170919089100312,1.2873985,0.08246681,0.8197812,134.94719,82.83882,5.974004,WAL
61998486000,1.589976,0.289476927019906,-8.53736455035129,0.185017960283958,1.210735,0.22937989,0.81183994,134.97209,82.96412,5.647455,WAL
62003473000,1.594963,0.332936886441925,-8.71011156702466,0.186465832682975,1.135293,0.36346483,0.8197812,135.03394,83.07453,5.3046694,WAL
62008459000,1.599949,0.418408176674622,-8.95228013922037,0.17696902486078,1.0439687,0.4886922,0.8008443,135.12775,83.16811,4.9780335,WAL
62013483000,1.604973,0.51398329569008,-9.21731768101665,0.145234241020589,0.958753,0.5907067,0.77671516,135.24367,83.25241,4.655419,WAL
62018447000,1.609937,0.617013934866516,-9.49831059560634,0.0937189287676091,0.8970556,0.6933321,0.75533485,135.38765,83.32535,4.343917,WAL
62023472000,1.614962,0.709468984129159,-9.75652321937378,0.0486411844933464,0.84391034,0.7672467,0.7305948,135.58052,83.37604,4.054345,WAL
62028478000,1.619968,0.789215102935421,-9.98637944031311,0.0111135943033268,0.8249735,0.80970186,0.6954701,135.78558,83.41011,3.781378,WAL
62033475000,1.624965,0.859050966905071,-10.1847445692922,0.00435252760328813,0.8063421,0.8194757,0.6640105,136.02502,83.44665,3.5268617,WAL
62038471000,1.629961,0.916824931794538,-10.3447339748282,0.0354615824437117,0.8005389,0.7867944,0.63285637,136.25667,83.46689,3.2913537,WAL
62043441000,1.634931,0.960601608755174,-10.4768589984082,0.0589212959025788,0.80970186,0.72112644,0.62980205,136.50531,83.46925,3.0738516,WAL
62048482000,1.639972,0.970848164798896,-10.5434619336729,0.0640445792741165,0.84299403,0.6270532,0.63041294,136.72899,83.45446,2.8737855,WAL
62053458000,1.644948,0.992617244466985,-10.6080191688812,0.0334989132991176,0.86498517,0.54733527,0.6337727,136.94682,83.41388,2.690666,WAL
62058466000,1.649956,1.03153451964702,-10.67125945532,-0.0492002464241809,0.8594874,0.47128254,0.6453791,137.13136,83.36725,2.5141332,WAL
62063510000,1.655,1.12560624427451,-10.7687192010454,-0.147309102759462,0.8374963,0.4251622,0.6569856,137.30493,83.31286,2.34167,WAL
62068530000,1.66002,1.2884796121963,-10.9083248616784,-0.263647238808247,0.7812967,0.40561453,0.6597345,137.45819,83.26521,2.175709,WAL
62073417000,1.664907,1.46837303188663,-11.0348902090345,-0.326705681984057,0.70157874,0.42913285,0.65668017,137.62946,83.22964,2.0183628,WAL
62078469000,1.669959,1.69216549471509,-11.1491670357248,-0.302897969152642,0.64660084,0.5045747,0.6462954,137.80443,83.19894,1.866671,WAL
62083407000,1.674897,1.87939621046901,-11.260311138191,-0.261172511457286,0.5195409,0.5757405,0.6441574,138.01837,83.21741,1.7388642,WAL
62088494000,1.679984,2.00633484911595,-11.3736495549972,-0.179569135388051,0.3924809,0.6411031,0.6365216,138.24654,83.24742,1.6184511,WAL
62093427000,1.684917,2.10598997506297,-11.4861286234257,-0.0604641449212846,0.25870144,0.7113526,0.62980205,138.51707,83.30003,1.5278058,WAL
62098490000,1.68998,2.10090104366079,-11.6133519084803,0.244871957075987,0.09987647,0.73761976,0.6270532,138.78766,83.392204,1.4424338,WAL
62103409000,1.694899,2.12926877838478,-11.7040412822544,0.548431116186834,-0.040011674,0.70738196,0.6200282,139.07916,83.494156,1.3732044,WAL
62108460000,1.69995,2.24818494553401,-11.7084456733133,0.878753809355367,-0.17012598,0.6270532,0.6224717,139.35742,83.63435,1.3079326,WAL
62113525000,1.705015,2.38912590051865,-11.715711294634,1.2102425128466,-0.3145956,0.51343226,0.6273586,139.60323,83.76342,1.2403293,WAL
62118480000,1.70997,2.72516894964093,-11.7488419883303,1.53681961418312,-0.4392121,0.33933565,0.6395759,139.80373,83.91975,1.1788644,WAL
62123467000,1.714957,3.06512732013902,-11.7907333848233,1.82673474442943,-0.5564982,0.13347405,0.63316184,139.95891,84.05047,1.1306813,WAL
62128467000,1.719957,3.4257137750531,-11.9294203900367,1.67880179405291,-0.6771441,-0.070554934,0.61911196,140.06242,84.21323,1.0897692,WAL
62134494000,1.725984,3.82856194606502,-12.1124994033576,1.4417567969444,-0.76083267,-0.19028452,0.58246,140.14409,84.34351,1.0924678,WAL
62139268000,1.730758,4.03161613593889,-12.3155538476639,1.03970959937467,-0.7770206,-0.19425514,0.52106804,140.20264,84.48224,1.110105,WAL
62143442000,1.734932,4.2091503187067,-12.4930882528868,0.688192003510393,-0.7284568,-0.108123146,0.44043383,140.3046,84.643776,1.1918598,WAL
62148454000,1.739944,4.3540804215956,-12.7730663962468,0.26788808263313,-0.625526,0.021991149,0.33261612,140.42201,84.7806,1.297338,WAL
62153433000,1.744923,4.47588785557084,-13.0728997412065,-0.149068111841226,-0.48258355,0.17715092,0.22052236,140.57458,84.87826,1.4233239,WAL
62158448000,1.749938,4.45292490116497,-13.2434603890809,-0.465183767408431,-0.31856623,0.32711834,0.10781772,140.81894,84.98236,1.6215119,WAL
62163461000,1.754951,4.37234982227268,-13.3619535742916,-0.740086987062889,-0.172264,0.46792278,0.011911872,141.10553,85.028435,1.8399985,WAL
62168436000,1.759926,4.12414889344092,-13.2740454276939,-0.944070722257158,-0.07513642,0.5907067,-0.04917465,141.4977,85.077835,2.0832653,WAL
62173380000,1.76487,3.80373213966684,-13.0965833658511,-1.11660280539719,-0.039095376,0.6356053,-0.062002823,141.90292,85.08109,2.3336446,WAL
62178384000,1.769874,3.5768683894882,-12.9269541115538,-1.22933562911431,-0.05497787,0.6817256,-0.10751228,142.3615,85.074554,2.595711,WAL
62183395000,1.774885,3.38077335494943,-12.7602734780876,-1.32248084858515,-0.1441642,0.6762278,-0.14905111,142.80997,85.056305,2.8554292,WAL
62188388000,1.779878,3.30926919502963,-12.8230145366087,-1.34809441999618,-0.26236662,0.63224554,-0.20433442,143.25784,85.0564,3.0841382,WAL
62193390000,1.78488,3.26806006838081,-12.9420628059644,-1.35725197182183,-0.42913285,0.5717699,-0.27275133,143.69188,85.056564,3.3257942,WAL
62198391000,1.789881,3.29807259109603,-13.1339170578861,-1.27598989082871,-0.59864795,0.4709771,-0.35033122,144.09668,85.068016,3.5581446,WAL
62203390000,1.79488,3.35714045848242,-13.3554216890808,-1.15785425885256,-0.763887,0.37232238,-0.43157628,144.47832,85.06713,3.809626,WAL
62208381000,1.799871,3.43127296673456,-13.5421771894094,-0.959982241751527,-0.91721416,0.26206118,-0.52626044,144.81993,85.044495,4.0791826,WAL
62213426000,1.804916,3.51093102628261,-13.720236185627,-0.735065220948502,-1.0705414,0.14172074,-0.62796944,145.12544,84.9859,4.3718624,WAL
62218393000,1.809883,3.61172376813451,-13.7744435281559,-0.466684687245263,-1.2024882,0.020463986,-0.74281216,145.4042,84.87988,4.682352,WAL
62223470000,1.81496,3.72418331523886,-13.778768982208,-0.172559734641224,-1.352761,-0.115453534,-0.84879726,145.64076,84.72046,5.0155797,WAL
62228477000,1.819967,3.77338107150183,-13.6935427626374,0.146353261617582,-1.4914275,-0.269697,-0.9294315,145.8367,84.50024,5.3628774,WAL
62233480000,1.82497,3.75332341356358,-13.5080092172684,0.497362544667504,-1.645671,-0.41386122,-0.9993755,145.99522,84.21972,5.7310014,WAL
62238917000,1.830407,3.63100203711605,-13.2395130108642,0.678838134844444,-1.790446,-0.56505036,-1.0891727,146.11707,83.87127,6.121573,WAL
62243459000,1.834949,3.47204693039012,-12.9774519471605,0.717502868711111,-1.8915442,-0.7131852,-1.1563679,146.19931,96.520256,6.517679,WAL
62248472000,1.839962,3.34544731410072,-12.6056269453237,0.634770029438849,-1.9807305,-0.8179486,-1.1939361,146.24115,96.94131,6.9099364,WAL
62253476000,1.844966,3.26171866838643,-12.1623574024666,0.442686660295992,-2.0696115,-0.91446525,-1.2305881,146.24664,97.40264,7.31194,WAL
62258463000,1.849953,3.14820663734823,-11.9450918839242,0.0390188468771248,-2.1734586,-0.9660834,-1.3023647,146.2364,97.87816,7.7004,WAL
62263579000,1.855069,3.01019271035454,-11.883223815153,-0.527314183424964,-2.2498167,-0.9947941,-1.3765849,146.20941,98.379524,8.091153,WAL
62268475000,1.859965,2.87547651563098,-11.8228337672475,-0.829437928431866,-2.348166,-1.0629056,-1.4272866,146.16312,98.91621,8.480676,WAL
62273590000,1.86508,2.73240312948937,-11.7586971588277,-0.933042771165273,-2.4853053,-1.1172725,-1.4349225,146.11713,99.47924,8.869798,WAL
62278451000,1.869941,2.4887294814525,-11.8101022180596,-0.715120549351436,-2.6322184,-1.3066407,-1.4269812,146.00761,100.08739,9.245589,WAL
62283488000,1.874978,2.14683378726068,-11.956629122975,-0.226698110664212,-2.7156014,-1.6187929,-1.4172074,145.85083,100.71172,9.608465,WAL
62288472000,1.879962,1.6690545578265,-12.1455233139498,0.48327727384705,-2.840218,-2.0204368,-1.4031575,145.60117,101.35236,9.930329,WAL
62293456000,1.884946,0.95620173250715,-12.4084194156339,1.57530717369495,-2.9352076,-2.4294112,-1.393689,145.26598,102.002266,10.229502,WAL
62298485000,1.889975,0.167960105052293,-12.6882558958166,2.59884334440869,-2.9932396,-2.7473664,-1.3952162,144.79494,102.57317,10.429431,WAL
62303474000,1.894964,-0.687289976600966,-12.9813471030772,3.53096966156476,-2.990491,-2.9098566,-1.3897184,144.26326,103.14316,10.603582,WAL
62309067000,1.900557,-1.38666355547324,-13.0181794568671,3.83137785883614,-2.9950724,-2.8542678,-1.3243558,143.59021,103.551865,10.625943,WAL
62313483000,1.904973,-1.77004200249537,-12.8574080444488,3.58403700580953,-2.9926288,-2.564107,-1.2082914,142.95467,103.94269,10.625821,WAL
62318483000,1.909973,-2.0995518284845,-12.6699408840916,2.95965231495219,-2.978579,-2.123673,-1.0635164,142.28517,104.12194,10.442236,WAL
62323477000,1.914967,-2.29819402724814,-12.4759182197431,1.90638674665314,-2.932764,-1.539075,-0.93676186,141.75688,104.27533,10.249526,WAL
62328462000,1.919952,-2.44489716495762,-12.282694385983,0.983234353368824,-2.805704,-0.94959,-0.8304713,141.37962,104.33704,9.960319,WAL
62333486000,1.924976,-2.50457941825512,-12.088726647302,0.272020320770105,-2.6083946,-0.44990227,-0.7315111,141.15576,104.357864,9.668758,WAL
62338438000,1.929928,-2.41133096275336,-11.9046715161885,-0.113653682871808,-2.3948972,-0.105068825,-0.74372846,141.03575,104.443756,9.394634,WAL
62343451000,1.934941,-2.11646416506975,-11.7277518070545,-0.0883793834140563,-2.1248949,0.11575896,-0.8323039,141.02654,104.478355,9.144426,WAL
62348437000,1.939927,-1.81376547785839,-11.5532479088799,-0.0781985478235636,-1.8359555,0.2843578,-0.9230174,141.03424,104.57061,8.930196,WAL
62353480000,1.94497,-1.45404606343587,-11.3850669320952,-0.152945437231573,-1.5402967,0.36835176,-0.96761054,141.08221,104.61236,8.7439,WAL
62358508000,1.949998,-1.08993968209996,-11.2232250271213,-0.241004549893452,-1.352761,0.35216382,-0.97310835,141.18404,104.662766,8.631876,WAL
62363531000,1.955021,-0.675247438454088,-11.1160576387059,-0.455339886240798,-1.2675453,0.2996294,-1.028697,141.29388,104.687,8.554675,WAL
62368705000,1.960195,-0.259194034535938,-11.0060758073438,-0.67718426928125,-1.1835514,0.226631,-1.1215485,141.39117,104.75011,8.555685,WAL
62373472000,1.964962,-0.013097786159375,-10.9097771934375,-0.8947476168125,-1.1016954,0.1994475,-1.1743884,141.48573,104.79634,8.562803,WAL
62378683000,1.970173,0.255919950423438,-10.8045092939063,-1.13257488846875,-1.0680978,0.16615535,-1.31672,141.55054,104.95491,8.683169,WAL
62383482000,1.974972,0.491907455097816,-10.6528658575717,-1.25424743861919,-1.0146471,0.18295415,-1.3567317,141.62595,105.07918,8.789835,WAL
62388471000,1.979961,0.724347004902184,-10.4352631424283,-1.27402946138081,-0.98837996,0.17134771,-1.4624114,141.67264,105.23424,8.948526,WAL
62393510000,1.985,0.811423062622583,-9.99006421070328,-1.26636827136453,-0.99021256,0.16798794,-1.5268577,141.72719,105.46854,9.169785,WAL
62398516000,1.990006,0.771124785999813,-9.35424704044083,-1.23502525044364,-1.0064005,0.18570304,-1.5497651,141.78238,105.70644,9.403995,WAL
62403510000,1.995,0.621742408601144,-8.71501869578783,-1.15462427890796,-1.0186177,0.21838433,-1.5167783,141.81818,106.0018,9.683131,WAL
62408509000,1.999999,0.308056432397296,-8.06773008268331,-1.00027083439938,-0.98899084,0.25289822,-1.4483615,141.86278,106.28266,9.952534,WAL
62413474000,2.004964,-0.0389122364348678,-7.59430926591577,-0.809394936704212,-0.93828905,0.29993483,-1.3912456,141.89102,106.5927,10.225923,WAL
62418579000,2.010069,-0.436349736434868,-7.30221676591577,-0.569974761704212,-0.8854492,0.3436117,-1.3515394,141.93393,106.879616,10.480568,WAL
62423450000,2.01494,-0.685076598607171,-7.1164184105989,-0.348928945734831,-0.8246681,0.35277468,-1.3820826,141.92175,107.15174,10.706979,WAL
62428516000,2.020006,-0.766319060541765,-7.04951267876281,-0.129096332988574,-0.73426,0.31306845,-1.4416419,141.91122,107.39745,10.924803,WAL
62433407000,2.024897,-0.697247898910103,-6.9682543786794,0.0602150290294352,-0.6282749,0.27885997,-1.4923438,141.83598,107.58968,11.08829,WAL
62438510000,2.03,-0.386218820861177,-6.85647838035004,0.2205893991428,-0.52595496,0.24312437,-1.5048665,141.75056,107.760666,11.249716,WAL
62443434000,2.034924,0.000433681978655925,-6.77084385223536,0.366421279123161,-0.45234573,0.19639318,-1.5005904,141.61395,107.90447,11.39702,WAL
62448528000,2.040018,0.544513434156331,-6.71925016876262,0.502441226962792,-0.39614612,0.12034045,-1.4776831,141.46248,108.02311,11.532365,WAL
62453407000,2.044897,1.04747790838857,-6.67209477323579,0.600715627900866,-0.35033122,0.05497787,-1.4584408,141.29788,108.16977,11.721112,WAL
62458514000,2.050004,1.52940946117846,-6.62828264014134,0.625055568551807,-0.3436117,0.0036651916,-1.434617,141.12071,108.30228,11.890749,WAL
62463553000,2.055043,1.93289219138395,-6.55690649495602,0.621558951543709,-0.3213151,-0.028710667,-1.4074335,140.9632,108.48985,12.172737,WAL
62468504000,2.059994,2.17120019141088,-6.42498616236762,0.557726488830551,-0.32742378,-0.046731193,-1.3613132,140.80017,108.67017,12.432611,WAL
62473491000,2.064981,2.39016905642347,-6.28843259214909,0.493289087523791,-0.3222314,-0.043676864,-1.3347405,140.6807,108.90203,12.778626,WAL
62478521000,2.070011,2.33286764345757,-6.10220312466297,0.426437510531324,-0.29932398,-0.03359759,-1.2864822,140.56458,109.11572,13.097737,WAL
62483594000,2.075084,2.27579047773279,-5.91966853927125,0.380668377813765,-0.267559,-0.06047566,-1.2363913,140.44072,109.38562,13.46591,WAL
62488508000,2.079998,2.22932025436951,-5.80813990615187,0.603725595528784,-0.21838433,-0.16249016,-1.1606439,140.30457,109.62988,13.801735,WAL
62494317000,2.085807,2.07457822482319,-5.68609625600279,0.85184744954859,-0.19761491,-0.31887165,-1.0989466,140.13164,109.88051,14.116575,WAL
62498525000,2.090015,1.59955923420763,-5.63331640653104,0.975000519828866,-0.19730948,-0.505491,-1.039998,139.92717,110.10699,14.395212,WAL
62503429000,2.094919,1.04597246377543,-5.57180681009343,1.11852301428097,-0.19822577,-0.66767573,-0.9807441,139.68315,110.29637,14.641739,WAL
62508517000,2.100007,0.694631244063124,-5.57820451001046,1.22976341233958,-0.183565,-0.7974846,-0.9242391,139.40068,110.46698,14.856071,WAL
62513511000,2.105001,0.430923536954083,-5.61003118323034,1.32524381180721,-0.19211712,-0.9954049,-0.89552844,139.05638,110.63131,15.0399475,WAL
62518525000,2.110015,0.226172028230035,-5.61535597169275,1.30695587395855,-0.1441642,-1.2055426,-0.88606006,138.60019,110.66743,15.06754,WAL
62523507000,2.114997,0.0565004359032717,-5.60566056031294,1.22454396607397,-0.07574729,-1.3967434,-0.84329945,138.10127,110.68183,15.060854,WAL
62528552000,2.120042,-0.0515482453313462,-5.56054901345256,1.08111733034277,-0.03268129,-1.5534303,-0.80939645,137.49863,110.639175,14.965331,WAL
62533553000,2.125043,-0.127683146365623,-5.49868935139593,0.909813776929955,0.019547688,-1.6722436,-0.7831292,136.86168,110.5665,14.846294,WAL
62538486000,2.129976,-0.168554624616519,-5.43808656696165,0.714404358849558,0.07941248,-1.765706,-0.7449502,136.14085,110.46276,14.657304,WAL
62543461000,2.134951,-0.191978719921337,-5.37718395732547,0.503587486430678,0.13744467,-1.8469511,-0.6979135,135.40404,110.33312,14.450423,WAL
62548514000,2.140004,-0.222368616877164,-5.30788716174374,0.269553264675087,0.21105394,-1.8967366,-0.66675943,134.63344,110.19982,14.2306595,WAL
62553495000,2.144985,-0.256379065487879,-5.23500769423508,0.0266215338195152,0.28680122,-1.9104811,-0.6258314,133.86824,110.03418,13.993118,WAL
62558489000,2.149979,-0.271195731855309,-5.17019609509918,-0.154905129323221,0.3494149,-1.9141463,-0.6059783,133.08969,109.88513,13.771214,WAL
62564066000,2.155556,-0.276389218203034,-5.10268044719953,-0.321096811756126,0.42088616,-1.92392,-0.57604593,132.3235,109.70069,13.535638,WAL
62568488000,2.159978,-0.222775091424524,-5.07371516197896,-0.45646991985431,0.49571714,-1.9211712,-0.5531385,131.55835,109.53072,13.307076,WAL
62573477000,2.164967,-0.13093017769486,-5.05437950607042,-0.611156095872117,0.5311473,-1.9230038,-0.52106804,130.80609,109.33953,13.069132,WAL
62578456000,2.169946,0.0205521871344613,-5.0382530175423,-0.763432697506679,0.59223384,-1.9205604,-0.47403142,130.06781,109.149605,12.855728,WAL
62583492000,2.174982,0.211425039761749,-5.02393761328782,-0.916130974027902,0.636827,-1.9254472,-0.42424592,129.34099,108.9435,12.63392,WAL
62588477000,2.179967,0.359776777788218,-5.09071933384384,-1.15667363270694,0.6914995,-1.9126191,-0.35918877,128.63553,108.74896,12.430978,WAL
62593455000,2.184945,0.480718277027154,-5.21166092662783,-1.45678767837076,0.7351763,-1.8515326,-0.27855456,127.95812,108.53024,12.215187,WAL
62598498000,2.189988,0.600035711317365,-5.34451775667665,-1.79674944290419,0.75991637,-1.7592919,-0.22082779,127.3005,108.3539,12.035606,WAL
62603487000,2.194977,0.714475703592814,-5.48756757275449,-2.17344777155689,0.818254,-1.6557503,-0.1685988,126.68057,108.14265,11.843006,WAL
62608470000,2.19996,0.841569062960761,-5.67606561786564,-2.59454041750892,0.8539896,-1.5396858,-0.10323623,126.1148,107.977325,11.6800165,WAL
62613521000,2.205011,0.985363505509314,-5.92051615017836,-3.07385524268728,0.8903361,-1.3836098,-0.058948494,125.601585,107.79132,11.520796,WAL
62618449000,2.209939,1.14553852387047,-6.17127983353711,-3.52391743185596,0.93737274,-1.1795808,-0.03176499,125.164696,107.651054,11.40098,WAL
62623476000,2.214966,1.33408055491451,-6.44259646866941,-3.96078322714681,0.977079,-0.95325524,-0.0033597588,124.78843,107.495705,11.282613,WAL
62628468000,2.219958,1.56694322991651,-6.75244436176441,-4.40268496274017,1.0106765,-0.7174612,0.017104227,124.49118,107.41259,11.218471,WAL
62634126000,2.225616,1.92669060595514,-7.18850177174329,-4.92050306238809,1.0458013,-0.47250426,0.018325957,124.26553,107.31943,11.168322,WAL
62638411000,2.229901,2.21439797183099,-7.569065342723,-5.30368921322839,1.0619892,-0.21746802,0.024740042,124.13265,107.30152,11.1733055,WAL
62643460000,2.23495,2.57939563380282,-8.10320845539906,-5.73990584843966,1.0488557,0.04520403,0.021380283,124.07205,107.284096,11.196283,WAL
62648410000,2.2399,2.96531185509343,-8.68244631283906,-6.19935152007233,1.0103711,0.2837469,-0.005497787,124.088844,107.366356,11.293575,WAL
62653479000,2.244969,3.49201894458509,-9.53590672362869,-6.8187200721519,0.9056077,0.5186246,-0.05100725,124.175705,107.467384,11.410195,WAL
62658442000,2.249932,4.05963224045297,-10.4329534602076,-7.44872828568732,0.75228053,0.7538077,-0.1020145,124.34916,107.67355,11.599747,WAL
62663492000,2.254982,4.85579161342141,-11.6043728950404,-8.18910578332809,0.51923543,0.86406887,-0.16737708,124.54435,107.92265,11.805515,WAL
62668444000,2.259934,5.57849131719745,-12.7900614252229,-8.8414887256051,0.23732115,1.0439687,-0.20922135,124.83455,108.31243,12.0986595,WAL
62673472000,2.264962,6.16735872101911,-14.086387430828,-9.31994359796178,0.07544186,1.1398746,-0.29535335,125.11572,108.72878,12.411018,WAL
62679196000,2.270686,6.81984225330287,-15.5396383830337,-9.84094117691467,-0.2648101,1.1267409,-0.4700608,125.40596,109.35969,12.826264,WAL
62683461000,2.274951,7.13225615118705,-16.4038484654813,-9.99917661696633,-0.7461719,1.0806206,-0.54183745,125.70411,110.01919,13.220707,WAL
62688464000,2.279954,7.49872900725142,-17.4175982995927,-10.1847925387901,-0.8564331,0.9468411,-0.6728681,125.93492,110.71741,13.6819105,WAL
62693460000,2.28495,7.53617526385145,-17.8402311063193,-9.57412508265948,-0.99082345,0.72418076,-0.80573124,126.11402,111.49226,14.12798,WAL
62698476000,2.289966,7.54576640467206,-18.2142853980234,-8.89315388409703,-0.95569867,0.40530908,-0.91813046,126.213875,112.23391,14.5623665,WAL
62703776000,2.295266,7.26577441263326,-17.2144025409983,-7.59005895986849,-0.8194757,0.079107046,-0.97158116,126.22322,112.939514,14.974355,WAL
62708433000,2.299923,6.99916573286839,-16.236837598386,-6.40365018644017,-0.6759224,-0.32620203,-0.96944314,126.11766,113.60685,15.344256,WAL
62713517000,2.305007,6.95478070401864,-14.6333659935935,-5.155791339371,-0.61636305,-0.7635816,-0.8445212,125.91135,114.13269,15.626462,WAL
62718491000,2.309981,6.93628526499709,-13.010390157251,-3.93971530634828,-0.65118235,-1.056186,-0.7293731,125.63976,114.62378,15.869943,WAL
62723472000,2.314962,6.51182202197692,-11.5101020659308,-3.3992291627998,-0.68203104,-1.2385293,-0.5861252,125.28907,114.99553,16.049944,WAL
62728437000,2.319927,6.02034880421475,-10.0356824126443,-2.97455813916708,-0.6765333,-1.3497068,-0.44868052,124.89692,115.33227,16.169813,WAL
62733484000,2.324974,5.30391119730135,-8.79356765127436,-3.13402510509745,-0.59986967,-1.3231341,-0.3222314,124.52538,115.615685,16.307512,WAL
62738418000,2.329908,4.56714885967016,-7.6223045996002,-3.38905816506747,-0.46761733,-1.1872166,-0.21319197,124.17378,115.85538,16.408161,WAL
62743448000,2.334938,3.89290161191489,-6.60650521874232,-3.72217824987234,-0.31398472,-0.98624194,-0.11026118,123.86311,116.05914,16.4886,WAL
62748422000,2.339912,3.23974979744681,-5.63353418804728,-4.06451983217021,-0.1160644,-0.7761043,-0.0106901415,123.610634,116.20041,16.554031,WAL
62753477000,2.344967,2.54574424112287,-4.72311316977061,-4.22725383571803,0.09285152,-0.5503896,0.08155051,123.427,116.32196,16.576372,WAL
62758432000,2.349922,1.85484897768933,-3.85825137004295,-4.32169290746832,0.2764165,-0.43554693,0.16065755,123.28532,116.38806,16.585932,WAL
62763489000,2.354979,1.21216120224655,-3.29471830165217,-4.27558806479617,0.42149702,-0.18661933,0.25228736,123.26145,116.43701,16.563086,WAL
62768423000,2.359913,0.597779430599277,-2.80968005453123,-4.20167762268061,0.47952923,0.11728613,0.30970868,123.29237,116.457794,16.547503,WAL
62773475000,2.364965,0.235977558574154,-2.85232682277337,-3.97652238664525,0.59589905,0.44898596,0.44104472,123.39446,116.42178,16.485783,WAL
62778440000,2.36993,-0.0457155776493624,-3.04330533090672,-3.71392688187569,0.73426,0.79137594,0.57726765,123.58977,116.360344,16.440786,WAL
62783483000,2.374973,0.0297191160274779,-3.83033562370952,-3.33943914288518,0.86315256,1.1029172,0.7122689,123.858406,116.23161,16.341425,WAL
62788496000,2.379986,0.199327285387635,-4.76789172733072,-2.93897546570167,0.9462303,1.3475688,0.84299403,124.21543,116.06311,16.234465,WAL
62793458000,2.384948,1.1247390459324,-7.6138543673951,-2.70027168170163,0.9505063,1.527774,0.9428705,124.634995,115.80381,16.079397,WAL
62798474000,2.389964,2.30047625311189,-11.0990753750874,-2.5089810458042,0.8979719,1.6542231,1.0381655,125.11761,115.52081,15.908058,WAL
62803476000,2.394966,2.99446963314523,-12.8997624966835,-2.45497991641422,0.7651087,1.7806722,1.1258247,125.641426,115.149475,15.7135315,WAL
62808481000,2.399971,3.48323188990199,-13.9816828570439,-2.45972517767548,0.6462954,1.9889772,1.2409728,126.227585,114.77141,15.505724,WAL
62813547000,2.405037,3.2253301944265,-14.5322984022331,-1.93088994351204,0.61636305,2.26631,1.3750577,126.815216,114.25549,15.311959,WAL
62818522000,2.410012,2.63180594601827,-14.8268622898404,-1.17029955765802,0.6603453,2.5900686,1.4767667,127.45762,113.75415,15.122199,WAL
62823473000,2.414963,1.98360186130421,-14.8682234502783,-0.107316939010816,0.6899723,2.8680124,1.4871514,128.16669,113.23756,14.955735,WAL
62828460000,2.41995,1.27646175720886,-14.6726317706605,1.2517961775932,0.6020077,2.967278,1.393689,128.89188,112.75979,14.804107,WAL
62833491000,2.424981,0.764035979652792,-14.4775720058727,2.13125984954667,0.43890667,2.8759537,1.273654,129.55995,112.160934,14.574856,WAL
62838476000,2.429966,0.385300204044921,-14.285745035442,2.68706685691325,0.26633725,2.5928175,1.146594,130.16502,111.628654,14.368073,WAL
62843456000,2.434946,0.161065850318921,-13.8755627286791,2.56793657929393,0.116980694,2.175902,0.9969321,130.64896,110.985306,14.09977,WAL
62848485000,2.439975,0.0130080821799881,-13.350195805831,2.10465905491868,0.0290161,1.7635679,0.86193085,131.02295,110.41182,13.8441725,WAL
62853570000,2.44506,-0.0727657339556621,-12.7921979484193,1.81565553767251,0.102319926,1.382388,0.7452556,131.2815,109.78675,13.54946,WAL
62858458000,2.449948,-0.123164651370167,-12.2423914792013,1.62780501395713,0.2678644,1.2153164,0.63163465,131.46164,109.20603,13.280916,WAL
62863538000,2.455028,-0.0999460262935274,-11.6284511032855,1.60097624614401,0.45173484,0.9034697,0.5216789,131.5134,108.688095,13.003827,WAL
62868549000,2.460039,-0.0291373824709817,-10.995893931143,1.68122603590399,0.5317582,0.6844745,0.4709771,131.53209,108.18181,12.741195,WAL
62873473000,2.464963,-0.0104136857593085,-10.449223843465,1.64655943590426,0.675617,0.5687156,0.40408736,131.49994,107.69506,12.510335,WAL
62878467000,2.469957,-0.0285848760744681,-9.94951646200608,1.52844668723404,0.7476991,0.5671884,0.3811799,131.43193,107.2183,12.277465,WAL
62883479000,2.474969,-0.0873898625882353,-9.30585166520651,1.37176068785983,0.7449502,0.64660084,0.39370266,131.35545,106.76778,12.075126,WAL
62889049000,2.480539,-0.204223315676471,-8.41012821871089,1.14922083032958,0.6704246,0.70402217,0.44837508,131.26755,106.321915,11.866832,WAL
62893447000,2.484937,-0.313076422121685,-7.72120685725429,0.942486301404056,0.58062744,0.72082096,0.5363397,131.20424,105.904915,11.655737,WAL
62898483000,2.489973,-0.449448788049922,-6.94529507605304,0.683849008268331,0.5143485,0.7504479,0.6533204,131.15901,105.48721,11.426311,WAL
62903474000,2.494964,-0.505176535,-6.256048925,0.526724375,0.50640726,0.8542951,0.7690793,131.18385,105.08541,11.181506,WAL
62908504000,2.499994,-0.481003851278603,-5.64206266155159,0.468709907818145,0.54702985,0.98837996,0.87689704,131.22433,104.66935,10.911528,WAL
62913635000,2.505125,-0.371952694592614,-5.32639219243966,0.570280869467869,0.600786,1.072374,0.9966267,131.33803,104.250496,10.603917,WAL
62918618000,2.510108,-0.191558407760395,-5.29401380119221,0.810806589430067,0.66675943,1.063211,1.0940597,131.45908,103.8092,10.277613,WAL
62923584000,2.515074,0.000758159718864657,-5.37549199329986,0.95568726664414,0.7305948,0.98624194,1.1322387,131.60593,103.3729,9.949677,WAL
62928511000,2.520001,0.205751566728712,-5.58504089937247,0.992130537077621,0.7816021,0.852157,1.1297953,131.72665,102.921074,9.607131,WAL
62933460000,2.52495,0.353155137446157,-5.85390237256303,1.09778923275493,0.8906415,0.8362745,1.1976013,131.81532,102.44132,9.257721,WAL
62938481000,2.529971,0.402236634767786,-6.22692162100643,1.32356413273451,1.0393872,0.9108001,1.2983941,131.88156,101.94523,8.903085,WAL
62943451000,2.534941,0.495651945330987,-6.6221526286301,1.70304032961768,1.1148291,0.9969321,1.3582588,131.99196,101.42714,8.55464,WAL
62948518000,2.540008,0.656977159352694,-7.0634245638017,2.31987209732082,1.1484267,1.0509937,1.3753631,132.1036,100.8859,8.196475,WAL
62953427000,2.544917,0.904748447287605,-7.45989228164461,2.95049909397919,1.1508701,0.96486163,1.3927728,132.21965,100.277534,7.800776,WAL
62959094000,2.550584,1.3762477706334,-7.85463584261036,3.7454687621881,1.0845913,0.752586,1.4242324,132.30128,99.68058,7.3998117,WAL
62963448000,2.554938,1.75357279718447,-8.2040717738835,4.13883909437864,0.9398162,0.62949663,1.4352279,132.38316,99.01737,6.9879217,WAL
62968516000,2.560006,2.21536452883495,-8.67999978126214,4.27077965239806,0.8582657,0.3830125,1.4288138,132.3553,98.3646,6.567929,WAL
62973403000,2.564893,2.61325613310066,-9.14199210360029,4.30674302902278,0.7180721,0.13958271,1.4107933,132.29279,97.69729,6.1742754,WAL
62978533000,2.570023,2.92459916891991,-9.63382378618663,4.13979092946363,0.61544675,-0.12492194,1.3750577,132.14131,97.05938,5.7872224,WAL
62983483000,2.574973,3.19933351686391,-10.1009523195266,3.90039518491124,0.5549711,-0.35888332,1.3478742,131.95227,96.47287,5.4461,WAL
62988509000,2.579999,3.33224519467456,-10.5329157061144,3.21210247739645,0.514654,-0.5540548,1.31672,131.69006,95.92831,5.1184745,WAL
62993501000,2.584991,3.44282695707268,-10.9387324612531,2.48423524652632,0.5018258,-0.6621779,1.2742649,131.41699,95.458885,4.837668,WAL
62998520000,2.59001,3.40427781686216,-11.1844833307268,1.44340770610526,0.54244834,-0.66767573,1.2189816,131.11223,95.021545,4.5739202,WAL
63003454000,2.594944,3.36131338019217,-11.3932544733186,0.473244327006652,0.61544675,-0.57879484,1.1392636,130.85727,94.687706,4.3555713,WAL
63008493000,2.599983,3.28046803165804,-11.3670988479921,-0.130717848263119,0.7324274,-0.40378192,1.0534371,130.62282,94.38085,4.16006,WAL
63013471000,2.604961,3.20060136267554,-11.3412598515891,-0.727368713215078,0.84757555,-0.21380283,0.98563105,130.48666,94.16168,3.990846,WAL
63018496000,2.609986,3.11998062912047,-11.3151768951959,-1.32965288283814,0.96974856,0.03756821,0.90285885,130.41664,93.97058,3.855157,WAL
63023498000,2.614988,3.0298438315563,-11.2722955847363,-1.88313320041152,1.0885619,0.37598756,0.8210029,130.43707,93.79764,3.7352204,WAL
63028870000,2.62036,2.79407101217733,-10.9884055824916,-1.8302046308642,1.207986,0.72051555,0.77091193,130.5289,93.653305,3.6326816,WAL
63033473000,2.624963,2.59204899289188,-10.745154338945,-1.78485276831276,1.3087788,0.91965765,0.72204274,130.76004,93.540726,3.5279105,WAL
63038469000,2.629959,2.23591994444855,-10.4103782296324,-1.58042086270091,1.3435981,1.0345002,0.6719518,131.06105,93.44778,3.4421427,WAL
63043448000,2.634938,1.87034793031591,-10.0712327202106,-1.36460126483466,1.3335189,1.1246029,0.63224554,131.40643,93.3717,3.3707912,WAL
63048443000,2.639933,1.49174358726202,-9.61525156716104,-1.09486566572,1.3112222,1.1450669,0.59223384,131.76521,86.72487,3.274688,WAL
63053461000,2.644951,1.10757533530031,-9.11987673956032,-0.806739410771011,1.2800682,1.1123856,0.591623,132.12785,86.81221,3.1829288,WAL
63058482000,2.649972,0.906957338321666,-8.75709907664333,-0.630921642467497,1.237613,1.0720685,0.6010914,132.47629,86.94208,3.0399005,WAL
63063487000,2.654977,0.737001435285026,-8.41718727057005,-0.474039305436858,1.2098186,0.9596693,0.6230826,132.78734,87.06235,2.8991408,WAL
63068511000,2.660001,0.704084274248846,-8.07686305342375,-0.403281256714703,1.1496484,0.84696466,0.63529986,133.06552,87.21898,2.705369,WAL
63073473000,2.664963,0.739891060798719,-7.74117433604596,-0.376426148107752,1.1016954,0.74097955,0.6414085,133.30615,87.36151,2.5137026,WAL
63078460000,2.66995,0.796539955397733,-7.54485864477488,-0.347929764519081,1.0430524,0.70188415,0.6591236,133.5325,87.51909,2.2834003,WAL
63083481000,2.674971,0.871540214871582,-7.46985857325569,-0.317929673259852,0.98715824,0.71776664,0.679893,133.73726,87.658104,2.0572748,WAL
63088474000,2.679964,0.992045918541925,-7.49365103432222,-0.29042469552672,0.9651671,0.782213,0.6939429,133.9636,87.76812,1.8329599,WAL
63093456000,2.684946,1.14091589044426,-7.57871959110495,-0.264431520737953,0.93615097,0.8567385,0.7141015,134.19077,87.86535,1.607185,WAL
63098492000,2.689982,1.29139946701996,-7.66471020771631,-0.238156605395473,0.89766645,0.9288206,0.7257079,134.45172,87.92873,1.388423,WAL
63103479000,2.694969,1.44041884676242,-7.74986414040909,-0.212137343518399,0.8732319,1.0015136,0.7153232,134.7277,87.96561,1.1760585,WAL
63108459000,2.699949,1.60164746987199,-7.89765628371539,-0.244707989482981,0.8594874,1.0781772,0.7134906,135.04338,87.98724,0.95134383,WAL
63113503000,2.704993,1.7742181917535,-8.09419509050313,-0.321406081423043,0.86620694,1.162782,0.70829827,135.3752,87.979355,0.73691577,WAL
63118480000,2.70997,1.98073681156394,-8.30560155350331,-0.32461645488155,0.87109387,1.2321151,0.68477994,135.74341,87.9179,0.57536936,WAL
63123491000,2.714981,2.21678167177274,-8.53201203433046,-0.271626769698856,0.89369583,1.2855659,0.66675943,136.12541,87.837204,0.4187079,WAL
63128468000,2.719958,2.34198838584972,-8.68835049326415,-0.216462015625187,0.9282097,1.2980887,0.6453791,136.54027,87.75221,0.29407334,WAL
63133450000,2.72494,2.38483900484982,-8.79309628510129,-0.159328021019858,0.98746365,1.2776246,0.6243043,136.95518,87.65018,0.1797367,WAL
63138442000,2.729932,2.42448720065879,-8.88598724336369,-0.0667722992055803,1.0528263,1.2705997,0.61544675,137.39598,87.52309,0.09853405,WAL
63143453000,2.734943,2.46168103503197,-8.96967317651618,0.0541077498914939,1.0830641,1.2226468,0.6243043,137.81395,87.3923,0.023057006,WAL
63148483000,2.739973,2.47559884264765,-9.02855456324821,0.201216124378492,1.1096367,1.1365148,0.61941737,138.22539,87.2328,-0.041604385,WAL
63153484000,2.744974,2.46604301127294,-9.06199999800479,0.373220315824022,1.1096367,1.0876455,0.6239988,138.6284,87.07757,-0.1077719,WAL
63158483000,2.749973,2.42787821854411,-9.07643001762291,0.509728357160308,1.1087204,1.0021244,0.63194007,138.99738,86.892166,-0.17079082,WAL
63163496000,2.754986,2.3605787813858,-9.07162281816361,0.610677522936818,1.0928379,0.9315695,0.6398814,139.35214,86.717155,-0.2315355,WAL
63168439000,2.759929,2.34297546552934,-9.10311780450767,0.692422625162189,1.0491611,0.88025683,0.6753115,139.68437,86.514915,-0.30900264,WAL
63173502000,2.764992,2.37559708328608,-9.17302146229997,0.75766584851026,0.9896017,0.83169305,0.7049385,139.99335,86.32797,-0.38309446,WAL
63178424000,2.769914,2.40731021830458,-9.24097836604354,0.82109210672065,0.9211848,0.795652,0.7431176,140.29128,86.13108,-0.48352167,WAL
63183497000,2.774987,2.43999626746119,-9.31102009149887,0.886464192844442,0.8741482,0.7693848,0.7806858,140.57388,85.94922,-0.5880349,WAL
63188421000,2.779911,2.4567036704541,-9.44120625325053,0.921390833218513,0.82802784,0.74372846,0.82711154,140.85876,85.78173,-0.7077793,WAL
63193497000,2.784987,2.44255317532505,-9.70534935435668,0.89780656795556,0.7816021,0.7153232,0.86376345,141.13104,85.63007,-0.8306209,WAL
63198463000,2.789953,2.45726610804173,-9.97082605642485,0.887255480241821,0.7519751,0.7107417,0.8738427,141.40137,85.46084,-0.9497078,WAL
63203514000,2.795004,2.54901090093883,-10.259822769559,0.910191690440967,0.7302894,0.6771441,0.8750645,141.65076,85.303345,-1.07023,WAL
63208513000,2.800003,2.61951727331023,-10.5299338429809,0.91083896430156,0.7128797,0.61941737,0.86406887,141.914,85.15975,-1.1960477,WAL
63214327000,2.805817,2.58918918071305,-10.7560156737311,0.789526734980441,0.68966687,0.5674938,0.86070913,142.1655,85.026695,-1.3190532,WAL
63218588000,2.810078,2.56696214208963,-10.9217079132954,0.700618683873236,0.66645396,0.52778757,0.86651236,142.42575,84.90083,-1.4296726,WAL
63223510000,2.815,2.54128706954692,-11.1131036427334,0.597918513127012,0.60903263,0.47616947,0.8549059,142.66512,84.79601,-1.5287297,WAL
63228465000,2.819955,2.52288943727034,-11.2987599492563,0.491337090065617,0.52595496,0.40469822,0.80848014,142.90451,84.70876,-1.6243136,WAL
63233521000,2.825011,2.55677950005249,-11.4385559163605,0.360013355556431,0.43096542,0.31429017,0.7495316,143.12146,84.64542,-1.7070452,WAL
63238456000,2.829946,2.58985850713911,-11.5750062916885,0.231832455674541,0.32284227,0.22693644,0.7150178,143.3664,84.65293,-1.7956161,WAL
63243459000,2.834949,2.6731366499515,-11.5624932037827,0.121194443765955,0.20769419,0.14080444,0.67073005,143.58408,84.69309,-1.858335,WAL
63248439000,2.839929,2.76565355392823,-11.5208606935984,0.014799928357614,0.10140363,0.07849618,0.62796944,143.7814,84.76095,-1.9066012,WAL
63253509000,2.844999,2.90242056304369,-11.369655721292,-0.0729537659197464,-0.015577064,0.044898596,0.5858198,144.00803,84.8904,-1.9436926,WAL
63258457000,2.849947,3.04796387745963,-11.1912477938175,-0.152767762543545,-0.13225232,0.016187929,0.56046885,144.21536,85.04473,-1.9688617,WAL
63263644000,2.855134,3.28678799456522,-11.1292730072464,-0.255780547246377,-0.18600847,-0.005192355,0.514654,144.45087,85.23414,-1.9672998,WAL
63268527000,2.860017,3.53647885869565,-11.1069791884058,-0.358332188405797,-0.26939157,0.018936822,0.46822822,144.68806,85.456665,-1.9557673,WAL
63273510000,2.865,3.90021439552164,-11.350716194397,-0.33146002525856,-0.32895094,0.03756821,0.42302418,144.95325,85.70294,-1.9173375,WAL
63278514000,2.870004,4.31885509519028,-11.7260493567627,-0.240032724593835,-0.38606682,0.03268129,0.36071593,145.21608,85.9697,-1.8581748,WAL
63284145000,2.875635,4.54573634138414,-12.4054920894589,-0.229964995574557,-0.44898596,0.021380283,0.27091873,145.51366,86.29569,-1.7396909,WAL
63288506000,2.879996,4.64598120344034,-13.0111370316032,-0.250849305127513,-0.4914411,0.008857546,0.17134771,145.8071,86.631874,-1.5991975,WAL
63293495000,2.884985,4.46368015123414,-13.6039569875602,-0.264932571738617,-0.49327368,-0.004581489,0.080634214,146.15317,86.99702,-1.3957487,WAL
63298514000,2.890004,4.13753650897827,-14.1522567023306,-0.274386015437113,-0.464563,0.01282817,0.0030543262,146.5021,87.36568,-1.1690917,WAL
63303509000,2.894999,3.75681077387735,-14.3765682490603,-0.244165000545994,-0.40439278,0.06811147,-0.05497787,146.8674,87.73898,-0.90795106,WAL
63308535000,2.900025,3.34260966264095,-14.4241775436202,-0.191794736759644,-0.29657507,0.1151481,-0.08368854,147.23149,88.07755,-0.6376558,WAL
63313586000,2.905076,2.88954260913321,-14.2534579555983,-0.184734441638515,-0.20952678,0.15027285,-0.105374254,147.62473,88.367615,-0.42801267,WAL
63318538000,2.910028,2.42426882683322,-13.9608627222616,-0.203920989930211,-0.18173242,0.16798794,-0.13927728,148.0202,88.62335,-0.21008343,WAL
63323505000,2.914995,2.15516432023041,-13.7715165056729,-0.444835922543201,-0.22357668,0.14660765,-0.17745635,148.39194,88.81888,-0.052505378,WAL
63328502000,2.919992,1.99227751507244,-13.6378661627684,-0.808198787201082,-0.33964106,0.09590584,-0.23273966,148.75401,89.000114,0.118433855,WAL
63333506000,2.924996,1.93296004815946,-13.5774060202951,-1.09369766594357,-0.5216789,0.01160644,-0.30634892,149.09027,89.18191,0.22825015,WAL
63338479000,2.929969,2.06364345927517,-13.6513776895677,-1.23424391480197,-0.713796,-0.044898596,-0.3857614,149.4131,89.34468,0.35636058,WAL
63343444000,2.934934,2.19411664169816,-13.7252303615843,-1.37456406874968,-0.88514376,-0.055588737,-0.48808134,149.77957,89.47715,0.4729686,WAL
63348516000,2.940006,2.32740163288636,-13.8006746219001,-1.51790824212788,-1.010982,-0.032070424,-0.6038403,150.12845,90.63186,0.6180494,WAL
63353411000,2.944901,2.55733136522213,-13.8965867128124,-1.57634197678501,-1.1139128,-0.024129177,-0.6585127,150.46956,90.92749,0.7680811,WAL
63358501000,2.949991,2.91021257515867,-14.0222699377231,-1.54733801198929,-1.1728612,-0.01160644,-0.76083267,150.80823,91.330284,0.9652153,WAL
63363600000,2.95509,3.25284559922404,-13.9325695739122,-1.27101838276594,-1.2965615,-0.02443461,-0.86651236,151.15791,91.84424,1.2192192,WAL
63368604000,2.960094,3.57763105232295,-13.6171986299971,-0.739123277542481,-1.457219,-0.06688975,-0.9593639,151.49265,92.38847,1.4958183,WAL
63373494000,2.964984,3.72311043715336,-13.1895884387238,-0.541036759278402,-1.6181821,-0.16401732,-1.0629056,151.83179,92.99611,1.8429928,WAL
63378473000,2.969963,3.65201975948713,-12.6019046125634,-0.749569547383958,-1.7583756,-0.30848694,-1.1575897,152.1359,93.63262,2.2078776,WAL
63383451000,2.974941,3.59034461645885,-12.0553681859241,-0.977532189165974,-1.8805487,-0.43860126,-1.2235631,152.3898,94.29379,2.6283963,WAL
63388474000,2.979964,3.54147161978387,-11.5621960629907,-1.23522591436224,-1.964848,-0.49571714,-1.2669345,152.61967,94.9736,3.0612223,WAL
63393449000,2.984939,3.45766190005266,-11.1415943076356,-1.42569563455503,-2.0234911,-0.48991394,-1.3118331,152.87227,95.67757,3.4879434,WAL
63398488000,2.989978,3.26453021795682,-10.9230503037388,-1.42061322326488,-2.0998492,-0.50518554,-1.3109168,153.09976,96.38558,3.906088,WAL
63403407000,2.994897,3.06488842353996,-10.7526376516843,-1.41249700164441,-2.2934935,-0.6600399,-1.3429873,153.28311,97.1669,4.33888,WAL
63408455000,2.999945,2.83844281062388,-10.6610959901335,-1.39804298888778,-2.5647178,-0.8378017,-1.4205672,153.45094,97.972015,4.7758923,WAL
63413494000,3.004984,2.50754623948223,-10.7007338229156,-1.15714957940033,-2.8481593,-0.97005403,-1.4666874,153.57698,98.7948,5.165068,WAL
63418497000,3.009987,1.98403830791416,-10.9837108702628,-0.496869325546215,-3.1010575,-1.0699304,-1.4618006,153.659,99.65664,5.5492363,WAL
63423441000,3.014931,1.39295223017599,-11.2972476968352,0.376729612147433,-3.2739322,-1.2009611,-1.4547756,153.67413,100.52845,5.8980203,WAL
63428470000,3.01996,0.626193222170205,-11.692244979834,1.76154285236627,-3.3582318,-1.4343116,-1.42973,153.63188,101.41219,6.2229595,WAL
63433454000,3.024944,-0.131186609469999,-12.0992509588559,2.94493839922404,-3.3771684,-1.7757853,-1.4162911,153.33292,102.247894,6.4635444,WAL
63438475000,3.029965,-0.886109943492556,-12.5591465612199,3.53065469830371,-3.324634,-2.094046,-1.3912456,152.9801,103.06066,6.6703224,WAL
63443800000,3.03529,-1.64476995625315,-13.021076834929,4.05987669218986,-3.2580497,-2.2837198,-1.3729197,152.38316,103.68033,6.7304153,WAL
63448457000,3.039947,-1.91444160640935,-13.182880247405,3.65986390480701,-3.1948252,-2.2999077,-1.2889256,151.75673,104.26004,6.745365,WAL
63453634000,3.045124,-2.19615774820018,-13.3660957437323,3.18856833927422,-3.1651983,-2.2516494,-1.1652255,151.00871,104.66214,6.560447,WAL
63458517000,3.050007,-2.23721438946444,-13.5805028386499,2.41305348030436,-3.0500503,-2.1206186,-1.1004738,150.28839,105.01594,6.3666553,WAL
63463838000,3.055328,-2.27656033324072,-13.8019920859297,1.58826176152014,-3.0057623,-1.8594738,-0.91324353,149.6171,105.35955,6.047932,WAL
63468491000,3.059981,-2.2367659639611,-13.8285212960905,1.14610182583846,-2.9043589,-1.400714,-0.8546005,149.04106,105.66358,5.769133,WAL
63473796000,3.065286,-2.18069875362644,-13.8510899924391,0.670003731755811,-2.7226264,-0.82253003,-0.7678576,148.60606,105.975975,5.4364276,WAL
63478451000,3.069941,-1.88940751186409,-13.6971221631662,0.886391448035098,-2.4804184,-0.30879238,-0.78801614,148.28453,106.2487,5.152526,WAL
63483475000,3.074965,-1.57502572913283,-13.5309493652572,1.11993213258658,-2.1389446,0.01863139,-0.9202685,148.072,106.50794,4.9102244,WAL
63488477000,3.079967,-1.13682406965857,-13.2100227211529,0.981285050372376,-1.751656,0.17715092,-1.0442741,147.95934,106.68738,4.7070556,WAL
63493444000,3.084934,-0.676740933939453,-12.8603591805784,0.769646796411645,-1.4504995,0.2510656,-1.1279627,147.91142,106.80337,4.556967,WAL
63498468000,3.089958,-0.0236641797118847,-12.6620656673669,0.429287352572429,-1.2238685,0.26633725,-1.1835514,147.86452,106.87785,4.5224996,WAL
63503420000,3.09491,0.678497021248499,-12.5149916141457,0.0544850932583033,-1.0064005,0.26297748,-1.3017539,147.82549,106.88241,4.5357404,WAL
63508479000,3.099969,1.22637115319493,-12.4296402188363,-0.101229064030664,-0.83108217,0.2125811,-1.4459181,147.79428,106.9291,4.6648417,WAL
63513512000,3.105002,1.71750601691268,-12.3653794825731,-0.183849884739072,-0.7360926,0.086132,-1.5760323,147.73647,106.94636,4.8143535,WAL
63518516000,3.110006,2.04874020576468,-12.0265670744974,-0.283815292663579,-0.7333437,-0.079107046,-1.6975945,147.69127,107.06141,5.126663,WAL
63523476000,3.114966,2.30150455263106,-11.5584854032322,-0.391474150369531,-0.7892379,-0.23701571,-1.7724255,147.6095,107.17642,5.4448905,WAL
63528458000,3.119948,2.21078130130038,-10.9778861539607,-0.485080379215803,-0.8729264,-0.39920044,-1.7898352,147.50488,107.36928,5.8551106,WAL
63533485000,3.124975,1.91926854538416,-10.327955533651,-0.571100532936272,-0.92149025,-0.5174029,-1.779145,147.36754,107.57516,6.2581487,WAL
63538452000,3.129942,1.44169891040467,-9.64419276369168,-0.507516379649087,-0.9236283,-0.6227771,-1.7308867,147.20125,107.85295,6.686638,WAL
63543458000,3.134948,0.843645762978702,-8.92944664401623,-0.351925320123732,-0.893085,-0.6921103,-1.6975945,147.0144,108.13521,7.0981755,WAL
63548487000,3.139977,0.318761462729555,-8.32712820112001,-0.239642096593608,-0.8552113,-0.71868294,-1.6914859,146.76521,108.43905,7.4468083,WAL
63553479000,3.144969,-0.161297583990538,-7.79167751848991,-0.151938994799652,-0.8353582,-0.7629707,-1.6954565,146.49695,108.732864,7.772305,WAL
63558475000,3.149965,-0.423534983100881,-7.32179220391773,-0.155569171479922,-0.77091193,-0.73548174,-1.6847663,146.17,108.977745,7.9906073,WAL
63563501000,3.154991,-0.527249638658178,-6.89750525857003,-0.226283706674829,-0.6808093,-0.689056,-1.6655241,145.84018,109.203865,8.197598,WAL
63568479000,3.159969,-0.412845828394124,-6.57794964686719,-0.227761854280004,-0.57543504,-0.61941737,-1.6578883,145.46251,109.388374,8.308258,WAL
63573465000,3.164955,-0.112231522756071,-6.34413848372139,-0.170501991521935,-0.49327368,-0.5739079,-1.6520851,145.09645,109.546524,8.409397,WAL
63578459000,3.169949,0.31941405613119,-6.13288026864257,-0.0963864708453034,-0.44806966,-0.56596667,-1.6389514,144.74153,109.695984,8.481165,WAL
63583486000,3.174976,0.869589748462325,-5.94054238184521,-0.00692701385710304,-0.41599923,-0.57451874,-1.600467,144.40138,109.81756,8.540937,WAL
63588476000,3.179966,1.40539254378055,-5.71539257979359,0.0379482904334601,-0.4129449,-0.5833763,-1.534799,144.04562,109.986404,8.676139,WAL
63593462000,3.184952,1.9241319213145,-5.43527330400869,0.012011323181749,-0.41263947,-0.605062,-1.459357,143.69171,110.13614,8.789512,WAL
63598473000,3.189963,2.28685085201183,-5.13712393510848,0.0357269685009862,-0.38973203,-0.6420194,-1.3545936,143.39113,110.32496,9.024832,WAL
63603474000,3.194964,2.51356615642012,-4.82539049635109,0.10185227178501,-0.33628133,-0.70829827,-1.237613,143.087,110.491135,9.2248745,WAL
63608958000,3.200448,2.50483662637876,-4.54859690699348,0.131237002162241,-0.29535335,-0.73884153,-1.131017,142.8298,110.710686,9.507147,WAL
63613563000,3.205053,2.32467416460461,-4.35985524198035,0.126947418459294,-0.24953845,-0.74372846,-1.0177015,142.57515,110.89666,9.745964,WAL
63618512000,3.210002,2.09721040841262,-4.272128797997,0.291385258472709,-0.20005837,-0.8173377,-0.9407325,142.33246,111.092804,10.008976,WAL
63623517000,3.215007,1.82838842483726,-4.31533229884827,0.651414687871808,-0.15424347,-0.9831876,-0.9062186,142.07195,111.26714,10.23856,WAL
63628502000,3.219992,1.55650901738191,-4.32080082331337,0.895237238731219,-0.08399397,-1.1349876,-0.8576548,141.75482,111.4163,10.406556,WAL
63633506000,3.224996,1.27884839414711,-4.28315185361878,1.00818395125209,-0.03145956,-1.2495248,-0.7984009,141.40909,111.54923,10.545911,WAL
63638495000,3.229985,1.01150307746521,-4.23342402097522,1.08471164962985,0.011911872,-1.3610078,-0.73639804,140.99258,111.5907,10.600952,WAL
63643483000,3.234973,0.756885366550192,-4.16741192009673,1.11300248670418,0.04795292,-1.4104879,-0.68111473,140.56879,111.6098,10.633309,WAL
63648425000,3.239915,0.52621164481856,-4.10005811286932,1.12455411873885,0.07849618,-1.4807373,-0.65118235,140.06685,111.57661,10.571684,WAL
63653499000,3.244989,0.323862426436645,-4.02779063908388,1.11010061392029,0.09682214,-1.536326,-0.5879578,139.5659,111.520355,10.480228,WAL
63658498000,3.249988,0.114931224030699,-4.012373266969,1.00231550790641,0.12034045,-1.5842791,-0.5348125,138.99939,111.431305,10.304734,WAL
63663607000,3.255097,-0.114273558315559,-4.08796217719526,0.738973839345161,0.15515977,-1.6065756,-0.47525316,138.4339,111.32023,10.106284,WAL
63668449000,3.259939,-0.331499934538025,-4.15960075682249,0.48939459503638,0.17073683,-1.5992452,-0.42241332,137.83954,111.18475,9.827194,WAL
63673520000,3.26501,-0.558999925001495,-4.23462744771255,0.228011623559753,0.22296582,-1.5796975,-0.3866777,137.24957,111.02127,9.536397,WAL
63679000000,3.27049,-0.731854214806281,-4.29624341116231,0.00346932781703362,0.28405234,-1.5467108,-0.3463606,136.62962,110.86178,9.231847,WAL
63683525000,3.275015,-0.794722946031746,-4.32582852380952,-0.118569983968254,0.35185838,-1.5015068,-0.30757064,136.02513,110.678795,8.922811,WAL
63688753000,3.280243,-0.866301231894788,-4.36220135090112,-0.263625740182172,0.42241332,-1.4450017,-0.2837469,135.28996,110.5343,8.393426,WAL
63693492000,3.284982,-0.919356656765709,-4.41967805733074,-0.440477122563078,0.48441613,-1.4153748,-0.24098633,134.5806,110.365974,7.8664184,WAL
63698826000,3.290316,-0.975861145848999,-4.48272402250788,-0.639075938058124,0.5564982,-1.35551,-0.21135938,133.8288,110.22551,7.2969356,WAL
63703513000,3.295003,-0.953055278320293,-4.50096869747993,-0.803278141400264,0.63346726,-1.3066407,-0.18845193,133.1064,110.06104,6.7429233,WAL
63708872000,3.300362,-0.917948620107055,-4.52664075325281,-0.987126147104035,0.70921457,-1.2721269,-0.15088372,132.40825,109.88965,6.247268,WAL
63713597000,3.305087,-0.789596271356025,-4.60116804120231,-1.10719769665111,0.7819075,-1.2541064,-0.108123146,131.73662,109.69458,5.7637978,WAL
63718518000,3.310008,-0.655919677027175,-4.67878683146674,-1.23224999195718,0.8524625,-1.2583824,-0.06963864,131.07397,109.50997,5.3194046,WAL
63723494000,3.314984,-0.481946812339103,-4.85777000815722,-1.43095553859616,0.9279043,-1.2675453,-0.0290161,130.43211,109.300026,4.878501,WAL
63728433000,3.319923,-0.301015962942527,-5.05679376017978,-1.6435492840394,0.9877691,-1.2702943,0.022296581,129.80711,109.07158,4.4385524,WAL
63733482000,3.324972,-0.0942556983639636,-5.31484908433119,-1.93184500604396,1.0403035,-1.2727377,0.065973446,129.13904,108.899376,3.9918742,WAL
63738452000,3.329942,0.117666076238158,-5.58989658698371,-2.24296427527473,1.0815369,-1.2614367,0.10720685,128.49532,108.708496,3.550981,WAL
63743457000,3.334947,0.338632887447767,-5.96128167062679,-2.70628169070053,1.1175779,-1.2504412,0.15149458,127.89072,108.53684,3.16935,WAL
63748507000,3.339997,0.566479257070873,-6.39716173514953,-3.270944409873,1.1386528,-1.1878275,0.16279559,127.31726,108.35655,2.8047724,WAL
63753476000,3.344966,0.828167415746738,-6.8528471297245,-3.84861641648139,1.1658363,-1.0662653,0.17989981,126.82536,108.201836,2.5121047,WAL
63758487000,3.349977,1.11114011157081,-7.32601437709038,-4.44239521266312,1.1939361,-0.91813046,0.18142697,126.3674,108.041275,2.2379527,WAL
63763569000,3.355059,1.48089969411523,-7.90189625890931,-5.13317930702475,1.1988231,-0.7626653,0.1740966,125.97492,107.97575,2.0305107,WAL
63768572000,3.360062,1.89915835545856,-8.53174503122112,-5.8712826819657,1.1896601,-0.58246,0.16310102,125.639694,107.904884,1.8462415,WAL
63773478000,3.364968,2.41145107905825,-9.31000185126214,-6.61103883049515,1.1389582,-0.41783184,0.111177474,125.394226,107.94286,1.753035,WAL
63778464000,3.369954,2.98630497833981,-10.1861901790291,-7.37132962138835,1.0213667,-0.25625798,0.047647487,125.203575,107.998795,1.6851786,WAL
63783482000,3.374972,3.68527161778458,-11.5123433185299,-8.19671434252169,0.77824235,-0.08582657,-0.0421497,125.11906,108.21245,1.7380645,WAL
63788475000,3.379965,4.46635579096478,-13.147738151608,-9.06078880245023,0.40500367,0.05131268,-0.16401732,125.0651,108.48945,1.8253659,WAL
63793447000,3.384937,5.34910426779347,-14.6315710528982,-9.80134005211885,-0.05589417,0.13072516,-0.32925636,125.11968,108.9446,2.059633,WAL
63798484000,3.389974,6.30776274240624,-16.0460622270823,-10.4780400248417,-0.49418998,0.18478674,-0.5207626,125.187164,109.484726,2.3320262,WAL
63803474000,3.394964,6.96912869007156,-17.0553818884914,-10.8922242251044,-0.82741696,0.27916542,-0.70738196,125.32771,110.16035,2.7629716,WAL
63808453000,3.399943,7.41458634084675,-17.7709575138144,-11.1149525804015,-1.010982,0.3915646,-0.8854492,125.455795,110.89188,3.2254944,WAL
63813565000,3.405055,7.64084829928966,-18.2433932880821,-10.7642094617206,-1.0369438,0.49846604,-1.106277,125.63294,111.67865,3.848813,WAL
63818568000,3.410058,7.68811815958958,-18.5081041108919,-9.9842567667719,-0.8762862,0.5681047,-1.2910637,125.79391,112.43489,4.4818068,WAL
63823473000,3.414963,7.85833051130501,-17.820816689232,-8.96498414766516,-0.7012733,0.55741453,-1.3133603,125.95206,113.15607,5.140194,WAL
63828470000,3.41996,8.13823936611372,-16.306554155432,-7.70768662506472,-0.6627888,0.50335294,-1.2644911,126.08625,113.84758,5.794239,WAL
63833479000,3.424969,8.16553988332209,-14.7998381155217,-6.49006862508912,-0.7156286,0.34574974,-1.142318,126.134575,114.38485,6.394318,WAL
63838473000,3.429963,7.87984353165045,-13.3114500095385,-5.32884915620002,-0.79229224,0.11453723,-0.9850202,126.15009,114.89639,6.9301553,WAL
63843448000,3.434938,7.36861185779235,-11.8404493088391,-4.24722650728484,-0.84696466,-0.01282817,-0.90469146,126.15065,115.36995,7.503754,WAL
63848522000,3.440012,6.44895660023261,-10.3607806733982,-3.27619429051597,-0.86498517,-0.3381139,-0.7464773,126.06447,115.82689,7.948204,WAL
63853472000,3.444962,5.55571949037507,-9.06025978940266,-2.85279646591586,-0.8732319,-0.65240407,-0.57787853,125.93935,116.22925,8.345704,WAL
63858470000,3.44996,4.6580751196666,-7.90139587608653,-2.99053024696368,-0.84604836,-0.84482664,-0.43951756,125.779755,116.61052,8.677098,WAL
63863598000,3.455088,3.77658673171521,-6.77630795134844,-3.34426747837599,-0.74464476,-0.8341365,-0.29932398,125.568504,116.89836,8.880376,WAL
63868503000,3.459993,2.97502560064725,-5.76744681057174,-3.90628177228597,-0.56199604,-0.6966918,-0.17562376,125.36005,117.140854,9.042236,WAL
63873445000,3.464935,2.14203610844233,-4.86357183136148,-4.37184676218787,-0.3576616,-0.4981606,-0.04917465,125.18207,117.37802,9.093198,WAL
63878478000,3.469968,1.25846373392786,-4.09940099833532,-4.70617121799445,-0.172264,-0.2489276,0.055283304,125.06997,117.55835,9.14169,WAL
63883434000,3.474924,0.540649916930885,-3.545110874098,-4.91737959315309,-0.030543262,0.010079277,0.15974127,125.028854,117.794945,9.058496,WAL
63888481000,3.479971,0.0411183113223217,-3.2819648488327,-4.95306044408047,0.092240654,0.29352075,0.29871312,125.08194,117.97293,8.977549,WAL
63893422000,3.484912,-0.318156934359321,-3.20295108376184,-4.89705386416155,0.19822577,0.5531385,0.44623706,125.20673,118.14311,8.84459,WAL
63898496000,3.489986,-0.242286131180389,-3.73404645778079,-4.52781618528157,0.36010507,0.77366084,0.5858198,125.41312,118.2565,8.713029,WAL
63903409000,3.494899,-0.0670301137215937,-4.57157829192327,-4.16634463256272,0.535118,0.9456194,0.7275405,125.68772,118.30512,8.558761,WAL
63908475000,3.499965,0.348208515946877,-6.1800315974422,-3.78451575209051,0.64996064,1.1059716,0.8472701,126.03049,118.32199,8.403058,WAL
63913543000,3.505033,1.09683432141802,-8.36256109246676,-3.47390523338257,0.67256266,1.2327261,0.90377516,126.357544,118.26708,8.202098,WAL
63918555000,3.510045,2.63003584490399,-11.8853796614476,-3.33653747378139,0.5833763,1.3100005,0.9254609,126.72117,118.212814,7.9984646,WAL
63923470000,3.51496,3.96746399662115,-14.9469367305891,-3.16939225804844,0.39614612,1.4107933,0.9611965,127.032684,118.07197,7.7692595,WAL
63928480000,3.51997,4.07267224888867,-15.0904025972291,-2.75334104505133,0.22937989,1.5402967,1.0485502,127.37393,117.953316,7.543424,WAL
63933961000,3.525451,3.97884685183691,-15.1065314050855,-2.22203675865322,0.15851954,1.7076738,1.2195925,127.75502,117.58922,7.477914,WAL
63938437000,3.529927,3.1745262136256,-14.6292006396317,-1.52295417626304,0.1459968,1.8051068,1.3472633,128.15096,117.26322,7.4078746,WAL
63943426000,3.534916,2.27802137358176,-14.097162393687,-0.743748858223586,0.14080444,2.0934353,1.3561208,128.61722,116.903725,7.3765783,WAL
63948454000,3.539944,1.5110293350169,-13.2346562283754,0.352006190936568,0.13652839,2.4193318,1.2867876,129.11801,116.55611,7.3481708,WAL
63953409000,3.544899,0.784465930562736,-12.3146573682641,1.49846650294691,0.1160644,2.659402,1.1685852,129.65945,116.2298,7.3533115,WAL
63958489000,3.549979,0.277550013304285,-11.5305570210603,1.85232965624546,0.12797627,2.754086,1.0152581,130.10706,115.81944,7.269202,WAL
63963518000,3.555008,-0.168392197385621,-10.7916921045752,2.0097210129085,0.20891592,2.740036,0.88147855,130.5688,115.41765,7.2254148,WAL
63968586000,3.560076,-0.448411099709974,-10.1679456260855,1.9013291798415,0.33078352,2.631913,0.7959574,130.84094,114.96103,7.093833,WAL
63973466000,3.564956,-0.621780273034314,-9.63601739743698,1.64521566293736,0.4541783,2.4410176,0.77213365,131.07025,114.50146,6.9687786,WAL
63978459000,3.569949,-0.751575815117922,-9.11264345440713,1.46606543952831,0.55680364,2.1762075,0.7846564,131.14171,114.0815,6.7763224,WAL
63983458000,3.574948,-0.7307631107597,-8.65476363253994,1.5493162569612,0.6588182,1.840537,0.8038987,131.13585,113.63996,6.560861,WAL
63988407000,3.579897,-0.714711375490383,-8.31227252313845,1.70580052793754,0.7648033,1.5149459,0.82772243,131.12677,113.21951,6.315678,WAL
63993459000,3.584949,-0.705497512683298,-8.13720884117311,1.98221665267568,0.87964594,1.2476922,0.81489426,131.03615,112.77909,6.04857,WAL
63998455000,3.589945,-0.674498845659001,-7.95499069802452,2.1609074145274,0.95447695,1.0824533,0.7797695,130.91444,112.32682,5.7770066,WAL
64003418000,3.594908,-0.592642428973762,-7.75275742275352,2.11757169113565,0.9569204,1.042747,0.7583892,130.74966,111.87079,5.494007,WAL
64008459000,3.599949,-0.509052324987125,-7.51418326803996,2.1278158405603,0.8927795,1.0818423,0.77824235,130.58725,111.36827,5.206554,WAL
64013482000,3.604972,-0.424823956255021,-7.20699719946441,2.25168098218148,0.8072584,1.0806206,0.83658,130.39912,110.87812,4.90929,WAL
64018412000,3.609902,-0.362092716174008,-6.8780792684383,2.31250333811431,0.7742717,1.0283916,0.90285885,130.20306,110.42906,4.615872,WAL
64023474000,3.614964,-0.331209522355297,-6.49424551714598,2.27279639832545,0.7644979,0.99204516,0.9947941,130.01366,109.99898,4.3051977,WAL
64028421000,3.619911,-0.27345266581057,-6.17056080334903,2.16961029931973,0.7623598,1.0363328,1.0913107,129.84921,109.574814,3.9931722,WAL
64033492000,3.624982,-0.0853974558166405,-6.07907428467818,1.76300441061225,0.7467828,1.0564915,1.14018,129.6663,109.1616,3.6677892,WAL
64038422000,3.629912,0.138177706891421,-6.09420889580603,1.43484101556609,0.81214535,1.0726794,1.1695015,129.52513,108.75748,3.3337727,WAL
64043458000,3.634948,0.478536199970158,-6.39566926802097,1.28411088022986,0.86529064,1.0983357,1.2174544,129.39099,108.36512,2.989419,WAL
64048448000,3.639938,0.81662844760257,-6.66401159157687,1.24489214292635,1.0054842,1.0580186,1.2113458,129.21904,108.05659,2.6701224,WAL
64053477000,3.644967,1.15945062951063,-6.85922981440435,1.47820164748393,1.201572,0.9810496,1.2137892,129.04501,107.72018,2.341511,WAL
64058466000,3.649956,1.38270498162358,-7.10337684533408,1.72007822050783,1.427592,0.91690874,1.2547172,129.02254,107.253235,2.0563965,WAL
64063492000,3.654982,1.28903498507089,-7.48697806305254,1.99216749099249,1.5943583,0.93645644,1.2947289,128.99266,106.75738,1.7749704,WAL
64068471000,3.659961,1.22547667753011,-7.85654673251843,2.2964693891785,1.6554449,0.91904676,1.3255776,128.96742,106.16316,1.5141523,WAL
64073754000,3.665244,1.40282488876505,-8.16122236625921,2.91036709458925,1.6096299,0.7657196,1.3338243,128.90005,105.56347,1.2424114,WAL
64079226000,3.670716,1.59276573407092,-8.47446797845202,3.52443969759397,1.5189165,0.46395215,1.3295482,128.72678,104.91133,0.9317727,WAL
64083462000,3.674952,1.87500064372403,-8.66654432090057,3.52835962462074,1.3616186,0.20097467,1.3109168,128.5098,104.30623,0.6194027,WAL
64088425000,3.679915,2.20567388654943,-8.89158560691854,3.53295230588463,1.2052372,0.048258353,1.3231341,128.161,103.62958,0.29571947,WAL
64093454000,3.684944,2.61709338566276,-9.18106652569883,3.43235679927863,1.0491611,-0.05497787,1.359786,127.74346,103.01378,-0.03951435,WAL
64098440000,3.68993,3.04287705437331,-9.48246400631199,3.30797056122633,0.89827734,-0.14110987,1.3640621,127.27821,102.45633,-0.3726543,WAL
64103474000,3.694964,3.39004676856354,-10.2012760121547,2.43373900179558,0.75777835,-0.21533,1.3341297,126.84769,101.906715,-0.67013186,WAL
64108473000,3.699963,3.71626318810313,-11.008000454512,1.39778163987109,0.6453791,-0.26358834,1.3060299,126.39351,101.40644,-0.9674791,WAL
64113477000,3.704967,3.86454720229204,-11.4355782535072,0.637626839774748,0.5864306,-0.29352075,1.2754866,125.979904,100.92232,-1.1996943,WAL
64118455000,3.709945,3.91635577909504,-11.6569418774946,0.0300531168820391,0.5665775,-0.30573806,1.2205088,125.54997,100.469185,-1.414541,WAL
64123477000,3.714967,3.83783999602285,-11.7443336964248,-0.575011594250053,0.6261369,-0.3118467,1.1640037,125.27279,100.162186,-1.5569949,WAL
64128484000,3.719974,3.68060674374868,-11.7494058393273,-1.17351241324942,0.7122689,-0.28130344,1.0940597,124.99676,99.85758,-1.6760616,WAL
64133455000,3.724945,3.47792091043228,-11.4853254451489,-1.53275832073007,0.8350528,-0.24220806,1.0250319,124.80197,99.62807,-1.7638115,WAL
64139257000,3.730747,3.22171512432277,-11.063653251489,-1.85301556730067,0.9798279,0.002443461,0.94225967,124.66824,99.36876,-1.8152485,WAL
64143461000,3.734951,2.99522968973871,-10.7572555410981,-1.91894674805882,1.135293,0.11636983,0.90010995,124.57583,99.18242,-1.8766139,WAL
64148472000,3.739962,2.71093842630911,-10.3917387930816,-1.93925325172961,1.2006557,0.31612277,0.8436049,124.570335,98.97921,-1.8948946,WAL
64153436000,3.744926,2.32942585929711,-9.97018360471779,-1.85099436651705,1.2782356,0.4370741,0.7715228,124.61365,98.80439,-1.9283456,WAL
64158444000,3.749934,1.91261567727056,-9.52589111995034,-1.72732541508929,1.3240504,0.47494772,0.70188415,124.684975,98.62111,-1.9406655,WAL
64163446000,3.754936,1.53177770964602,-9.02670252241888,-1.5702262579941,1.3338243,0.5045747,0.66248333,124.79527,98.45106,-1.9776095,WAL
64168450000,3.75994,1.16894386929204,-8.49894387817109,-1.39587754932153,1.3170254,0.54641896,0.63194007,124.9144,98.27683,-1.9945942,WAL
64173379000,3.764869,0.904784677985258,-8.04105833169533,-1.31310495872236,1.3130548,0.57360244,0.634689,125.02379,98.10896,-2.0760102,WAL
64178414000,3.769904,0.69251743356982,-7.61158747072072,-1.28348624132883,1.2944235,0.57940567,0.66798115,125.13608,97.95648,-2.1548502,WAL
64183411000,3.774901,0.589545936437042,-7.32823905325358,-1.15840252264618,1.280679,0.5870415,0.70280045,125.23555,97.81479,-2.2922027,WAL
64188389000,3.779879,0.540382973320615,-7.11683827540476,-0.986332077302258,1.2812898,0.54244834,0.7666359,125.320984,97.68865,-2.445968,WAL
64193383000,3.784873,0.540351362781992,-6.9695311774899,-0.907866365954093,1.2373075,0.46609017,0.81092364,125.39808,97.611145,-2.6370661,WAL
64198397000,3.789887,0.559272877982465,-6.84654137808098,-0.865292932055955,1.1844677,0.42760566,0.8445212,125.471855,97.55132,-2.8390486,WAL
64203391000,3.794881,0.64456629744562,-6.86544680979844,-0.752917423867492,1.1511755,0.441961,0.88514376,125.532845,97.48608,-3.0645854,WAL
64208389000,3.799879,0.759189831999601,-6.94663852686091,-0.609637999441229,1.099252,0.49296826,0.9202685,125.591,97.45465,-3.2934484,WAL
64213422000,3.804912,0.874616052369786,-7.02839881337058,-0.465355217701058,1.0509937,0.5403103,0.94714653,125.66648,97.436844,-3.530615,WAL
64218393000,3.809883,0.988620372151267,-7.10915191971662,-0.322849811774097,1.0207558,0.5867361,0.95111716,125.75323,97.44027,-3.7644546,WAL
64223528000,3.815018,1.20446122453647,-7.32730296176941,-0.248840142355765,0.96486163,0.6291912,0.95417154,125.84988,97.475334,-3.998906,WAL
64228444000,3.819934,1.45259832563765,-7.59316408203294,-0.208960962749176,0.9502009,0.6765333,0.9456194,125.95761,97.51496,-4.2241945,WAL
64233453000,3.824943,1.70590224695201,-7.89795076575875,-0.229807053067944,0.91965765,0.7058548,0.94225967,126.061775,97.48683,-4.4150004,WAL
64238452000,3.829942,1.95905458949416,-8.22752686070039,-0.296677498512421,0.9080512,0.77946407,0.93462384,126.18833,97.46515,-4.5953813,WAL
64243429000,3.834919,2.19025087223129,-8.54356089328595,-0.361850789347805,0.883922,0.84635377,0.9129381,126.32982,97.415665,-4.7287087,WAL
64248457000,3.839947,2.40763177485352,-8.85344381135338,-0.426602547883969,0.8775079,0.9239337,0.8750645,126.491875,97.36789,-4.84964,WAL
64253448000,3.844938,2.6291088097977,-9.12908444030147,-0.450486004984133,0.8961393,0.96791595,0.829555,126.68438,97.29988,-4.921855,WAL
64258961000,3.850451,2.88042310257834,-9.39610630007933,-0.429543149074772,0.91721416,0.9831876,0.78893244,126.887634,97.23144,-4.9810576,WAL
64263425000,3.854915,3.04014261025838,-9.55981909259437,-0.383048354389588,0.9624182,0.981355,0.7431176,127.11741,97.13292,-4.9916043,WAL
64268452000,3.859942,3.17424453486697,-9.68929657314379,-0.29981264424551,1.0177015,0.97035944,0.72295904,127.3467,97.02944,-4.9967747,WAL
64273440000,3.86493,3.27127612946191,-9.81719790081584,-0.23888904517096,1.0268645,0.9486737,0.70157874,127.582245,96.88952,-4.956811,WAL
64278483000,3.869973,3.31112063716198,-9.94558521963516,-0.2123261140022,1.0201449,0.93218035,0.68019843,127.8143,96.74284,-4.9117517,WAL
64283427000,3.874917,3.3248385787021,-10.0607791578086,-0.184181555895436,1.0134255,0.91690874,0.6704246,128.03644,96.56813,-4.8474226,WAL
64288475000,3.879965,3.23639923235124,-10.1352544121895,-0.146943953006932,0.9960158,0.9138544,0.67073005,128.25626,96.4005,-4.7813344,WAL
64293523000,3.885013,3.13906074497495,-10.1999641870518,-0.09230577657039,0.960891,0.91996306,0.66248333,128.48082,96.233,-4.7102966,WAL
64298457000,3.889947,2.99051346280578,-10.2046063835347,0.0655257192170154,0.90469146,0.904386,0.66553766,128.69797,96.08109,-4.6446176,WAL
64303485000,3.894975,2.83622778770922,-10.2051579302763,0.22835045501139,0.8582657,0.8781188,0.68539083,128.91397,95.94576,-4.598877,WAL
64308480000,3.89997,2.65619664915321,-10.167256382787,0.408381519362187,0.79168135,0.83108217,0.6954701,129.11884,95.827934,-4.552914,WAL
64313508000,3.904998,2.4774020340694,-10.1291191009464,0.592281686750789,0.73273283,0.7800749,0.7104363,129.29515,95.72319,-4.5417967,WAL
64318530000,3.91002,2.32568372083991,-10.0911897330442,0.805635643631704,0.6805039,0.7131852,0.71685034,129.45291,95.6345,-4.5324097,WAL
64323614000,3.915104,2.1778149360391,-10.049650097159,1.01306083481322,0.6310238,0.62949663,0.7101309,129.56645,95.560776,-4.556072,WAL
64329117000,3.920607,2.09487593345482,-9.96234597987244,1.12219107258345,0.5766568,0.5299256,0.72173727,129.65611,95.50797,-4.5875382,WAL
64333489000,3.924979,2.02898290795991,-9.89298497664209,1.20889239904746,0.52656585,0.47891834,0.7287622,129.69615,95.46007,-4.640799,WAL
64338441000,3.929931,1.94126522799111,-9.92439827261187,1.29258020066646,0.5036584,0.3539964,0.72784597,129.6861,95.42433,-4.6967955,WAL
64343459000,3.934949,1.84467454065376,-10.0209888006982,1.36883601763461,0.43493605,0.20280726,0.70738196,129.65338,95.40484,-4.749208,WAL
64348470000,3.93996,1.79224572914902,-10.1896450592992,1.40231080327301,0.37690386,0.02107485,0.6914995,129.57077,95.39432,-4.822457,WAL
64353478000,3.944968,1.75531028286484,-10.383556574124,1.42077855051983,0.29810223,-0.15027285,0.67073005,129.44756,95.39453,-4.88898,WAL
64358490000,3.94998,1.81609089104762,-10.4909456190476,1.34469320552381,0.21227567,-0.29229903,0.66859204,129.2783,95.41492,-4.973596,WAL
64363586000,3.955076,1.92764155451429,-10.5560166857143,1.21919872125714,0.13133603,-0.39003745,0.64751714,129.073,95.43763,-5.0472665,WAL
64368559000,3.960049,2.0786561380864,-10.6069845198339,1.07976534121742,0.058948494,-0.43218717,0.6133087,128.84909,95.47146,-5.1234994,WAL
64373473000,3.964963,2.25743509021998,-10.6485609799452,0.930089937210001,-0.007330383,-0.44501534,0.57940567,128.60681,95.509544,-5.1938334,WAL
64378446000,3.969936,2.59998368904006,-10.8950259909297,0.705998122585034,-0.04428773,-0.40408736,0.5305365,128.40158,95.53207,-5.2319226,WAL
64383453000,3.974943,3.33004527064032,-11.6302650949142,0.307311976520894,-0.058948494,-0.30909783,0.47769663,128.20985,95.54898,-5.2589936,WAL
64388430000,3.97992,3.76062200886515,-12.2927456345235,0.0664471172392466,-0.07544186,-0.22632557,0.41722095,128.07898,95.54082,-5.242231,WAL
64393464000,3.984954,3.81935370715022,-12.8755447073376,0.0212689287585044,-0.08002335,-0.15851954,0.35888332,127.97275,95.5201,-5.211248,WAL
64399049000,3.990539,3.73738187480858,-13.4368728169985,-0.119834747521057,-0.103847094,-0.115453534,0.29046643,127.97832,95.41663,-5.0547585,WAL
64403478000,3.994968,3.48568080438361,-13.7738269657351,-0.347177586705302,-0.1518,-0.09865474,0.21746802,127.99774,95.30869,-4.8844967,WAL
64408490000,3.99998,3.21123231819088,-14.0719595579367,-0.577645566758036,-0.16493362,-0.022296581,0.15699236,128.06308,95.18807,-4.6903477,WAL
64413608000,4.005098,2.96695577699975,-14.0882445671567,-0.720140226414154,-0.14355333,0.10476339,0.10720685,128.14905,95.065636,-4.4839826,WAL
64418460000,4.00995,2.73537512481934,-14.1036831886369,-0.85522895026165,-0.08979719,0.23732115,0.069027774,128.2897,95.001,-4.307353,WAL
64423478000,4.014968,2.4438169480153,-13.8930887087518,-0.922277165184122,-0.045814894,0.35216382,0.03176499,128.46025,94.936195,-4.120892,WAL
64428445000,4.019935,2.14353113136298,-13.6337514482066,-0.972324809210904,-0.040927973,0.39553526,-0.008246681,128.64671,94.87306,-3.9272811,WAL
64433479000,4.024969,1.984695612922,-13.4459038341094,-1.03032617043073,-0.11362094,0.43493605,-0.027794369,128.87721,94.8772,-3.772308,WAL
64438482000,4.029972,1.88243711766589,-13.2878674218568,-1.09075166475553,-0.17012598,0.40683624,-0.09254608,129.09663,94.87119,-3.597209,WAL
64443463000,4.034953,1.91750227503718,-13.3106144274313,-1.24297779169228,-0.32406402,0.35277468,-0.1591304,129.33736,94.94945,-3.4710457,WAL
64448539000,4.040029,2.02352596069198,-13.4262772292555,-1.44538665069892,-0.5002986,0.30024028,-0.2565634,129.56508,95.03599,-3.3198385,WAL
64453476000,4.044966,2.22582665856927,-13.6025384652699,-1.49850267142318,-0.6618725,0.28160888,-0.3640757,129.79713,95.17231,-3.1668618,WAL
64458503000,4.049993,2.48480450008494,-13.8160811174972,-1.47578533771234,-0.79290307,0.2510656,-0.48288897,130.00456,95.336555,-2.9859512,WAL
64463578000,4.055068,2.74730110544044,-14.0491326350016,-1.33401119538838,-0.9086621,0.22143865,-0.6056729,130.23582,95.55872,-2.7592278,WAL
64468521000,4.060011,3.00383560970141,-14.2905769917118,-1.09759708044841,-1.044885,0.16676621,-0.7281514,130.44366,95.823425,-2.5036514,WAL
64473471000,4.064961,3.16693512731439,-14.4200955934006,-0.859393309981668,-1.180497,0.12767084,-0.86529064,130.65208,96.10545,-2.1754205,WAL
64478470000,4.06996,3.28102641998167,-14.4903056549038,-0.618046378208066,-1.3200798,0.064751714,-0.98471475,130.83157,96.44184,-1.8260405,WAL
64483480000,4.07497,3.33041878323694,-14.4507512789394,-0.401246820121897,-1.4425583,-0.020158553,-1.0925325,130.96165,96.779785,-1.4165872,WAL
64488472000,4.079962,3.30489642259988,-14.2848564455912,-0.214083686035234,-1.5723672,-0.15515977,-1.185384,131.05507,97.18055,-0.9906282,WAL
64493422000,4.084912,3.27145992604058,-14.0556791761138,-0.0917478554340096,-1.6911805,-0.27305678,-1.2495248,131.09714,97.5882,-0.53958267,WAL
64498515000,4.090005,3.20514850145367,-13.565994043767,-0.214169135857561,-1.7852536,-0.35979962,-1.3011429,131.10834,98.045685,-0.08047674,WAL
64503411000,4.094901,3.12425798094432,-13.0449888411196,-0.373221682884749,-1.8661933,-0.37934732,-1.3475688,131.07555,98.518814,0.37751582,WAL
64508506000,4.099996,2.99788685682837,-12.3791103036657,-0.64054517250523,-1.953547,-0.38789943,-1.3322971,131.0252,99.03181,0.8188291,WAL
64513522000,4.105012,2.84122551094766,-11.7698025392962,-0.864015687444733,-2.1655173,-0.55863625,-1.3515394,130.93138,99.6412,1.2594858,WAL
64518502000,4.109992,2.61253103191645,-11.2697757715783,-0.995805753374512,-2.4355197,-0.75594574,-1.4083499,130.82947,100.29449,1.6940039,WAL
64523407000,4.114897,2.38728074684655,-10.7772795274707,-1.12561102915475,-2.7516425,-0.8881981,-1.4428637,130.73546,101.06906,2.102584,WAL
64528467000,4.119957,2.07133350884699,-10.9771735591008,-1.02981576548223,-3.0418036,-0.91751957,-1.434617,130.61717,101.90257,2.500458,WAL
64533509000,4.124999,1.73868696470268,-11.3273277078499,-0.885377181979695,-3.1728342,-0.9285152,-1.4300356,130.46829,102.768135,2.8927894,WAL
64538437000,4.129927,1.11595033675104,-11.926299153566,-0.174175817177542,-3.361286,-0.9007208,-1.4217888,130.31058,103.74436,3.2375324,WAL
64543458000,4.134948,0.303586220372079,-12.6900183966616,0.891140038634294,-3.4953709,-0.9691377,-1.4269812,130.1258,104.72242,3.568371,WAL
64548535000,4.140025,-0.67858294008982,-13.1590588610412,2.0642951249421,-3.5393531,-1.171945,-1.4153748,129.83469,105.64472,3.8034306,WAL
64553475000,4.144965,-1.71709411128708,-13.4591796545162,3.25524834193938,-3.5262196,-1.4865406,-1.4068227,129.49698,106.56577,4.0160446,WAL
64558510000,4.15,-2.38878014086607,-13.5792312282765,3.75686018675079,-3.4122932,-1.8341229,-1.3741413,128.90523,107.209335,4.0083346,WAL
64563558000,4.155048,-2.86939828582354,-13.6069587954306,3.90474270031546,-3.2696562,-2.1319196,-1.284955,128.25284,107.81781,3.9522018,WAL
64568495000,4.159985,-3.10808002802635,-13.7296928580981,3.50802701801554,-3.0659328,-2.2165246,-1.169807,127.36766,108.117134,3.6120956,WAL
64573473000,4.164963,-3.18308975976005,-13.9219051426886,2.72042537329138,-2.8716774,-1.9941696,-1.0125091,126.50798,108.364006,3.2394967,WAL
64578466000,4.169956,-3.20010804688267,-13.9678847904271,1.8375669413569,-2.6942213,-1.4892895,-0.8481864,125.70377,108.48937,2.7401547,WAL
64584126000,4.175616,-3.16285402135493,-13.8774106490427,0.746553721602356,-2.5772405,-0.7632761,-0.6930266,125.042625,108.57344,2.2536285,WAL
64588475000,4.179965,-2.92821889553763,-13.5918706617742,0.478046391834409,-2.4153612,-0.025045475,-0.634689,124.50793,108.70498,1.7924776,WAL
64593454000,4.184944,-2.48727999397849,-13.084278476129,0.647243851294624,-2.196366,0.44532076,-0.6753115,124.11292,108.788994,1.3785846,WAL
64598521000,4.190011,-1.97311998860747,-12.6374778779581,0.620172689184432,-1.9443841,0.57910025,-0.799928,123.85694,108.96123,1.0492029,WAL
64603477000,4.194967,-1.43472105627811,-12.2383197187561,0.485572943985918,-1.6523905,0.57818395,-0.95905846,123.6944,109.06163,0.79124284,WAL
64608510000,4.2,-0.865692773453552,-11.9129335335155,0.309709392044262,-1.3106114,0.48991394,-1.0461067,123.53447,109.11483,0.64558595,WAL
64613549000,4.205039,-0.281152555032787,-11.6404415773224,0.107537595489344,-1.0216721,0.37690386,-1.1178834,123.3605,109.100586,0.54447156,WAL
64618677000,4.210167,0.258918833750245,-11.3745936733752,-0.0303456734104653,-0.7910705,0.28680122,-1.1939361,123.17705,109.0861,0.5881579,WAL
64623472000,4.214962,0.696216742320833,-11.1401654360888,-0.0754279343602984,-0.6432411,0.1826487,-1.2837334,122.95608,109.01322,0.6427172,WAL
64628453000,4.219943,1.1127156559286,-10.8747670178496,-0.130971894949001,-0.56596667,0.11728613,-1.3365731,122.77457,108.97606,0.8396771,WAL
