timestamp,rel_time,acc_x,acc_y,acc_z,gyro_x,gyro_y,gyro_z,azimuth,pitch,roll,label
14571281055000,0,-0.918919326473356,9.85042842720225,-0.259031578785269,-0.03390302,-0.0421497,-0.005192355,316.12326,-90.3696,-0.18733704,STD
14571286077000,0.005022,-0.921553328980588,9.84899169478868,-0.261426126473655,-0.03848451,-0.050396383,-0.004276057,316.20078,-90.4204,-0.1932247,STD
14571291077000,0.010022,-0.924175792647684,9.84756125630443,-0.263810184307571,-0.042455133,-0.057421334,-0.0015271631,316.27954,-90.4715,-0.20031105,STD
14571295988000,0.014933,-0.926751576461506,9.8461562796252,-0.266151805912044,-0.049480084,-0.063224554,-0.004886922,316.35938,-90.521065,-0.20970774,STD
14571301058000,0.020003,-0.928992347088701,9.84470442098439,-0.267561240318616,-0.055283304,-0.06505715,-0.0033597588,316.4392,-90.56868,-0.2177333,STD
14571306050000,0.024995,-0.92923169636751,9.84326834530562,-0.26421034791603,-0.050396383,-0.06536258,-0.004886922,316.5193,-90.61758,-0.22834747,STD
14571311053000,0.029998,-0.929471573058591,9.84182910519728,-0.260852071736116,-0.04734206,-0.0720821,-0.0067195175,316.66882,-90.661285,-0.20401303,STD
14571316051000,0.034996,-0.929711210016822,9.84039130346602,-0.257497151818623,-0.044593163,-0.070249505,-0.0067195175,316.81387,-90.70843,-0.18185408,STD
14571321066000,0.040011,-0.929951662066747,9.83894861125268,-0.254130820608895,-0.043982297,-0.080634214,-0.009468411,316.96225,-90.75752,-0.1633032,STD
14571326087000,0.045032,-0.930192401796094,9.83750419298685,-0.250760461884259,-0.03970624,-0.08552113,-0.004581489,317.1065,-90.80874,-0.14468576,STD
14571331055000,0.05,-0.930430600357216,9.83607502151808,-0.247425679541301,-0.03970624,-0.08399397,0.0015271631,317.24982,-90.85944,-0.12859549,STD
14571336107000,0.055052,-0.930672826430241,9.83462168531434,-0.244034511989646,-0.03756821,-0.07971791,0.0033597588,317.3917,-90.91203,-0.11439377,STD
14571341121000,0.060066,-0.930913230533596,9.83317928077641,-0.240668852032402,-0.046731193,-0.07666359,-0.005192355,317.53146,-90.96137,-0.1034518,STD
14571346142000,0.065087,-0.931153970262943,9.83173486251058,-0.237298493307767,-0.04184427,-0.080634214,-0.00580322,317.6701,-91.01468,-0.09169192,STD
14571351054000,0.069999,-0.93138948381613,9.83032180086513,-0.234001301103941,-0.03848451,-0.080634214,-0.003970624,317.80475,-91.06472,-0.08344445,STD
14571356054000,0.074999,-0.931629216667501,9.82888342378304,-0.230645038681479,-0.040317107,-0.07849618,-0.0061086523,317.93805,-91.11423,-0.07826204,STD
14571361055000,0.08,-0.931868997465442,9.82744475902553,-0.227288105006534,-0.04184427,-0.08124508,-0.008857546,318.0709,-91.16413,-0.07445591,STD
14571366144000,0.085089,-0.932112997561568,9.82598077883138,-0.223872101112952,-0.04184427,-0.07696902,0.00061086525,318.19937,-91.21315,-0.069311075,STD
14571371041000,0.089986,-0.932347791916201,9.82457203231717,-0.220584977696394,-0.036957346,-0.07452556,-0.007941248,318.32724,-91.262825,-0.071667485,STD
14571376147000,0.095092,-0.932592607104021,9.82310316164094,-0.217157562510576,-0.042455133,-0.07391469,-0.011911872,318.45276,-91.30866,-0.07150868,STD
14571381053000,0.099998,-0.932827832977786,9.82169182604799,-0.213864397821657,-0.03726278,-0.076358154,-0.013133603,318.5767,-91.35835,-0.07442517,STD
14571386099000,0.105044,-0.93306977137139,9.82024021589675,-0.210477257784909,-0.035124753,-0.07147124,-0.007330383,318.69675,-91.404915,-0.077701956,STD
14571391078000,0.110023,-0.933308497344785,9.8188078799984,-0.207135091664622,-0.039095376,-0.07147124,-0.009162978,318.8172,-91.45069,-0.08481733,STD
14571396039000,0.114984,-0.933546360279915,9.81738072225755,-0.203805008089056,-0.026267206,-0.06994407,-0.0067195175,318.93356,-91.501144,-0.09003218,STD
14571401049000,0.119994,-0.933786572596989,9.81593946842129,-0.20044203314175,-0.032070424,-0.067500606,-0.011911872,319.04877,-91.54457,-0.09930929,STD
14571406053000,0.124998,-0.934026497234641,9.81449994063753,-0.197083085709351,-0.036651913,-0.070554934,-0.00030543262,319.16302,-91.59104,-0.10405287,STD
14571411058000,0.130003,-0.934266469818864,9.81306012517836,-0.193723467024467,-0.027488936,-0.061086524,-0.0021380284,319.2714,-91.63946,-0.11504607,STD
14571416055000,0.135,-0.934506058830524,9.81162261112252,-0.190369218359459,-0.028099801,-0.0711658,-0.0012217305,319.38486,-91.6829,-0.12320135,STD
14571421043000,0.139988,-0.934745216323052,9.81018768614542,-0.187021010966812,-0.028099801,-0.0693332,-0.004581489,319.49072,-91.72857,-0.1339521,STD
14571426103000,0.145048,-0.934987825968639,9.80873204853834,-0.183624473395281,-0.030543262,-0.07544186,-0.013439035,319.60028,-91.77285,-0.14716509,STD
14571431056000,0.150001,-0.935225305331207,9.80730719220082,-0.180299759839591,-0.028099801,-0.07422013,-0.005497787,319.70593,-91.817604,-0.15737113,STD
14571436153000,0.155098,-0.935469688999895,9.80584091060334,-0.176878385926134,-0.038179077,-0.07788532,-0.005497787,319.762565037617,-91.838672009028,-0.165575183280169,STD
14571441025000,0.15997,-0.935703284690271,9.80443935597455,-0.173608043821687,-0.035124753,-0.09010262,-0.005497787,319.8167,-91.85881,-0.17341708,STD
14571446022000,0.164967,-0.935942873701931,9.8030018419187,-0.170253795156679,-0.034208454,-0.0852157,-0.006414085,319.9199,-91.90225,-0.18809523,STD
14571451013000,0.169958,-0.93618217503417,9.80156605391536,-0.166903574006579,-0.048258353,-0.087964594,-0.006414085,319.97298,-91.9220075,-0.19460697,STD
14571456004000,0.174949,-0.936421476366408,9.80013026591202,-0.163553352856478,-0.03756821,-0.07971791,0.0018325958,320.02606,-91.941765,-0.20111871,STD
14571461028000,0.179973,-0.936662359935466,9.79868498461993,-0.160180980374389,-0.04062254,-0.086132,-0.0015271631,320.13278,-91.98155,-0.21856825,STD
14571466713000,0.185658,-0.936934936187475,9.79704954987759,-0.15636491000005,-0.048258353,-0.087659165,-0.004581489,320.23523,-92.01841,-0.2342539,STD
14571471000000,0.189945,-0.93714048313424,9.7958162853674,-0.153487250599032,-0.0571159,-0.08735373,0.00061086525,320.3377,-92.05351,-0.24931464,STD
14571476044000,0.194989,-0.937382325634703,9.79436525056699,-0.150101453067253,-0.043982297,-0.08093964,-0.0036651916,320.43735,-92.092865,-0.2685708,STD
14571481016000,0.199961,-0.937620715982107,9.79293492839656,-0.146763985714357,-0.043066,-0.06627888,0.005497787,320.53342,-92.12536,-0.28305784,STD
14571486042000,0.204987,-0.937861695444305,9.79148907175364,-0.143390270727299,-0.05681047,-0.06505715,-0.004886922,320.62994,-92.158005,-0.30503085,STD
14571491050000,0.209995,-0.938101811868238,9.79004839326822,-0.140028638284962,-0.045814894,-0.067500606,-0.007330383,320.72232,-92.19692,-0.3225983,STD
14571496024000,0.214969,-0.938340298108782,9.78861749574695,-0.136689828427097,-0.053450707,-0.0580322,-0.010079277,320.80963,-92.2269,-0.34354854,STD
14571501018000,0.219963,-0.938369412962506,9.78754954130804,-0.13833150456635,-0.046731193,-0.05681047,-0.006414085,320.89893,-92.26358,-0.36391494,STD
14571506013000,0.224958,-0.937652946172441,9.78778834370444,-0.157676128596306,-0.046731193,-0.05497787,-0.0061086523,320.98416,-92.29626,-0.38627747,STD
14571511024000,0.229969,-0.93693418439366,9.78802791103345,-0.177082717387918,-0.03940081,-0.047647487,-0.0027488936,321.12915,-92.319916,-0.35596445,STD
14571516014000,0.234959,-0.936218434787569,9.78826647438842,-0.196407977429855,-0.044593163,-0.047647487,-0.004581489,321.27344,-92.34089,-0.3294799,STD
14571521310000,0.240255,-0.935458793522267,9.78851966707938,-0.216918313538492,-0.03756821,-0.04642576,-0.0009162979,321.4132,-92.36757,-0.3026402,STD
14571526059000,0.245004,-0.934777612183724,9.78874670863705,-0.235310229357963,-0.04428773,-0.047647487,0.00030543262,321.5515,-92.38947,-0.27923626,STD
14571531014000,0.249959,-0.934066882865452,9.78898359870195,-0.254499941483774,-0.044898596,-0.05467244,0.0030543262,321.68912,-92.4152,-0.25657004,STD
14571536011000,0.254956,-0.933350129201797,9.78922249671493,-0.273852311108937,-0.054367006,-0.054061573,0.010995574,321.8229,-92.43657,-0.23408657,STD
14571541009000,0.259954,-0.932633232101348,9.7894614425362,-0.293208553531702,-0.051618114,-0.064446285,0.008552114,321.95972,-92.46168,-0.21607012,STD
14571546020000,0.264965,-0.931914470322566,9.7897010098652,-0.312615142323315,-0.047036625,-0.063224554,0.009162978,322.0911,-92.484566,-0.19679692,STD
14571551757000,0.270702,-0.931091573430754,9.78997528601098,-0.334833382175137,-0.04550946,-0.06291912,0.009162978,322.22363,-92.50762,-0.18050854,STD
14571556005000,0.27495,-0.93048225392641,9.79017837561658,-0.351285026395207,-0.04917465,-0.065973446,0.011911872,322.35486,-92.53052,-0.16520031,STD
14571561025000,0.27997,-0.929762201216475,9.79041837322017,-0.370726470365252,-0.049480084,-0.071776666,0.01038471,322.48474,-92.55492,-0.15298447,STD
14571566013000,0.284958,-0.929046738483974,9.79065684095856,-0.390043984811982,-0.05375614,-0.058948494,0.009162978,322.60825,-92.5771,-0.14148921,STD
14571571002000,0.289947,-0.928331132314678,9.79089535650524,-0.409365372056316,-0.04642576,-0.05955936,0.01038471,322.73535,-92.60251,-0.13170666,STD
14571576080000,0.295025,-0.927602760270644,9.79113812698951,-0.429031438287369,-0.04917465,-0.062308256,0.0027488936,322.85742,-92.62392,-0.12628688,STD
14571581019000,0.299964,-0.926894325941088,9.79137425212182,-0.448159185651523,-0.042760566,-0.057421334,-0.00030543262,322.97577,-92.64986,-0.12069293,STD
14571586015000,0.30496,-0.926177715714229,9.79161310232651,-0.467507682479081,-0.04062254,-0.052839845,0.0012217305,323.09317,-92.67374,-0.117462255,STD
14571591070000,0.310015,-0.925452642716475,9.79185477322017,-0.487084674365252,-0.043066,-0.040317107,-0.0009162979,323.20514,-92.69804,-0.117351264,STD
14571596022000,0.314967,-0.924742343708587,9.79209151986021,-0.506262768098253,-0.04184427,-0.035430185,-0.002443461,323.31635,-92.72375,-0.11798135,STD
14571601019000,0.319964,-0.924025590044933,9.79233041787319,-0.525615137723415,-0.03481932,-0.029321533,-0.0067195175,323.42197,-92.75026,-0.12103787,STD
14571606130000,0.325075,-0.92329248458667,9.79257476603095,-0.545409006275387,-0.038179077,-0.032375857,-0.0067195175,323.52737,-92.77389,-0.12450762,STD
14571611034000,0.329979,-0.922589070544933,9.79280921787319,-0.564401205723415,-0.042760566,-0.031154128,-0.0061086523,323.6283,-92.798904,-0.12993592,STD
14571616018000,0.334963,-0.921874181559611,9.79304749437843,-0.58370322897973,-0.03756821,-0.021685716,-0.009773844,323.7263,-92.82555,-0.13752429,STD
14571621155000,0.3401,-0.921137346744683,9.79329308555167,-0.603597790269396,-0.040317107,-0.017104227,-0.0106901415,323.82397,-92.84834,-0.14516559,STD
14571626122000,0.345067,-0.920424896184873,9.79353054931603,-0.62283397596645,-0.035124753,-0.016187929,-0.00580322,323.91867,-92.87459,-0.15298958,STD
14571631017000,0.349962,-0.919722773074289,9.79376457088367,-0.641791320236046,-0.04337143,-0.008246681,-0.0012217305,324.0088,-92.89595,-0.16181251,STD
14571636016000,0.354961,-0.919005732537044,9.79400356451323,-0.661151435456415,-0.038789943,-0.004276057,-0.007941248,324.09845,-92.92229,-0.17333683,STD
14571641097000,0.360042,-0.918276930182626,9.79424647842237,-0.68082912008028,-0.03726278,0.0036651916,-0.0015271631,324.1837,-92.94486,-0.18041292,STD
14571646021000,0.364966,-0.917570647404993,9.79448188643035,-0.699898775480379,-0.04062254,-0.0033597588,0.0012217305,324.2708,-92.96725,-0.19132762,STD
14571651020000,0.369965,-0.916853606867748,9.79472088005991,-0.719258890700749,-0.042455133,-0.0033597588,0.005192355,324.35263,-92.99007,-0.20054333,STD
14571655990000,0.374935,-0.916140725997554,9.79495848724913,-0.738506694790614,-0.043066,0.0009162979,0.0061086523,324.43408,-93.012024,-0.21059401,STD
14571661026000,0.379971,-0.915418378298902,9.79519924978532,-0.758010103522317,-0.048258353,0.0067195175,0.0030543262,324.51398,-93.03192,-0.22132769,STD
14571666729000,0.385674,-0.914600358258113,9.79547190044933,-0.780096668255617,-0.051618114,0.018936822,-0.0012217305,324.58972,-93.051956,-0.23265563,STD
14571671005000,0.38995,-0.913987022523515,9.79567632868697,-0.796656750808587,-0.053450707,0.018325957,0.0067195175,324.66656,-93.07055,-0.24206606,STD
14571676061000,0.395006,-0.913261806088967,9.79591804738892,-0.816237615492362,-0.0571159,0.024129177,-0.0021380284,324.7368,-93.08798,-0.2577193,STD
14571681016000,0.399961,-0.912551076770694,9.79615493745382,-0.835427327618173,-0.05681047,0.035124753,-0.0027488936,324.80496,-93.10551,-0.26921117,STD
14571686012000,0.404957,-0.911834466543834,9.79639378765851,-0.854775824445731,-0.06047566,0.04337143,0.0021380284,324.8713,-93.120804,-0.2820384,STD
14571691194000,0.410139,-0.91109117707314,9.79664153020469,-0.874844661627559,-0.06261369,0.06291912,-0.0015271631,324.9303,-93.13674,-0.29751238,STD
14571696040000,0.414985,-0.910396082365502,9.79687320916625,-0.893612238814578,-0.062308256,0.06780604,-0.004276057,324.99036,-93.15206,-0.31179452,STD
14571701008000,0.419953,-0.907730344932678,9.79808737365009,-0.908707148344156,-0.057421334,0.07666359,-0.01160644,325.0429,-93.1682,-0.32834265,STD
14571706015000,0.42496,-0.894617493802033,9.8045245965474,-0.901793099090909,-0.06383542,0.08093964,-0.0030543262,325.09488,-93.18067,-0.34136117,STD
14571711029000,0.429974,-0.881486310345061,9.81097081895746,-0.894869383701299,-0.06627888,0.08399397,-0.009773844,325.24304,-93.23791,-0.3280609,STD
14571715990000,0.434935,-0.868493928787415,9.81734890219964,-0.888018854772727,-0.06352998,0.07544186,-0.010079277,325.3912,-93.29338,-0.3124417,STD
14571721074000,0.440019,-0.855179422067182,9.82388511973708,-0.880998478019481,-0.06566802,0.06383542,-0.016187929,325.53687,-93.34614,-0.30212453,STD
14571726069000,0.445014,-0.842097997781667,9.83030691489827,-0.874100999285714,-0.057421334,0.0711658,-0.017104227,325.67734,-93.40153,-0.2919167,STD
14571730992000,0.449937,-0.829205134566934,9.83663614364273,-0.867302943668831,-0.05497787,0.059253927,-0.011911872,325.82434,-93.453705,-0.28383648,STD
14571735979000,0.454924,-0.816144661511505,9.84304765364651,-0.860416511948052,-0.05222898,0.0571159,-0.007941248,325.96426,-93.50732,-0.27763635,STD
14571741029000,0.459974,-0.802919197519143,9.84954015926493,-0.853443085,-0.05100725,0.06352998,0.0012217305,326.10306,-93.559906,-0.27010423,STD
14571745998000,0.464943,-0.789905864731409,9.85592852766452,-0.846581509058442,-0.053450707,0.05681047,0.0012217305,326.174114106784,-93.5850247837214,-0.268407090092332,STD
14571750993000,0.469938,-0.776824440445894,9.86235032282572,-0.839684030324675,-0.0571159,0.05100725,-0.0012217305,326.24554,-93.610275,-0.26670107,STD
14571755996000,0.474941,-0.763722064930292,9.86878240314433,-0.832775504577922,-0.064751714,0.037873644,0.0021380284,326.3845,-93.659225,-0.2604855,STD
14571760999000,0.479944,-0.750619689414689,9.87521448346294,-0.825866978831169,-0.07391469,0.034208454,-0.004581489,326.52188,-93.7053,-0.2594217,STD
14571766014000,0.484959,-0.737485887053957,9.88166199151767,-0.818941882564935,-0.08002335,0.018325957,0.002443461,326.66467,-93.74888,-0.25544822,STD
14571771004000,0.489949,-0.724417557287246,9.88807735845548,-0.812051308214286,-0.08582657,0.0027488936,-0.008857546,326.8058,-93.78971,-0.26009277,STD
14571776043000,0.494988,-0.711220901236252,9.89455572198246,-0.805093070909091,-0.0852157,0.009162978,-0.0009162979,326.94342,-93.82948,-0.25853547,STD
14571781017000,0.499962,-0.698194473929715,9.90095051860544,-0.798224590584416,-0.08368854,0.004886922,0.00030543262,327.08603,-93.86769,-0.26392457,STD
14571786017000,0.504962,-0.685099955125395,9.90737874199002,-0.791320207467533,-0.089491755,-0.0027488936,0.003970624,327.22577,-93.90324,-0.267589,STD
14571791151000,0.510096,-0.67165450321712,9.9139792417613,-0.784230786883117,-0.086437434,-0.0067195175,0.0033597588,327.36346,-93.941284,-0.27341005,STD
14571796093000,0.515038,-0.65871188083093,9.92033289775462,-0.77740649461039,-0.08552113,-0.01282817,0.003970624,327.5019,-93.97651,-0.2792773,STD
14571801018000,0.519963,-0.645813779808675,9.92666469778843,-0.77060567724026,-0.07819075,-0.017104227,0.008552114,327.6389,-94.013916,-0.28543988,STD
14571805994000,0.524939,-0.632782114694616,9.93306206570076,-0.763734435162338,-0.08979719,-0.01740966,0.0036651916,327.77417,-94.04591,-0.2953472,STD
14571811027000,0.529972,-0.619601172066188,9.93953271535968,-0.756784483116883,-0.08552113,-0.016798794,-0.0018325958,327.9084,-94.083954,-0.3053758,STD
14571816015000,0.53496,-0.606538080106999,9.94594551100813,-0.749896670519481,-0.07727446,-0.0030543262,0.0015271631,328.03693,-94.119354,-0.31508166,STD
14571821010000,0.539955,-0.593456655821483,9.95236730616933,-0.742999191785714,-0.09468412,-0.0061086523,-0.005497787,328.1678,-94.1486,-0.33064446,STD
14571826071000,0.545016,-0.580202383887751,9.9588739538792,-0.736010575194805,-0.0870483,-0.004276057,-0.009162978,328.29153,-94.18671,-0.34485316,STD
14571830988000,0.549933,-0.567325234095583,9.96519546875559,-0.729220804837662,-0.087964594,-0.0015271631,-0.016493361,328.4138,-94.21736,-0.36298946,STD
14571836014000,0.554959,-0.554162623793481,9.97165711890177,-0.722280518928571,-0.08399397,0.0018325958,-0.016493361,328.53357,-94.25114,-0.38079777,STD
14571841064000,0.560009,-0.540937159801118,9.9781496245202,-0.71530709198052,-0.096516706,0.0070249503,-0.016187929,328.65012,-94.27979,-0.40117273,STD
14571846106000,0.565051,-0.527732647038842,9.98463184498121,-0.708344712045455,-0.09896017,-0.0021380284,-0.026267206,328.76788,-94.312386,-0.42537442,STD
14571851011000,0.569956,-0.514886924091804,9.99093793212148,-0.701571512207792,-0.099571034,-0.018020526,-0.028099801,328.88458,-94.34146,-0.44774053,STD
14571856050000,0.574995,-0.501690268040811,9.99741629564846,-0.694613274902598,-0.0983493,-0.020463986,-0.03268129,328.9981,-94.37056,-0.47414342,STD
14571861048000,0.579993,-0.488600987044013,10.0038419477437,-0.687711653538961,-0.10170906,-0.022296581,-0.030848695,329.1144,-94.3979,-0.50002915,STD
14571865946000,0.584891,-0.475773596423301,10.0101390353712,-0.680948119837662,-0.11178834,-0.01282817,-0.03176499,329.22632,-94.423805,-0.52821165,STD
14571871011000,0.589956,-0.462508848874525,10.0166508256598,-0.67395397974026,-0.10629055,-0.007330383,-0.03359759,329.33826,-94.45308,-0.55664694,STD
14571876791000,0.595736,-0.447371585136732,10.0240818518924,-0.665972512857143,-0.11728613,-0.014049901,-0.03176499,329.44946,-94.47469,-0.58467764,STD
14571881020000,0.599965,-0.436296241132038,10.029518843231,-0.660132785616883,-0.11728613,-0.018020526,-0.028710667,329.55676,-94.50095,-0.6129827,STD
14571886008000,0.604953,-0.423233149172849,10.0359316388795,-0.653244973019481,-0.12980886,-0.020463986,-0.014660766,329.66428,-94.520065,-0.6380143,STD
14571891019000,0.609964,-0.410109822427159,10.0423740043555,-0.64632540025974,-0.14355333,-0.03390302,-0.0106901415,329.77435,-94.53915,-0.66567665,STD
14571896019000,0.614964,-0.39701530362284,10.0488022277401,-0.639421017142857,-0.16035213,-0.043066,-0.00030543262,329.88278,-94.5531,-0.6878224,STD
14571900953000,0.619898,-0.384093632466737,10.055145598576,-0.632607771883117,-0.16737708,-0.050396383,0.008552114,329.99295,-94.56609,-0.70992494,STD
14571905998000,0.624943,-0.349902758455103,10.0536299417635,-0.600692673972239,-0.18325958,-0.05497787,0.018020526,330.1035,-94.57176,-0.7294719,STD
14571911021000,0.629966,-0.314111049269279,10.0514534254322,-0.566835651216612,-0.19456059,-0.0693332,0.025045475,330.21735,-94.57694,-0.74807805,STD
14571916013000,0.634958,-0.278540232574945,10.0492903417122,-0.533187580821213,-0.20433442,-0.087659165,0.03726278,330.29633,-94.54427,-0.7157422,STD
14571920987000,0.639932,-0.243097676036961,10.0471350575729,-0.499660837602721,-0.21624629,-0.102319926,0.062002823,330.3771,-94.508545,-0.67956245,STD
14571926058000,0.645003,-0.206963939767537,10.0449377423597,-0.465480275708677,-0.22571471,-0.094989546,0.06719518,330.45493,-94.47275,-0.646959,STD
14571931114000,0.650059,-0.170937086961737,10.0427469267971,-0.431400819795388,-0.22540927,-0.08979719,0.0842994,330.5365,-94.43666,-0.6059925,STD
14571936046000,0.654991,-0.135793804121903,10.0406098416795,-0.398157173323011,-0.24495697,-0.0888809,0.09285152,330.6153,-94.394264,-0.5675989,STD
14571941081000,0.660026,-0.0999165881651777,10.0384281256278,-0.364219265782779,-0.25259277,-0.08093964,0.10415252,330.68927,-94.35641,-0.5250328,STD
14571946858000,0.665803,-0.0587522035411461,10.0359248935263,-0.325279982394514,-0.26389378,-0.083383106,0.112704635,330.76428,-94.3137,-0.48276174,STD
14571951050000,0.669995,-0.0288818382401351,10.0341084578384,-0.297024230972737,-0.2828306,-0.065973446,0.121256754,330.82986,-94.268234,-0.43841955,STD
14571956042000,0.674987,0.00668897845419858,10.0319453741183,-0.263376160577338,-0.2938262,-0.054367006,0.129198,330.89624,-94.22361,-0.3937498,WAL
14571961055000,0.68,0.042409431997607,10.0297731908875,-0.229586541808881,-0.30115658,-0.054367006,0.12767084,330.9593,-94.17674,-0.35092872,WAL
14571966056000,0.685001,0.0780443787701156,10.0276062073771,-0.195877807825029,-0.3136793,-0.052839845,0.14202617,331.01752,-94.12683,-0.30271536,WAL
14571971059000,0.690004,0.113693576671107,10.0254383572466,-0.162155593043743,-0.32834008,-0.055588737,0.15607607,331.07535,-94.07642,-0.2567178,WAL
14571976102000,0.695047,0.149627797141766,10.0232531747146,-0.128163762313775,-0.3381139,-0.060170226,0.17012598,331.13202,-94.0258,-0.20828366,WAL
14571981051000,0.699996,0.184892214573708,10.0211087233263,-0.0948055290632085,-0.3323107,-0.07788532,0.18203785,331.1919,-93.97765,-0.15846911,WAL
14571986039000,0.704984,0.220434529011075,10.0189473728464,-0.0611844202626776,-0.33444872,-0.07727446,0.2098322,331.24686,-93.926575,-0.10158887,WAL
14571991096000,0.710041,0.256468507381116,10.0167561239738,-0.0270982239506719,-0.35063666,-0.08827003,0.226631,331.30853,-93.8756,-0.046870466,WAL
14571996056000,0.715001,0.291811306019717,10.0146069061751,0.00633415368578227,-0.36254853,-0.102319926,0.25289822,331.36996,-93.82764,0.016441122,WAL
14572001038000,0.719983,0.327310867071634,10.0124481555554,0.039914820094011,-0.38362336,-0.10445796,0.2837469,331.4298,-93.775276,0.08380132,WAL
14572006048000,0.724993,0.363009943922318,10.0102772722547,0.0736842176663164,-0.39187005,-0.12095132,0.29749137,331.4961,-93.7262,0.15098917,WAL
14572011031000,0.729976,0.398516630538477,10.008118088325,0.107271624473262,-0.4184427,-0.13897185,0.32925636,331.5624,-93.66974,0.22967511,WAL
14572016362000,0.735307,0.436503013510731,10.0058081125014,0.143204690033733,-0.4456262,-0.15210545,0.3659083,331.63043,-93.61479,0.3110116,WAL
14572021028000,0.739973,0.469750896262286,10.0037862878545,0.174655390447381,-0.46578476,-0.1704314,0.40103304,331.7035,-93.55911,0.3979206,WAL
14572026027000,0.744972,0.505371591906311,10.0016201709642,0.2083506436338,-0.5021312,-0.19975294,0.441961,331.78195,-93.49718,0.49368614,WAL
14572030998000,0.749943,0.54079277175157,9.99946618675501,0.241857165656141,-0.52778757,-0.226631,0.47739118,331.86307,-93.43909,0.5945846,WAL
14572036043000,0.754988,0.576741243350711,9.99728013760287,0.275862477183543,-0.5766568,-0.24923302,0.5329799,331.94977,-93.37357,0.70921105,WAL
14572041045000,0.75999,0.612383315687461,9.99511272078245,0.309577951566112,-0.6203337,-0.28252518,0.58001655,332.04483,-93.31131,0.82738066,WAL
14572046036000,0.764981,0.647947006817553,9.99295007037247,0.343219281562794,-0.66553766,-0.31429017,0.6429357,332.14404,-93.248955,0.9618152,WAL
14572051111000,0.770056,0.684109245343944,9.99075102191913,0.377426805051706,-0.6942484,-0.3494149,0.70921457,332.25122,-93.193985,1.1059752,WAL
14572055945000,0.77489,0.718554222888097,9.98865640118544,0.410009892449815,-0.72326446,-0.4016439,0.782213,332.3698,-93.14614,1.264828,WAL
14572060950000,0.779895,0.754217671917572,9.9864876844349,0.443745588028535,-0.7675522,-0.44806966,0.86162543,332.494,-93.1098,1.4391443,WAL
14572066326000,0.785271,0.792524705280701,9.9841582096595,0.479981971531272,-0.7846564,-0.5015204,0.9450085,332.632,-93.099785,1.6292119,WAL
14572070942000,0.789887,0.825416309820173,9.98215805051455,0.511095652009069,-0.80848014,-0.54641896,1.0387764,332.77737,-93.10961,1.8385457,WAL
14572075966000,0.794911,0.861215144570239,9.97998110087325,0.544959415163413,-0.81092364,-0.569021,1.128879,332.92776,-93.15389,2.0637593,WAL
14572080959000,0.799904,0.896793086828815,9.97781758384319,0.578614225957529,-0.82924956,-0.5867361,1.208597,333.08533,-93.225365,2.3051908,WAL
14572085928000,0.804873,0.93220001554559,9.97566446625409,0.612107267182437,-0.8335256,-0.5821546,1.2886202,333.23862,-93.3371,2.5647755,WAL
14572090981000,0.809926,0.968205491658665,9.97347495062163,0.646166501899574,-0.84757555,-0.5540548,1.3738359,333.38556,-93.480194,2.8405685,WAL
14572095947000,0.814892,1.00359104368272,9.97132313296265,0.67963932192833,-0.8454375,-0.5439755,1.4477507,333.5315,-93.656456,3.1273339,WAL
14572101106000,0.820051,1.03469020580983,9.98881601553172,0.736735940207737,-0.84696466,-0.49480084,1.5213599,333.65353,-93.86308,3.4301796,WAL
14572106042000,0.824987,1.03698460848906,10.1012407645489,0.899636949225841,-0.8549059,-0.43096542,1.5564847,333.76334,-94.08714,3.7341359,WAL
14572111066000,0.830011,1.03931991624035,10.2156698445857,1.06544219017133,-0.8335256,-0.36835176,1.6206255,333.89948,-94.51122,4.273128,WAL
14572116052000,0.834997,1.0416375604378,10.3292334180459,1.22999333096636,-0.82741696,-0.30451632,1.6884315,334.0097,-94.965,4.8101864,WAL
14572121243000,0.840188,1.04780094358974,10.4544357668998,1.40971043962704,-0.82741696,-0.26939157,1.7327193,334.1822,-95.48112,5.3854585,WAL
14572126093000,0.845038,1.09742431965812,10.6529291769619,1.67587237241647,-0.82863873,-0.23457226,1.7712038,334.33075,-96.0206,5.96506,WAL
14572132007000,0.850952,1.16188211607012,10.9033100719503,2.02295529842951,-0.8402451,-0.22449298,1.7959439,334.4967,-96.59827,6.574598,WAL
14572136067000,0.855012,1.22223561753104,11.1092219875822,2.35312430737765,-0.82863873,-0.2180789,1.8298469,334.6498,-97.191,7.184129,WAL
14572141006000,0.859951,1.2956558007122,11.3597143401205,2.75477571998722,-0.81214535,-0.20677789,1.8414533,334.81406,-97.81811,7.818035,WAL
14572146062000,0.865007,1.43452275226917,11.6407960983307,3.40149007814293,-0.8381071,-0.23060162,1.8619173,334.98395,-81.54658,8.4498825,WAL
14572150952000,0.869897,1.58598311752739,11.9192875928534,4.09039077829943,-0.8668178,-0.28160888,1.9089539,335.15555,-80.907104,9.078567,WAL
14572156100000,0.875045,1.59245521073446,12.0724574096045,4.70865081129944,-0.945314,-0.37415496,1.9370537,335.34482,-80.225975,9.736899,WAL
14572160993000,0.879938,1.57419716187415,12.1956991917495,5.27921502883304,-1.0607675,-0.46578476,1.9581286,335.54623,-79.53979,10.391459,WAL
14572166059000,0.885004,1.30277992336041,12.1924355216607,5.49020383513839,-1.2052372,-0.5305365,1.9474384,335.73276,-78.79173,11.085644,WAL
14572170985000,0.88993,0.981086806723827,12.1593198790614,5.60847328158845,-1.3683381,-0.5342017,1.9104811,335.92667,-78.047424,11.760977,WAL
14572176112000,0.895057,0.603166549454327,11.9648442898261,5.37099194763142,-1.527774,-0.47769663,1.853976,336.12195,-77.26047,12.44811,WAL
14572180993000,0.899938,0.234107276005397,11.7452778268039,5.06733579612233,-1.6627752,-0.3747658,1.7715092,336.30484,-76.49053,13.097554,WAL
14572186052000,0.904997,-0.0658377616705337,11.42086425058,4.29987518294664,-1.7763962,-0.20830505,1.6496416,336.57825,-75.74037,13.708982,WAL
14572191066000,0.910011,-0.344365073890178,11.0773470835267,3.43644048598221,-1.8826867,-0.047036625,1.5027285,336.8248,-75.0209,14.268169,WAL
14572196024000,0.914969,-0.484284755163098,10.7141294740421,2.50915242323808,-1.9257526,0.03604105,1.348485,337.33307,-74.33249,14.820969,WAL
14572201021000,0.919966,-0.581024319690343,10.3403627816778,1.55055127757052,-1.9147571,0.1957823,1.2837334,337.76755,-73.67517,15.329868,WAL
14572206051000,0.924996,-0.456170544038049,9.92915045462497,0.761635711139296,-1.8304577,0.30818152,1.1734722,338.67682,-73.06345,15.882048,WAL
14572211059000,0.930004,-0.167756414918434,9.4939078357752,0.106149049569211,-1.7037032,0.36346483,1.0797043,339.52533,-72.5,16.388128,WAL
14572216053000,0.934998,0.245510351571684,9.18619161392029,-0.128560509910767,-1.5274686,0.4083634,1.0094548,340.4902,-72.01989,16.860765,WAL
14572221037000,0.939982,0.699819011616895,8.92117781578426,-0.223208147420186,-1.35551,0.41233405,0.9492846,341.4161,-71.59111,17.289604,WAL
14572226114000,0.945059,1.19994266805792,8.77230796967029,0.22839388586831,-1.1841623,0.35124752,0.89736104,342.10764,-71.243164,17.631142,WAL
14572231042000,0.949987,1.69862248900695,8.67072540514627,0.86097848864299,-1.0277808,0.23945917,0.86009824,342.7982,-70.928825,17.954233,WAL
14572236048000,0.954993,2.0275734624938,8.65459469155167,1.56878134474337,-0.9260717,0.09040806,0.84940815,343.53134,-70.54587,18.363424,WAL
14572241019000,0.959964,2.27333229016182,8.67822532433237,2.30133140509282,-0.872621,-0.009773844,0.83260936,344.26358,-70.190926,18.753218,WAL
14572246025000,0.96497,2.32083564948124,8.69891261851556,2.68447899768555,-0.83658,-0.034208454,0.81306165,345.19562,-69.655205,19.33518,WAL
14572251017000,0.969962,2.26837333503591,8.71798968794892,2.88955876400638,-0.82833326,-0.006414085,0.7770206,346.09692,-69.14875,19.884844,WAL
14572255998000,0.974943,2.18528671300998,8.70271675842142,2.87532389241332,-0.82619524,0.054367006,0.73975784,346.68704,-68.6638,20.352856,WAL
14572261043000,0.979988,2.08505801746518,8.66930727630149,2.74645845519115,-0.81061816,0.1020145,0.6872234,347.25983,-68.20855,20.792187,WAL
14572266713000,0.985658,2.01670437525713,8.54105229444608,2.59882587393476,-0.7874053,0.14660765,0.63194007,347.81287,-67.76266,21.208525,WAL
14572271860000,0.990805,1.97324996185718,8.38654776388481,2.46363431516309,-0.73792523,0.16523905,0.5907067,348.34842,-67.344055,21.600506,WAL
14572276181000,0.995126,1.99323925279137,8.26399357635074,2.36652246122041,-0.6728681,0.19242255,0.5537493,349.00357,-66.91824,22.013811,WAL
14572281130000,1.000075,2.04057330172775,8.12672443902926,2.26238745470888,-0.5983425,0.19730948,0.52473325,349.64038,-66.521996,22.401894,WAL
14572286046000,1.004991,2.09149413575482,8.02452698115778,2.23264609307605,-0.5143485,0.1994475,0.49846604,350.34717,-66.115715,22.810095,WAL
14572291076000,1.010021,2.14617221502081,7.94251000499433,2.25087208777904,-0.44135013,0.21594086,0.47861293,351.02182,-65.7371,23.193657,WAL
14572296031000,1.014976,2.20394212720917,7.83656499373602,2.29227674789336,-0.36163223,0.22510384,0.47403142,351.73294,-65.34265,23.602192,WAL
14572301051000,1.019996,2.26668047564318,7.7021255753915,2.3594965506525,-0.33169982,0.2443461,0.47555858,352.4063,-64.969925,23.987793,WAL
14572306031000,1.024976,2.33782357751751,7.57322600216725,2.43534557925788,-0.29138273,0.24281894,0.46761733,353.0532,-64.600914,24.369045,WAL
14572311056000,1.030001,2.42737033156743,7.45207455021891,2.53015972795534,-0.22968534,0.25350907,0.47250426,353.66406,-64.24648,24.737173,WAL
14572316048000,1.034993,2.48049905613618,7.30856898214569,2.59794775130641,-0.18203785,0.24007004,0.46883908,354.20908,-63.902298,25.086184,WAL
14572321057000,1.040002,2.49948963064133,7.1424011577791,2.64067654394299,-0.13561209,0.23548855,0.45570546,354.72992,-63.575798,25.420578,WAL
14572326126000,1.045071,2.47816097028037,6.97950971112641,2.66354315835711,-0.09254608,0.226631,0.44348818,355.2042,-63.248486,25.75021,WAL
14572331139000,1.050084,2.41676296439252,6.82365322326119,2.66590461917363,-0.047647487,0.21563543,0.4166101,355.6677,-62.942642,26.061558,WAL
14572336013000,1.054958,2.35706739672897,6.67211830966552,2.66820060162322,-0.003970624,0.23090707,0.38637227,356.08237,-62.641407,26.361708,WAL
14572341531000,1.060476,2.2894842735514,6.500561138303,2.67079995147073,0.042455133,0.22143865,0.3481932,356.4985,-62.36195,26.64441,WAL
14572346013000,1.064958,2.23260111524222,6.39261376046672,2.66996300823159,0.06658431,0.2284636,0.30695978,356.91748,-62.08651,26.920961,WAL
14572351056000,1.070001,2.16602557038204,6.31177207707759,2.66520761217015,0.11484267,0.24648413,0.2602286,357.32587,-61.836937,27.175976,WAL
14572355987000,1.074932,2.12437583224858,6.2984145052859,2.69921040802537,0.13072516,0.26175576,0.22388211,357.704,-61.596725,27.412867,WAL
14572361058000,1.080003,2.11991141298033,6.39216726330208,2.79742767854385,0.1563815,0.2855795,0.17256944,358.0665,-61.384678,27.624079,WAL
14572365959000,1.084904,2.12892975766931,6.48925524785303,2.88653531497989,0.18112154,0.3182608,0.12522738,358.42056,-61.18487,27.81968,WAL
14572371061000,1.090006,2.19266820784868,6.61673231459941,2.95558535813675,0.19761491,0.35369098,0.096516706,358.75842,-61.00179,27.998312,WAL
14572376056000,1.095001,2.25592751327605,6.73624197832384,3.02031974664478,0.21105394,0.38087448,0.06719518,359.09338,-60.836838,28.154078,WAL
14572381169000,1.100114,2.3221172902578,6.84971004754273,3.08178164009848,0.21410827,0.43310347,0.03176499,359.4024,-60.688305,28.291084,WAL
14572385949000,1.104894,2.39288567014403,6.94596271325265,3.13711687076415,0.22113322,0.47983465,0.01740966,359.69666,-60.545956,28.418736,WAL
14572391140000,1.110085,2.49233184506901,7.02551964280856,3.19181234744949,0.21746802,0.5131268,0.0018325958,359.97366,-60.41913,28.528452,WAL
14572395982000,1.114927,2.59199085558656,7.09265282465863,3.25397139464766,0.21960606,0.52503866,-0.0076358155,0.22703739,-60.30431,28.624107,WAL
14572401051000,1.119996,2.71295377732483,7.14587671837935,3.34590318889664,0.22082779,0.5488624,-0.02687807,0.46260196,-60.201458,28.705454,WAL
14572405998000,1.124943,2.82450735517441,7.19196525637888,3.4253888155714,0.226631,0.5696318,-0.038179077,0.68811613,-60.092316,28.789988,WAL
14572411043000,1.129988,2.9222733105608,7.22455392437849,3.48125502023511,0.21533,0.5699373,-0.059253927,0.91046494,-59.995113,28.861153,WAL
14572416010000,1.134955,3.01732385811666,7.25380789117559,3.54300692988656,0.22388211,0.58276546,-0.06994407,1.0826737,-59.90458,28.921299,WAL
14572421053000,1.139998,3.10944525699227,7.27320174731453,3.63027983941371,0.22113322,0.59223384,-0.08093964,1.2556243,-59.822266,28.971632,WAL
14572426055000,1.145,3.19260843196169,7.29341189307008,3.70757118614016,0.2144137,0.6035349,-0.0852157,1.4104828,-59.73505,29.02436,WAL
14572431057000,1.150002,3.24879427332617,7.31682268067638,3.75439276135275,0.22296582,0.6096435,-0.089186326,1.56386,-59.65554,29.070253,WAL
14572436027000,1.154972,3.29876668726764,7.33844115602639,3.80110593823706,0.22296582,0.6261369,-0.10170906,1.6815946,-59.581642,29.105013,WAL
14572441112000,1.160057,3.32310125307815,7.35304180403758,3.84977486658005,0.2284636,0.63499445,-0.110872045,1.8004708,-59.512074,29.136765,WAL
14572446027000,1.164972,3.34058765729912,7.36800046746221,3.89935081925219,0.22449298,0.6469063,-0.12003502,1.88767,-59.449547,29.154408,WAL
14572451052000,1.169997,3.3310165214101,7.38714263929992,3.96156287772474,0.20769419,0.6814202,-0.13408493,1.9669541,-59.39263,29.16434,WAL
14572456013000,1.174958,3.32442829972769,7.40925306532116,4.02289233785039,0.18234327,0.70249504,-0.14996742,2.0403514,-59.340614,29.166431,WAL
14572461045000,1.17999,3.3321474586577,7.44784865846548,4.08464524658017,0.1554652,0.7351763,-0.16401732,2.1016746,-59.29242,29.160894,WAL
14572466726000,1.185671,3.34086219273586,7.49142210136152,4.15436270971488,0.12186762,0.75502944,-0.18051068,2.1534245,-59.253033,29.137953,WAL
14572471044000,1.189989,3.37973720798611,7.56669709398148,4.23737109710648,0.07880162,0.7840455,-0.19517145,2.1953564,-59.215374,29.107887,WAL
14572475997000,1.194942,3.43463749198232,7.66651609537037,4.34218109025673,0.042455133,0.81031275,-0.1994475,2.2353065,-59.1785,29.073727,WAL
14572480991000,1.199936,3.50581708125701,7.80650914814815,4.50388671848111,0.0125227375,0.8332202,-0.20463985,2.2668946,-59.147472,29.025372,WAL
14572485973000,1.204918,3.5816773969697,7.9582295,4.68238149949495,-0.027183503,0.8353582,-0.20586158,2.300691,-59.113495,28.975386,WAL
14572491036000,1.209981,3.65391900374079,8.14617569050501,4.89720134875124,-0.07269296,0.8347474,-0.1957823,2.3245022,-59.07726,28.91896,WAL
14572495973000,1.214918,3.72154455119375,8.34905276741116,5.12608808864562,-0.11362094,0.84574294,-0.18967366,2.3487153,-59.040085,28.859154,WAL
14572501014000,1.219959,3.76971181898144,8.5360354021642,5.31050447266951,-0.13683382,0.8512407,-0.17715092,2.3455596,-59.00623,28.78024,WAL
14572505999000,1.224944,3.81236685015388,8.71613405425395,5.48112410247195,-0.19028452,0.8585711,-0.16768251,2.3435645,-58.9646,28.700844,WAL
14572510993000,1.229938,3.87020843432317,8.87774464192075,5.62568764769093,-0.23457226,0.8729264,-0.15668693,2.3338912,-58.922646,28.60795,WAL
14572516000000,1.234945,3.93211760989175,9.03489875270633,5.76379283110537,-0.28313604,0.8918633,-0.13225232,2.3247721,-58.86861,28.520119,WAL
14572521011000,1.239956,4.01348472193688,9.154036446695,5.83467235609006,-0.3304781,0.9108001,-0.11026118,2.3011253,-58.81953,28.41091,WAL
14572526070000,1.245015,4.1011038663532,9.26356043439732,5.88724405316936,-0.36774087,0.91415983,-0.09743301,2.2818217,-58.761772,28.305607,WAL
14572531020000,1.249965,4.22434453819376,9.34772974198139,5.83074282988506,-0.40622538,0.9108001,-0.0711658,2.2606387,-58.688347,28.2012,WAL
14572536029000,1.254974,4.3766311336289,9.4159963529283,5.69421015632184,-0.43218717,0.9049969,-0.041233405,2.2445004,-58.60777,28.101091,WAL
14572541042000,1.259987,4.48313353795445,9.44392731522173,5.58089477187375,-0.43463063,0.89888823,-0.0012217305,2.2168748,-58.51588,28.007969,WAL
14572546020000,1.264965,4.57360416340392,9.45821196763884,5.47613899680383,-0.44073927,0.9056077,0.049480084,2.189989,-58.41059,27.925234,WAL
14572551015000,1.26996,4.60389197734228,9.41622303238227,5.42461570767104,-0.44806966,0.8921687,0.089491755,2.1669722,-58.28863,27.871683,WAL
14572555982000,1.274927,4.61328445714286,9.35517242857143,5.3917422,-0.45265114,0.8597928,0.13408493,2.148321,-58.1545,27.833338,WAL
14572561021000,1.279966,4.5659481154294,9.23724148229015,5.35212188411451,-0.44135013,0.7870999,0.19639318,2.1417987,-58.001083,27.830261,WAL
14572566013000,1.284958,4.49635949010189,9.09806374721009,5.3103687573605,-0.40866885,0.71685034,0.23854288,2.146572,-57.84769,27.834597,WAL
14572571000000,1.289945,4.31855344064633,8.90254526836612,5.28969613283822,-0.3475823,0.63407815,0.28680122,2.157008,-57.68474,27.863062,WAL
14572576031000,1.294976,4.08161389079687,8.67527726565636,5.28002514110799,-0.2761111,0.55741453,0.31703907,2.1879253,-57.52646,27.901249,WAL
14572581018000,1.299963,3.76148721137886,8.43783443785621,5.30861246362364,-0.20341812,0.48502702,0.33444872,2.2385385,-57.37242,27.95311,WAL
14572586013000,1.304958,3.39796888181182,8.19389404089591,5.35644374654535,-0.124311075,0.40317106,0.35094208,2.3144076,-57.22692,28.017717,WAL
14572591063000,1.310008,3.05312853097108,8.01282652905574,5.41886760095767,-0.022602014,0.376293,0.34330627,2.3809702,-57.112713,28.052082,WAL
14572596703000,1.315648,2.68069527374066,7.84730079298985,5.49645784037541,0.01985312,0.31673363,0.3408628,2.4812982,-56.99988,28.100176,WAL
14572601053000,1.319998,2.38275455543874,7.84174735139507,5.57262495066721,0.0842994,0.2742785,0.33505958,2.5894876,-56.932804,28.102201,WAL
14572606046000,1.324991,2.03471323033765,7.90458808241003,5.66930320028306,0.13836098,0.23609942,0.31520647,2.7165573,-56.87733,28.10309,WAL
14572611059000,1.330004,1.70976189158666,8.15333100603781,5.73646095209344,0.18173242,0.18875736,0.28771752,2.881723,-56.858837,28.062544,WAL
14572616054000,1.334999,1.40199691702465,8.52264903484114,5.78380937929328,0.21319197,0.122478485,0.2565634,3.0665057,-56.854496,28.019482,WAL
14572621015000,1.33996,1.23590451229658,9.06477769409399,5.73800629429512,0.27000242,0.03756821,0.21960606,3.3076327,-56.911915,27.9154,WAL
14572626008000,1.344953,1.17032991590784,9.73801011354909,5.62434364838179,0.35338554,-0.03726278,0.1853976,3.5678928,-56.986244,27.807882,WAL
14572631050000,1.349995,1.23061868195381,10.576841984672,5.48106517187819,0.42455134,-0.086132,0.15210545,3.9338064,-57.133278,27.638222,WAL
14572636015000,1.35496,1.4832795968833,11.6457918727774,5.29642840992234,0.46975538,-0.17806722,0.13103059,4.3336697,-57.29428,27.472448,WAL
14572641018000,1.359963,1.67231139325992,12.5680920528194,4.93142579805241,0.4999932,-0.3145956,0.112704635,4.878068,-57.528225,27.278917,WAL
14572646035000,1.36498,1.77519544760885,13.288280433262,4.32881923054961,0.5705481,-0.43493605,0.12583824,5.4317017,-57.769726,27.093342,WAL
14572651017000,1.369962,1.7746245381968,13.7381032181289,3.97995469025691,0.66737026,-0.4718934,0.16371189,5.9962244,-58.064934,26.880777,WAL
14572656002000,1.374947,1.65891831454193,13.8908355957344,3.9105310140572,0.74006325,-0.49938235,0.19700404,6.578296,-58.357716,26.682053,WAL
14572661017000,1.379962,1.51229044779412,13.8388381286765,3.99877459558824,0.7837401,-0.54275376,0.21746802,7.1133294,-58.70297,26.460083,WAL
14572666385000,1.38533,1.30796497386725,13.460836305942,4.34101979908585,0.75900006,-0.6273586,0.1966986,7.6560073,-59.0405,26.247133,WAL
14572671009000,1.389954,1.04135507419185,12.9447099434954,4.50877570170828,0.70738196,-0.67011917,0.14508049,8.191341,-59.399708,26.007877,WAL
14572676036000,1.394981,0.617984294804407,12.1028345491762,4.50390927302133,0.66859204,-0.6404922,0.06780604,8.720244,-59.75839,25.762623,WAL
14572680951000,1.399896,0.050559125911474,11.0386936719381,4.51931594370434,0.65393126,-0.5360342,-0.024129177,9.237612,-60.104744,25.492376,WAL
14572686011000,1.404956,-0.761596863396648,9.58514245921788,4.5651299273743,0.68600166,-0.49327368,-0.13041973,9.759702,-60.46601,25.204922,WAL
14572691035000,1.40998,-1.51039948582522,8.21834774534617,4.574574383769,0.7162395,-0.453262,-0.19028452,10.239992,-60.82257,24.891928,WAL
14572696019000,1.414964,-1.68789568138467,7.61277277529257,4.23002304473368,0.72356987,-0.52870387,-0.312763,10.746944,-61.214157,24.542799,WAL
14572700996000,1.419941,-1.82193262910619,7.12017406268144,3.75447771745607,0.72326446,-0.6646214,-0.44623706,11.242571,-61.626125,24.132324,WAL
14572706001000,1.424946,-1.83108692322384,6.95081943032849,2.89397349686784,0.7079928,-0.9049969,-0.6038403,11.798939,-62.066982,23.696486,WAL
14572711016000,1.429961,-1.84112266650335,6.81940467991201,2.03376487293771,0.74281216,-1.1911873,-0.7480045,12.396056,-62.541885,23.250937,WAL
14572716016000,1.434961,-1.85548643012699,6.88164760561944,1.18630219420558,0.8414669,-1.4440855,-0.8921687,13.061339,-63.056976,22.776524,WAL
14572721065000,1.44001,-1.89515022698658,6.96646962280702,0.396686369736842,0.96944314,-1.606881,-1.0149527,13.7638855,-63.645966,22.297207,WAL
14572726190000,1.445135,-2.05723451362229,7.15894484210526,-0.0845012289473684,1.1203269,-1.6728544,-1.1252137,14.51382,-64.28159,21.78858,WAL
14572731078000,1.450023,-2.17166264252748,7.34525075438249,-0.450273055127266,1.2305881,-1.6850718,-1.2363913,15.294293,-65.00549,21.25705,WAL
14572736463000,1.455408,-2.16144751565812,7.55976863196989,-0.537101708182628,1.29198,-1.6646078,-1.3460416,16.080437,-65.76857,20.691042,WAL
14572741031000,1.459976,-2.09668547164179,7.76966524875622,-0.599670121791045,1.312444,-1.6166549,-1.4407257,16.875702,-66.61488,20.06633,WAL
14572746020000,1.464965,-1.82169345610184,8.10058764822944,-0.62763541596137,1.3045027,-1.5387696,-1.5192219,17.647268,-67.48567,19.406492,WAL
14572751004000,1.469949,-1.51698922503368,8.43778102308452,-0.667243595302255,1.2592987,-1.4376713,-1.5677856,18.393915,-68.37902,18.713913,WAL
14572756000000,1.474945,-1.04854549805982,8.81167640366478,-0.770387143923471,1.2156218,-1.3381003,-1.602605,19.105824,-69.28181,17.996418,WAL
14572760995000,1.47994,-0.580195534842361,9.18549694529776,-0.873510047318782,1.1542299,-1.2315043,-1.6129897,19.763905,-70.15079,17.303139,WAL
14572766015000,1.48496,0.115049379259554,9.66089895521497,-0.996395821616242,1.097114,-1.1285735,-1.5900823,20.378534,-71.00573,16.606739,WAL
14572771031000,1.489976,0.82738537718949,10.1437573461385,-1.12069607559713,1.0341948,-1.0439687,-1.5479325,20.952488,-71.83984,15.912072,WAL
14572776041000,1.494986,1.4474262184265,10.5857814513458,-1.22190538674948,0.98837996,-0.9728029,-1.4731015,21.462896,-72.58569,15.319961,WAL
14572781025000,1.49997,2.05682568557626,11.0222434706694,-1.32072694520359,0.9599747,-0.91965765,-1.3875804,21.939285,-73.3005,14.746008,WAL
14572786030000,1.504975,2.64216244091916,11.3719702807309,-1.38560593749723,0.9645562,-0.90041536,-1.2837334,22.358955,-73.88578,14.328048,WAL
14572791047000,1.509992,3.21148832292359,11.6646147242525,-1.42817232119601,0.97035944,-0.82924956,-1.2336423,22.73701,-74.44647,13.920782,WAL
14572796021000,1.514966,3.44680189873418,11.6383663037975,-1.38924312658228,0.979217,-0.7486154,-1.1291844,23.06594,-74.858925,13.687003,WAL
14572801025000,1.51997,3.6018756063196,11.5334632802893,-1.32995027480727,1.0085385,-0.679893,-1.0268645,23.368835,-75.247734,13.467558,WAL
14572806196000,1.525141,3.57074875797831,11.2202139436483,-1.30523872424477,1.0210613,-0.59315014,-0.9285152,23.61477,-75.51846,13.367282,WAL
14572811025000,1.52997,3.46776004657242,10.8485590854957,-1.29628319225407,1.0485502,-0.49754974,-0.8384125,23.830273,-75.75524,13.290431,WAL
14572816013000,1.534958,3.24139673145089,10.3628471571042,-1.28079800039051,1.0925325,-0.43463063,-0.7669413,24.022488,-75.91874,13.275634,WAL
14572821037000,1.539982,2.94270250063082,9.81363496685691,-1.26152736103935,1.1371256,-0.39645153,-0.72051555,24.188404,-76.05476,13.274645,WAL
14572826013000,1.544958,2.58564677786593,9.35402166362555,-1.23055322082507,1.1817188,-0.3817908,-0.6988298,24.337873,-76.17238,13.278981,WAL
14572831020000,1.549965,2.19096806640222,8.94032250912336,-1.19251193752479,1.1954633,-0.38606682,-0.6786713,24.477303,-76.26635,13.293564,WAL
14572836012000,1.554957,1.8223205718534,8.62853874543044,-1.20583692969978,1.2052372,-0.40286562,-0.66981375,24.629158,-76.38146,13.276508,WAL
14572841045000,1.55999,1.46626368233734,8.37747264778862,-1.25148522442466,1.1786644,-0.40591997,-0.677755,24.774082,-76.4812,13.259623,WAL
14572846015000,1.56496,1.109357841449,8.23973019104573,-1.30466896408212,1.1505647,-0.42332962,-0.6942484,24.939875,-76.62892,13.181431,WAL
14572851018000,1.569963,0.744885302254605,8.20899161415086,-1.36614620957749,1.1279627,-0.42943826,-0.70066243,25.099112,-76.76257,13.104773,WAL
14572855985000,1.57493,0.363584101879554,8.22865444952851,-1.41426811221603,1.0986412,-0.43401974,-0.7134906,25.274988,-76.96001,12.954203,WAL
14572861023000,1.579968,-0.065539354920703,8.35790868002572,-1.43494885387913,1.0821478,-0.44348818,-0.73548174,25.450275,-77.14894,12.801469,WAL
14572866727000,1.585672,-0.424619588328893,8.6253788625531,-1.45433907033624,1.070236,-0.45631635,-0.7672467,25.639387,-77.41547,12.561371,WAL
14572871028000,1.589973,-0.608489595819713,8.91008097026424,-1.46620161170711,1.0531317,-0.46975538,-0.8020661,25.827768,-77.67577,12.317349,WAL
14572876031000,1.594976,-0.822370471773346,9.24125154568364,-1.48000033165095,1.028697,-0.50243664,-0.8359691,26.046997,-78.019035,11.980824,WAL
14572881018000,1.599963,-0.76045607606015,9.53248009323308,-1.32818064781955,0.990518,-0.550695,-0.87872964,26.270521,-101.639824,11.636407,WAL
14572885979000,1.604924,-0.569937601922807,9.80396839368421,-1.09955852063158,0.9859365,-0.5720753,-0.8854492,26.491562,-101.31418,11.297378,WAL
14572891021000,1.609966,-0.356951344019206,10.0041682379714,-0.906842260188056,1.0012082,-0.6462954,-0.8912524,26.754425,-100.91551,10.875093,WAL
14572896001000,1.614946,-0.137500029804941,10.1663711768531,-0.735097766840052,1.0012082,-0.70646566,-0.8933904,27.01468,-100.532814,10.458683,WAL
14572901019000,1.619964,0.100313958142366,10.2640936324691,-0.561285792693987,0.9822713,-0.745561,-0.89736104,27.283306,-100.1934,10.082135,WAL
14572905987000,1.624932,0.343485291646687,10.3304135008828,-0.38885520588607,0.9605856,-0.76144356,-0.8775079,27.55869,-99.874794,9.71853,WAL
14572911020000,1.629965,0.607625986442173,10.3484069305003,-0.227008959688004,0.9260717,-0.8020661,-0.8536842,27.862757,-99.61788,9.4140625,WAL
14572916012000,1.634957,0.885366779281334,10.3226902088219,-0.0778518665411511,0.89980453,-0.8585711,-0.820392,28.172243,-99.37999,9.123432,WAL
14572921067000,1.640012,1.1246028854263,10.2531859365719,-0.0319427799839709,0.8875872,-0.8933904,-0.79504114,28.489746,-99.2133,8.909951,WAL
14572926027000,1.644972,1.33947599704002,10.1644336895467,-0.0366139337572033,0.87689704,-0.91415983,-0.7516697,28.815437,-99.06433,8.713099,WAL
14572931015000,1.64996,1.48639403059687,10.0258452788552,-0.0670683033387309,0.8698721,-0.9251554,-0.70005155,29.149508,-98.989075,8.59825,WAL
14572936008000,1.654953,1.59443461594803,9.85928299180945,-0.112085248216249,0.86620694,-0.91324353,-0.6462954,29.477257,-98.924484,8.494247,WAL
14572941026000,1.659971,1.6652992361268,9.68230920087884,-0.15474789537037,0.84635377,-0.9257663,-0.60139686,29.811455,-98.923805,8.45442,WAL
14572946021000,1.664966,1.70033306239799,9.49713047206528,-0.19478652037037,0.8378017,-0.95203346,-0.5561928,30.139046,-98.933075,8.424054,WAL
14572951015000,1.66996,1.68105761924775,9.37932360640952,-0.324091569314911,0.82253003,-0.96761054,-0.5180137,30.466196,-98.985634,8.43338,WAL
14572955984000,1.674929,1.62626526391288,9.30626710084437,-0.511298758742084,0.7993172,-0.96852684,-0.4813618,30.788208,-99.040634,8.447082,WAL
14572961020000,1.679965,1.5235613544841,9.29560413914571,-0.665328647662722,0.7724391,-0.9459248,-0.44959682,31.104359,-99.113464,8.47244,WAL
14572966014000,1.684959,1.37764074688425,9.34424438785133,-0.784718196242604,0.7425067,-0.9257663,-0.42760566,31.412415,-99.18253,8.497311,WAL
14572971045000,1.68999,1.22115914272427,9.40330862726272,-0.910238170677068,0.7440339,-0.90010995,-0.40469822,31.704586,-99.25259,8.497998,WAL
14572976047000,1.694992,1.04869046786679,9.47996143834384,-1.0443805150315,0.7254025,-0.8717047,-0.39370266,31.982943,-99.31517,8.497299,WAL
14572981016000,1.699961,0.884467062505303,9.56496297284684,-1.17511320369113,0.73456544,-0.8542951,-0.3894266,32.25585,-99.35464,8.450573,WAL
14572986012000,1.704957,0.732221460744591,9.66645998769622,-1.30198457823504,0.7357872,-0.81214535,-0.39645153,32.50778,-99.3897,8.402961,WAL
14572991913000,1.710858,0.641787668181266,9.74561942551899,-1.36319326077975,0.729984,-0.73792523,-0.41386122,32.7459,-99.39815,8.313849,WAL
14572996021000,1.714966,0.629835792661266,9.77749084951899,-1.35522536317975,0.72082096,-0.7165449,-0.41538838,32.982994,-99.41004,8.227274,WAL
14573001017000,1.719962,0.640899560900962,9.85689616882107,-1.27209949307027,0.71685034,-0.66675943,-0.42730024,33.200634,-99.40369,8.0982685,WAL
14573005987000,1.724932,0.677907425212363,9.97717171454952,-1.11481606853922,0.70524395,-0.63224554,-0.41874814,33.413082,-99.40328,7.976429,WAL
14573010992000,1.729937,0.70534434498994,10.0585449334004,-0.929077420374245,0.70616025,-0.59742624,-0.4111123,33.608715,-99.40007,7.850381,WAL
14573015975000,1.73492,0.719747119959759,10.0873505836016,-0.708234740496982,0.68203104,-0.57726765,-0.40408736,33.795544,-99.39608,7.7290325,WAL
14573020979000,1.739924,0.719526036003149,10.1097643612122,-0.498994716773591,0.6542367,-0.5540548,-0.39950588,33.987316,-99.394775,7.614331,WAL
14573025986000,1.744931,0.700653247417101,10.123918755584,-0.305548481039063,0.6206391,-0.5552765,-0.39645153,34.17693,-99.39098,7.5026503,WAL
14573030975000,1.74992,0.646809404497065,10.1031332738036,-0.193477980440752,0.5849035,-0.5503896,-0.4025602,34.368404,-99.368,7.3937774,WAL
14573035980000,1.754925,0.541894251900308,10.0316002661427,-0.198246852597751,0.548557,-0.5332854,-0.40317106,34.55357,-99.34073,7.2886224,WAL
14573040981000,1.759926,0.43307832638961,9.9523807995005,-0.222087200323676,0.50885075,-0.5128214,-0.40286562,34.73954,-99.27985,7.1646414,WAL
14573046021000,1.764966,0.317352988207792,9.86076507922078,-0.275127979064935,0.4841107,-0.48716503,-0.41172317,34.91637,-99.21347,7.040089,WAL
14573051039000,1.769984,0.211167935615444,9.76882099129088,-0.340503953513644,0.45356745,-0.46670106,-0.4288274,35.09241,-99.125305,6.9007587,WAL
14573055918000,1.774863,0.12073782353203,9.67839094058448,-0.421891060526418,0.43554693,-0.46700647,-0.4352415,35.265327,-99.03662,6.764262,WAL
14573060905000,1.77985,0.0296839803441918,9.57653505511166,-0.514333003467527,0.4156938,-0.4709771,-0.45356745,35.454163,-98.94688,6.595318,WAL
14573066308000,1.785253,-0.065725029649662,9.44402263347675,-0.636244514392543,0.4147775,-0.46792278,-0.47342056,35.638733,-98.8578,6.427538,WAL
14573070908000,1.789853,-0.123501455638088,9.3653983315883,-0.740289815537337,0.4120286,-0.4999932,-0.49602258,35.83224,-98.76009,6.2413187,WAL
14573075946000,1.794891,-0.147329961517187,9.33680429770842,-0.854666622856578,0.4083634,-0.50243664,-0.50823987,36.01425,-98.66316,6.057295,WAL
14573080907000,1.799852,-0.153184290560127,9.30540475215624,-0.940175251571329,0.4071417,-0.5170974,-0.5109888,36.218517,-98.58439,5.8522367,WAL
14573085933000,1.804878,-0.124553559734311,9.26722992287102,-0.973577772528998,0.41050145,-0.54458636,-0.528093,36.42397,-98.50483,5.6435943,WAL
14573090935000,1.80988,-0.100839772315536,9.22960445310245,-0.998991302405002,0.42180246,-0.58459806,-0.53878313,36.6392,-98.45212,5.434188,WAL
14573095935000,1.81488,-0.0870204235901876,9.19275308225108,-1.00820419321789,0.4297437,-0.6264423,-0.5476407,36.859516,-98.40107,5.223958,WAL
14573101050000,1.819995,-0.0588617681340168,9.15790290607836,-1.00922394232882,0.42577308,-0.6630942,-0.5635232,37.087856,-98.366844,5.0133686,WAL
14573106055000,1.825,0.0069546709469059,9.13157625787257,-0.987285145184914,0.4279111,-0.679893,-0.5717699,37.319088,-98.33941,4.8059545,WAL
14573111031000,1.829976,0.0768251157683809,9.10401952300121,-0.965300006192246,0.42943826,-0.68416905,-0.57848936,37.557034,-98.323814,4.5968585,WAL
14573116055000,1.835,0.197641400830655,9.06052579218562,-0.941136741105866,0.42943826,-0.68203104,-0.5879578,37.79401,-98.30993,4.3884354,WAL
14573121026000,1.839971,0.317349606296587,9.01841958061985,-0.913927557289133,0.42485678,-0.6762278,-0.58123827,38.025673,-98.306366,4.1998267,WAL
14573126079000,1.845024,0.440749149248725,8.9851964525304,-0.852227790768929,0.41325033,-0.6630942,-0.57940567,38.250664,-98.30061,4.011225,WAL
14573131142000,1.850087,0.566091390855756,8.96707790754603,-0.788493014746106,0.40469822,-0.6264423,-0.57818395,38.463924,-98.32468,3.830831,WAL
14573136051000,1.854996,0.708755392251669,9.13827468935869,-0.702894603977342,0.40133846,-0.6065892,-0.5699373,38.675068,-98.349,3.6562939,WAL
14573141112000,1.860057,0.850148932837954,9.3216593801086,-0.617976358693913,0.39828414,-0.5842926,-0.5494733,38.872837,-98.388916,3.5035052,WAL
14573146062000,1.865007,0.931438194055444,9.57004356130323,-0.568299574326951,0.39828414,-0.5867361,-0.54305923,39.068672,-98.42747,3.3517194,WAL
14573151359000,1.870304,1.01335043865719,9.83637127136712,-0.525744636689733,0.3943135,-0.589485,-0.54336464,39.250328,-98.467,3.2134151,WAL
14573156041000,1.874986,0.971421692622031,10.0837510940714,-0.727002670196372,0.39614612,-0.6017023,-0.5525276,39.43258,-98.506676,3.0762975,WAL
14573161010000,1.879955,0.92692277355994,10.3462949511876,-0.940597537452777,0.41050145,-0.61941737,-0.5571091,39.612415,-98.5418,2.946898,WAL
14573166044000,1.884989,0.863339395504587,10.4028431230554,-1.02486350270243,0.42241332,-0.6236934,-0.5693264,39.788986,-98.5741,2.8150332,WAL
14573171015000,1.88996,0.796876669449541,10.4170849289988,-1.08183156918628,0.43188173,-0.62796944,-0.5757405,39.968307,-98.608604,2.6850421,WAL
14573176078000,1.895023,0.704684738631167,10.3550747936221,-1.06757194491576,0.42149702,-0.61453044,-0.59498274,40.14706,-98.678154,2.5437627,WAL
14573180949000,1.899894,0.611125523906939,10.2802268864822,-1.03950415070197,0.40439278,-0.602924,-0.5992588,40.324875,-98.74695,2.4071612,WAL
14573186041000,1.904986,0.537038012404299,10.1680147433528,-1.01538710528003,0.39278635,-0.5910121,-0.62125,40.494404,-98.8161,2.2464013,WAL
14573191017000,1.909962,0.469640982481614,10.0511936896097,-0.992921445841976,0.36774087,-0.5693264,-0.6356053,40.65537,-98.87576,2.0908275,WAL
14573196037000,1.914982,0.436258152283982,9.92384047781708,-1.00026285963618,0.32986724,-0.5348125,-0.6582073,40.819843,-98.929855,1.9103855,WAL
14573200992000,1.919937,0.417075491975745,9.79435748943911,-1.01944549490652,0.27947086,-0.5018258,-0.6753115,40.975914,-98.97249,1.7324543,WAL
14573206052000,1.924997,0.431025602590917,9.73954302388276,-1.08238709453591,0.23090707,-0.47586402,-0.6872234,41.131252,-99.00866,1.5402173,WAL
14573210990000,1.929935,0.456694286137145,9.71387426886195,-1.15939318091189,0.18417588,-0.47128254,-0.6951646,41.281044,-99.03112,1.349514,WAL
14573216054000,1.934999,0.517180742615821,9.72792566687677,-1.22904572804916,0.14263703,-0.46181414,-0.691194,41.41965,-99.05341,1.1570802,WAL
14573221067000,1.940012,0.607962691585251,9.77836005956508,-1.28956705193823,0.11636983,-0.4605924,-0.66981375,41.558483,-99.06814,0.9720491,WAL
14573226075000,1.94502,0.718758215019439,9.90811456128504,-1.34903646449765,0.10842858,-0.46028697,-0.6432411,41.687504,-99.09868,0.7971394,WAL
14573231039000,1.949984,0.840354477839165,10.0832131350522,-1.40740267268263,0.09285152,-0.46303585,-0.6068946,41.817287,-99.12058,0.63529575,WAL
14573236053000,1.954998,0.927357474677946,10.2807120496058,-1.45163293041723,0.07971791,-0.4783075,-0.5564982,41.94181,-99.16307,0.4931508,WAL
14573241094000,1.960039,0.996973917294751,10.4895617166891,-1.48876162550471,0.06994407,-0.49235737,-0.5021312,42.067314,-99.20148,0.3657591,WAL
14573246116000,1.965061,1.03358675574224,10.7117334711607,-1.53016390549124,0.08032878,-0.49541172,-0.44806966,42.1842,-99.25718,0.26733625,WAL
14573251052000,1.969997,1.04811536428645,10.9393472427005,-1.57374962998668,0.08155051,-0.5198463,-0.38912117,42.312416,-99.30565,0.18587027,WAL
14573256021000,1.974966,1.02656883021831,11.1453574278376,-1.57182990975007,0.08460484,-0.5497787,-0.33353242,42.438873,-99.36606,0.12370505,WAL
14573261046000,1.979991,0.983783955922158,11.3402666691692,-1.54330664367282,0.0852157,-0.573297,-0.28252518,42.57145,-99.42333,0.07659889,WAL
14573265947000,1.984892,0.891604791884946,11.4435734998517,-1.4902597502224,0.09437868,-0.5766568,-0.2406809,42.70439,-99.48975,0.035499904,WAL
14573271011000,1.989956,0.762177320974597,11.4915095631116,-1.41835565533261,0.09712757,-0.559858,-0.20250183,42.83882,-99.55122,0.0073287925,WAL
14573276072000,1.995017,0.638811616003933,11.5308862855457,-1.34671375193707,0.08552113,-0.5534439,-0.18936823,42.98418,-99.60521,-0.032383632,WAL
14573281594000,2.000539,0.508813756224189,11.5672858761062,-1.26871504041298,0.057726767,-0.5580254,-0.1853976,43.127537,-99.65217,-0.064135484,WAL
14573286046000,2.004991,0.421024113435348,11.6139047494262,-1.29068541331293,0.04337143,-0.56382865,-0.17837265,43.283154,-99.68553,-0.11744006,WAL
14573291099000,2.010044,0.33308987051645,11.67869826272,-1.37399157989671,0.004886922,-0.56230146,-0.19333886,43.435375,-99.70195,-0.17542513,WAL
14573296020000,2.014965,0.312210226760273,11.821115666942,-1.44000930167252,-0.05955936,-0.5421429,-0.2171626,43.5968,-99.69089,-0.25250438,WAL
14573301041000,2.019986,0.366818593731158,12.0594063345034,-1.4896531821082,-0.1337795,-0.47678033,-0.21655174,43.74371,-99.665016,-0.32366902,WAL
14573306045000,2.02499,0.443684405467181,12.3373782651544,-1.43050681817568,-0.1777618,-0.40286562,-0.2125811,43.88678,-99.6518,-0.4171558,WAL
14573311077000,2.030022,0.541367843181467,12.6536865794402,-1.27235275817568,-0.20463985,-0.3643811,-0.20769419,44.020138,-99.62222,-0.5069261,WAL
14573316034000,2.034979,0.728807554064235,12.9519589010706,-1.17037545398493,-0.24129178,-0.33475417,-0.19333886,44.13303,-99.58911,-0.5857859,WAL
14573321061000,2.040006,1.0294602552161,13.238295086935,-1.13219731248017,-0.28955013,-0.31123585,-0.18203785,44.236027,-99.5454,-0.6609481,WAL
14573326052000,2.044997,1.36811233374631,13.4803680969518,-1.15005681408063,-0.36285394,-0.27152961,-0.15057829,44.331867,-99.45977,-0.7197569,WAL
14573331058000,2.050003,1.75937523929204,13.6689284147493,-1.23962306348083,-0.45142943,-0.24678956,-0.09407325,44.42648,-99.3571,-0.7666433,WAL
14573335946000,2.054891,2.11513098339019,13.8292160104299,-1.27502041756506,-0.5119051,-0.19853121,-0.00580322,44.487766,-99.24025,-0.757992,WAL
14573341093000,2.060038,2.44665803825909,13.9589435892387,-1.22697300449362,-0.5635232,-0.17684549,0.086437434,44.552242,-99.10222,-0.7328667,WAL
14573345952000,2.064897,2.68590821767627,13.9859546386296,-1.14503520314796,-0.59681535,-0.19517145,0.19700404,44.58738,-98.97128,-0.6259582,WAL
14573351613000,2.070558,2.79896687636544,13.8029075809335,-0.967371604667329,-0.63499445,-0.2312125,0.2932153,44.62534,-98.82718,-0.50035006,WAL
14573355964000,2.074909,2.80608188809315,13.6392891883952,-0.812344238283153,-0.66523224,-0.28405234,0.37782016,44.659843,-98.678345,-0.31157425,WAL
14573361062000,2.080007,2.65385321382637,13.4014319469453,-0.59351565562701,-0.7171558,-0.33261612,0.46395215,44.70801,-98.519066,-0.10237434,WAL
14573365975000,2.08492,2.46730133434343,13.1664644587542,-0.392455596661616,-0.7779369,-0.36713,0.52412236,44.77124,-98.34144,0.12616734,WAL
14573371038000,2.089983,2.16656451765019,12.9086904225589,-0.212013491841574,-0.8677341,-0.3866777,0.6020077,44.848003,-98.152,0.3761395,WAL
14573376212000,2.095157,1.85016541126094,12.635674171581,-0.0307899589009762,-0.97219205,-0.4007276,0.6762278,44.956158,-97.92476,0.61070395,WAL
14573381056000,2.100001,1.41600271708765,12.2341900753749,0.090588863337929,-1.0836749,-0.40317106,0.70921457,45.06677,-97.684006,0.84922177,WAL
14573386250000,2.105195,0.952977090374262,11.7981188243771,0.219528625868108,-1.1404854,-0.3921755,0.7629707,45.210323,-97.41344,1.0609478,WAL
14573391171000,2.110116,0.542680927361153,11.3217982302612,0.327997723491444,-1.2675453,-0.36193767,0.8246681,45.348457,-97.10875,1.2796655,WAL
14573396200000,2.115145,0.134754746481365,10.8422726512798,0.443580311089358,-1.4001031,-0.32284227,0.88056225,45.513477,-96.7781,1.4477614,WAL
14573401055000,2.12,-0.115781744811855,10.4706434388864,0.614780238013471,-1.5121969,-0.28588495,0.94225967,45.670296,-96.439,1.6311482,WAL
14573405963000,2.124908,-0.369053237966771,10.0949573061518,0.787849082780422,-1.6349808,-0.21899518,1.0085385,45.8424,-96.0609,1.7732515,WAL
14573411057000,2.130002,-0.585898949503759,9.72355504962406,0.984207715007519,-1.7498235,-0.15485434,1.0995574,46.004868,-95.68294,1.9359329,WAL
14573415951000,2.134896,-0.783241642119298,9.37115712140351,1.17685181437193,-1.8655825,-0.13683382,1.1884383,46.160736,-95.30493,2.1121032,WAL
14573421442000,2.140387,-0.962130598355126,9.05869723100246,1.30181422806519,-1.9743165,-0.15974127,1.2913691,46.340145,-94.9083,2.27186,WAL
14573426011000,2.144956,-1.10309314045859,8.81408602776199,1.38887935000947,-2.0769417,-0.20891592,1.3897184,46.521408,-94.53588,2.449698,WAL
14573431053000,2.149998,-1.30772470278961,8.57209387979306,1.4897297541692,-2.116648,-0.2929099,1.4993688,46.742638,-94.18826,2.6183302,WAL
14573435950000,2.154895,-1.52656124069791,8.34849948265368,1.5896333230067,-2.1245892,-0.40225476,1.593442,46.98379,-93.90271,2.8029447,WAL
14573441062000,2.160007,-1.92160376366032,8.44640752005856,1.80860496578819,-2.0885482,-0.52931476,1.6982054,47.27841,-93.696304,2.9863389,WAL
14573446006000,2.164951,-2.36527209841874,8.6636206761347,2.06279002464617,-2.0442605,-0.6774496,1.7889189,47.607555,-93.588936,3.1836329,WAL
14573451051000,2.169996,-2.59870665937594,9.06252046784097,2.11202572155008,-1.9828686,-0.83016586,1.8716911,48.00102,-93.55767,3.3608055,WAL
14573456007000,2.174952,-2.72769420413689,9.53547501479617,2.06425247553095,-1.9120082,-0.98715824,1.9419407,48.4332,-93.621086,3.5514483,WAL
14573461042000,2.179987,-2.73239088661514,10.0881728415598,1.90232757405586,-1.8411479,-1.1429288,2.0112739,48.939903,-93.71829,3.7117422,WAL
14573467415000,2.18636,-2.66806674121728,10.8279014931495,1.63430990043035,-1.767844,-1.2308935,2.0650299,49.464222,-86.11269,3.8803542,WAL
14573471055000,2.19,-2.59932062148408,11.3133439873044,1.44364098096749,-1.6881261,-1.2819008,2.1163425,50.015366,-85.88211,4.0635266,WAL
14573476081000,2.195026,-2.47289040058006,12.0455860363358,1.14336924757579,-1.6444492,-1.2880094,2.1621575,50.56855,-85.61191,4.252951,WAL
14573481052000,2.199997,-2.38604225276951,12.6527478302561,0.868646016423466,-1.6291776,-1.2965615,2.1749856,51.115982,-85.30095,4.467888,WAL
14573486032000,2.204977,-2.3244973820131,13.1829799088743,0.608264116185229,-1.5909985,-1.2822062,2.2091942,51.647217,-84.97157,4.6936607,WAL
14573491174000,2.210119,-2.20932516059377,13.557001822761,0.38588986982385,-1.5317446,-1.2815952,2.2269092,52.157997,-84.618416,4.9479475,WAL
14573496036000,2.214981,-2.06648152518555,13.7966101321128,0.206183296194953,-1.4792101,-1.273654,2.2296581,52.65119,-84.26843,5.1988063,WAL
14573501051000,2.219996,-1.73611868446853,13.9544864492517,-0.104857025248465,-1.400714,-1.2815952,2.2198844,53.11924,-83.91622,5.4702735,WAL
14573506057000,2.225002,-1.26240667692824,14.0418700595741,-0.51418098579528,-1.3011429,-1.2776246,2.2293527,53.57061,-83.576385,5.7389674,WAL
14573511040000,2.229985,-0.703325632563464,14.1010392493778,-0.843073612991538,-1.1685852,-1.171945,2.2757785,53.97313,-83.21614,6.049785,WAL
14573516059000,2.235004,-0.0429864601314086,14.1297497281234,-1.08711203278248,-1.0351112,-0.9999864,2.357329,54.34423,-82.8681,6.3621197,WAL
14573521059000,2.240004,0.63874047030002,14.0535097681303,-1.2831570243791,-0.93370754,-0.8371908,2.4449883,54.63945,-82.472305,6.759745,WAL
14573526077000,2.245022,1.3500861781522,13.8577708784025,-1.42638094389032,-0.8362745,-0.65087694,2.5567765,54.86869,-82.07646,7.1712303,WAL
14573531017000,2.249962,2.08291901442279,13.6823915219112,-1.32774098437036,-0.76083267,-0.41386122,2.6655104,54.99937,-81.59688,7.688209,WAL
14573536045000,2.25499,2.86886335633594,13.5252024844198,-0.932387240458997,-0.72265357,-0.23457226,2.7473664,55.085987,-81.113205,8.210423,WAL
14573541012000,2.259957,3.47198930846887,13.3384733960158,-0.530712325806948,-0.68325275,-0.14966199,2.8548787,55.09537,-80.52193,8.8536,WAL
14573546062000,2.265007,3.84898777348667,13.1057578681551,-0.107170648297565,-0.6792821,-0.07238753,2.9113839,55.05187,-79.93584,9.482807,WAL
14573550971000,2.269916,4.01018857162095,12.8153479067332,0.203166824279302,-0.7476991,-0.0021380284,2.9345965,54.963318,-79.22322,10.2198,WAL
14573556031000,2.274976,3.77333347955112,12.3899752842893,0.324011314014963,-0.8323039,0.12217305,2.8997774,54.834118,-78.5302,10.930767,WAL
14573561037000,2.279982,3.37713991837607,11.920683026862,0.419093455210623,-0.9129381,0.28496864,2.812118,54.672565,-77.75383,11.69925,WAL
14573566053000,2.284998,2.67329722777778,11.3585868412698,0.467971420119048,-0.9636399,0.44776422,2.6740627,54.475044,-77.01948,12.418008,WAL
14573570969000,2.289914,1.96582703256832,10.787742561412,0.484322111455801,-1.0213667,0.5112942,2.522568,54.268692,-76.31548,13.089804,WAL
14573576090000,2.295035,1.19796791811728,10.1581932257123,0.446167623616649,-1.047023,0.64721173,2.4425447,53.99588,-75.65022,13.7172785,WAL
14573580950000,2.299895,0.514043073050124,9.57141121240695,0.415550715988089,-1.0754282,0.81397796,2.271808,53.72988,-75.09444,14.218027,WAL
14573585986000,2.304931,-0.0939030668843672,8.98740016327544,0.396402799299256,-1.0824533,0.96944314,2.1248949,53.432198,-74.57235,14.682329,WAL
14573591019000,2.309964,-0.565695699961269,8.49046544964035,0.408694900370712,-1.0680978,1.0995574,1.9898936,53.13396,-74.11852,15.063668,WAL
14573595982000,2.314927,-0.723485168126153,8.19680161831428,0.491972676506824,-1.0461067,1.1902709,1.88849,52.81082,-73.70984,15.396118,WAL
14573601010000,2.319955,-0.833969883843753,7.92357678241216,0.568280753625289,-1.0140363,1.2458596,1.8048013,52.487476,-73.29999,15.711694,WAL
14573606681000,2.325626,-0.598861362594382,7.79235356484446,0.595618958683177,-0.9810496,1.2935071,1.7461584,52.145424,-72.923294,15.991975,WAL
14573610997000,2.329942,-0.402723979739953,7.69834153286052,0.626650696674547,-0.9462303,1.3191634,1.7030923,51.80073,-72.54295,16.264847,WAL
14573616052000,2.334997,-0.0736910421513003,7.6220438963357,0.722022553116627,-0.91813046,1.3127494,1.6865989,51.455368,-72.18264,16.518122,WAL
14573621098000,2.340043,0.249377402940926,7.56162723847924,0.80168835461086,-0.88025683,1.2855659,1.677436,51.114773,-71.80304,16.793312,WAL
14573626065000,2.34501,0.533220197856108,7.60217643600716,0.781413857464837,-0.874759,1.2611313,1.668273,50.779507,-71.436386,17.054558,WAL
14573630967000,2.349912,0.813348520923195,7.64219499173131,0.761404679890887,-0.86498517,1.2675453,1.6655241,50.462795,-71.03407,17.357008,WAL
14573636049000,2.354994,1.03759239399485,7.68388561681441,0.745895469631112,-0.86132,1.2834278,1.670411,50.15468,-70.6425,17.649744,WAL
14573641192000,2.360137,1.24416519761701,7.72613900667239,0.73181097366314,-0.8533788,1.303281,1.6530013,49.84863,-70.26937,17.925497,WAL
14573646046000,2.364991,1.3362622337421,7.69502092585605,0.737059972502594,-0.83077675,1.314582,1.636508,49.556747,-69.8527,18.252953,WAL
14573651020000,2.369965,1.38569007430431,7.63211279926422,0.750540305452316,-0.82558435,1.3078625,1.6132951,49.26926,-69.45317,18.563047,WAL
14573656049000,2.374994,1.38521190034671,7.51084797804161,0.781968687234713,-0.8005389,1.2907583,1.5763378,48.994843,-69.03217,18.901844,WAL
14573661045000,2.37999,1.34499703978777,7.34496114677453,0.827210516904812,-0.768163,1.2733486,1.5192219,48.72768,-68.63682,19.217688,WAL
14573665949000,2.384894,1.27581155763378,7.18029655728106,0.910426881951023,-0.7473936,1.2428054,1.4645494,48.46458,-68.219025,19.551508,WAL
14573671015000,2.38996,1.18780488106419,7.00917250933186,1.01799057506802,-0.68386364,1.2021828,1.3857478,48.216736,-67.84362,19.853523,WAL
14573676067000,2.395012,1.09310965250456,6.83781471472318,1.07643816962077,-0.65668017,1.1585059,1.346347,47.96336,-67.442986,20.168148,WAL
14573681076000,2.400021,0.995826715483675,6.66756946065707,1.11048717980126,-0.60139686,1.1120802,1.2672399,47.73221,-67.09498,20.442747,WAL
14573686012000,2.404957,0.858814236176471,6.49673658529412,1.13907669117647,-0.5491679,1.074512,1.1746938,47.492447,-66.74432,20.706646,WAL
14573691018000,2.409963,0.702142669451914,6.32215979054155,1.16593469915033,-0.46944994,1.0488557,1.0824533,47.270496,-66.4337,20.942532,WAL
14573696017000,2.414962,0.529036839481669,6.15218424778761,1.20022455916561,-0.40317106,1.0341948,0.9767735,47.039795,-66.13919,21.152533,WAL
14573701020000,2.419965,0.342271966379056,5.98561017448378,1.24060612713864,-0.32345316,1.0228939,0.86498517,46.824814,-65.88906,21.330288,WAL
14573705984000,2.424929,0.208633797595268,5.80187244004654,1.29962271231455,-0.24831672,1.0207558,0.75594574,46.591213,-65.67096,21.467045,WAL
14573711019000,2.429964,0.101095532337826,5.60549816389024,1.36975631262484,-0.17806722,0.9993755,0.6386596,46.377712,-65.49808,21.568045,WAL
14573716014000,2.434959,0.0867321206626506,5.33688464856928,1.57916343652108,-0.103847094,0.97433007,0.5213735,46.149338,-65.36632,21.62109,WAL
14573721044000,2.439989,0.136608320436747,5.01495655246611,1.88748903770708,-0.033292156,0.9388999,0.40866885,45.94125,-65.274895,21.642168,WAL
14573726024000,2.444969,0.243775675683897,4.7982348733461,2.11849921021059,0.026267206,0.8854492,0.29535335,45.743134,-65.21358,21.62762,WAL
14573731019000,2.449964,0.416763241398639,4.69647739424591,2.26604743005743,0.087659165,0.82711154,0.1853976,45.567642,-65.19102,21.583824,WAL
14573736011000,2.454956,0.646918830705374,4.63820914174664,2.34596932527831,0.13958271,0.7724391,0.08246681,45.416534,-65.13453,21.55008,WAL
14573741021000,2.459966,0.91858951846929,4.61058154001919,2.37820151126679,0.17440203,0.72387534,-0.011301007,45.291325,-65.10984,21.490631,WAL
14573746455000,2.4654,1.23410902701685,4.64734570054599,2.33840964985409,0.21746802,0.6786713,-0.09987647,45.193108,-65.04611,21.462873,WAL
14573751017000,2.469962,1.5137737557752,4.72548748266026,2.252042568427,0.27091873,0.6417139,-0.1826487,45.115948,-65.01162,21.411951,WAL
14573755988000,2.474933,1.81095882821772,4.79211259361793,2.14943510990395,0.31031954,0.6188065,-0.24098633,45.101364,-64.904045,21.443012,WAL
14573761023000,2.479968,2.09914202373533,4.82813546618997,2.03107413541089,0.34788775,0.61911196,-0.2864958,45.094326,-64.82643,21.45068,WAL
14573766014000,2.484959,2.33027790427239,4.85069162404974,1.92454918633036,0.3943135,0.6258314,-0.3381139,45.05821,-64.680695,21.525677,WAL
14573771016000,2.489961,2.50803521886471,4.86030016957176,1.82846418259954,0.44104472,0.6188065,-0.3622431,45.025616,-64.554184,21.589033,WAL
14573776029000,2.494974,2.67215955281476,4.87666115214911,1.78594336085964,0.47952923,0.6246097,-0.4089743,44.960735,-64.42997,21.66269,WAL
14573781019000,2.499964,2.82212271884747,4.899382829593,1.7950320318372,0.5222898,0.61300325,-0.44532076,44.903236,-64.32464,21.728096,WAL
14573785957000,2.504902,2.94589877527483,4.92381232963356,1.85862828294118,0.5888741,0.6178902,-0.49418998,44.813114,-64.22254,21.800922,WAL
14573791026000,2.509971,3.03484305672131,4.95189991770492,2.00842916,0.65393126,0.6267477,-0.535118,44.727238,-64.14029,21.861565,WAL
14573795946000,2.514891,3.11710173644395,4.98295903576293,2.16847964373274,0.7031059,0.6395759,-0.573297,44.61859,-64.05276,21.929476,WAL
14573801018000,2.519963,3.19309561606847,5.02319116107123,2.36516989928216,0.7281514,0.65270954,-0.6221663,44.511654,-63.989407,21.978817,WAL
14573805983000,2.524928,3.2747820588122,5.07211055983949,2.56483488272873,0.7678576,0.6747007,-0.659429,44.386677,-63.92473,22.021357,WAL
14573811023000,2.529968,3.39874254420546,5.17541103624398,2.80759078385233,0.78984874,0.70371675,-0.6948592,44.260967,-63.87715,22.046804,WAL
14573816113000,2.535058,3.55171931839516,5.31665040151401,3.04554778803936,0.8323039,0.7538077,-0.7315111,44.106,-63.828217,22.053669,WAL
14573821030000,2.539975,3.76114313274035,5.53498590614118,3.25942737773467,0.8686504,0.8335256,-0.7489208,43.938255,-63.789806,22.049873,WAL
14573826049000,2.544994,3.99189718285392,5.78221481759729,3.47748273344614,0.89369583,0.9193522,-0.77457714,43.750633,-63.75648,22.022676,WAL
14573831018000,2.549963,4.29608270610077,6.13560670645798,3.6922020142508,0.9016371,1.0210613,-0.786489,43.539898,-63.72987,21.986797,WAL
14573836151000,2.555096,4.61941522213312,6.51867963368083,3.91147665838011,0.90469146,1.1252137,-0.78984874,43.288525,-63.71777,21.922195,WAL
14573841041000,2.559986,5.03721008710906,7.10077604777466,4.08986097614274,0.8900307,1.2238685,-0.7831292,43.015694,-63.705776,21.851097,WAL
14573846113000,2.565058,5.47594224254633,7.71941188553586,4.26901208883965,0.874759,1.3356569,-0.75533485,42.70074,-63.672462,21.787857,WAL
14573851013000,2.569958,5.96751569137792,8.5040384024577,4.36827213114424,0.8472701,1.4272866,-0.6936375,42.367813,-63.627247,21.730862,WAL
14573856031000,2.574976,6.46122025777778,9.30622120444444,4.46932977066667,0.8347474,1.5161675,-0.59712076,41.99678,-63.555878,21.70417,WAL
14573861023000,2.579968,6.82436354989899,10.0865928311111,4.56204724557576,0.8060367,1.5992452,-0.46761733,41.60219,-63.459465,21.696625,WAL
14573866690000,2.585635,7.23660975111111,10.9724834577778,4.66730163866667,0.78038037,1.6355917,-0.32467487,41.1757,-63.31855,21.749924,WAL
14573871054000,2.589999,7.54244506671994,11.6620633759489,4.77298423152217,0.7464773,1.6383406,-0.2443461,40.740005,-63.165283,21.813799,WAL
14573876048000,2.594993,7.88638362245306,12.4550329624451,4.90673808659608,0.743423,1.5928311,-0.058948494,40.29722,-62.964146,21.94223,WAL
14573881014000,2.599959,7.99580684191491,12.9178716596555,5.15962491044066,0.7305948,1.5070046,0.13041973,39.854992,-62.75976,22.09732,WAL
14573886042000,2.604987,7.94539524393262,13.1607637304654,5.49875721766441,0.7067711,1.3903292,0.27885997,39.432297,-62.5304,22.2909,WAL
14573891001000,2.609946,7.76342017950121,13.2047315131011,5.85298418288961,0.6780604,1.2620476,0.410196,39.013012,-62.284073,22.522812,WAL
14573896024000,2.614969,7.43945153231611,13.0427470309376,6.23263481742608,0.6133087,1.1212431,0.49968776,38.630444,-62.01527,22.784197,WAL
14573901017000,2.619962,7.08621917857343,12.7925028089814,6.5744298200915,0.54428095,0.97310835,0.5543602,38.286453,-61.746162,23.023558,WAL
14573906000000,2.624945,6.71196991914854,12.4806286975072,6.89075936905985,0.4578435,0.83108217,0.5684101,37.983707,-61.46519,23.277653,WAL
14573911018000,2.629963,6.25637275994998,12.0970921823619,7.10718070066333,0.36254853,0.7318166,0.55955255,37.722713,-61.18634,23.482576,WAL
14573916017000,2.634962,5.70453572664202,11.628551176816,7.1956831684428,0.24617869,0.6966918,0.52839845,37.48904,-60.90482,23.683947,WAL
14573921056000,2.640001,5.17639131019969,11.3060089264879,7.10661792133908,0.13164146,0.7263188,0.49327368,37.27981,-60.634903,23.816587,WAL
14573926033000,2.644978,4.67250659847298,11.0820600033281,6.9059970779953,0.02565634,0.7861836,0.46639562,37.077293,-60.364243,23.938042,WAL
14573931683000,2.650628,4.04259093283725,11.0609920593398,6.59586721684793,-0.03145956,0.8564331,0.43279803,36.872864,-60.12748,23.981037,WAL
14573936017000,2.654962,3.53178590784202,11.1560254081282,6.31868616828849,-0.032375857,0.9443977,0.36835176,36.656307,-59.904957,23.998669,WAL
14573941035000,2.65998,3.06382889527062,11.6297145408258,5.99199884570009,0.01038471,1.0952814,0.28496864,36.42069,-59.735493,23.94306,WAL
14573946022000,2.664967,2.7376229444272,12.5094826525924,5.66085027879541,0.05467244,1.3225232,0.19517145,36.151093,-59.588173,23.852442,WAL
14573951016000,2.669961,2.63153627128862,13.4927966420497,5.52353701552374,0.02076942,1.5045611,0.09010262,35.88234,-59.526073,23.661211,WAL
14573955991000,2.674936,2.71680812744913,14.5609407641296,5.55495290333459,-0.058948494,1.5396858,0.014966198,35.60641,-59.47715,23.450893,WAL
14573961015000,2.67996,2.85613896542743,15.495878383924,5.49329972963946,-0.14966199,1.3255776,-0.018020526,35.36007,-59.516525,23.171494,WAL
14573966014000,2.684959,3.07128319178838,16.2195447747932,5.29771435244612,-0.15790866,1.1511755,0.007941248,35.10163,-59.55629,22.889902,WAL
14573971015000,2.68996,3.14699927351446,16.2090108229369,4.50737239777285,-0.13500121,0.7180721,0.035430185,34.98019,-59.64372,22.616276,WAL
14573976044000,2.694989,3.05353311724425,15.3055052653174,2.98966039817022,-0.048563786,0.28405234,0.12339478,34.903053,-59.718826,22.394218,WAL
14573980971000,2.699916,2.93496775833868,14.2333770338892,1.77454424177357,0.047647487,-0.0888809,0.25503623,34.91348,-59.819263,22.236448,WAL
14573986016000,2.704961,2.74385658915972,12.6528352726106,1.23220148319436,0.21410827,-0.3811799,0.38423425,35.01544,-59.92769,22.143581,WAL
14573991010000,2.709955,2.47169841662214,11.0914961965964,0.968740383076086,0.43127087,-0.59528816,0.5174029,35.14143,-60.079975,22.181416,WAL
14573996031000,2.714976,2.08157446645889,9.52624328782032,1.08768058028099,0.6722572,-0.80756384,0.6047566,35.343094,-60.24661,22.267282,WAL
14574001445000,2.72039,1.44140782541398,8.01619246623605,1.21304905907223,0.9282097,-1.0118983,0.61361414,35.580597,-60.410526,22.428705,WAL
14574006004000,2.724949,0.672282836924056,6.93087160784889,1.31559907478959,1.1404854,-1.1499538,0.56077427,35.858913,-60.59893,22.603874,WAL
14574010960000,2.729905,-0.241655570345476,5.98615094001188,1.42104000880024,1.2473868,-1.1808025,0.44348818,36.149837,-60.771946,22.768894,WAL
14574015990000,2.734935,-1.31933545538804,5.48069021342308,1.51640989426846,1.3307699,-1.1099422,0.25503623,36.46079,-60.99858,22.896427,WAL
14574020967000,2.739912,-2.19864333127222,5.10152239737258,1.69468043757408,1.3652838,-0.8671232,0.044898596,36.744633,-61.265327,22.906641,WAL
14574025990000,2.744935,-2.69280050449427,4.97323173256618,2.05104373164757,1.3335189,-0.55863625,-0.16493362,37.002254,-61.57386,22.848259,WAL
14574030973000,2.749918,-2.95887497991245,4.90982906840115,2.21860995551686,1.2565498,-0.33567044,-0.37965274,37.27459,-61.993492,22.59992,WAL
14574036063000,2.755008,-2.69698250314397,4.99712654377674,1.94701781553079,1.1615603,-0.301462,-0.57726765,37.526516,-62.450443,22.282974,WAL
14574040985000,2.75993,-2.40737960425494,5.10602974718553,1.50362144272139,1.094976,-0.37232238,-0.73731434,37.77142,-62.962055,21.831331,WAL
14574045991000,2.764936,-2.02490163466005,5.27601985728216,0.615422505084656,1.0494665,-0.5213735,-0.8958339,38.043686,-63.50653,21.324902,WAL
14574051231000,2.770176,-1.6233402122509,5.48671640694762,-0.323478739124469,1.0531317,-0.65393126,-1.0589349,38.336082,-64.07973,20.814035,WAL
14574055931000,2.774876,-1.2508219126756,6.01118302461069,-1.25967596160078,1.0995574,-0.7293731,-1.1930199,38.66258,-64.680336,20.271488,WAL
14574060941000,2.779886,-0.886785256364095,6.60550556523449,-2.14650379870903,1.169807,-0.7284568,-1.3002267,39.010414,-65.34846,19.777975,WAL
14574066287000,2.785232,-0.649257273247605,7.40070794114977,-2.58541433474534,1.1994339,-0.5925393,-1.3833044,39.343338,-66.0418,19.246439,WAL
14574071086000,2.790031,-0.455897475295461,8.09280010010925,-2.86804119015791,1.235475,-0.50426924,-1.421178,39.691025,-66.80715,18.763554,WAL
14574075971000,2.794916,-0.321157347278776,8.72933093092661,-2.80764034106664,1.221425,-0.30451632,-1.46852,39.96473,-67.58757,18.235636,WAL
14574080938000,2.799883,-0.17412713118672,9.36444999080437,-2.72066592739328,1.1484267,-0.10445796,-1.5063937,40.20909,-68.40289,17.710844,WAL
14574085935000,2.80488,0.0157932494889169,9.95274020811151,-2.52611343267835,1.0604621,0.06566802,-1.5121969,40.395107,-69.21017,17.171963,WAL
14574090978000,2.809923,0.218020867736246,10.5460126084778,-2.32047700910913,0.9306532,0.23732115,-1.4795157,40.513264,-69.998085,16.618391,WAL
14574095937000,2.814882,0.484532291930053,11.1266265808197,-2.05872464960417,0.82619524,0.38331795,-1.427592,40.579216,-70.76322,16.06573,WAL
14574101087000,2.820032,0.752193697567044,11.6612698907935,-1.78463278742051,0.75136423,0.4978552,-1.3616186,40.585888,-71.47615,15.527613,WAL
14574105997000,2.824942,0.960198691392498,11.8172735909133,-1.51162628958621,0.71837753,0.5864306,-1.276403,40.546597,-72.150734,15.012028,WAL
14574111352000,2.830297,1.18435682905386,11.9759235298557,-1.2128180085275,0.72295904,0.64965516,-1.2027937,40.460888,-72.75965,14.534078,WAL
14574116017000,2.834962,1.32342870364117,11.874780468352,-0.930459847042732,0.76144356,0.6383542,-1.1142182,40.36153,-73.33164,14.094128,WAL
14574121005000,2.83995,1.47212977769078,11.7666343610037,-0.628551484880672,0.8240572,0.5739079,-1.039998,40.238777,-73.82897,13.708296,WAL
14574126115000,2.84506,1.45522095338539,11.3803604668653,-0.476516256603308,0.9016371,0.4615087,-0.97341377,40.127197,-74.30233,13.357709,WAL
14574131025000,2.84997,1.41174008592418,10.9648764989212,-0.35573610844755,1.001819,0.31398472,-0.9309586,40.04004,-74.76393,13.034273,WAL
14574136014000,2.854959,1.27081002626169,10.4517330729697,-0.401168793433651,1.0955868,0.13500121,-0.9080512,39.97349,-75.151535,12.766751,WAL
14574141295000,2.86024,1.11157738663765,9.8991020235207,-0.466735208111862,1.1841623,-0.06291912,-0.9086621,39.952785,-75.53676,12.518038,WAL
14574146017000,2.864962,0.87989587862157,9.37724002233567,-0.551357015012763,1.2663237,-0.27214047,-0.9260717,39.98077,-75.90006,12.290614,WAL
14574150949000,2.869894,0.613639849521379,8.82463360497766,-0.646807293059987,1.3298537,-0.4908302,-0.94225967,40.066154,-76.26125,12.075968,WAL
14574155993000,2.874938,0.322973364386338,8.41649919970609,-0.849525976710246,1.3588698,-0.67073005,-0.9611965,40.20017,-76.644165,11.847051,WAL
14574160954000,2.879899,0.0340676916996047,8.04092153359684,-1.0662052312253,1.3820826,-0.7266242,-0.9767735,40.357456,-77.024895,11.621702,WAL
14574166018000,2.884963,-0.218141339583911,7.93317437364771,-1.26230281880721,1.3713925,-0.78893244,-0.9868528,40.57467,-77.43628,11.366785,WAL
14574171016000,2.889961,-0.461559605991678,7.86236197947295,-1.45261159317614,1.3475688,-0.7715228,-1.0048733,40.780365,-77.84181,11.10793,WAL
14574176018000,2.894963,-0.714703415020408,8.0600283444898,-1.50534887526531,1.2990049,-0.7293731,-1.0100657,41.00692,-78.29989,10.801407,WAL
14574180953000,2.899898,-0.967890216091837,8.35179586770408,-1.50776017669388,1.2244794,-0.6713409,-1.0235047,41.219147,-78.74578,10.489921,WAL
14574186011000,2.904956,-1.22738744807143,8.65083540821428,-1.51023157742857,1.1246029,-0.6200282,-1.0433578,41.4306,-79.23999,10.125784,WAL
14574190998000,2.909943,-1.48324207359184,8.94567728020408,-1.51266828669388,1.0390818,-0.5491679,-1.0772609,41.615067,-79.72256,9.755872,WAL
14574196025000,2.91497,-1.52061619976048,9.36405505119761,-1.4041892238024,0.9578367,-0.46120325,-1.1175779,41.774555,-80.19401,9.378743,WAL
14574200990000,2.919935,-1.50638002850299,9.80537665748503,-1.27131824251497,0.8933904,-0.3827071,-1.14018,41.91231,-80.65198,9.000931,WAL
14574205998000,2.924943,-1.29888233015332,10.1245502510272,-1.05575588667201,0.82924956,-0.30298916,-1.1597277,42.04039,-81.20935,8.50583,WAL
14574210995000,2.92994,-1.04471550102215,10.4122866146909,-0.820771448401644,0.7641924,-0.25992316,-1.1792754,42.152836,-81.75639,8.011488,WAL
14574216014000,2.934959,-0.584801163754577,10.5626320479687,-0.642466413578071,0.74281216,-0.26083946,-1.187522,42.249065,-82.29466,7.513505,WAL
14574220999000,2.939944,-0.080057041572002,10.6794708830152,-0.478891898110622,0.72692966,-0.28496864,-1.1701124,42.33696,-82.81502,7.027081,WAL
14574226042000,2.944987,0.449588668106761,10.6624072125237,-0.392365007368421,0.7305948,-0.3408628,-1.1389582,42.421394,-83.266266,6.5980635,WAL
14574230999000,2.949944,0.975846309708779,10.605514585389,-0.330731234736842,0.74097955,-0.41874814,-1.0842859,42.5178,-83.69389,6.191429,WAL
14574236017000,2.954962,1.29950744787593,10.4433172646662,-0.347884121335131,0.7467828,-0.52503866,-1.0433578,42.609722,-83.99029,5.906727,WAL
14574241026000,2.959971,1.55828138197669,10.2492364883923,-0.389472795002408,0.77579886,-0.5897904,-0.9786061,42.711544,-84.258514,5.6518965,WAL
14574246022000,2.964967,1.66408168708969,10.0111997391998,-0.484875148203133,0.784351,-0.6160576,-0.9089675,42.801937,-84.38053,5.5366178,WAL
14574251012000,2.969957,1.70222459390402,9.7537355538262,-0.60407163616083,0.799928,-0.6188065,-0.840856,42.903175,-84.484955,5.4409614,WAL
14574256000000,2.974945,1.56563336485546,9.49550148844629,-0.745992756308615,0.79534656,-0.6047566,-0.7874053,42.982384,-84.51089,5.42176,WAL
14574261021000,2.979966,1.34712792079667,9.23515416735957,-0.899411515730446,0.7797695,-0.5983425,-0.7449502,43.063023,-84.523285,5.416443,WAL
14574266686000,2.985631,1.03915862200834,9.02556898729907,-1.12909397588807,0.7724391,-0.5699373,-0.7360926,43.12679,-84.53844,5.4126945,WAL
14574271015000,2.98996,0.779994733816233,8.89804432764437,-1.32655221732487,0.7443393,-0.5503896,-0.7415904,43.189323,-84.54548,5.4146924,WAL
14574276061000,2.995006,0.508624211847428,8.83375675746484,-1.57236102114236,0.73364913,-0.52015173,-0.75686204,43.259823,-84.61552,5.3592715,WAL
14574281083000,3.000028,0.258468630340975,8.82449154960509,-1.82714906146215,0.72021013,-0.46822822,-0.7910705,43.31648,-84.6876,5.2975993,WAL
14574286011000,3.004956,0.0969424391347622,8.86940702975142,-2.02030229745547,0.74281216,-0.3915646,-0.82650065,43.37963,-84.83761,5.1589246,WAL
14574291092000,3.010037,0.00646139191544334,8.96465017087493,-2.16792926564886,0.77579886,-0.31978795,-0.8579602,43.42717,-95.01489,5.014882,WAL
14574296018000,3.014963,0.0865187208248393,9.06127482223051,-2.12690769522035,0.8191703,-0.26908615,-0.8915578,43.474277,-94.81588,4.8075485,WAL
14574301016000,3.019961,0.345175473407155,9.16384534938973,-1.89054890845057,0.8533788,-0.24190263,-0.89888823,43.50531,-94.6366,4.6032257,WAL
14574305997000,3.024942,0.571786274752868,9.28999129843587,-1.63405885847758,0.904386,-0.21899518,-0.893085,43.525925,-94.46286,4.3769336,WAL
14574311020000,3.029965,0.737317254646507,9.46555483826903,-1.33309347858186,0.9468411,-0.21838433,-0.88178396,43.542885,-94.32161,4.1550703,WAL
14574316005000,3.03495,0.867373867496206,9.62756819969651,-1.06426369080425,0.98899084,-0.21410827,-0.86009824,43.538784,-94.253105,3.9966812,WAL
14574321026000,3.039971,0.950069610510875,9.77350177420334,-0.835634271694487,1.0045679,-0.21960606,-0.8332202,43.535686,-94.2139,3.8474762,WAL
14574326597000,3.045542,0.982894825609157,9.88595745509923,-0.585608839006681,1.0118983,-0.24098633,-0.79534656,43.53046,-94.210335,3.7485902,WAL
14574331019000,3.049964,0.962090810173905,9.93588721379446,-0.390051154740617,1.0149527,-0.25259277,-0.75777835,43.523132,-94.22667,3.6603148,WAL
14574335944000,3.054889,0.919044997016419,9.97672067152434,-0.200456056067813,1.0067059,-0.27000242,-0.7113526,43.514545,-94.245995,3.605418,WAL
14574341064000,3.060009,0.842825054764403,9.99577554765375,-0.0480161506719129,0.9819659,-0.28008172,-0.6737844,43.50713,-94.27427,3.5596159,WAL
14574345953000,3.064898,0.752252077583753,9.97776916543137,0.049462657925882,0.9297369,-0.28588495,-0.65057147,43.5037,-94.27398,3.5201283,WAL
14574351058000,3.070003,0.621802517760648,9.88597148828936,0.0542941239640281,0.8790351,-0.30848694,-0.61850107,43.509003,-94.28223,3.4929597,WAL
14574355970000,3.074915,0.467913486209372,9.78651740991559,0.00653382109634229,0.8042041,-0.31703907,-0.602924,43.522377,-94.248856,3.4374933,WAL
14574361192000,3.080137,0.239867099609974,9.65551193518968,-0.163287949475114,0.76144356,-0.3295618,-0.59681535,43.544548,-94.21948,3.3880336,WAL
14574365980000,3.084925,0.0228628393305943,9.51608010582223,-0.344709383449243,0.7098254,-0.32742378,-0.5925393,43.574474,-94.15997,3.3049307,WAL
14574371041000,3.089986,-0.229702280454955,9.31208513778936,-0.611845568032869,0.68966687,-0.34116822,-0.6062838,43.61338,-94.09882,3.219502,WAL
14574376016000,3.094961,-0.448048350980573,9.1369428805819,-0.851220374569561,0.6444628,-0.33414328,-0.6252206,43.661674,-94.02047,3.083982,WAL
14574381060000,3.100005,-0.585924040592947,9.03020058318755,-1.02912451626554,0.605062,-0.3295618,-0.6649268,43.71435,-93.937386,2.9421432,WAL
14574385997000,3.104942,-0.706933903687014,8.93209883818107,-1.19277349350676,0.58368176,-0.33292156,-0.72173727,43.77852,-93.854706,2.7317584,WAL
14574391069000,3.110014,-0.687034874764441,8.89727532978288,-1.2524706322204,0.55924714,-0.31398472,-0.7635816,43.83408,-93.77183,2.5201535,WAL
14574396633000,3.115578,-0.64097435223363,8.87683469459063,-1.29373404855491,0.5497787,-0.30298916,-0.80909103,43.90185,-93.71188,2.2680886,WAL
14574401052000,3.119997,-0.542394617044258,8.90604332766802,-1.26452522485549,0.5326745,-0.3191771,-0.8396343,43.97056,-93.66093,2.0141869,WAL
14574406022000,3.124967,-0.431523088668795,8.93889395142783,-1.2316743867052,0.5403103,-0.3484986,-0.8741482,44.034317,-93.64099,1.74641,WAL
14574411056000,3.130001,-0.256242048732437,9.03248925812927,-1.16998901828583,0.54000485,-0.38148534,-0.8915578,44.10255,-93.63649,1.4809448,WAL
14574415954000,3.134899,-0.0726430193472501,9.13605806784424,-1.10408166989161,0.52687126,-0.43004912,-0.904386,44.182137,-93.64954,1.2127446,WAL
14574421055000,3.14,0.124215806298284,9.24991746444738,-1.04262112424557,0.55771995,-0.46639562,-0.9080512,44.25904,-93.69746,0.96322656,WAL
14574426017000,3.144962,0.316913366925783,9.36195131978499,-0.984363716003395,0.5656612,-0.505491,-0.88606006,44.349926,-93.753136,0.7231244,WAL
14574431054000,3.149999,0.527208384984716,9.49965218993275,-0.914855353963725,0.5726862,-0.53786683,-0.870483,44.435356,-93.822266,0.51083666,WAL
14574435951000,3.154896,0.737468774272468,9.64301144079886,-0.843175658673324,0.5821546,-0.5748242,-0.84513205,44.532864,-93.90428,0.31266883,WAL
14574441048000,3.159993,0.910557428021807,9.73824049688474,-0.799066652679128,0.57818395,-0.6133087,-0.818254,44.623005,-93.98175,0.1481555,WAL
14574446001000,3.164946,1.0629444531766,9.81212515780763,-0.766742126785436,0.57787853,-0.6441574,-0.8002335,44.720726,-94.06624,-0.0077078687,WAL
14574451055000,3.17,1.18731211756649,9.9151052243946,-0.773176948680032,0.5885687,-0.66859204,-0.7657196,44.81791,-94.165634,-0.1381339,WAL
14574456054000,3.174999,1.29659285728464,10.0291370978563,-0.796933639424375,0.5876524,-0.6792821,-0.7415904,44.918533,-94.26139,-0.2633969,WAL
14574461043000,3.179988,1.34565055429864,10.1289111105492,-0.821821033523201,0.59650993,-0.7098254,-0.7302894,45.025345,-94.38061,-0.37562215,WAL
14574467356000,3.186301,1.37247080633484,10.2469201298909,-0.854005425584243,0.5992588,-0.74128497,-0.6979135,45.134315,-94.494316,-0.47281158,WAL
14574471066000,3.190011,1.33199207450407,10.3117746336043,-0.866395269094851,0.6047566,-0.75808376,-0.6872234,45.236477,-94.62762,-0.5703609,WAL
14574476096000,3.195041,1.22233382149593,10.3953244330623,-0.876838912238482,0.6105598,-0.7699956,-0.66737026,45.344597,-94.75662,-0.65482116,WAL
14574481052000,3.199997,1.09950611899419,10.4571576824284,-0.892272087597676,0.59620446,-0.8038987,-0.65393126,45.45752,-94.89191,-0.7456522,WAL
14574486036000,3.204981,0.965618842921258,10.5049745239431,-0.911398849168503,0.5757405,-0.81031275,-0.64934975,45.56362,-95.022316,-0.831183,WAL
14574490996000,3.209941,0.848660659675127,10.5325528883249,-0.906636778832487,0.5534439,-0.82924956,-0.64721173,45.68227,-95.15484,-0.94534445,WAL
14574496034000,3.214979,0.741789330862944,10.5459116091371,-0.884371910913706,0.5213735,-0.838718,-0.6423248,45.797848,-95.27478,-1.0545844,WAL
14574500962000,3.219907,0.661455784668969,10.5351434962579,-0.910334196488198,0.4896085,-0.8536842,-0.6435465,45.925297,-95.400764,-1.1959623,WAL
14574506046000,3.224991,0.614738761349069,10.4884265022069,-1.00843998155824,0.44532076,-0.8582657,-0.627664,46.0509,-95.50999,-1.327361,WAL
14574510950000,3.229895,0.564276069725542,10.4241805237999,-1.12620398090946,0.39645153,-0.86406887,-0.6072,46.18838,-95.6193,-1.4873177,WAL
14574516057000,3.235002,0.49988333217541,10.3152080881102,-1.29956894209034,0.35735616,-0.8197812,-0.5739079,46.311714,-95.71495,-1.6334457,WAL
14574520983000,3.239928,0.454757219298583,10.2611499691495,-1.43079488899255,0.31306845,-0.7840455,-0.5421429,46.434315,-95.8139,-1.781274,WAL
14574526102000,3.245047,0.44023813685868,10.302287434671,-1.49855062389062,0.27305678,-0.74281216,-0.514654,46.541794,-95.8988,-1.9153864,WAL
14574530958000,3.249903,0.426465004542179,10.3413113714892,-1.56282525734735,0.21624629,-0.74189585,-0.4981606,46.641296,-95.99392,-2.0516055,WAL
14574536051000,3.254996,0.412019666220939,10.3822398950096,-1.63023685293943,0.16187929,-0.7244862,-0.47494772,46.723892,-96.073265,-2.1726415,WAL
14574541035000,3.25998,0.488560760322017,10.5786118384396,-1.69482695621492,0.12705997,-0.698219,-0.44409904,46.807716,-96.15634,-2.2942657,WAL
14574546063000,3.265008,0.772095559968718,11.132390827123,-1.75685019739626,0.103847094,-0.68539083,-0.40591997,46.890015,-96.22284,-2.4035294,WAL
14574550993000,3.269938,1.02462652196486,11.6349522094649,-1.79578897324281,0.1133155,-0.68019843,-0.35643986,46.95923,-96.30311,-2.5024838,WAL
14574556030000,3.274975,1.10168467621805,11.861310191843,-1.68020179215256,0.13072516,-0.68966687,-0.28313604,47.029606,-96.36997,-2.5809,WAL
14574561009000,3.279954,1.16087277586207,12.0843066889267,-1.56287066755707,0.13927728,-0.7012733,-0.2434298,47.074112,-96.44259,-2.6221673,WAL
14574566052000,3.284997,1.09988725517241,12.3047930659543,-1.42213491463817,0.14996742,-0.70280045,-0.17073683,47.120193,-96.505424,-2.6326306,WAL
14574571096000,3.290041,1.04071390355178,12.5250742693347,-1.3043170888044,0.15515977,-0.7247916,-0.113926366,47.179634,-96.55964,-2.6402714,WAL
14574576066000,3.295011,1.00261744882441,12.7393665474737,-1.44241660666333,0.15149458,-0.73364913,-0.06780604,47.235996,-96.605385,-2.630408,WAL
14574581059000,3.300004,0.966626845204055,12.9581315939693,-1.58636263861884,0.12217305,-0.75136423,-0.020463986,47.32355,-96.6343,-2.6247058,WAL
14574586060000,3.305005,0.958327096165844,13.2195732661814,-1.79385595291569,0.06872234,-0.7315111,0.022602014,47.402176,-96.64983,-2.6070983,WAL
14574590984000,3.309929,0.950155137704705,13.4769895417208,-1.99815450912399,0.0125227375,-0.66614854,0.089491755,47.47595,-96.67393,-2.573931,WAL
14574596034000,3.314979,1.04870611705894,13.7043978040463,-2.00005004625169,-0.03634648,-0.57757306,0.1572978,47.53685,-96.68013,-2.5285761,WAL
14574600955000,3.3199,1.17850783604086,13.914440643247,-1.93632922008613,-0.050701816,-0.5317582,0.22999077,47.59176,-96.67309,-2.4642296,WAL
14574606053000,3.324998,1.31297830207822,14.1320383661175,-1.87031646418449,-0.06078109,-0.51068336,0.2837469,47.614662,-96.68231,-2.3894043,WAL
14574610956000,3.329901,1.442305233224,14.3413129120637,-1.80682871561921,-0.07238753,-0.48502702,0.33658674,47.624367,-96.681046,-2.2957335,WAL
14574616097000,3.335042,1.74844371969966,14.4235208767042,-1.72430775271685,-0.119729586,-0.45723262,0.39003745,47.636833,-96.67508,-2.1929917,WAL
14574620979000,3.339924,2.09025307670421,14.460473015412,-1.64116491007706,-0.19425514,-0.45234573,0.44043383,47.648937,-96.65568,-2.0797608,WAL
14574626060000,3.345005,2.44042394295369,14.5098054874776,-1.54711591280064,-0.26206118,-0.45540005,0.50610185,47.667767,-96.60536,-1.9128113,WAL
14574630993000,3.349938,2.77847318664281,14.5614519677996,-1.45321339958259,-0.33322698,-0.47067168,0.59223384,47.689964,-96.533485,-1.7316723,WAL
14574636052000,3.354997,2.93627315752338,14.5259806925475,-1.31379376552376,-0.39003745,-0.48563787,0.6630942,47.704815,-96.44344,-1.4994248,WAL
14574641058000,3.360003,3.02231153060357,14.4580556984982,-1.15983030382545,-0.45051312,-0.4990769,0.73548174,47.725384,-96.337296,-1.2503552,WAL
14574646055000,3.365,2.98870506363902,14.3025376124672,-0.974505069522513,-0.5174029,-0.5039638,0.8023715,47.739628,-96.21091,-0.94520104,WAL
14574651606000,3.370551,2.86980024682486,14.0698971080424,-0.747034719964991,-0.59589905,-0.5006041,0.8582657,47.75623,-96.078606,-0.632099,WAL
14574656065000,3.37501,2.66265121891117,13.7833186778096,-0.513605695859068,-0.7049385,-0.48197266,0.9086621,47.792133,-95.926476,-0.29738778,WAL
14574661042000,3.379987,2.35915689627507,13.398893359758,-0.220227940434044,-0.7626653,-0.46181414,0.93645644,47.82645,-95.78771,0.03730478,WAL
14574666738000,3.385683,1.9106234609042,12.9239519392551,0.0580196971101374,-0.8958339,-0.43035457,1.0277808,47.882404,-95.5982,0.3855056,WAL
14574671037000,3.389982,1.54163693458474,12.5549652845051,0.25071264563334,-1.1233811,-0.42119157,1.0555751,47.936123,-95.390785,0.71472096,WAL
14574676043000,3.394988,1.1372147504545,12.1388127368469,0.416521191322193,-1.2076806,-0.38606682,1.0968086,48.01165,-95.18012,1.0332673,WAL
14574681059000,3.400004,0.744659808649343,11.7286148406023,0.55325381879809,-1.368949,-0.35918877,1.1618657,48.085495,-94.920334,1.3587133,WAL
14574686103000,3.405048,0.322130480492156,11.3045277771968,0.651997593711678,-1.5512923,-0.3222314,1.2202033,48.18252,-94.628555,1.6353571,WAL
14574691067000,3.410012,-0.121432892845278,10.8755873818312,0.710489459791859,-1.704314,-0.29138273,1.271516,48.271774,-94.35,1.9218718,WAL
14574696027000,3.414972,-0.521491662205001,10.4769655166357,0.755943314765447,-1.865277,-0.28099802,1.3338243,48.388725,-94.04394,2.1673584,WAL
14574701050000,3.419995,-0.889307122442653,10.0992087203968,0.79073667766894,-2.019826,-0.26542094,1.4013249,48.493046,-93.7751,2.4227958,WAL
14574706058000,3.425003,-1.25198488115369,9.72115472026867,0.967719115306203,-2.1429152,-0.2837469,1.4718798,48.621197,-93.52206,2.6230562,WAL
14574711056000,3.430001,-1.61130242613591,9.34292549170289,1.23720730613196,-2.2198844,-0.33292156,1.5454891,48.751747,-93.35362,2.8366349,WAL
14574716049000,3.434994,-1.93570552978237,9.02435978942661,1.48808620152042,-2.2806654,-0.39492437,1.6123788,48.90345,-93.23457,2.9945374,WAL
14574720986000,3.439931,-2.23170917114181,8.75184896780284,1.7230096399682,-2.3014348,-0.44929138,1.6600263,49.06548,-93.22976,3.1612577,WAL
14574726022000,3.444967,-2.52174369718004,8.53070168763558,1.91127929793926,-2.3032675,-0.54061574,1.6844609,49.28069,-93.255196,3.2538223,WAL
14574731020000,3.449965,-2.80019251760994,8.3560811674226,2.05758295972195,-2.3307564,-0.67073005,1.7098118,49.522083,-86.612,3.355286,WAL
14574736017000,3.454962,-3.02758399370233,8.30174287072169,2.06381971580286,-2.3548856,-0.8210029,1.7150042,49.818832,-86.4422,3.4025345,WAL
14574741024000,3.459969,-3.21046004165852,8.35332339243106,1.94659133304322,-2.3564126,-0.9764681,1.7073684,50.15371,-86.19865,3.4504426,WAL
14574746020000,3.464965,-3.3192525727689,8.54750369087001,1.77767132855808,-2.3310618,-1.103528,1.6985108,50.56394,-85.82424,3.542738,WAL
14574751016000,3.469961,-3.35055066162041,8.89178182786656,1.55411403125876,-2.2962425,-1.1585059,1.7012597,50.99316,-85.40896,3.6317666,WAL
14574755999000,3.474944,-3.32415446442633,9.30464617855631,1.29145481011854,-2.2565362,-1.2308935,1.7033978,51.455414,-84.93375,3.7447727,WAL
14574761021000,3.479966,-3.186711924058,9.85441644633785,0.950393610711262,-2.235767,-1.2574661,1.7284433,51.912777,-84.44193,3.8602762,WAL
14574766014000,3.484959,-3.04277107318971,10.3931561729503,0.672496981627768,-2.2064452,-1.2168436,1.7486018,52.350327,-83.95405,3.9863818,WAL
14574771007000,3.489952,-2.89015339974067,10.9225481363455,0.467417131087173,-2.1997259,-1.1856894,1.7696766,52.790157,-83.461815,4.115262,WAL
14574775997000,3.494942,-2.72500488302472,11.4304385609307,0.215188952950073,-2.186592,-1.1291844,1.7999145,53.187656,-82.986725,4.275243,WAL
14574781022000,3.499967,-2.54305491865245,11.9156387257392,-0.0973918954745517,-2.1649065,-1.044885,1.8267925,53.560913,-82.5204,4.4328685,WAL
14574785978000,3.504923,-2.29214878798135,12.3729503324889,-0.364871679499392,-2.1190915,-0.97097033,1.8741345,53.903496,-82.06502,4.6285973,WAL
14574791398000,3.510343,-1.89238402227402,12.8358357986421,-0.585794295835022,-1.9938642,-0.9401216,1.9431623,54.226627,-81.63611,4.8307357,WAL
14574795961000,3.514906,-1.48776335567114,13.1448882419016,-0.735380619673328,-1.8613064,-0.9111055,2.012801,54.507023,-81.21933,5.0853887,WAL
14574801014000,3.519959,-0.944632850917055,13.3745048798248,-0.850188685039693,-1.7290541,-0.86345804,2.0983222,54.765144,-80.8286,5.354694,WAL
14574805966000,3.524911,-0.36293440635168,13.5759986468583,-0.915695719342426,-1.6035212,-0.77488256,2.2192733,54.97518,-80.446236,5.6957726,WAL
14574811021000,3.529966,0.415222001441792,13.6939010433512,-0.807225440701413,-1.491122,-0.6951646,2.3576343,55.165897,-80.08119,6.054552,WAL
14574815967000,3.534912,1.21195582783406,13.7889678739469,-0.697834338114536,-1.3793337,-0.5522222,2.5298984,55.28645,-79.69674,6.5090084,WAL
14574821004000,3.539949,2.20995570183428,13.778679007785,-0.56922611634318,-1.3084733,-0.4269948,2.6734517,55.38084,-79.31137,6.978373,WAL
14574826040000,3.544985,3.0689733708055,13.7587818176817,-0.473210915225933,-1.235475,-0.33261612,2.7956247,55.41467,-78.87801,7.5433292,WAL
14574831017000,3.549962,3.59336842454813,13.7166430547151,-0.454482508226915,-1.1856894,-0.17806722,2.881146,55.385956,-78.43565,8.112827,WAL
14574835992000,3.554937,3.98516691048839,13.5892473698959,-0.442963724783827,-1.1921035,-0.038789943,2.8958068,55.304558,-77.8519,8.825376,WAL
14574840999000,3.559944,3.98996585340272,13.210130478783,-0.452561625645516,-1.205848,0.124311075,2.853657,55.167732,-77.27637,9.5155945,WAL
14574846010000,3.564955,3.81926044856618,12.5812921025735,-0.521193067829044,-1.2174544,0.30482176,2.7733283,54.971146,-76.619446,10.270249,WAL
14574851014000,3.569959,3.14535254363971,11.2378809165441,-0.759042924472426,-1.2357804,0.41141775,2.7250698,54.748455,-75.97146,10.995176,WAL
14574856013000,3.574958,2.48891778939163,9.95409135256697,-0.974687433729057,-1.2504412,0.63285637,2.6303856,54.450066,-75.33102,11.679047,WAL
14574861039000,3.579984,2.01453075697518,9.30719998566437,-0.948811774549772,-1.2486086,0.8542951,2.5439484,54.12313,-74.714325,12.32577,WAL
14574867158000,3.586103,1.4483515539823,8.52579699763326,-0.903961670266516,-1.2403619,1.0888673,2.4107797,53.74379,-74.17529,12.864963,WAL
14574871006000,3.589951,1.19428139469027,8.08970630160527,-0.756070078210537,-1.1905763,1.1462886,2.361605,53.356052,-73.65989,13.385405,WAL
14574875996000,3.594941,0.864808916814159,7.52419367863758,-0.56428758227516,-1.1563679,1.2428054,2.2608123,52.911873,-73.131134,13.865315,WAL
14574881021000,3.599966,0.711358540055964,7.12699812819981,-0.266134793712095,-1.1053606,1.3319917,2.150551,52.461548,-72.64183,14.313102,WAL
14574886354000,3.605299,0.579112829837375,6.73735306923751,0.061826311446879,-1.0305296,1.3839152,2.080607,52.002987,-72.19006,14.72906,WAL
14574891019000,3.609964,0.670474417625864,6.64164084312007,0.344612109793359,-0.960891,1.4239268,2.0024164,51.537315,-71.74119,15.111923,WAL
14574896011000,3.614956,0.768240129574447,6.53921952848379,0.647220192396923,-0.88056225,1.4630222,1.9480493,51.064598,-71.28535,15.482967,WAL
14574901050000,3.619995,0.834179267785788,6.51050419941953,0.791467808767906,-0.8170323,1.4840971,1.894904,50.595726,-70.86859,15.82126,WAL
14574905973000,3.624918,0.895976150566426,6.48843389401741,0.919475649236963,-0.7360926,1.5008959,1.8237382,50.127125,-70.4961,16.128382,WAL
14574911060000,3.630005,0.97742626673622,6.6337860890748,1.06457706508858,-0.68691796,1.539075,1.7663169,49.67031,-70.10324,16.440351,WAL
14574916037000,3.634982,1.06186995783661,6.82143882849409,1.21000787078248,-0.67073005,1.5592335,1.7030923,49.225483,-69.74759,16.72224,WAL
14574921033000,3.639978,1.09935198542434,6.97304191308411,1.23124667166053,-0.6453791,1.5610662,1.636508,48.783443,-69.38188,17.007872,WAL
14574926119000,3.645064,1.12234245309166,7.1155830046729,1.21285429752667,-0.63071835,1.5586227,1.6001616,48.346416,-69.0359,17.275267,WAL
14574931039000,3.649984,1.13274013687233,7.18219025810635,1.16652361896267,-0.6105598,1.5488489,1.5384641,47.92481,-68.67985,17.54172,WAL
14574936077000,3.655022,1.13693889402141,7.21158155814986,1.10354221788356,-0.58551437,1.5082263,1.4972308,47.521175,-68.34147,17.797821,WAL
14574941207000,3.660152,1.14145377333066,7.22504799894726,1.07028069332264,-0.5589417,1.4566082,1.4517213,47.115242,-67.999504,18.052364,WAL
14574946102000,3.665047,1.14615383709645,7.21094785672749,1.0890809483858,-0.52778757,1.4162911,1.4043792,46.727207,-67.68227,18.289614,WAL
14574951445000,3.67039,1.12118934451291,7.16438896830086,1.10506979146353,-0.47555858,1.3897184,1.3603969,46.335415,-67.3666,18.529224,WAL
14574956114000,3.675059,1.0604089498686,7.08334824465791,1.11317383844132,-0.42241332,1.3301591,1.3304645,45.97299,-67.072464,18.758162,WAL
14574961166000,3.680111,0.978725056074191,6.98620800892229,1.1233116233474,-0.3912592,1.284955,1.276403,45.611248,-66.777435,18.981861,WAL
14574966093000,3.685038,0.821110126845992,6.84518428444093,1.13990265485232,-0.312763,1.2400564,1.2238685,45.27385,-66.51289,19.196136,WAL
14574971896000,3.690841,0.63583312456387,6.68085002259735,1.16152907285173,-0.22235495,1.2110404,1.1233811,44.939262,-66.267845,19.384203,WAL
14574976729000,3.695674,0.490270290456017,6.58666217965961,1.23002928162057,-0.09773844,1.2195925,1.0855075,44.61044,-66.04491,19.571009,WAL
14574981093000,3.700038,0.358833044843215,6.50161443569513,1.29188214962538,-0.056199603,1.2315043,1.0057896,44.28628,-65.85182,19.708225,WAL
14574986491000,3.705436,0.0663295454999089,6.34213245756693,1.48542888966491,0.0067195175,1.2538009,0.92179567,43.963795,-65.69675,19.829304,WAL
14574991031000,3.709976,-0.218724776408669,6.19168706037152,1.68338326609907,0.057726767,1.2760975,0.82833326,43.64861,-65.57149,19.922165,WAL
14574996010000,3.714955,-0.380958600719157,6.08014997089275,1.80827689587725,0.09743301,1.2935071,0.7449502,43.32053,-65.4675,19.97757,WAL
14575001156000,3.720101,-0.396235180727423,6.01904371998347,1.84392225100227,0.116980694,1.2968669,0.63713247,43.00341,-65.39914,19.998127,WAL
14575005963000,3.724908,-0.410505394505063,5.96196292944307,1.87721941813908,0.13805555,1.2788464,0.54641896,42.674625,-65.356346,19.95444,WAL
14575011087000,3.730032,-0.425716664610457,5.90111791784976,1.91271238348316,0.15485434,1.2696834,0.45845437,42.354774,-65.34249,19.879534,WAL
14575015960000,3.734905,-0.224330207778059,5.7866497985204,1.90080667063593,0.17470746,1.2608259,0.37507126,42.040577,-65.343895,19.785486,WAL
14575020955000,3.7399,0.107747440435774,5.63636651042817,1.86202385558652,0.2049453,1.2571607,0.2910773,41.738895,-65.371284,19.666819,WAL
14575026009000,3.744954,0.443747527337218,5.48430810441855,1.82278294522422,0.2406809,1.2483032,0.2125811,41.438015,-65.40464,19.52899,WAL
14575030941000,3.749886,0.771636808816823,5.33592028122118,1.78448928279706,0.28130344,1.2431108,0.15088372,41.14707,-65.45934,19.372797,WAL
14575035921000,3.754866,1.07647840595967,5.19349657845891,1.80054052278519,0.3323107,1.241889,0.07238753,40.861126,-65.53463,19.194544,WAL
14575040918000,3.759863,1.36936226714157,5.05425665496137,1.84375291629377,0.3811799,1.2428054,0.007330383,40.584457,-65.62663,19.00414,WAL
14575046222000,3.765167,1.62563609256576,4.95637069121588,1.94157950327543,0.42821655,1.2095132,-0.065973446,40.345127,-65.603424,18.960567,WAL
14575050934000,3.769879,1.83167008148883,4.88918575583127,2.04907554019851,0.4905248,1.1869112,-0.0983493,40.10896,-65.59726,18.910345,WAL
14575055924000,3.774869,2.00275356262887,4.84312176472046,2.20348110363799,0.5006041,1.1453724,-0.17837265,39.917686,-65.50157,18.93973,WAL
14575060939000,3.779884,2.15034061804124,4.80979562817209,2.37963332662569,0.5571091,1.07665,-0.26419923,39.74662,-65.43777,18.960352,WAL
14575066312000,3.785257,2.23678030476615,4.80139173841657,2.56489883664289,0.59650993,1.0030408,-0.3494149,39.614475,-65.26216,19.067308,WAL
14575070928000,3.789873,2.28058377547562,4.80577204432224,2.7225915873365,0.6258314,0.91354895,-0.4428773,39.513622,-65.127914,19.14632,WAL
14575075959000,3.794904,2.32535232064247,4.84943060648424,2.88555282373587,0.6575964,0.83291477,-0.52778757,39.402573,-64.98227,19.218525,WAL
14575080937000,3.799882,2.36789260291493,4.91560419793774,3.04153351324608,0.68233645,0.7849618,-0.59589905,39.314426,-64.868866,19.266525,WAL
14575085931000,3.804876,2.43943729141295,5.01288835610331,3.16317904630974,0.70616025,0.7528914,-0.6740898,39.22928,-64.76095,19.287054,WAL
14575090970000,3.809915,2.53041197403148,5.1311555717504,3.26325123993779,0.7305948,0.7498371,-0.74281216,39.155674,-64.679924,19.286993,WAL
14575095933000,3.814878,2.61183906166667,5.28339224007157,3.34449619679959,0.7415904,0.763887,-0.7825184,39.06928,-64.597015,19.26385,WAL
14575101061000,3.820006,2.687160835,5.4792289346319,3.40977506003067,0.7675522,0.80848014,-0.8210029,38.983604,-64.54364,19.215685,WAL
14575105995000,3.82494,2.77054130297968,5.71123652767683,3.51162957708089,0.7974846,0.8756753,-0.84757555,38.872223,-64.49126,19.152256,WAL
14575111027000,3.829972,2.86470021872802,5.98429710313599,3.64815988939039,0.83199847,0.9660834,-0.8561276,38.74753,-64.455,19.07485,WAL
14575116413000,3.835358,3.0604234049721,6.34595118832204,3.88696017357513,0.84971356,1.0564915,-0.870483,38.611122,-64.43261,18.98151,WAL
14575121008000,3.839953,3.29720028445596,6.70550142227979,4.15881513471503,0.8765916,1.1517864,-0.8542951,38.450592,-64.41799,18.884954,WAL
14575126102000,3.845047,3.62290443791712,7.19528893553499,4.47996964453194,0.8897252,1.2339478,-0.82986045,38.241375,-64.40105,18.7622,WAL
14575131034000,3.849979,3.99950242307314,7.75786089690914,4.81007395357811,0.90041536,1.3179418,-0.79198676,38.009937,-64.38621,18.639627,WAL
14575136007000,3.854952,4.47316723033285,8.46815316497829,5.10810791806078,0.89888823,1.3790283,-0.7449502,37.745808,-64.352,18.516819,WAL
14575141068000,3.860013,5.06703722610709,9.3612963748191,5.36997187050651,0.8872818,1.4443909,-0.6658431,37.45986,-64.3079,18.40614,WAL
14575145999000,3.864944,5.64996082249557,10.2541992865996,5.57890798082192,0.8344419,1.4810427,-0.6227771,37.14777,-64.24823,18.295393,WAL
14575151014000,3.869959,6.24969163844935,11.1985514529867,5.71765173424658,0.8020661,1.5048665,-0.52595496,36.81861,-64.16883,18.21685,WAL
14575155991000,3.874936,6.81030456369217,12.099372469305,5.84747522376672,0.72326446,1.5628988,-0.39736784,36.446568,-64.04607,18.190384,WAL
14575161070000,3.880015,7.26887612639772,12.8992072312541,5.95411969165753,0.6227771,1.5705346,-0.22785273,36.078808,-63.89408,18.201843,WAL
14575165958000,3.884903,7.51794126604434,13.3896697219953,6.11040766511085,0.52320606,1.5534303,-0.0580322,35.662594,-63.724762,18.27436,WAL
14575170993000,3.889938,7.49449747569039,13.488133739401,6.34953452255932,0.44226643,1.484708,0.11209377,35.252125,-63.517223,18.391087,WAL
14575176088000,3.895033,7.38981425659093,13.4633036150535,6.61025775838255,0.37782016,1.3692545,0.25778514,34.823967,-63.29369,18.55612,WAL
14575181096000,3.900041,7.14979496691022,13.228084506656,6.8982808157742,0.33383787,1.2351695,0.37873647,34.41537,-63.04249,18.7593,WAL
14575186085000,3.90503,6.89457430597697,12.9792684124869,7.17477725105168,0.2874121,1.0928379,0.46822822,34.027363,-62.77244,18.96002,WAL
14575191065000,3.91001,6.61314913589988,12.7069216113067,7.43350709134863,0.24251351,0.93523467,0.5164866,33.680725,-62.492126,19.18727,WAL
14575196005000,3.91495,6.32856163432392,12.4228689895988,7.65618049450223,0.18784106,0.79351395,0.5384777,33.365932,-62.2067,19.378521,WAL
14575201017000,3.919962,6.0242591589995,12.0947927538385,7.78455799655275,0.14110987,0.6795876,0.5314528,33.090565,-61.92337,19.580524,WAL
14575205996000,3.924941,5.70588618878963,11.7561982014332,7.82819391008148,0.07086037,0.59773165,0.5119051,32.848267,-61.64529,19.728783,WAL
14575211027000,3.929972,5.33224403685089,11.3730964656916,7.60117071414548,0.00030543262,0.6062838,0.4831944,32.61705,-61.37201,19.870516,WAL
14575216030000,3.934975,4.88508399768076,11.0235507480998,7.30730586044631,-0.08399397,0.66614854,0.45478916,32.39349,-61.10211,19.95854,WAL
14575221000000,3.939945,4.15225580259209,10.7962814916196,6.75536576017346,-0.12705997,0.73456544,0.4266894,32.170944,-60.841465,20.034685,WAL
14575226091000,3.945036,3.39889569625668,10.6605223048128,6.16848786256684,-0.14019357,0.79443026,0.37812558,31.9414,-60.613243,20.057365,WAL
14575231104000,3.950049,2.64351670939942,11.0159952483546,5.48222842284039,-0.0571159,0.8765916,0.30298916,31.696827,-60.41435,20.055092,WAL
14575236010000,3.954955,2.03474050338598,11.4677626540967,4.92984887003949,0.08002335,1.0048733,0.22632557,31.44907,-60.308994,19.962618,WAL
14575241024000,3.959969,1.91623582605133,12.3304765427443,4.8255648470385,0.21013765,1.0986412,0.15607607,31.203176,-60.237156,19.849087,WAL
14575246013000,3.964958,1.83053524504897,13.1528322861806,4.73661166539717,0.25625798,1.2425,0.12217305,30.926767,-60.29124,19.62592,WAL
14575251012000,3.969957,1.89131167093761,13.8126907668662,4.71490581519768,0.24709499,1.2012665,0.06414085,30.69442,-60.376556,19.39527,WAL
14575256353000,3.975298,1.94201061512368,14.5060301720848,4.66465633180212,0.24312437,0.8949176,-0.04886922,30.523117,-60.53995,19.127283,WAL
14575260995000,3.97994,1.68674473872792,14.8634022514134,4.05201813003534,0.30970868,0.4352415,-0.09193522,30.408594,-60.70988,18.892824,WAL
14575266833000,3.985778,1.36571023067138,15.3128503770318,3.2815351869258,0.47219884,-0.1826487,-0.20616703,30.429266,-60.975433,18.64279,WAL
14575270996000,3.989941,0.958793002340127,15.2954831391136,2.83357194338402,0.7495316,-0.30726522,-0.23915374,30.43563,-61.266823,18.406086,WAL
14575275981000,3.994926,0.433664221481721,15.2028131019088,2.31873981899062,0.81153446,-0.46609017,-0.27763826,30.634602,-61.561806,18.21421,WAL
14575281020000,3.999965,0.200984136099384,14.5217090683729,2.4480056960396,0.88208944,-0.5540548,-0.28863382,30.847479,-61.996082,18.002714,WAL
14575286033000,4.004978,0.0216135644909396,13.7414472776013,2.69015593118812,0.84879726,-0.6985244,-0.28008172,31.118435,-62.41583,17.810984,WAL
14575291006000,4.009951,0.0364154115303095,12.6140283724036,2.74726270676134,0.74067414,-0.92087936,-0.26816985,31.447819,-62.88618,17.592503,WAL
14575295968000,4.014913,0.127064210199237,11.349980958457,2.73215463675286,0.6392705,-1.102001,-0.26847526,31.801853,-63.34375,17.383278,WAL
14575301687000,4.020632,-0.177878795056025,10.2672949974936,2.26294373666208,0.593761,-1.1606439,-0.28619036,32.17059,-63.74421,17.169508,WAL
14575306039000,4.024984,-0.468733597650875,9.49714477614508,1.84099941364262,0.6252206,-1.0256428,-0.3109304,32.53098,-64.13504,16.951853,WAL
14575311020000,4.029965,-1.01123057955222,8.90175677231671,1.64068631590276,0.6740898,-0.7834347,-0.35430184,32.85415,-64.462494,16.761728,WAL
14575315987000,4.034932,-1.60543063704238,8.38068878581724,1.51270476212165,0.73884153,-0.5708536,-0.43371433,33.14881,-64.80666,16.544167,WAL
14575321011000,4.039956,-1.90821496017155,7.76001350596681,1.4177102576543,0.79473567,-0.514654,-0.5342017,33.425846,-65.195694,16.29059,WAL
14575326132000,4.045077,-2.09110823336752,7.08788082365281,1.33540834917024,0.8524625,-0.6017023,-0.6600399,33.690075,-65.61466,16.001173,WAL
14575331016000,4.049961,-2.01385096056102,6.70793574099854,0.85944278475089,0.8943067,-0.82527894,-0.8023715,34.01505,-66.095024,15.62635,WAL
14575336002000,4.054947,-1.74896211727025,6.51301753260415,0.0797699877046264,0.9443977,-1.0928379,-0.93309665,34.383694,-66.60695,15.230258,WAL
14575341059000,4.060004,-1.55455704542784,6.4072196433162,-0.71145156844473,1.0161743,-1.2202033,-1.072374,34.787773,-67.15017,14.792829,WAL
14575346022000,4.064967,-1.40182668951524,6.35049121368895,-1.48819459102185,1.0629056,-1.4285084,-1.1307116,35.289833,-67.70351,14.368629,WAL
14575351014000,4.069959,-1.25930888216428,6.39793267759354,-2.19271052535181,1.1743884,-1.5176947,-1.2238685,35.80227,-68.356995,13.955323,WAL
14575356003000,4.074948,-1.12900808825134,6.55950552707538,-2.81294222165376,1.2843442,-1.5045611,-1.3075571,36.342514,-69.02679,13.532003,WAL
14575361022000,4.079967,-1.01642017380031,6.75208036499613,-3.18828902784443,1.3674219,-1.4059063,-1.3796391,36.886467,-69.79507,13.130594,WAL
14575366015000,4.08496,-0.914642486938854,6.96026194451432,-3.42422813197562,1.4001031,-1.2409728,-1.4425583,37.406433,-70.58878,12.695862,WAL
14575371728000,4.090673,-0.830528112141937,7.18848075892556,-3.61984112645455,1.3878858,-1.0549643,-1.4908166,37.889164,-71.44945,12.261741,WAL
14575376048000,4.094993,-0.781319890910893,7.35660895874715,-3.73466029505402,1.3316863,-0.83291477,-1.529912,38.30988,-72.31556,11.793298,WAL
14575381064000,4.100009,-0.653814632499752,7.72780614331115,-3.82215974750223,1.2525792,-0.58062744,-1.5656476,38.66094,-73.20362,11.311239,WAL
14575386013000,4.104958,-0.474945504445327,8.2267571571159,-3.87393771999206,1.1600331,-0.31215215,-1.6041322,38.937065,-74.08111,10.800754,WAL
14575391058000,4.110003,-0.109107051310774,8.88678914157915,-3.83589667662388,1.0757337,-0.053450707,-1.6111571,39.134304,-74.954704,10.283391,WAL
14575396041000,4.114986,0.401330061752237,9.66172510598989,-3.72452856478024,1.0241156,0.19425514,-1.5763378,39.24826,-75.80988,9.7546215,WAL
14575401036000,4.119981,1.00894526204539,10.4154754608067,-3.4739835692201,1.0207558,0.41172317,-1.5082263,39.28028,-76.646324,9.246631,WAL
14575406092000,4.125037,1.72390219206223,11.1544245663462,-3.07571897700922,1.0500773,0.56199604,-1.4025466,39.24857,-77.45622,8.755627,WAL
