timestamp,rel_time,acc_x,acc_y,acc_z,gyro_x,gyro_y,gyro_z,azimuth,pitch,roll,label
7273911031000,0,1.23741838066408,9.78548667735361,0.768154801655234,-0.043066,0.027183503,0.02076942,137.46446,-83.392784,0.16734667,STD
7273915740000,0.004709,1.23312634453378,9.78612791812923,0.769338962417884,-0.05222898,0.023823744,0.023518313,137.53212,-83.445755,0.2935645,STD
7273920784000,0.009753,1.20944491537406,9.77191876389842,0.802493012697323,-0.042760566,0.01985312,0.024129177,137.59865,-83.49868,0.4160868,STD
7273925825000,0.014794,1.18624890397315,9.75717200912752,0.83126941095302,-0.043676864,0.025045475,0.02443461,137.66188,-83.54261,0.5348166,STD
7273930782000,0.019751,1.16925657412081,9.73593165225951,0.805780982711409,-0.04886922,0.027488936,0.027794369,137.72609,-83.58366,0.6516175,STD
7273935748000,0.024717,1.15223339275168,9.7146527310962,0.780246277315436,-0.03970624,0.03359759,0.025350908,137.78537,-83.61745,0.7594009,STD
7273940782000,0.029751,1.11340223114934,9.6870055376613,0.986629499669901,-0.052839845,0.025961773,0.02076942,137.84714,-83.64004,0.86500967,STD
7273945763000,0.034732,1.0704575110133,9.65837562458738,1.23952628456537,-0.048563786,0.028099801,0.017715093,137.90373,-83.66697,0.9670606,STD
7273950852000,0.039821,1.09246910111828,9.67182318819893,1.18392014529503,-0.049785517,0.028099801,0.02076942,137.9587,-83.69041,1.0629988,STD
7273955740000,0.044709,1.12651684974998,9.69310303109373,1.06900894922266,-0.042455133,0.031154128,0.022296581,138.01167,-83.7149,1.1550446,STD
7273960783000,0.049752,1.16938158748525,9.71617577821471,0.82247557963429,-0.044898596,0.02076942,0.02107485,138.0906,-83.708046,1.2541673,STD
7273965778000,0.054747,1.2164088839363,9.73968940188754,0.502690081620134,-0.040317107,0.023518313,0.02321288,138.16353,-83.70235,1.3512628,STD
7273970776000,0.059745,1.22651748816199,9.73733491277259,0.607615072170301,-0.044898596,0.024740042,0.023823744,138.2262,-83.710236,1.4539139,STD
7273975779000,0.064748,1.21159140392523,9.71743357102804,1.00066890428037,-0.040011674,0.024740042,0.009468411,138.2879,-83.719955,1.5498567,STD
7273982431000,0.0714,1.25909356882394,9.70611682602644,0.977580697842728,-0.042760566,0.015271631,0.021991149,138.3256,-83.758514,1.6395717,STD
7273985781000,0.07475,1.29417711738741,9.70292734894125,0.875519482612586,-0.05222898,0.022296581,0.02565634,138.35898,-83.795456,1.7201787,STD
7273990779000,0.079748,1.31517719792,9.6981506656,0.67218456102,-0.058643065,0.015271631,0.028099801,138.42966,-83.78142,1.8211783,STD
7273995778000,0.084747,1.31996464024,9.6933636232,0.44238717969,-0.05497787,0.018020526,0.02687807,138.49464,-83.765465,1.9188442,STD
7274000833000,0.089802,1.28329979303205,9.67896220883934,0.60648280635875,-0.049480084,0.0290161,0.024129177,138.54222,-83.7552,2.0130367,STD
7274005828000,0.094797,1.22615925037826,9.65991498009158,0.968372863426239,-0.06047566,0.027488936,0.030848695,138.5919,-83.739075,2.1075797,STD
7274010773000,0.099742,1.21582650235733,9.66256999341911,0.951474268323347,-0.070554934,0.019547688,0.028405234,138.61467,-83.75001,2.1868198,STD
7274015802000,0.104771,1.23001815166487,9.67676193910225,0.733868830753364,-0.06688975,0.02443461,0.03145956,138.63382,-83.75886,2.2673793,STD
7274020779000,0.109748,1.24124689248584,9.69674898121459,0.551963348482258,-0.063224554,0.017715093,0.029626964,138.68095,-83.71965,2.353994,STD
7274026534000,0.115503,1.25220295729053,9.72413914322632,0.365710098079714,-0.067500606,0.016187929,0.029626964,138.72478,-83.678375,2.4394438,STD
7274030762000,0.119731,1.24876069580505,9.73873738514541,0.273402362872631,-0.0711658,0.0125227375,0.022907447,138.75581,-83.66776,2.5118144,STD
7274035776000,0.124745,1.23902960345526,9.75333382044787,0.185822465677374,-0.07544186,0.005497787,0.029932396,138.78767,-83.65343,2.5864515,STD
7274040777000,0.129746,1.22945759598652,9.76769194242394,0.174055686474086,-0.07086037,0.009773844,0.03481932,138.8063,-83.66285,2.6504235,STD
7274045769000,0.134738,1.21998234366267,9.78190511772867,0.207219089395501,-0.071776666,0.013744468,0.025045475,138.82713,-83.66954,2.7109468,STD
7274050881000,0.13985,1.22390362882273,9.77474845196211,0.207517993974966,-0.06994407,0.020463986,0.027794369,138.83849,-83.68838,2.7693026,STD
7274055870000,0.144839,1.23602608870095,9.75454435216509,0.18731388151979,-0.07513642,0.024740042,0.023518313,138.84987,-83.70601,2.8215613,STD
7274060697000,0.149666,1.24722876465934,9.74185685880177,0.18752865653273,-0.07422013,0.018020526,0.02565634,138.86084,-83.71905,2.8768532,STD
7274065776000,0.154745,1.25722577220738,9.7518538402528,0.255008680611448,-0.079107046,0.021991149,0.02107485,138.86786,-83.72977,2.9273705,STD
7274070668000,0.159637,1.2668547072192,9.76148275012845,0.320004206855411,-0.08460484,0.013133603,0.024129177,138.87993,-83.7396,2.981522,STD
7274075790000,0.164759,1.27693635176755,9.77156436835885,0.388055532575275,-0.067500606,0.018020526,0.021991149,138.88724,-83.754295,3.0312412,STD
7274080700000,0.169669,1.28169661038914,9.78164255539773,0.455419042504625,-0.06994407,0.021685716,0.024740042,138.89862,-83.759575,3.0777218,STD
7274085782000,0.174751,1.27687342775832,9.79289658664773,0.529374817286602,-0.067500606,0.025350908,0.022296581,138.90878,-83.7706,3.1210098,STD
7274090673000,0.179642,1.27223151783166,9.80372765056818,0.600551065704281,-0.0729984,0.014660766,0.014660766,138.93591,-83.7598,3.168214,STD
7274096336000,0.185305,1.2668569245144,9.81626829971591,0.68296183953158,-0.0720821,0.013133603,0.015882496,138.95905,-83.74997,3.2158365,STD
7274100702000,0.189671,1.26271327725621,9.82593675710227,0.746498028570957,-0.077579886,0.012217305,0.014049901,138.98515,-83.738495,3.2597039,STD
7274105740000,0.194709,1.25793185378237,9.83709335085227,0.819813493614561,-0.069027774,0.014966198,0.010995574,139.01047,-83.73044,3.3025482,STD
7274110709000,0.199678,1.2545617,9.84107245744934,0.894149567313468,-0.06780604,0.008246681,0.015577064,139.04073,-83.71961,3.3465261,STD
7274115740000,0.204709,1.2545617,9.82729027580453,0.974546818197854,-0.0580322,0.015271631,0.011301007,139.06636,-83.71445,3.3857872,STD
7274120706000,0.209675,1.2545617,9.81368615852205,1.05390534491061,-0.06566802,0.007941248,0.012217305,139.11174,-83.675575,3.432293,STD
7274125742000,0.214711,1.2545617,9.79989027961859,1.13438249765435,-0.05955936,0.01160644,0.0030543262,139.1519,-83.64497,3.4732373,STD
7274130745000,0.219714,1.25591901469573,9.78613965223395,1.21165454259789,-0.056199603,0.015577064,0.008246681,139.19322,-83.60986,3.517779,STD
7274135794000,0.224763,1.27022607502712,9.77183224331788,1.26411399620278,-0.0580322,0.005192355,0.0036651916,139.23764,-83.57831,3.5563514,STD
7274140786000,0.229755,1.28544466873156,9.75984235309735,1.31130504625369,-0.049480084,0.0036651916,0.003970624,139.29831,-83.52882,3.5985522,STD
7274145761000,0.23473,1.3135536633235,9.77389709498525,1.30193541400197,-0.057726767,-0.007330383,-0.004886922,139.36421,-83.477844,3.6367393,STD
7274150975000,0.239944,1.34151291271573,9.78863685320373,1.28944938881174,-0.053145275,-0.012217305,-0.007941248,139.4325,-83.42282,3.6816094,STD
7274155750000,0.244719,1.35058437075977,9.80224385082325,1.24862778025193,-0.058643065,-0.009773844,-0.016798794,139.50127,-83.36666,3.721778,STD
7274161044000,0.250013,1.36229090198511,9.81724882795699,1.19952479760132,-0.06078109,-0.013133603,-0.023823744,139.57419,-83.31145,3.7641199,STD
7274166066000,0.255035,1.39323137890819,9.83050882795699,1.10670341298594,-0.058948494,0.0027488936,-0.03481932,139.64032,-83.25877,3.8016496,STD
7274170689000,0.259658,1.42171362200165,9.84271531541219,1.02125672619245,-0.06047566,0.013439035,-0.035430185,139.70497,-83.20977,3.8398957,STD
7274175745000,0.264714,1.528641466951,9.96068154042998,0.840745103055096,-0.052839845,0.034208454,-0.028405234,139.76144,-83.16454,3.8759992,STD
7274180720000,0.269689,1.64890374543476,10.097531929933,0.645837212681696,-0.062308256,0.052534413,-0.029626964,139.81506,-83.11704,3.908897,STD
7274185736000,0.274705,1.73724356958569,10.2017072099812,0.512025510998117,-0.06291912,0.07391469,-0.035430185,139.85583,-83.08293,3.943246,STD
7274190749000,0.279718,1.79751794519774,10.2770506384181,0.431659683841808,-0.05467244,0.10048734,-0.03848451,139.88943,-83.04897,3.976716,STD
7274195749000,0.284718,1.85533617415708,10.343366288902,0.33074014412661,-0.05497787,0.1301143,-0.035430185,139.91402,-83.03023,4.014048,STD
7274200773000,0.289742,1.91209097812838,10.4048504088273,0.217230555938268,-0.058337633,0.12980886,-0.027794369,139.93942,-83.012535,4.0512056,STD
7274205742000,0.294711,1.93977444072881,10.4501806530781,0.0856016875641851,-0.061086524,0.12858713,-0.03176499,139.95479,-83.001,4.090221,STD
7274210741000,0.29971,1.9485854139873,10.4854243621055,-0.0597794724045275,-0.051618114,0.12034045,-0.04337143,139.9723,-82.99155,4.1285515,STD
7274215729000,0.304698,1.94073559469405,10.5036016829268,-0.195384067205819,-0.032375857,0.105068825,-0.04795292,139.98781,-82.99207,4.1705046,STD
7274220748000,0.309717,1.90988447604835,10.4984602682927,-0.318788412931108,-0.015577064,0.093767814,-0.061391957,140.00517,-82.99733,4.205939,STD
7274225742000,0.314711,1.88313297403609,10.4700315480722,-0.417949566504289,0.00061086525,0.06505715,-0.064446285,140.02182,-83.02591,4.2395372,STD
7274230772000,0.319741,1.85938220783946,10.4225300156789,-0.498702241013707,0.024740042,0.037873644,-0.09193522,140.0423,-83.0655,4.2620125,STD
7274235763000,0.324732,1.83564303260022,10.3826599597121,-0.533765066520044,0.05497787,-0.012217305,-0.10903945,140.0673,-83.12655,4.2822227,STD
7274240787000,0.329756,1.81159332591223,10.3489901694492,-0.528955125182445,0.103847094,-0.07238753,-0.12370021,140.10341,-83.19948,4.2959714,STD
7274245789000,0.334758,1.79537403443532,10.3359078856775,-0.531790065564684,0.15577064,-0.13958271,-0.13836098,140.14935,-83.29302,4.3006577,STD
7274250855000,0.339824,1.78576974485796,10.3407101307532,-0.541394355142037,0.20066923,-0.22999077,-0.16432275,140.21907,-83.39735,4.3000097,STD
7274255819000,0.344788,1.78865766913964,10.3466377332544,-0.58027867651118,0.25900686,-0.28221974,-0.17379116,140.29262,-83.512726,4.298563,STD
7274260789000,0.349758,1.80275412878721,10.3536858649489,-0.64606219411817,0.2874121,-0.34513888,-0.1966986,140.39453,-83.634544,4.2884836,STD
7274265762000,0.354731,1.81685909736413,10.3607382510489,-0.711885420085888,0.3231477,-0.41050145,-0.22052236,140.5092,-83.7702,4.2748833,STD
7274270780000,0.359749,1.83109169988153,10.3678544532307,-0.778304271464534,0.3811799,-0.45570546,-0.24129178,140.63443,-83.915054,4.256814,STD
7274275739000,0.364708,1.84512203048601,10.3674320461463,-0.86927974413353,0.43401974,-0.47983465,-0.26542094,140.77394,-84.06716,4.2298603,STD
7274280775000,0.369744,1.85932785222386,10.3579617949926,-0.992396984530191,0.4981606,-0.49235737,-0.29657507,140.92093,-84.23262,4.1961536,STD
7274285699000,0.374668,1.85250320242028,10.3188369677295,-1.10607613054168,0.58062744,-0.49541172,-0.31123585,141.06425,-84.41977,4.1632433,STD
7274290782000,0.379751,1.81510107072609,10.2346813903189,-1.2136072591625,0.68600166,-0.48838675,-0.32253686,141.20581,-84.620285,4.1229706,STD
7274295706000,0.384675,1.77660700766109,10.132625414003,-1.32922764941654,0.77091193,-0.49632803,-0.3387248,141.34386,-84.83855,4.0769525,STD
7274300843000,0.389812,1.73167908192796,9.98286583531202,-1.47399539852867,0.8753699,-0.4896085,-0.3481932,141.47252,-85.06622,4.029648,STD
7274305955000,0.394924,1.71423611356953,9.82588940501332,-1.62605823222145,0.9639453,-0.49266282,-0.35979962,141.59644,-85.31041,3.9681509,STD
7274310783000,0.399752,1.73705106985098,9.66618471104313,-1.78120003022797,1.0516045,-0.4578435,-0.3643811,141.70415,-85.55044,3.9059422,STD
7274315733000,0.404702,1.78854433767988,9.49975806138032,-1.92418438032305,1.1175779,-0.42730024,-0.36377025,141.80669,-85.7957,3.8331418,STD
7274320784000,0.409753,1.89745932511013,9.32454695594714,-2.03783484713656,1.1942415,-0.41416663,-0.35613444,141.90076,-86.018684,3.7615423,STD
7274325719000,0.414688,1.92732116948034,9.14264306488865,-2.16071148770965,1.271516,-0.4343252,-0.31398472,141.98628,-86.20222,3.7023032,STD
7274330766000,0.419735,1.76784637709651,8.93001037842544,-2.31575633609202,1.3454307,-0.36987892,-0.32742378,142.04062,-86.35097,3.6293607,STD
7274335741000,0.42471,1.6097553733551,8.73608898036315,-2.44304991415893,1.3585643,-0.26389378,-0.36010507,142.08899,-93.58186,3.5804353,STD
7274340781000,0.42975,1.44234938008773,8.66715696771396,-2.36427054457819,1.3225232,-0.17745635,-0.36926803,142.12112,-93.58139,3.534607,STD
7274345801000,0.43477,1.27499775577889,8.59582548187013,-2.24277498247118,1.2702943,-0.13988814,-0.355829,142.1187,-93.62179,3.4573798,STD
7274351730000,0.440699,1.07358754020101,8.49512040329097,-1.8343599448123,1.2437216,-0.14905111,-0.3484986,142.10187,-93.7226,3.3765674,STD
7274355745000,0.444714,0.935787265336833,8.43323744706912,-1.5280326952056,1.2220359,-0.22143865,-0.3472769,142.0845,-93.85089,3.2747958,STD
7274360779000,0.449748,0.753015208795567,8.40043252260134,-0.932851898961796,1.2260065,-0.38698313,-0.35094208,142.09373,-94.02564,3.1732662,STD
7274365800000,0.454769,0.575663353191792,8.3669737151106,-0.344250333880252,1.2421945,-0.61758476,-0.36865717,142.15498,-94.181404,3.046576,STD
7274370783000,0.459752,0.461203617436262,8.3245808105179,0.177177315323799,1.2840388,-0.91415983,-0.3680463,142.27905,-94.373024,2.9215877,STD
7274375755000,0.464724,0.346996552179089,8.28228148849605,0.697453910114595,1.3093897,-1.1731668,-0.37995818,142.47441,-94.472305,2.7620676,STD
7274380783000,0.469752,0.321634929253066,8.18290119468937,0.894287585041046,1.3206906,-1.3713925,-0.38789943,142.73045,-94.5929,2.6033394,STD
7274385684000,0.474653,0.316878063455964,8.07349321181717,1.01320904618729,1.2782356,-1.5100589,-0.40011674,143.0353,-94.7161,2.4403002,STD
7274390782000,0.479751,0.431533612937359,8.010284196627,0.564333735012686,1.1667526,-1.4871514,-0.40133846,143.3817,-94.749466,2.2766175,STD
7274395705000,0.484674,0.565986566881699,7.95928498593765,0.0172493652248992,1.0012082,-1.3057245,-0.39920044,143.71263,-94.763695,2.1180851,STD
7274400775000,0.489744,0.901390178363285,7.98452018509815,-0.660945275511197,0.8188649,-1.047023,-0.38728857,144.02464,-94.74946,1.9778485,STD
7274405766000,0.494735,1.28021377534605,8.02856940526219,-1.35692343061911,0.6704246,-0.77549344,-0.3491095,144.27515,-94.70785,1.8562559,STD
7274410779000,0.499748,1.66433409486738,8.05921788341473,-1.84999000290147,0.550695,-0.5323691,-0.3118467,144.43369,-94.710785,1.7470198,STD
7274415785000,0.504754,2.0499594142392,8.08217175720578,-2.2264338686297,0.44776422,-0.3903429,-0.2611449,144.54108,-94.68687,1.6604155,STD
7274421351000,0.51032,2.37076468304187,8.19734053577107,-2.42466789984102,0.35643986,-0.44684792,-0.20799962,144.65999,-94.81025,1.6335893,STD
7274425788000,0.514757,2.56892693439322,8.33695507901431,-2.46520105875994,0.25045475,-0.43951756,-0.14477506,144.72015,-94.90558,1.6293664,STD
7274430765000,0.519734,2.67476261367479,8.49344394808553,-2.32572969115863,0.1872302,-0.4343252,-0.09193522,144.814,-95.070114,1.687391,STD
7274435730000,0.524699,2.72205133769269,8.64949678672302,-2.09401474595724,0.16554448,-0.47769663,-0.049785517,144.92032,-95.21955,1.7592583,STD
7274440741000,0.52971,2.76049406112766,8.81602954660512,-1.89426648611277,0.11148291,-0.5009095,-0.014049901,145.04013,-95.3588,1.8756797,STD
7274445782000,0.534751,2.79403947919396,8.98854868939845,-1.7121626379194,0.077579886,-0.5516113,0.01038471,145.18082,-95.499,1.998083,STD
7274450864000,0.539833,2.80288423936508,9.17176462539683,-1.58168942666667,0.013439035,-0.59040123,0.024129177,145.35434,-95.58452,2.1392205,STD
7274455885000,0.544854,2.79811389087302,9.35780861507936,-1.48151210833333,-0.02107485,-0.5907067,0.02687807,145.53122,-95.67098,2.2825341,STD
7274460778000,0.549747,2.47243911721664,9.80647326488522,-1.1649509266858,-0.11636983,-0.5635232,0.018936822,145.7364,-95.70144,2.4338567,STD
7274465781000,0.55475,1.9525821964132,10.4208494708572,-0.713835369440459,-0.21624629,-0.5143485,0.0036651916,145.93442,-95.72443,2.5830088,STD
7274470781000,0.55975,1.42297022368304,10.8456746138393,-0.278483055102679,-0.30970868,-0.48838675,-0.03145956,146.14748,-95.70877,2.7214942,STD
7274475780000,0.564749,0.877970874821429,10.9792528035714,0.132938059392857,-0.3933972,-0.49021935,-0.061391957,146.35333,-95.67499,2.856511,STD
7274480723000,0.569692,0.407812148738088,10.9943969375301,0.462819076230629,-0.44257188,-0.49846604,-0.10781772,146.54616,-95.494255,2.8814967,STD
7274485758000,0.574727,-0.0238355369968236,10.9294178611031,0.74594280144961,-0.47861293,-0.535118,-0.16432275,146.74376,-95.30247,2.896508,STD
7274490713000,0.579682,-0.360980136836248,10.8061247265501,0.966062279252782,-0.5122105,-0.550695,-0.23671028,146.93672,-95.022964,2.8219285,STD
7274495768000,0.584737,-0.620735782176073,10.6233340379571,1.13442245974762,-0.54519725,-0.56138515,-0.3155119,147.132,-94.74047,2.7347891,STD
7274500734000,0.589703,-0.792080876212346,10.4727856807901,1.20676188125432,-0.57635134,-0.57757306,-0.36041048,147.32195,-94.41947,2.5865176,STD
7274505753000,0.594722,-0.882278799930864,10.3493564499753,1.1877728603358,-0.61544675,-0.54000485,-0.42424592,147.49307,-94.08413,2.417252,STD
7274510727000,0.599696,-0.845029398818414,10.2661237076283,0.92833653924284,-0.65484756,-0.48716503,-0.4700608,147.65903,-93.71895,2.2101114,STD
7274515740000,0.604709,-0.668043607075338,10.2252809547216,0.401917210813877,-0.6930266,-0.41691554,-0.48441613,147.80527,-93.349525,2.0006118,STD
7274520704000,0.609673,-0.443631038726285,10.1717481705596,-0.124197193049862,-0.6921103,-0.31490102,-0.46609017,147.92308,-92.98719,1.7782333,STD
7274525743000,0.614712,-0.126177555313185,10.0935348581371,-0.667088671431976,-0.66889745,-0.19547687,-0.42271876,148.0133,-92.63264,1.5657716,STD
7274530692000,0.619661,0.208447036805746,10.0120062812929,-1.14035220549276,-0.6230826,-0.07941248,-0.3726278,148.06073,-92.364784,1.3747689,STD
7274535751000,0.62472,0.617861331374247,9.91477055920566,-1.44741287832471,-0.5681047,0.042455133,-0.32406402,148.0702,-92.12145,1.2028129,STD
7274540670000,0.629639,0.987744295289529,9.83743770237024,-1.58121609997,-0.52015173,0.16493362,-0.2874121,148.04305,-91.97793,1.0775923,STD
7274545725000,0.634694,1.31697034329433,9.78902213681368,-1.42144468307831,-0.5036584,0.20891592,-0.24740042,148.00327,-91.854004,0.9708023,STD
7274550819000,0.639788,1.57983878397971,9.75508053311456,-1.17049040865155,-0.50885075,0.26847526,-0.21868975,147.93846,-91.79467,0.92656744,STD
7274555734000,0.644703,1.72494325956643,9.74571925676213,-0.786665761376293,-0.5158757,0.27030787,-0.20616703,147.87885,-91.74405,0.8898831,STD
7274560826000,0.649795,1.81797782262421,9.73395879544743,-0.424025440569742,-0.5342017,0.23487769,-0.19120082,147.8513,-91.69705,0.92304105,STD
7274565758000,0.654727,1.81375325506462,9.71917272076383,-0.130417781232503,-0.5519168,0.15821409,-0.1685988,147.83673,-91.656,0.96122676,STD
7274570954000,0.659923,1.80930255493493,9.70359517736237,0.178906103178749,-0.58032197,0.06719518,-0.14172074,147.89275,-91.58262,1.0324969,STD
7274575744000,0.664713,1.80519961928805,9.68923481691338,0.464060338423148,-0.6178902,-0.04428773,-0.11789699,147.97722,-91.52457,1.1081665,STD
7274580764000,0.669733,1.80089967420509,9.67418491932382,0.762906739451724,-0.6423248,-0.15424347,-0.100792766,148.08678,-91.48432,1.1871461,STD
7274585714000,0.674683,1.65189766878262,9.65006865299819,0.907406766111407,-0.66737026,-0.26358834,-0.06658431,148.2279,-91.47035,1.277025,STD
7274591059000,0.680028,1.46480945094455,9.62502313468045,1.03562361444549,-0.68783426,-0.3744604,-0.05497787,148.40012,-91.47737,1.3647939,STD
7274595727000,0.684696,1.21691778972274,9.62922477340226,1.05242986222744,-0.6960809,-0.45723262,-0.025961773,148.64151,-91.5144,1.4837391,STD
7274600793000,0.689762,0.947890549844925,9.63378464953007,1.07066903344925,-0.6817256,-0.54305923,-0.019242255,148.90004,-91.57737,1.5770422,STD
7274605778000,0.694747,0.618222120426229,9.66918388852459,1.08569592655738,-0.6774496,-0.61361414,-0.0076358155,149.17429,-88.30251,1.6811088,STD
7274610703000,0.699672,0.284775560590164,9.70784412930328,1.10019359254098,-0.659429,-0.68203104,-0.007941248,149.46849,-88.15003,1.7848744,STD
7274615732000,0.704701,-0.0776743092376592,9.71530640625,1.0969084861465,-0.6426302,-0.73975784,-0.0033597588,149.74829,-88.01629,1.8471072,STD
7274620677000,0.709646,-0.435870507391521,9.720019609375,1.09219538144904,-0.6239988,-0.77091193,-0.01282817,150.03581,-87.87029,1.9070915,STD
7274625742000,0.714711,-0.709203464364074,9.7247058103058,1.07901581297375,-0.61361414,-0.7968737,-0.01282817,150.31429,-87.76687,1.9038006,STD
7274630736000,0.719705,-0.969468469176017,9.72931236344811,1.06519641809776,-0.6072,-0.77091193,-0.017104227,150.58249,-87.65397,1.8994312,STD
7274635714000,0.724683,-1.2288996253542,9.73390415790995,1.0514212984156,-0.6056729,-0.7171558,-0.020463986,150.81252,-87.58585,1.8313495,STD
7274640681000,0.72965,-1.48775751059668,9.73848580577896,1.03767661792921,-0.60139686,-0.63621616,-0.02687807,151.0239,-87.50622,1.764344,STD
7274645719000,0.734688,-1.57460295330278,9.83403542090382,1.02360576090772,-0.59773165,-0.5858198,-0.034513887,151.2267,-87.412575,1.6947058,STD
7274650694000,0.739663,-1.60479746592892,9.95713593033686,1.009669843197,-0.59437186,-0.5006041,-0.034513887,151.39346,-87.308754,1.627736,STD
7274655730000,0.744699,-1.63536220272998,10.0817458128504,0.995563052927412,-0.59803706,-0.39187005,-0.030848695,151.48529,-87.266266,1.4661933,STD
7274660714000,0.749683,-1.66561133859504,10.2050690166724,0.981601924511285,-0.5928447,-0.2959642,-0.040927973,151.55557,-87.21124,1.304127,STD
7274665723000,0.754692,-1.64313901390989,10.3455897980321,0.966993637322631,-0.58184916,-0.22357668,-0.05467244,151.60408,-87.13824,1.1404811,STD
7274670704000,0.759673,-1.59373239494562,10.4938100160539,0.952171641315381,-0.58246,-0.14721853,-0.081855945,151.62387,-87.051926,0.9728954,STD
7274675738000,0.764707,-1.47920888773669,10.5936736781005,1.02817897695053,-0.59498274,-0.09162979,-0.094989546,151.62737,-86.960976,0.78973067,STD
7274680728000,0.769697,-1.34181826346783,10.6742126837514,1.13714403925845,-0.600786,-0.06261369,-0.12003502,151.61725,-86.86138,0.5995939,STD
7274685717000,0.774686,-1.19382001934354,10.6905739199796,1.21764403412406,-0.643852,-0.09682214,-0.14172074,151.634420715318,-86.6790568027457,0.436904989147399,STD
7274705640000,0.794609,-0.585741506272835,10.6529610424169,1.49347337392561,-0.88117313,-0.12217305,-0.17623462,151.70299,-85.95097,-0.21277454,STD
7274710662000,0.799631,-0.432462868886844,10.6434799466421,1.56300180561178,-0.8979719,-0.06566802,-0.17928895,151.75275,-85.69198,-0.33715117,STD
7274715659000,0.804628,-0.303331286693941,10.5750655304772,1.71388651409396,-0.9016371,-0.025961773,-0.17837265,151.79918,-85.41384,-0.42559642,STD
7274720662000,0.809631,-0.18880229516043,10.4693463955594,1.9165147295302,-0.8906415,-0.0067195175,-0.18142697,151.83514,-85.142624,-0.513643,STD
7274725665000,0.814634,-0.135166398389521,10.4078554864947,2.01108076579001,-0.9056077,-0.043066,-0.14446963,151.88356,-84.863464,-0.5730214,STD
7274730642000,0.819611,-0.159366115825548,10.4030156976543,1.96752127642669,-0.92179567,-0.12034045,-0.129198,151.93857,-84.59437,-0.6361512,STD
7274735657000,0.824626,-0.183750601045898,10.3981389564379,1.92362920506702,-0.95905846,-0.15790866,-0.10873401,152.00739,-84.28128,-0.65989447,STD
7274740662000,0.829631,-0.20808646316511,10.3932719395309,1.87982465528534,-1.0079277,-0.14110987,-0.09560041,152.08185,-83.9692,-0.67914665,STD
7274746030000,0.834999,-0.180200699941744,10.3427565658061,1.81249253905504,-1.0467176,-0.1001819,-0.10323623,152.16512,-83.65347,-0.7024565,STD
7274750868000,0.839837,-0.11249599069206,10.261510214905,1.73576053938626,-1.0586295,-0.10903945,-0.1020145,152.25641,-83.341286,-0.71679235,STD
7274755674000,0.844643,-0.0744973967560639,10.1507063291264,1.6442854031552,-1.0735956,-0.13958271,-0.05681047,152.3376,-83.03354,-0.73603547,STD
7274760715000,0.849684,-0.0697373229083021,9.9983843278446,1.53004357911655,-1.0711522,-0.19150625,-0.009162978,152.42657,-82.73662,-0.7509299,STD
7274765680000,0.854649,-0.0655062330022779,9.86145835580865,1.4422801690205,-1.040609,-0.22296582,0.035124753,152.52484,-82.46,-0.7461484,STD
7274770702000,0.859671,-0.0618543924692483,9.74094789658314,1.38750261822323,-1.0256428,-0.23548855,0.04886922,152.63094,-82.18865,-0.7335891,STD
7274775672000,0.864641,-0.0582403647015945,9.62168525573273,1.33329225831435,-1.0259482,-0.21105394,0.06780604,152.72462,-81.93451,-0.7092897,STD
7274780723000,0.869692,-0.0113089057327412,9.45750481166734,1.31775340815503,-1.039998,-0.23090707,0.080634214,152.83325,-81.68833,-0.6792141,STD
7274785850000,0.874819,0.0481585401049657,9.27910197739201,1.31279779111829,-1.0732902,-0.28771752,0.10323623,152.94353,-81.44435,-0.6392719,STD
7274790958000,0.879927,0.0738282647414169,9.11207206231395,1.23427729573328,-1.0894781,-0.36163223,0.11911872,153.06285,-81.216225,-0.59573036,STD
7274795880000,0.884849,0.09253715108077,8.95304672573923,1.14541004361977,-1.0760391,-0.4166101,0.13408493,153.191,-80.99404,-0.5433634,STD
7274800771000,0.88974,0.0694262593127188,8.90300524649942,1.15640502669195,-1.0366384,-0.48166725,0.1255328,153.34203,-80.762375,-0.48147509,STD
7274805973000,0.894942,0.0355163192030338,8.87393950145858,1.19031499512835,-1.0054842,-0.5540548,0.09773844,153.50961,-80.5387,-0.41691324,STD
7274810775000,0.899744,0.0350649904125923,8.89346113348575,1.26994848024974,-0.9801333,-0.56169057,0.06566802,153.67674,-80.32649,-0.3605732,STD
7274816533000,0.905502,0.0447630644449525,8.93225320277875,1.38147636301442,-0.9972375,-0.5693264,0.049785517,153.86281,-80.116394,-0.30264708,STD
7274820717000,0.909686,0.0551280140099513,8.97612771595457,1.40529418068145,-1.0216721,-0.6215554,0.041233405,154.06068,-79.90069,-0.25797623,STD
7274825702000,0.914671,0.0706197558888048,9.04325886955111,1.37947457673337,-1.0418307,-0.66950834,0.053450707,154.25702,-79.68713,-0.20964369,STD
7274830723000,0.919692,0.082479274966528,9.01938492533175,1.34602412838186,-1.0103711,-0.7131852,0.07849618,154.4694,-79.47472,-0.15048462,STD
7274835719000,0.924688,0.0919555510172311,8.93883642305407,1.3081190439691,-0.9615019,-0.7583892,0.086437434,154.69333,-79.26753,-0.08806508,STD
7274840721000,0.92969,0.103949413061768,8.86006923479585,1.2846876298658,-0.8903361,-0.7831292,0.09132435,154.90996,-79.0602,-0.020235289,STD
7274845720000,0.934689,0.117618719198058,8.78261018892167,1.27101828852194,-0.8399397,-0.8374963,0.08827003,155.14507,-78.86639,0.053289995,STD
7274851051000,0.94002,0.127295908299263,8.74921965549445,1.22217724011622,-0.82527894,-0.87109387,0.09040806,155.37778,-78.68884,0.13214804,STD
7274855706000,0.944675,0.131921834474422,8.7584712083636,1.15278837164055,-0.8035932,-0.9108001,0.08002335,155.62546,-78.53158,0.21122834,STD
7274860661000,0.94963,0.147293188677228,8.79185739207921,1.10726851960396,-0.79259765,-0.9419542,0.06719518,155.87457,-78.36534,0.29245028,STD
7274865666000,0.954635,0.171021858989109,8.84406053316832,1.08353986415842,-0.8029824,-0.97005403,0.054367006,156.13153,-78.202866,0.37416977,STD
7274870659000,0.959628,0.193348376717436,8.91367915832817,1.05210210496768,-0.8151997,-0.9990701,0.057421334,156.39188,-78.05364,0.4577086,STD
7274875650000,0.964619,0.214510972460816,8.99832948826707,1.01400941229965,-0.820392,-1.0134255,0.06627888,156.65323,-77.90661,0.5413534,STD
7274880653000,0.969622,0.25958592898567,9.10576013457232,1.00128238915137,-0.83016586,-1.0305296,0.06688975,156.92194,-77.747505,0.6232473,STD
7274885664000,0.974633,0.367040877210031,9.27231585579937,1.05500988009404,-0.8268061,-1.0616838,0.062002823,157.19542,-77.59399,0.7089917,STD
7274890646000,0.979615,0.460984831563152,9.40080569561761,1.07053055875981,-0.83016586,-1.103528,0.064446285,157.47334,-77.44514,0.8015224,STD
7274895656000,0.984625,0.542039860620093,9.49139643297227,1.04669081504522,-0.8188649,-1.1670581,0.059253927,157.76378,-77.30466,0.8948022,STD
7274900743000,0.989712,0.628548980994106,9.57352399449902,1.0319601670334,-0.81397796,-1.2250903,0.04886922,158.0707,-77.15822,1.0086337,STD
7274905637000,0.994606,0.716025269642436,9.64258419960707,1.02735615335953,-0.8045095,-1.2996159,0.04153884,158.39671,-77.019005,1.1274884,STD
7274910615000,0.999584,0.797299707086991,9.70292211492418,1.0309493561652,-0.79443026,-1.3891076,0.032986723,158.74338,-76.86843,1.2570553,STD
7274915637000,1.004606,0.869269095307263,9.75090165363128,1.04534326787709,-0.7855727,-1.4758505,0.028099801,159.10678,-76.72298,1.390741,STD
7274920611000,1.00958,0.932381078245754,9.77381365794206,1.03702375334665,-0.77640975,-1.5647314,0.013744468,159.50143,-76.58157,1.541833,STD
7274925620000,1.014589,0.985095594085914,9.764229003996,0.998685888161838,-0.75136423,-1.6362026,0.006414085,159.91124,-76.44933,1.6982677,STD
7274930640000,1.019609,1.02337164748933,9.75979478857795,0.953172635367669,-0.7315111,-1.6994271,0.0012217305,160.34735,-76.309814,1.8675787,STD
7274935621000,1.02459,1.0423066888955,9.76216171509378,0.898734412950283,-0.7150178,-1.7486018,-0.0033597588,160.79541,-76.17861,2.0389638,STD
7274940609000,1.029578,1.06126834047832,9.76453196794681,0.844219686305448,-0.68203104,-1.8026633,0.0018325958,161.2647,-76.05748,2.222084,STD
7274945725000,1.034694,1.08071657814826,9.76696304525156,0.788306025215838,-0.6630942,-1.815797,0.0021380284,161.73222,-75.93889,2.403111,STD
7274950643000,1.039612,1.07644526344513,9.75303236336575,0.758481539571343,-0.6261369,-1.7681495,0.03573562,162.1949,-75.82794,2.5891194,STD
7274955624000,1.044593,1.03857893833102,9.71516628537408,0.763214824032546,-0.5580254,-1.7174476,0.0421497,162.65755,-75.73348,2.7681596,STD
7274960614000,1.049583,1.00066000964912,9.70983085112499,0.757093574437506,-0.537256,-1.7003434,0.036957346,163.11395,-75.64324,2.953159,STD
7274965633000,1.054602,0.962546428070175,9.75747279700664,0.73327260149668,-0.5513059,-1.6777414,0.04337143,163.54951,-75.56161,3.138413,STD
7274970613000,1.059582,0.917779602687665,9.80219304476129,0.713938117964131,-0.5928447,-1.6514742,0.040927973,163.97923,-75.480865,3.3071163,STD
7274975626000,1.064595,0.860538571660291,9.84273859918526,0.702012910949377,-0.6365216,-1.6236799,0.044593163,164.3975,-75.39507,3.476967,STD
7274980626000,1.069595,0.803445981367678,9.88317900854489,0.690118629067515,-0.6747007,-1.6166549,0.033292156,164.80708,-75.30869,3.6320393,STD
7274985623000,1.074592,0.746387646629241,9.9235951536589,0.678231483754782,-0.70280045,-1.6667458,0.032375857,165.22015,-75.212975,3.7927246,STD
7274990618000,1.079587,0.594166041882218,9.94256432585664,0.623950416357736,-0.70646566,-1.7272215,0.026572637,165.64081,-75.1163,3.943244,STD
7274995667000,1.084636,0.252642323136394,9.91948841519519,0.48549483672998,-0.7058548,-1.7687603,0.02687807,166.06598,-75.01404,4.0974283,STD
7275000645000,1.089614,-0.0538087855455106,9.88896578765153,0.381849333926443,-0.6881397,-1.7623463,0.03573562,166.47748,-74.93123,4.228718,STD
7275005623000,1.094592,-0.26930366442367,9.83509200400657,0.37695172652969,-0.66950834,-1.6859881,0.043982297,166.87706,-74.84976,4.358142,STD
7275010615000,1.099584,-0.453840057343563,9.80271842965325,0.424303301187724,-0.6133087,-1.6038266,0.039095376,167.23476,-74.82435,4.411114,STD
7275015657000,1.104626,-0.564500050667597,9.82196403905939,0.597510289198884,-0.5681047,-1.4947872,0.021685716,167.5604,-74.8013,4.456827,STD
7275020648000,1.109617,-0.682390033018587,9.82835617304443,0.766029367309413,-0.5479461,-1.4266758,0.0070249503,167.8479,-74.799736,4.4610825,STD
7275025650000,1.114619,-0.820467033803797,9.80454981502833,0.927912750969089,-0.5345071,-1.3671165,-0.005497787,168.1052,-74.80878,4.455782,STD
7275030628000,1.119597,-0.949859791626154,9.79147342127195,1.06905636585971,-0.528093,-1.3084733,-0.021380283,168.32558,-74.80473,4.427573,STD
7275035648000,1.124617,-1.05956691346364,9.80578283688858,1.15968397633694,-0.5109888,-1.2696834,-0.01985312,168.53133,-74.80569,4.4003305,WAL
7275040654000,1.129623,-1.16365076841691,9.8136995006883,1.24225971563422,-0.5006041,-1.1933253,-0.022296581,168.71266,-74.78636,4.3293138,WAL
7275045661000,1.13463,-1.25323490959685,9.80426940452311,1.30355410988201,-0.5021312,-1.1261301,-0.011301007,168.88141,-74.76605,4.263921,WAL
7275050670000,1.139639,-1.34193607241311,9.78916436484608,1.34919998486594,-0.49296826,-1.0512991,-0.013439035,169.0189,-74.74069,4.168041,WAL
7275055664000,1.144633,-1.4274254175571,9.75591880595829,1.34445057680238,-0.4886922,-0.960891,-0.0021380284,169.12874,-74.710686,4.076998,WAL
7275060655000,1.149624,-1.50756188756922,9.72481289359177,1.33448525049446,-0.48716503,-0.8671232,-0.0033597588,169.21513,-74.67018,3.9576674,WAL
7275065673000,1.154642,-1.56934328323774,9.70105083742089,1.30597068384098,-0.5021312,-0.7657196,0.008857546,169.2701,-74.62381,3.8423638,WAL
7275071037000,1.160006,-1.64448694582674,9.68735329657832,1.27809068984375,-0.50701815,-0.6560693,0.022296581,169.29492,-74.576805,3.701436,WAL
7275075669000,1.164638,-1.73222386022547,9.70490056952136,1.26054337109375,-0.5158757,-0.5571091,0.021991149,169.29297,-74.52423,3.5577269,WAL
7275080637000,1.169606,-1.82555423254984,9.72700116542696,1.24662044989586,-0.5345071,-0.47952923,0.026267206,169.25676,-74.47219,3.404441,WAL
7275085666000,1.174635,-1.91630830571259,9.76521318625409,1.25617350497868,-0.5510005,-0.41996986,0.007330383,169.19907,-74.41951,3.2425418,WAL
7275090656000,1.179625,-2.00403738153086,9.80536534222222,1.27016929076543,-0.57757306,-0.4034765,-0.02076942,169.14334,-74.364525,3.049025,WAL
7275095678000,1.184647,-2.08003896553086,9.85761646222222,1.30817008276543,-0.59895337,-0.4196644,-0.049480084,169.081,-74.30644,2.8526785,WAL
7275100785000,1.189754,-2.15119544178055,9.91814345031238,1.34899014026747,-0.60994893,-0.48838675,-0.08552113,169.01923,-74.24779,2.636706,WAL
7275105691000,1.19466,-2.18788718781726,10.0144593794416,1.39944133895939,-0.6239988,-0.59223384,-0.13316862,168.97408,-74.1829,2.41882,WAL
7275110670000,1.199639,-2.21931400434011,10.11146411087,1.44902062391004,-0.61269784,-0.7458665,-0.16829337,168.97318,-74.113556,2.1831834,WAL
7275115746000,1.204715,-2.19054392929572,10.2025692483725,1.48258566139278,-0.5852089,-0.93615097,-0.20250183,169.013,-74.04474,1.9522872,WAL
7275120811000,1.20978,-2.16141118284924,10.2892793143648,1.51060921387078,-0.54336464,-1.1371256,-0.22571471,169.10278,-73.97629,1.7217711,WAL
7275125724000,1.214693,-2.12887258091286,10.3311150480142,1.4827189836396,-0.49174652,-1.3261884,-0.24831672,169.24124,-73.91717,1.5039169,WAL
7275130865000,1.219834,-2.09561710583239,10.3727042335787,1.45499312517931,-0.42363504,-1.4892895,-0.27214047,169.43127,-73.86692,1.3047003,WAL
7275135730000,1.224699,-2.07363176862967,10.3858956562854,1.44619902702907,-0.34666604,-1.6206255,-0.2846632,169.66122,-73.831795,1.1228268,WAL
7275141471000,1.23044,-2.0435490324861,10.4063005504369,1.43848352136616,-0.26389378,-1.7168368,-0.28038713,169.93271,-73.810524,0.9574864,WAL
7275145727000,1.234696,-1.97880100318595,10.4710483919336,1.46006618527932,-0.18753563,-1.7379116,-0.28955013,170.2168,-73.80681,0.7970507,WAL
7275150758000,1.239727,-1.90226262550525,10.5475865476127,1.48557896303945,-0.16218472,-1.7702875,-0.30268374,170.53606,-73.80622,0.65208924,WAL
7275155740000,1.244709,-1.79156165153898,10.6643939836034,1.52451482641672,-0.12583824,-1.8048013,-0.30543262,170.85649,-73.82693,0.51619637,WAL
7275160723000,1.249692,-1.66343868291303,10.8016684904593,1.57027304314891,-0.09896017,-1.8380935,-0.31642818,171.18202,-73.84873,0.38365757,WAL
7275165712000,1.254681,-1.5326229123348,10.9074454447424,1.602901720724,-0.09407325,-1.8551978,-0.33383787,171.53006,-73.86836,0.26640308,WAL
7275170750000,1.259719,-1.39862653832599,10.9906153849837,1.62600453551044,-0.086437434,-1.8506162,-0.35521814,171.87723,-73.893135,0.15208757,WAL
7275175738000,1.264707,-1.2638155355007,11.0671820006954,1.67437608838665,-0.07666359,-1.8359555,-0.3594942,172.2371,-73.915634,0.068622924,WAL
7275180727000,1.269696,-1.12675911005737,11.1377869323713,1.74913415439847,-0.0720821,-1.8234328,-0.35888332,172.59238,-73.936295,-0.014140628,WAL
7275185748000,1.274717,-0.987584498529259,11.2209435398239,1.83092180632833,-0.083383106,-1.8225164,-0.35033122,172.98387,-73.949234,-0.078331195,WAL
7275190747000,1.279716,-0.843787577493527,11.3548235425168,1.94000909895391,-0.08399397,-1.7880026,-0.33567044,173.35716,-73.96458,-0.13948925,WAL
7275195795000,1.284764,-0.705223528024714,11.5134731357433,1.99328460510882,-0.12064589,-1.7550159,-0.3100141,173.74597,-73.946724,-0.16241784,WAL
7275200840000,1.289809,-0.584926168309664,11.7362458948727,1.89080908938584,-0.16646078,-1.6627752,-0.27855456,174.1025,-73.92558,-0.18325472,WAL
7275205795000,1.294764,-0.479326979925688,11.9497330982125,1.77075525420767,-0.18295415,-1.5464053,-0.2678644,174.46353,-73.889915,-0.18149959,WAL
7275210961000,1.29993,-0.484295221419964,12.123622069291,1.46769231554529,-0.183565,-1.432479,-0.26725355,174.79356,-73.846664,-0.17806734,WAL
7275215737000,1.304706,-0.487955003850699,12.2757465038409,1.19222288093362,-0.1572978,-1.3057245,-0.27275133,175.10522,-73.8304,-0.16534713,WAL
7275220788000,1.309757,-0.483191125891274,12.3567326281268,0.944501028067757,-0.124005646,-1.2140946,-0.27855456,175.3914,-73.8164,-0.15682156,WAL
7275225794000,1.314763,-0.491147793812335,12.4265935069489,0.689201255231901,-0.09865474,-1.1523973,-0.28099802,175.64865,-73.85498,-0.16361906,WAL
7275230735000,1.319704,-0.645883366017804,12.3750148347715,0.323853345819239,-0.07269296,-1.0998629,-0.27977628,175.8805,-73.90191,-0.1758151,WAL
7275235773000,1.324742,-0.803656653362703,12.3224235879735,-0.0486669471621401,-0.045814894,-1.0384709,-0.2855795,176.09203,-73.991325,-0.19964147,WAL
7275240787000,1.329756,-0.901314017545126,12.3075939767782,-0.287994738785052,-0.023518313,-1.0158689,-0.29657507,176.29762,-74.08434,-0.22408956,WAL
7275245721000,1.33469,-0.9889115766787,12.2983729956093,-0.504683432728266,-0.011911872,-0.9779953,-0.29993483,176.47958,-74.17934,-0.25252548,WAL
7275250804000,1.339773,-1.10577063553913,12.3073565664443,-0.746289871078255,0.029321533,-0.95142263,-0.2959642,176.6575,-74.33589,-0.3264923,WAL
7275255676000,1.344645,-1.22355189439235,12.3199762411648,-0.98185238878471,0.10751228,-0.92149025,-0.2929099,176.82248,-74.50219,-0.4024311,WAL
7275260781000,1.34975,-1.4077322922326,12.3558093856408,-1.21010448330009,0.22540927,-0.90133166,-0.29077184,176.9761,-74.71403,-0.49838492,WAL
7275265720000,1.354689,-1.62618441257479,12.4054575594626,-1.41862691703579,0.39187005,-0.86742866,-0.3115413,177.11746,-74.95632,-0.6006123,WAL
7275270748000,1.359717,-1.86170225893914,12.4944260119322,-1.50773005956081,0.5885687,-0.81183994,-0.33078352,177.23442,-75.26968,-0.7319863,WAL
7275275740000,1.364709,-2.10138653416224,12.5998867046024,-1.54128588011631,0.7648033,-0.75808376,-0.35735616,177.34303,-75.61556,-0.87043476,WAL
7275281050000,1.370019,-2.37641418478813,12.5927332337922,-1.5620994847686,0.9596693,-0.70249504,-0.39095375,177.41162,-76.03701,-1.0563523,WAL
7275285767000,1.374736,-2.62782070525288,12.5442163419254,-1.57533140205038,1.1047498,-0.6239988,-0.42485678,177.45932,-76.48034,-1.2508823,WAL
7275290776000,1.379745,-2.81708448932136,12.378987175499,-1.58331088786427,1.2504412,-0.48655418,-0.47067168,177.47,-76.96464,-1.5081375,WAL
7275295807000,1.384776,-2.96614719500998,12.1529885801397,-1.588119359002,1.3332134,-0.33628133,-0.50976706,177.45583,-77.451775,-1.7723804,WAL
7275300768000,1.389737,-3.01976128421726,11.8800489239398,-1.6234897061104,1.3988814,-0.17959438,-0.52870387,177.38069,-77.9444,-2.0940423,WAL
7275305863000,1.394832,-3.02456245567254,11.572777259569,-1.67630209079012,1.4758505,-0.03023783,-0.5299256,177.26602,-78.43611,-2.421606,WAL
7275310780000,1.399749,-2.93902896770824,11.2299374900302,-1.74384764136383,1.5436565,0.1020145,-0.50243664,177.09512,-78.90393,-2.7714827,WAL
7275315724000,1.404693,-2.80007145699612,10.8580217293051,-1.82150036291757,1.6230689,0.2443461,-0.4709771,176.87868,-79.36517,-3.120037,WAL
7275320748000,1.409717,-2.63178060404529,10.4510598677586,-1.86766152996592,1.7223345,0.3191771,-0.441961,176.64012,-79.81822,-3.460135,WAL
7275325739000,1.414708,-2.40059393981532,9.97817811690667,-1.83613609819721,1.8750509,0.36132678,-0.43799037,176.3699,-80.27132,-3.7956235,WAL
7275330720000,1.419689,-2.24082627862303,9.66466471381215,-1.72922699453464,2.0534234,0.36468655,-0.4718934,176.13184,-80.73275,-4.1153064,WAL
7275335710000,1.424679,-2.15958831517212,9.52656026077348,-1.53831765318317,2.254398,0.33261612,-0.52106804,175.89186,-81.192116,-4.4314756,WAL
7275340755000,1.429724,-2.05961276374687,9.4249823986414,-1.34027019985699,2.3350325,0.24617869,-0.5558874,175.68658,-81.61865,-4.7159576,WAL
7275345727000,1.434696,-1.83830183550232,9.58670927529496,-1.11044736582052,2.4685066,0.08735373,-0.61269784,175.51248,-82.03597,-5.011173,WAL
7275350932000,1.439901,-1.60661973946192,9.75601506632106,-0.869854475402217,2.5714374,-0.15577064,-0.62949663,175.4055,-82.38424,-5.2801914,WAL
7275355747000,1.444716,-1.37571124446725,10.0259823868259,-0.792880611009517,2.6755898,-0.3820962,-0.6377433,175.3392,-82.68064,-5.5541415,WAL
7275360710000,1.449679,-1.13624464225602,10.3142295186602,-0.726362102677738,2.7724118,-0.5317582,-0.65057147,175.31924,-82.91158,-5.825127,WAL
7275365713000,1.454682,-0.848790087312572,10.7062078581315,-0.691728235178777,2.8283062,-0.63224554,-0.6795876,175.38925,-83.082436,-6.052655,WAL
7275370751000,1.45972,-0.542718851883891,11.1374900028835,-0.668541038715879,2.8273897,-0.6765333,-0.69913524,175.48372,-83.18108,-6.275436,WAL
7275375741000,1.46471,0.155450373455299,11.8856640182948,-0.688138373110114,2.8124237,-0.6200282,-0.691194,175.60847,-83.24741,-6.450907,WAL
7275380730000,1.469699,1.05429001948568,12.7968729228512,-0.729369521884708,2.773023,-0.40011674,-0.66706485,175.69629,-83.24054,-6.6245418,WAL
7275385708000,1.474677,1.87026232215595,13.5139397466313,-0.521025227249834,2.7033842,-0.03970624,-0.636827,175.76213,-83.224396,-6.7382274,WAL
7275390754000,1.479723,2.53743391990281,13.8608686876519,0.183507859589132,2.6532931,0.36713,-0.59559363,175.74892,-83.15992,-6.8394885,WAL
7275396586000,1.485555,3.13443693410254,14.1655077403431,1.07432711105047,2.595261,0.7021896,-0.56291234,175.74136,-96.78252,-6.764499,WAL
7275400745000,1.489714,3.47810849452192,14.3373436665998,1.74568562634494,2.5552492,0.9095783,-0.54550266,175.65268,-96.76891,-6.684889,WAL
7275405701000,1.49467,3.7279812359312,14.4497668247666,2.43181157330713,2.4819455,0.97219205,-0.5225952,175.59152,-96.6672,-6.5061374,WAL
7275410743000,1.499712,3.84187513497789,14.4829860479607,3.02975441942015,2.4107797,0.9443977,-0.49388456,175.49866,-96.58908,-6.328877,WAL
7275415714000,1.504683,3.72754224283737,14.3456166949086,3.33970097550173,2.300824,0.81397796,-0.44043383,175.50267,-96.39219,-6.0864472,WAL
7275420753000,1.509722,3.38403832055363,14.0355087139891,3.37309716595156,2.1868975,0.63529986,-0.3924809,175.53238,-96.2014,-5.8516555,WAL
7275425736000,1.514705,2.90226722406177,13.7173473906411,3.24582673388863,2.0971005,0.49205196,-0.37201694,175.67038,-95.93406,-5.6112423,WAL
7275430728000,1.519697,2.26692293326158,13.3862523482452,2.94605159760412,1.9999728,0.36651915,-0.38148534,175.855,-95.67041,-5.3800583,WAL
7275435713000,1.524682,1.5980735360152,13.0824069485015,2.63713077935838,1.9150625,0.31795537,-0.42119157,176.05234,-95.48286,-5.213734,WAL
7275440743000,1.529712,0.855881127498945,12.8282316424652,2.30670272226678,1.8719965,0.24587326,-0.45020768,176.28728,-95.30085,-5.0544443,WAL
7275445730000,1.534699,0.238018883688744,12.6489717736858,1.92880650990001,1.7913623,0.129198,-0.5164866,176.5198,-95.246635,-5.0176597,WAL
7275450747000,1.539716,-0.23764530019305,12.5585957413127,1.48643878069498,1.7333301,-0.05222898,-0.6236934,176.78322,-95.21298,-5.001659,WAL
7275455669000,1.544638,-0.517354062617172,12.5092667029342,1.12192161811737,1.6954565,-0.27488935,-0.70707655,177.02966,-95.307175,-5.0898023,WAL
7275460743000,1.549712,-0.541277233200079,12.5140514309768,0.84441298723907,1.6902641,-0.47250426,-0.7892379,177.3108,-95.42453,-5.2046924,WAL
7275466578000,1.555547,-0.528738335794099,12.4950281399874,0.475936650182046,1.6988163,-0.65209866,-0.8533788,177.58876,-95.65292,-5.3991137,WAL
7275470747000,1.559716,-0.48935327947359,12.4628040991839,0.175178017547305,1.7284433,-0.8020661,-0.86162543,177.9059,-95.88331,-5.595721,WAL
7275475709000,1.564678,-0.490877252568807,12.3962545688073,-0.132933109449541,1.7577647,-0.8891144,-0.8781188,178.23097,-96.15531,-5.8134546,WAL
7275480731000,1.5697,-0.744260289623944,12.1821891387955,-0.185357192216368,1.8274034,-0.7452556,-0.9822713,178.52261,-96.45377,-6.0508585,WAL
7275486100000,1.575069,-1.01461836091467,11.9604683452255,-0.238264393264874,1.8139644,-0.5326745,-1.1252137,178.80273,-96.78906,-6.2990294,WAL
7275490745000,1.579714,-1.23595654485497,11.9369217456066,-0.210008449135084,1.7253889,-0.3213151,-1.2672399,179.03305,-97.1458,-6.568349,WAL
7275495763000,1.584732,-1.45139134989011,11.8999189972527,-0.168720183945055,1.5922203,-0.084910266,-1.4049901,179.17569,-97.572975,-6.9084663,WAL
7275500739000,1.589708,-1.39902414461538,11.7332963199301,-0.00685779876223776,1.4569136,0.11728613,-1.4804319,179.25917,-98.000885,-7.2604322,WAL
7275505807000,1.594776,-1.32299137696155,11.5506073198313,0.166019900274617,1.3579534,0.26175576,-1.5271631,179.29103,-98.46841,-7.665858,WAL
7275510741000,1.59971,-1.01712339675363,11.2401045444292,0.416275516045508,1.2880094,0.28955013,-1.543351,179.29102,-98.92378,-8.073465,WAL
7275515951000,1.60492,-0.696826921047515,10.9112144185101,0.663386509483186,1.2541064,0.2302962,-1.5690074,179.29678,-99.3665,-8.487791,WAL
7275520749000,1.609718,-0.43246108090864,10.5967100637834,0.695292709741097,1.2483032,0.17470746,-1.6035212,179.28598,-99.8008,-8.8995075,WAL
7275526035000,1.615004,-0.132074537430985,10.2510665563877,0.730779647289036,1.2308935,0.15027285,-1.6536123,179.32645,-100.18175,-9.283753,WAL
7275530716000,1.619685,0.234896548297483,9.95436706008883,0.765915177033876,1.180497,0.13836098,-1.6844609,179.36865,-100.553635,-9.663271,WAL
7275535973000,1.624942,0.647023657392667,9.62115850378821,0.805374155856484,1.0952814,0.021685716,-1.6569719,179.45929,-100.905624,-10.013976,WAL
7275540734000,1.629703,0.901208243072614,9.28377253630683,0.698628137659987,1.035722,0.013439035,-1.6377298,179.51305,-101.255974,-10.364467,WAL
7275545690000,1.634659,1.12619820234863,8.92072017431588,0.540112479922431,1.0115929,0.031154128,-1.6157386,179.58577,-101.584175,-10.698874,WAL
7275550788000,1.639757,1.25418057100625,8.70914485332575,0.445607332495736,0.97035944,0.087964594,-1.6151277,179.663,-101.876976,-10.984319,WAL
7275555686000,1.644655,1.36084846689407,8.53136518154254,0.365606433784347,0.9245446,0.15302174,-1.6181821,179.72847,-102.15352,-11.256114,WAL
7275560780000,1.649749,1.47877996039034,8.2859851470981,0.329741211960966,0.8567385,0.18936823,-1.5916094,179.7959,-102.41292,-11.501499,WAL
7275565696000,1.654665,1.59484669514124,8.02967091638418,0.310396754485876,0.8142834,0.21074851,-1.5610662,179.8454,-102.661804,-11.738163,WAL
7275570744000,1.659713,1.54416510299728,7.82884968767787,0.298635163814714,0.7861836,0.23365596,-1.5592335,179.88368,-102.90826,-11.964382,WAL
7275575702000,1.664671,1.45312118237965,7.64676194651327,0.289051588483197,0.74128497,0.28313604,-1.5851953,179.90569,-103.14019,-12.181956,WAL
7275580758000,1.669727,1.36696491253644,7.53627686110787,0.267983067731778,0.66431594,0.3277292,-1.6022996,179.92917,-103.36599,-12.389164,WAL
7275585762000,1.674731,1.28313575510204,7.44313311510204,0.24469719444898,0.54825157,0.37415496,-1.6050484,179.93564,-103.578636,-12.591879,WAL
7275590844000,1.679813,1.11950886533924,7.26217113972217,0.178523484191665,0.4596761,0.47311515,-1.5757269,179.91151,-103.806244,-12.806459,WAL
7275595797000,1.684766,0.938062416384135,7.06162499738273,0.102124969921482,0.408058,0.6065892,-1.5818355,179.86139,-104.02889,-13.023434,WAL
7275600783000,1.689752,0.751218998776999,6.92894500421427,-0.157297928363252,0.35888332,0.86620694,-1.543351,179.74239,-104.243095,-13.22804,WAL
7275605711000,1.69468,0.56546735594701,6.81568204159547,-0.460843266145723,0.34330627,1.2544118,-1.4746287,179.54694,-104.44298,-13.412948,WAL
7275610780000,1.699749,0.39043550819774,6.6494633932288,-0.500332330357397,0.37934732,1.5800029,-1.4013249,179.2872,-104.66875,-13.61378,WAL
7275615778000,1.704747,0.224728774954689,6.4642616660727,-0.42235268040729,0.43768495,1.8270979,-1.3338243,178.94109,-104.87381,-13.783909,WAL
7275620797000,1.709766,0.109205142167637,6.32638405951688,-0.277504417625146,0.47708577,1.9630154,-1.2718215,178.52783,-105.1144,-13.968591,WAL
7275625776000,1.714745,0.0120629857671711,6.20611304928211,-0.110975009965076,0.49571714,2.0384574,-1.1927143,178.0698,-105.33276,-14.120823,WAL
7275630783000,1.719752,0.0127675134537984,6.03499124708702,-0.059056896922663,0.49113566,2.123673,-1.104139,177.57362,-105.57061,-14.282822,WAL
7275635774000,1.724743,0.0595295760079245,5.84092857911265,-0.0613950008560387,0.46761733,2.1826215,-1.0528263,177.07202,-105.79399,-14.428595,WAL
7275640744000,1.729713,0.106094883740645,5.64768244410312,-0.0637232670449543,0.4392121,2.324953,-0.95172805,176.53047,-105.99644,-14.548911,WAL
7275645805000,1.734774,0.153512795699457,5.45089799957932,-0.066094163459864,0.40744713,2.4495697,-0.84879726,175.98563,-106.17932,-14.650419,WAL
7275650756000,1.739725,0.18348130016277,5.28102367741936,-0.0864605145605209,0.3817908,2.5830436,-0.75961095,175.41444,-106.34149,-14.724515,WAL
7275655762000,1.744731,0.202398730702377,5.12495489892473,-0.119566016770248,0.3549127,2.7217102,-0.6704246,174.8174,-106.471794,-14.763917,WAL
7275660745000,1.749714,0.223928105648295,4.98241921168715,-0.126132284399286,0.30482176,2.8447995,-0.5665775,174.19092,-106.578224,-14.770674,WAL
7275665771000,1.75474,0.247784676278747,4.84882242213521,-0.111818338035289,0.2706133,2.932764,-0.45478916,173.54785,-106.65834,-14.746077,WAL
7275670741000,1.75971,0.294290987608653,4.69145673947057,0.0732411893954958,0.24648413,2.97583,-0.3640757,172.89177,-106.72688,-14.701189,WAL
7275675860000,1.764829,0.362083511501383,4.50744840904781,0.412203773465034,0.21746802,2.9773571,-0.28130344,172.23784,-106.76526,-14.626542,WAL
7275680760000,1.769729,0.410289135667993,4.30335633297328,0.543863536145537,0.19333886,2.9553661,-0.18845193,171.5797,-106.78102,-14.521252,WAL
7275685842000,1.774811,0.444875078146674,4.06586622447413,0.502360410949403,0.1572978,2.8695395,-0.115453534,170.95404,-106.77756,-14.403197,WAL
7275690778000,1.779747,0.478467406378624,3.83519893294485,0.462049622683343,0.10140363,2.7528641,-0.04550946,170.30602,-106.70569,-14.22968,WAL
7275695790000,1.784759,0.512576958465037,3.6009800380614,0.42111816587834,0.015271631,2.6233609,0.020463986,169.69754,-106.60856,-14.0431185,WAL
7275700712000,1.789681,0.534913061835066,3.38671248789745,0.330182818078934,-0.09132435,2.4743097,0.09621128,169.13345,-106.48188,-13.839745,WAL
7275705782000,1.794751,0.530012044776421,3.20537485672757,0.109636893329767,-0.21502456,2.327702,0.16982053,168.61607,-106.32585,-13.627265,WAL
7275710675000,1.799644,0.523887102470215,3.08515062950755,-0.123425947432486,-0.34025195,2.1939225,0.24220806,168.13097,-106.15846,-13.409113,WAL
7275715786000,1.804755,0.514167646924146,3.09001029131255,-0.415008909986398,-0.47891834,2.081218,0.31978795,167.69203,-105.9527,-13.177792,WAL
7275720678000,1.809647,0.514371719876235,3.14771648503843,-0.776139060449147,-0.61361414,1.9437732,0.3930918,167.33076,-105.760086,-12.964422,WAL
7275725782000,1.814751,0.538765396115381,3.3428657013674,-1.36158694377483,-0.77304995,1.8359555,0.47128254,167.00385,-105.52512,-12.73584,WAL
7275730714000,1.819683,0.570567039091452,3.60689556867902,-2.04102183933054,-0.93034774,1.7907515,0.54367006,166.81906,-105.339714,-12.559466,WAL
7275735794000,1.824763,0.623879660330743,4.06732266929667,-3.02488180585774,-0.9990701,1.7110336,0.58184916,166.68044,-105.13653,-12.380368,WAL
7275740718000,1.829687,0.616381726997173,4.59176922054665,-4.0894878072573,-1.1184943,1.6789632,0.66431594,166.41095,-104.85899,-12.093853,WAL
7275745795000,1.834764,0.455990511538171,5.33415127262017,-5.47343470202639,-1.1884383,1.6850718,0.7504479,166.16278,-104.57318,-11.8018055,WAL
7275750767000,1.839736,0.271107740466281,6.08575825533201,-6.79547151836629,-1.2140946,1.7595973,0.81581056,165.82143,-104.28833,-11.425248,WAL
7275756556000,1.845525,-0.102290977404369,7.10063678801485,-8.14545137223901,-1.1472049,1.9291124,0.86070913,165.46342,-103.999596,-11.030062,WAL
7275760671000,1.84964,-0.367714318920646,7.82204379475002,-9.10505874807012,-1.0128145,2.1810944,0.8741482,165.00227,-103.834885,-10.609782,WAL
7275765784000,1.854753,-0.96850996272242,8.96084362455516,-9.89484345937129,-0.8228355,2.4678955,0.86498517,164.49712,-103.702614,-10.1779995,WAL
7275770674000,1.859643,-1.59347328033808,10.0950364893238,-10.575359274911,-0.5983425,2.715296,0.81306165,163.94414,-103.625755,-9.748475,WAL
7275775762000,1.864731,-2.3197723638729,11.4226937620716,-10.716796477358,-0.38423425,2.8066204,0.70188415,163.28775,-103.76119,-9.354174,WAL
7275780682000,1.869651,-3.0388594752064,12.7390553332499,-10.7285846184638,-0.12095132,2.701246,0.57604593,162.63197,-103.98759,-8.978718,WAL
7275785837000,1.874806,-3.8799122668307,14.2236183708512,-10.6194830867972,0.14172074,2.4269676,0.4129449,161.94579,-104.41413,-8.737068,WAL
7275790793000,1.879762,-4.79924974793215,15.7840070057586,-10.3610747249503,0.36010507,2.149024,0.23304509,161.29884,-104.91737,-8.54026,WAL
7275795807000,1.884776,-5.52490950863732,16.8951305391896,-10.1444691340623,0.50640726,1.9410243,-0.005192355,160.6667,-105.51711,-8.544002,WAL
7275800840000,1.889809,-6.06966805416705,17.5904730409813,-9.96731197372048,0.61666846,1.8057177,-0.26297748,160.09134,-106.16647,-8.604988,WAL
7275805775000,1.894744,-6.37717325185824,18.1742043391145,-9.76167329947215,0.7449502,1.7189748,-0.49480084,159.52861,-106.83977,-8.845063,WAL
7275810786000,1.899755,-6.26344222907465,18.5826032682323,-9.49285471463966,0.8384125,1.67316,-0.65668017,158.98956,-107.523315,-9.119527,WAL
7275815722000,1.904691,-5.89214382630522,18.4980006643718,-9.27977893698604,0.9120218,1.6798794,-0.7632761,158.43037,-108.2135,-9.4906,WAL
7275820784000,1.909753,-5.22927086044177,17.881482172117,-9.11753694826927,0.9819659,1.6865989,-0.83658,157.88457,-108.91002,-9.870369,WAL
7275826368000,1.915337,-4.49559830800347,16.848896305692,-8.82360933169604,1.029308,1.6948457,-0.90102625,157.37105,-109.5517,-10.225121,WAL
7275830774000,1.919743,-3.91446142068766,15.711005962246,-8.48630611971492,1.039998,1.6804903,-0.95478237,156.86533,-110.18372,-10.574494,WAL
7275835732000,1.924701,-3.31271110499555,14.3440437327134,-8.10942562478979,1.0369438,1.6084082,-0.98899084,156.3667,-110.774185,-10.828796,WAL
7275840779000,1.929748,-2.81545609151251,12.7614340402612,-7.73170293253536,1.010982,1.5745052,-1.0476339,155.85866,-111.35425,-11.090104,WAL
7275845749000,1.934718,-2.38387512078981,11.210214312444,-7.34370436456779,0.95172805,1.5757269,-1.0958922,155.36417,-111.89713,-11.291177,WAL
7275850901000,1.93987,-2.07958169355416,9.62003590599821,-6.90198814055506,0.8781188,1.6242907,-1.1313224,154.86263,-112.42388,-11.496332,WAL
7275855773000,1.944742,-1.83798980151087,8.17775814974169,-6.40593985885564,0.81061816,1.6380352,-1.1420126,154.36446,-112.94137,-11.677881,WAL
7275860828000,1.949797,-1.70114293466225,6.83288345600936,-5.69811150058485,0.7247916,1.5952746,-1.1398746,153.86598,-113.43103,-11.861654,WAL
7275865755000,1.954724,-1.48013503652943,5.61091943289621,-4.98758024540002,0.6047566,1.430341,-1.0922271,153.35953,-113.9018,-12.034488,WAL
7275870751000,1.95972,-0.969430447593779,4.66246796492833,-4.19963582860628,0.5198463,1.1389582,-0.98746365,152.9046,-114.346275,-12.205874,WAL
7275875743000,1.964712,-0.192107978453227,3.95284401876599,-3.255436310236,0.43096542,0.7473936,-0.8564331,152.51819,-114.74264,-12.406427,WAL
7275880711000,1.96968,1.32301531521751,3.90775109638897,-1.88010118893944,0.2666427,0.24281894,-0.7067711,152.25345,-115.07951,-12.615787,WAL
7275885797000,1.974766,2.78057120840244,4.00476442631632,-0.752459156668998,-0.022602014,-0.31031954,-0.5494733,152.12775,-115.28598,-12.785792,WAL
7275890738000,1.979707,3.72373645427615,4.82264710976621,-1.07393903496353,-0.33536503,-0.7669413,-0.34116822,152.13261,-115.4162,-12.945573,WAL
7275896289000,1.985258,4.78334185396144,5.74150296401239,-1.43510778712159,-0.61727935,-1.0360274,-0.09040806,152.4265,-115.17131,-12.888436,WAL
7275900769000,1.989738,5.63850888523329,6.4830764151064,-1.72659328697173,-0.8402451,-1.110553,0.18142697,152.81929,-114.82757,-12.789555,WAL
7275905738000,1.994707,6.53583069033277,7.31751087895724,-2.06970804062407,-0.98563105,-1.0326678,0.47067168,153.27507,-114.391945,-12.621192,WAL
7275910741000,1.99971,7.14615420410783,8.22589931976894,-2.52863357150193,-1.1074986,-0.8527679,0.75686204,153.75409,-113.86661,-12.367398,WAL
7275915743000,2.004712,7.69332028009723,9.14625179484687,-2.92819003614001,-1.2547172,-0.6047566,1.026559,154.37585,-113.066574,-11.648942,WAL
7275920744000,2.009713,7.79576653092854,10.1520873407876,-2.90956341413709,-1.35551,-0.37659842,1.2663237,154.98245,-112.22508,-10.844477,WAL
7275925781000,2.01475,7.8613215365198,11.1737866082777,-2.88326928038273,-1.3643675,-0.28893927,1.4761559,155.64401,-111.302635,-9.851729,WAL
7275930721000,2.01969,7.46549725418781,12.2812528245661,-2.76536416565198,-1.3390167,-0.31520647,1.559539,156.28798,-110.38645,-8.829686,WAL
7275935701000,2.02467,7.06646791693814,13.3976863786382,-2.64650435363596,-1.3084733,-0.46639562,1.6975945,156.96869,-109.42696,-7.7018476,WAL
7275940740000,2.029709,5.97982381542009,14.7418665474233,-2.10071591417686,-1.1936307,-0.74464476,1.8032742,157.69164,-108.550095,-6.5953536,WAL
7275945810000,2.034779,4.72872252556647,16.1438781104873,-1.45325886875877,-1.0118983,-1.2507466,1.8603901,158.52065,-107.75412,-5.517265,WAL
7275950724000,2.039693,2.92793729899214,17.0249652856279,-0.152875622777666,-0.8017606,-2.0131063,1.8060231,159.44637,-107.01639,-4.5551925,WAL
7275955684000,2.044653,0.993812343539609,17.8196800608748,1.29293078399516,-0.5571091,-2.8973339,1.632232,160.52528,-106.40719,-3.681586,WAL
7275960737000,2.049706,-0.348714883667039,18.0178185096046,2.60451284931395,-0.3118467,-3.887241,1.3677273,161.73601,-105.860535,-3.0962071,WAL
7275965995000,2.054964,-1.61283197843277,18.0945866990548,3.93516232149609,-0.25045475,-4.8484373,1.110553,163.14574,-105.378174,-2.6298788,WAL
7275970728000,2.059697,-1.64484863990237,17.0712095527374,3.9161778743683,-0.34605515,-5.390275,0.99204516,164.58023,-104.83887,-2.4897325,WAL
7275975677000,2.064646,-1.57680363196784,15.9008359467841,3.78462418920368,-0.4908302,-5.422956,1.0082331,166.11247,-104.32228,-2.4046342,WAL
7275980724000,2.069693,-1.2704643475372,14.398121710534,3.30374764598774,-0.6236934,-5.170669,1.010982,167.6639,-103.70207,-2.5092297,WAL
7275985715000,2.074684,-0.898532886664721,12.8220623615407,2.72725379498103,-0.71929383,-4.6868634,0.97127575,169.14726,-103.066025,-2.5859754,WAL
7275990733000,2.079702,-0.508829691613257,11.436390304697,2.09337333672224,-0.7855727,-4.0790524,0.90194255,170.50597,-102.45483,-2.6301897,WAL
7275995748000,2.084717,-0.113319057174461,10.1277868302155,1.43907185441236,-0.84513205,-3.4574974,0.8454375,171.71375,-101.829414,-2.634614,WAL
7276000771000,2.08974,0.137336314079198,9.12839898362445,1.02490170130607,-0.89858276,-2.864958,0.8194757,172.73749,-101.2833,-2.565045,WAL
7276005681000,2.09465,0.338006344601231,8.24638395087336,0.693562874827312,-0.96791595,-2.3087652,0.83199847,173.58664,-100.72281,-2.4580488,WAL
7276010740000,2.099709,0.277609385332812,7.53559329461125,0.920569490163325,-1.0937542,-1.8353447,0.86926126,174.27245,-100.223755,-2.2701967,WAL
7276015708000,2.104677,0.124058282939853,6.90742999735941,1.34399825695844,-1.2647965,-1.5048665,0.8885035,174.83403,-99.70024,-2.0576334,WAL
7276020748000,2.109717,-0.110566826129778,6.69972852591504,2.2814093331238,-1.466382,-1.3298537,0.89369583,175.29178,-99.191666,-1.7922066,WAL
7276025717000,2.114686,-0.375931670912907,6.68042927854608,3.4248905458177,-1.7119498,-1.3035865,0.88025683,175.69339,-98.63412,-1.5147971,WAL
7276030715000,2.119684,-0.82698307135904,6.98681128052141,4.37151129298176,-2.0088303,-1.3197744,0.88208944,176.0848,-97.96924,-1.2661049,WAL
7276035759000,2.124728,-1.35370740635904,7.42255583052141,5.24778909298176,-2.1536055,-1.3518448,0.8689558,176.46683,-97.28898,-1.0212387,WAL
7276040738000,2.129707,-1.9295166823218,8.13554355819198,5.70008255250515,-2.4425447,-1.3274102,0.8536842,176.86264,-96.34447,-0.8225128,WAL
7276045816000,2.134785,-2.5398482686734,8.97951741476616,5.99094356142759,-2.6621506,-1.219287,0.8481864,177.2364,-95.384605,-0.6192324,WAL
7276050723000,2.139692,-3.06835012774411,9.85618145783252,5.98940442177411,-2.8108964,-1.0931433,0.8604037,177.58356,-94.259026,-0.49454996,WAL
7276055763000,2.144732,-3.5813708616271,10.7863315561736,5.85036160067547,-2.8136454,-0.9923506,0.8781188,177.89847,-93.11977,-0.36441824,WAL
7276060777000,2.149746,-3.95624306270191,11.3762883110132,5.3837264514929,-2.656653,-0.8402451,0.904386,178.13225,-91.96702,-0.3231411,WAL
7276065776000,2.154745,-4.2608774246696,11.7934031092511,4.7510243339207,-2.3417518,-0.6035349,0.91904676,178.30537,-90.88451,-0.27642226,WAL
7276070789000,2.159758,-4.44972412012669,11.9427143855742,4.09630984656723,-1.9428569,-0.3323107,0.93645644,178.39784,-89.65998,-0.3057385,WAL
7276075779000,2.164748,-4.56690005668165,11.9280670939926,3.43231270281978,-1.557401,-0.06841691,0.93767816,178.42024,-88.91276,-0.3337885,WAL
7276080756000,2.169725,-4.59401460410878,11.7926158785102,2.67065994165928,-1.2696834,0.13469578,0.9410379,178.36446,-88.233345,-0.41029176,WAL
7276085803000,2.174772,-4.57496475258646,11.592593258055,1.84675541735146,-1.0842859,0.3387248,0.93218035,178.2322,-87.64093,-0.48961383,WAL
7276090779000,2.179748,-4.5440296155688,11.4003632631893,0.85535013360159,-0.98440933,0.5702427,0.9117164,178.02794,-87.21002,-0.5945036,WAL
7276095847000,2.184816,-4.50545219090909,11.2074756363636,-0.258573809090909,-0.91232723,0.88239485,0.89949906,177.7434,-86.8317,-0.7013689,WAL
7276100748000,2.189717,-4.4394737262806,11.0799942178743,-1.31140764143152,-0.8793405,1.2889256,0.904386,177.36241,-86.61422,-0.8105415,WAL
7276105785000,2.194754,-4.35410457426998,10.9851395495035,-2.37852330440468,-0.8750645,1.7828102,0.9434814,176.86943,-86.414505,-0.9187298,WAL
7276110775000,2.199744,-4.2024007335647,10.8851408051562,-3.19081427347546,-0.8741482,2.3240368,0.9972375,176.25275,-86.45365,-1.0229521,WAL
7276115779000,2.204748,-4.00282325176004,10.780600124938,-3.83231318036688,-0.8698721,2.8469374,1.0754282,175.50658,-86.49408,-1.1156191,WAL
7276120771000,2.20974,-3.81281886411957,10.5604156019617,-4.13130023454461,-0.85918194,3.3304374,1.1588113,174.64848,-86.76417,-1.1903695,WAL
7276125770000,2.214739,-3.62946030729566,10.2518367415694,-4.17154981963568,-0.8426886,3.5601227,1.1835514,173.7295,-87.01099,-1.2625376,WAL
7276130771000,2.21974,-3.45704113124204,9.86879243901274,-3.96477989659236,-0.8378017,3.952909,1.1572843,172.6394,-87.229454,-1.3087525,WAL
7276135756000,2.224725,-3.29993377598726,9.38733431242038,-3.4275738058811,-0.85062987,4.2372665,1.0647382,171.52922,-87.42343,-1.3675157,WAL
7276140820000,2.229789,-3.12269948163649,8.93469823587612,-2.84974390837044,-0.8970556,4.401895,0.9202685,170.35796,-87.57175,-1.4239076,WAL
7276145856000,2.234825,-2.93182666089839,8.51477795052934,-2.24849438851291,-0.9306532,4.514294,0.7837401,169.13481,-87.68767,-1.5078509,WAL
7276151319000,2.240288,-2.72876436087298,8.17114473339872,-1.53137227289848,-0.93645644,4.523457,0.6750061,167.9236,-87.723656,-1.612269,WAL
7276155797000,2.244766,-2.564712051231,7.95661493192742,-0.904608552682687,-0.9483683,4.4474044,0.5852089,166.71942,-87.71014,-1.754584,WAL
7276160770000,2.249739,-2.34144083886151,7.75575667072581,-0.211286741219677,-0.9831876,4.2384887,0.50823987,165.59084,-87.62796,-1.9083666,WAL
7276165781000,2.25475,-2.07243692451918,7.59342661637189,0.484413174858413,-1.0256428,3.9431353,0.4202753,164.52364,-87.50689,-2.0961585,WAL
7276170742000,2.259711,-1.8055934374808,7.47868180378904,1.23990468958525,-1.0961977,3.5634825,0.3286455,163.56696,-87.31673,-2.2874706,WAL
7276175779000,2.264748,-1.53389750273426,7.42928258044035,2.10439158305991,-1.1643091,3.0466905,0.25411993,162.7467,-87.10055,-2.5026472,WAL
7276180704000,2.269673,-1.27905182065661,7.35650867116238,2.96909884862467,-1.2473868,2.3658812,0.16584991,161.99388,-86.84162,-2.6503403,WAL
7276185994000,2.274963,-1.01932709004437,7.24662520630977,3.92308789397614,-1.3261884,1.505172,0.026267206,161.45067,-86.53734,-2.8341982,WAL
7276190668000,2.279637,-0.726274254057548,7.21320594138233,4.53527661506756,-1.3921618,0.5497787,-0.14905111,161.0878,-86.15518,-2.9727473,WAL
7276195858000,2.284827,-0.310748631631185,7.26635462904637,4.88799011492175,-1.452943,-0.30940324,-0.28313604,160.95026,-85.72332,-3.1319065,WAL
7276200702000,2.289671,0.0916726415507816,7.39506766557974,4.76090814107605,-1.5143349,-0.8903361,-0.35888332,160.9948,-85.18291,-3.2511566,WAL
7276205790000,2.294759,0.540293732334324,7.67078261361849,3.81693472651769,-1.582141,-1.1954633,-0.37232238,161.21071,-84.594795,-3.3775787,WAL
7276210676000,2.299645,0.954496201945639,7.96345757639812,2.8324239964607,-1.6713274,-1.2583824,-0.3454443,161.54245,-83.972404,-3.4204183,WAL
7276215771000,2.30474,1.34091583662495,8.3451066511928,1.59206457809934,-1.7602082,-1.1591167,-0.28680122,161.9158,-83.31957,-3.448573,WAL
7276221305000,2.310274,1.87786361676134,8.68994577115625,0.191715014335227,-1.8322903,-0.95814216,-0.19822577,162.31287,-82.82836,-3.3717165,WAL
7276225778000,2.314747,2.51709962904592,8.84666139780495,-1.03314358141908,-1.8536706,-0.8399397,-0.10629055,162.70221,-82.32973,-3.2719867,WAL
7276230743000,2.319712,3.14493549258295,8.98524073070988,-2.19017180785108,-1.840537,-0.5815437,-0.054367006,163.0654,-82.15129,-3.0810955,WAL
7276235838000,2.324807,3.35200797845293,8.93817881327161,-2.29370812449846,-1.7550159,-0.35063666,0.024129177,163.39384,-81.99361,-2.8586278,WAL
7276240705000,2.329674,3.52867272089464,8.89500697174809,-2.36837993596233,-1.6303993,-0.15210545,0.10323623,163.62189,-81.95351,-2.4941268,WAL
7276245864000,2.334833,3.46081967431823,8.87077374082794,-2.15512730143222,-1.4935656,0.03970624,0.20097467,163.78459,-81.93023,-2.115883,WAL
7276250845000,2.339814,3.37844411128205,8.8507215217274,-1.9524382111471,-1.3753631,0.25167647,0.3191771,163.87865,-81.93091,-1.6758782,WAL
7276255803000,2.344772,3.0665977765812,8.87635279820063,-1.79437908922177,-1.287704,0.4266894,0.46089783,163.92793,-81.941444,-1.2158912,WAL
7276260668000,2.349637,2.76060091931624,8.90150329437697,-1.63928477131804,-1.2483032,0.5687156,0.5748242,163.91139,-81.90682,-0.7511297,WAL
7276265759000,2.354728,2.33809376128874,8.95321280727988,-1.53483097962617,-1.2281445,0.6872234,0.65179324,163.85324,-81.865234,-0.2731599,WAL
7276270676000,2.359645,1.90727313846532,9.00880272110182,-1.44681392242991,-1.2076806,0.7733554,0.7067711,163.76642,-81.80592,0.21540245,WAL
7276275779000,2.364748,1.4308000149643,9.10098748284411,-1.32834800676319,-1.1609493,0.84238315,0.7480045,163.6186,-81.704,0.64712214,WAL
7276280688000,2.369657,0.964590717433558,9.19889146112654,-1.2071335806426,-1.1023064,0.93187493,0.7791586,163.44499,-81.589386,1.0762843,WAL
7276285801000,2.37477,0.441562145733139,9.26158647703419,-0.982340772680037,-1.0601566,1.0409144,0.79534656,163.20734,-81.45983,1.4188673,WAL
7276291112000,2.380081,-0.113415945798607,9.31444177200457,-0.718065456832589,-1.0213667,1.1624765,0.8060367,162.94572,-81.33393,1.7543845,WAL
7276295860000,2.384829,-0.433011584144144,9.29958113968424,-0.423054652344215,-1.0445796,1.2641857,0.80481493,162.61841,-81.193115,1.9884999,WAL
7276300722000,2.389691,-0.74450765963964,9.27881453197752,-0.115711847649362,-1.1059716,1.3261884,0.81031275,162.27335,-81.04922,2.2148879,WAL
7276305777000,2.394746,-1.05326538522751,9.1885497512868,0.221648761188697,-1.149343,1.349096,0.81031275,161.87138,-80.9017,2.3375256,WAL
7276310768000,2.399737,-1.3484960856084,9.05569584620136,0.566084531886967,-1.1716396,1.3481796,0.8167268,161.46529,-80.74666,2.453609,WAL
7276315780000,2.404749,-1.59363315861363,8.94271584235156,0.924799136209418,-1.1679744,1.3200798,0.8155051,161.03369,-80.566216,2.4981663,WAL
7276320793000,2.409762,-1.81361955106756,8.83974333869553,1.28988306747587,-1.1365148,1.2492194,0.7996226,160.62375,-80.39684,2.5351713,WAL
7276325780000,2.414749,-1.99956019965243,8.8601435183714,1.62479042904667,-1.0867293,1.1960741,0.7825184,160.18271,-80.19179,2.5186977,WAL
7276330777000,2.419746,-2.165889488143,8.95518874101291,1.94319207376365,-1.0616838,1.0616838,0.74189585,159.79492,-80.00213,2.493708,WAL
7276335805000,2.424774,-2.30647787031928,9.10524410701616,2.16388646409145,-1.0320568,0.90010995,0.7021896,159.39696,-79.77307,2.429334,WAL
7276340782000,2.429751,-2.42859632410327,9.28842227813362,2.31888303480489,-1.0250319,0.73792523,0.66675943,159.04547,-79.55639,2.359599,WAL
7276345797000,2.434766,-2.50459047331787,9.4736619350348,2.34967295684455,-1.0369438,0.6249151,0.6426302,158.70439,-79.3021,2.2566185,WAL
7276350802000,2.439771,-2.54629445195282,9.65901313935615,2.28943364004254,-1.0506883,0.57879484,0.6062838,158.39772,-79.059,2.1455774,WAL
7276355769000,2.444738,-2.5568349474319,9.82230727600764,2.19919445242738,-1.0793989,0.54183745,0.5705481,158.10541,-78.793976,2.0118308,WAL
7276360782000,2.449751,-2.53753320946829,9.96707106653935,2.07855785954367,-1.1117748,0.49938235,0.54428095,157.83395,-78.531395,1.87555,WAL
7276365767000,2.454736,-2.50386684712621,10.1121647797748,1.97432688405096,-1.1307116,0.42424592,0.48716503,157.57848,-78.2786,1.7166371,WAL
7276370787000,2.459756,-2.45638952538021,10.2593450720916,1.88411992315821,-1.1432343,0.33475417,0.42913285,157.34534,-78.02581,1.5571504,WAL
7276375773000,2.464742,-2.40251683592335,10.4198228061981,1.81757598124111,-1.1371256,0.24251351,0.35735616,157.13026,-77.786446,1.3899236,WAL
7276382421000,2.47139,-2.32149777587394,10.6533478023804,1.76038611211917,-1.1328496,0.13988814,0.28252518,156.95094,-77.5515,1.2167655,WAL
7276385788000,2.474757,-2.28046420559922,10.7716207660004,1.73142126715323,-1.119716,0.04550946,0.18936823,156.79227,-77.332436,1.0423316,WAL
7276390773000,2.479742,-1.78062603514361,10.9913368359965,1.71227220511715,-1.0940597,-0.06994407,0.094989546,156.67595,-77.126076,0.86073357,WAL
7276395704000,2.484673,-1.19270818853054,11.2181710535242,1.69838438996177,-1.047023,-0.19486602,0.004886922,156.59648,-76.936516,0.66793674,WAL
7276400767000,2.489736,-0.751601124253731,11.2350084649344,1.74204888141521,-0.98715824,-0.3475823,-0.057421334,156.54915,-76.76322,0.49570972,WAL
7276405684000,2.494653,-0.370552338208955,11.1884357833124,1.80132313515555,-0.91996306,-0.5653558,-0.108123146,156.56047,-76.61085,0.322075,WAL
7276410774000,2.499743,-0.0473310523300971,11.3352490137966,1.65775652166582,-0.8698721,-0.8042041,-0.15424347,156.6512,-76.45375,0.26752925,WAL
7276415793000,2.504762,0.213016172427184,11.6398066527338,1.348287187256,-0.799928,-0.93279123,-0.13591751,156.76956,-76.32602,0.22810501,WAL
7276420778000,2.509747,0.301252924067936,11.8667469193001,1.05731991327844,-0.70738196,-0.9416488,-0.06658431,156.9356,-76.186966,0.2855569,WAL
7276425768000,2.514737,0.27665783813896,12.0438310531137,0.776935845342254,-0.5888741,-0.88086766,-0.027183503,157.11615,-76.079056,0.3446492,WAL
7276430762000,2.519731,0.234105201677215,12.1267483662975,0.472585878464794,-0.5354234,-0.7648033,0.03359759,157.27957,-75.99814,0.45771286,WAL
7276435878000,2.524847,0.180807693164557,12.1606651392405,0.147955606563291,-0.41691554,-0.5833763,0.07666359,157.4038,-75.96973,0.5655573,WAL
7276440818000,2.529787,0.132768903200859,12.2261874189044,-0.126895262886144,-0.30085114,-0.34513888,0.13164146,157.46413,-75.97697,0.65995425,WAL
7276445779000,2.534748,0.0863764224597207,12.3096941138561,-0.382053903087003,-0.20708331,-0.031154128,0.18692477,157.44832,-76.0099,0.7456651,WAL
7276450773000,2.539742,0.125924519978985,12.4202157506254,-0.550108154553187,-0.13316862,0.28313604,0.23060162,157.35829,-76.10784,0.80351007,WAL
7276455795000,2.544764,0.226994192239568,12.5501625762033,-0.655990664760332,-0.062308256,0.5342017,0.27091873,157.1948,-76.22806,0.8556716,WAL
7276460778000,2.549747,0.262528885220779,12.6255647064935,-0.81435196051948,-0.0030543262,0.6835582,0.32711834,156.9503,-76.37967,0.89066863,WAL
7276465793000,2.554762,0.252932935725275,12.663948243956,-1.01106876736264,0.056199603,0.7318166,0.36774087,156.66356,-76.548195,0.9198328,WAL
7276470774000,2.559743,0.044916348800894,12.6497602812166,-1.29583662404042,0.10476339,0.6960809,0.37751472,156.35919,-76.73331,0.96258444,WAL
7276476306000,2.565275,-0.341189669144884,12.5931315984841,-1.68194264736177,0.1554652,0.64965516,0.37568212,156.04404,-76.93164,1.0076559,WAL
7276480773000,2.569742,-0.801976761063914,12.5543346611751,-1.77749565323541,0.21685717,0.63041294,0.3304781,155.72621,-77.16234,1.0346377,WAL
7276485833000,2.574802,-1.44161543879317,12.5158601306074,-1.71497457244938,0.31764993,0.5815437,0.26053402,155.43234,-77.41488,1.056288,WAL
7276490756000,2.579725,-2.1372976221394,12.5393692242143,-1.57530465937752,0.4196644,0.4578435,0.17195857,155.12842,-77.72756,0.9972144,WAL
7276495785000,2.584754,-2.91832533247381,12.6218381377921,-1.35700497840451,0.5332854,0.33017266,0.08582657,154.8435,-78.067825,0.9221007,WAL
7276500774000,2.589743,-3.56866372955005,12.6678163070623,-1.12356824779844,0.61544675,0.17867808,0.0106901415,154.53455,-78.41495,0.73253894,WAL
7276505786000,2.594755,-4.10974455013007,12.6816899711918,-0.873838623441565,0.68325275,-0.016798794,-0.021685716,154.27538,-78.78099,0.54377484,WAL
7276510789000,2.599758,-4.63451102103307,12.687146919683,-0.711949652479945,0.732122,-0.18753563,-0.04153884,153.9412,-79.100334,0.23203841,WAL
7276515786000,2.604755,-5.14012363255723,12.6824652263745,-0.655770471792213,0.80970186,-0.23182335,-0.070249505,153.628,-79.43166,-0.07947525,WAL
7276520730000,2.609699,-5.51317344789651,12.598402970765,-0.539267766954263,0.9254609,-0.23823744,-0.09254608,153.30951,-79.747185,-0.4594436,WAL
7276525787000,2.614756,-5.70063788540287,12.3912060852603,-0.327137161600285,1.0079277,-0.2415972,-0.10170906,153.00423,-80.05382,-0.82934284,WAL
7276530708000,2.619677,-5.73113523548419,12.1406929536865,-0.158393802123274,1.1795808,-0.2669481,-0.13805555,152.67192,-80.3889,-1.2750199,WAL
7276535772000,2.624741,-5.56018742778811,11.8177914289631,-0.0349314804226966,1.3497068,-0.32284227,-0.21105394,152.35384,-80.713394,-1.7168251,WAL
7276540674000,2.629643,-5.36330812619395,11.5360759848264,0.0789711603346951,1.5604553,-0.34391713,-0.30573806,152.05684,-81.056725,-2.1825275,WAL
7276546433000,2.635402,-5.07362292005641,11.2624839935804,0.202355560795448,1.7528778,-0.33169982,-0.4792238,151.77515,-81.38668,-2.6749544,WAL
7276550773000,2.639742,-4.83644305462334,11.176665222452,0.245627400818316,1.9556851,-0.26725355,-0.5390886,151.50436,-81.71916,-3.1235855,WAL
7276555783000,2.644752,-4.5293345934712,11.2900594558346,0.207829434850812,2.0054705,-0.14782938,-0.6469063,151.22313,-81.98332,-3.6233213,WAL
7276560677000,2.649646,-4.25202282137377,11.398062634263,0.137636668063002,2.0815234,0.006414085,-0.73273283,150.92871,-82.23214,-4.087896,WAL
7276565758000,2.654727,-4.01924303666396,11.5034721733008,-0.0160858201976713,2.1704042,0.17470746,-0.8170323,150.5982,-82.41485,-4.574306,WAL
7276570718000,2.659687,-3.79382996218081,11.6027541587302,-0.174999788530021,2.2565362,0.3436117,-0.9016371,150.21825,-82.547,-5.030955,WAL
7276575778000,2.664747,-3.58361791682934,11.6648625034014,-0.432987248393966,2.3365595,0.48502702,-0.9825767,149.79823,-82.611374,-5.5026097,WAL
7276582425000,2.671394,-3.30435979954121,11.816094678151,-0.79416949303151,2.4135287,0.6252206,-1.1078042,149.3396,-82.62226,-5.972802,WAL
7276585805000,2.674774,-3.15865175054536,11.9758131372922,-1.00432535262292,2.4944682,0.8054258,-1.2425,148.82797,-82.548004,-6.461314,WAL
7276590787000,2.679756,-2.94388325939231,12.2112324755886,-1.31408762850589,2.5445592,0.9428705,-1.3304645,148.3022,-82.420235,-6.9401555,WAL
7276595792000,2.684761,-2.22973557893067,12.7691163004135,-1.53935544179248,2.6038132,0.93737274,-1.3420709,147.76268,-82.20732,-7.424402,WAL
7276600815000,2.689784,-1.35544835136071,13.4306138587364,-1.73826735275507,2.7256808,1.0158689,-1.2883148,147.15622,-81.92232,-7.9056244,WAL
7276605876000,2.694845,-0.510825668156537,13.9517864607139,-1.80720127524522,2.844494,1.3347405,-1.221425,146.4818,-81.608185,-8.34525,WAL
7276610764000,2.699733,0.289167475255334,14.3920193441197,-1.81666864270401,2.9068022,1.7944167,-1.1820242,145.73927,-81.23444,-8.765073,WAL
7276615686000,2.704655,1.13421334538546,14.7175179546045,-1.06485167410659,2.8612928,2.005165,-1.1246029,145.09448,-99.07341,-9.041858,WAL
7276620752000,2.709721,2.02196918610139,14.9988828145185,0.0557582546085392,2.727208,2.3359487,-1.0622946,144.27869,-99.43186,-9.294017,WAL
7276625739000,2.714708,2.73139447318293,15.3014852239333,1.37208912375478,2.6590965,2.48164,-1.0329732,143.53125,-99.74425,-9.4278555,WAL
7276630729000,2.719698,3.36888393282001,15.6155429512506,2.78300304359784,2.5286767,2.4468207,-0.95264435,142.74124,-100.06177,-9.5210905,WAL
7276635746000,2.724715,3.82585414210526,15.8814846076555,3.93826697894737,2.4550674,2.255009,-0.8542951,142.06729,-100.23681,-9.479476,WAL
7276640755000,2.729724,4.18448316359649,16.1205704888357,4.95199191403509,2.4755313,1.9440787,-0.75716746,141.44266,-100.41637,-9.420655,WAL
7276645764000,2.734733,4.42104430749405,16.1079591984536,5.50993334318002,2.536618,1.5677856,-0.67103547,140.96593,-100.40649,-9.26349,WAL
7276650764000,2.739733,4.59192307434576,15.9608135798969,5.82321099980174,2.6041186,1.1676689,-0.59895337,140.59644,-100.40005,-9.103544,WAL
7276655742000,2.744711,4.59762989030804,15.3230851149512,5.23456302539444,2.6413813,0.77488256,-0.5522222,140.44708,-100.30569,-8.888887,WAL
7276660736000,2.749705,4.50779792336589,14.3978152926371,4.12064597870023,2.6441302,0.37048978,-0.52839845,140.41705,-100.22353,-8.685296,WAL
7276665748000,2.754717,4.29220452055938,13.8389256040493,2.92036043565018,2.6019804,0.044593163,-0.5354234,140.50064,-100.118805,-8.480558,WAL
7276670754000,2.759723,3.95198104562722,13.6488005243164,1.63951896460029,2.531731,-0.15454891,-0.5925393,140.65826,-100.03078,-8.302374,WAL
7276675758000,2.764727,3.65640839746509,13.5252883234012,0.865655444267544,2.4489589,-0.23518312,-0.65393126,140.80537,-100.06806,-8.165222,WAL
7276680758000,2.769727,3.3923498499244,13.4486261780664,0.448272606057102,2.3588562,-0.26389378,-0.7147123,140.9907,-100.11108,-8.052967,WAL
7276685752000,2.774721,3.12860817264075,13.3720560273059,0.0313906272525126,2.2913556,-0.31398472,-0.77213365,141.13199,-100.30145,-8.003011,WAL
7276690762000,2.779731,2.86402150800498,13.2952405576803,-0.38682697663435,2.2434027,-0.4111123,-0.8038987,141.29166,-100.48921,-7.967198,WAL
7276695798000,2.784767,2.59363754200645,13.1896338187152,-0.747715680005867,2.2317963,-0.6053675,-0.8368854,141.44342,-100.7961,-7.9851904,WAL
7276700850000,2.789819,2.28140383675565,12.8206305913758,-0.558483162505134,2.244319,-0.82650065,-0.8503244,141.62694,-101.100975,-8.011077,WAL
7276705890000,2.794859,1.96056747210983,12.4379957156792,-0.362956814205202,2.2482896,-1.0210613,-0.8347474,141.85146,-101.4484,-8.070386,WAL
7276710648000,2.799617,1.54196572392651,11.897105951538,-0.0948635618476466,2.2470677,-1.106277,-0.8127562,142.10245,-101.79376,-8.134524,WAL
7276715636000,2.804605,1.08592163518153,11.3262733230071,0.19613463285517,2.2369885,-1.1142182,-0.8072584,142.38335,-102.14588,-8.236163,WAL
7276720671000,2.80964,0.434181955998421,10.7078336515391,0.600498671953433,2.2149973,-1.0812315,-0.83077675,142.66931,-102.48716,-8.338472,WAL
7276725733000,2.814702,-0.221191215538749,10.0975997533641,1.01963033488852,2.1197023,-0.9468411,-0.9279043,142.93338,-102.837006,-8.504501,WAL
7276730664000,2.819633,-0.861286103042923,9.64303962793439,1.58087301583342,1.9663752,-0.70005155,-1.0742066,143.1436,-103.1711,-8.67852,WAL
7276735909000,2.824878,-1.53127535398273,9.16375979124975,2.17083032808515,1.7556267,-0.48991394,-1.244638,143.33653,-103.52527,-8.948863,WAL
7276740681000,2.82965,-2.01096494860702,8.77821552128703,2.62362145914263,1.5085317,-0.3576616,-1.4703526,143.4626,-103.86596,-9.25943,WAL
7276745899000,2.834868,-2.52556160386122,8.36103103879873,3.10497378033016,1.2620476,-0.33261612,-1.6862935,143.63264,-104.25219,-9.676844,WAL
7276750711000,2.83968,-2.72327152350308,8.09885019268793,3.16514626505316,1.0235047,-0.45478916,-1.8655825,143.79346,-104.61966,-10.141082,WAL
7276755694000,2.844663,-2.92800729440403,7.82735244618541,3.22745704879687,0.8350528,-0.60048056,-2.0186043,143.99107,-105.01371,-10.715666,WAL
7276760714000,2.849683,-2.86193025878649,7.81318881740126,2.81271962804808,0.66950834,-0.7021896,-2.1148155,144.20503,-105.39363,-11.321749,WAL
7276765666000,2.854635,-2.74882118364816,7.84485931875596,2.31956439492463,0.5338962,-0.6542367,-2.1453588,144.41393,-105.76765,-11.94389,WAL
7276770729000,2.859698,-2.59773846977526,7.94453757733669,1.59034536884058,0.47128254,-0.44684792,-2.107485,144.6117,-106.17113,-12.597786,WAL
7276775637000,2.864606,-2.43977859781559,8.06300758439403,0.810417934057971,0.47494772,-0.08827003,-2.0436497,144.75343,-106.57198,-13.234948,WAL
7276782275000,2.871244,-2.26532161047737,8.0669639174338,0.288721146707792,0.5589417,0.30757064,-2.003638,144.77347,-107.0138,-13.831795,WAL
7276785714000,2.874683,-2.17780429877574,8.05758687377811,0.0574253971509918,0.64721173,0.691194,-2.010663,144.69302,-107.45479,-14.398687,WAL
7276790728000,2.879697,-2.00251120929281,8.1419052699826,-0.26655299986286,0.7254025,1.054048,-1.9969184,144.4076,-107.933136,-14.884701,WAL
7276795740000,2.884709,-1.81092795812097,8.25980242646607,-0.585858322732576,0.82558435,1.4559973,-1.954158,143.99773,-108.41766,-15.334343,WAL
7276800737000,2.889706,-1.67479025400902,8.10873774112919,-0.569214549108018,0.8933904,1.7174476,-1.8848248,143.47429,-108.91276,-15.724664,WAL
7276805800000,2.894769,-1.55121920803764,7.88535978906097,-0.464654418016075,0.86101454,1.9755383,-1.8332067,142.83737,-109.39449,-16.079203,WAL
7276810739000,2.899708,-1.42383711097096,7.71376528917571,-0.394626796286301,0.79443026,2.2901337,-1.7580702,142.06607,-109.85707,-16.333624,WAL
7276815752000,2.904721,-1.29239695682018,7.5541592511587,-0.333600993974773,0.7461719,2.4636195,-1.6462818,141.27602,-110.29107,-16.552105,WAL
7276820771000,2.90974,-1.1445101563567,7.27091788077927,-0.00995379128740709,0.73456544,2.7980683,-1.5809193,140.3999,-110.71678,-16.742407,WAL
7276825761000,2.91473,-0.990942705914842,6.93978823566981,0.417155642514561,0.75502944,2.9929342,-1.4398094,139.53735,-111.09227,-16.873993,WAL
7276830786000,2.919755,-0.84126313328243,6.63951074304922,0.816397147929289,0.79259765,3.0329459,-1.3497068,138.6612,-111.465,-16.987677,WAL
7276835804000,2.924773,-0.693691782748776,6.35234487534235,1.20327341181841,0.7901542,2.9520063,-1.2809844,137.78563,-111.804634,-17.061422,WAL
7276840859000,2.929828,-0.500833266368238,6.06338306818859,1.47312671394541,0.7528914,2.9614747,-1.205848,136.94617,-112.08114,-17.106438,WAL
7276845776000,2.934745,-0.225075402791067,5.78295106292804,1.49649600704715,0.6957755,3.007595,-1.0931433,136.13644,-112.32701,-17.12167,WAL
7276850735000,2.939704,0.0239159382237118,5.48675971323837,1.51898500655635,0.6575964,3.0460796,-0.98807454,135.37846,-112.496506,-17.108883,WAL
7276855745000,2.944714,0.204820090967742,5.15510222580645,1.53908550645161,0.5864306,3.0964758,-0.9068295,134.61682,-112.627396,-17.065283,WAL
7276860720000,2.949689,0.379205359990055,4.87540409995027,1.57851587051218,0.49327368,3.1425962,-0.840856,133.8641,-112.713036,-16.970829,WAL
7276865716000,2.954685,0.545749432280457,4.67555118140229,1.64989189155644,0.38820487,3.179248,-0.77274454,133.11308,-112.76325,-16.849411,WAL
7276870701000,2.95967,0.714818631867909,4.46595521333063,1.72865921301661,0.28252518,3.1630602,-0.69058317,132.37225,-112.77612,-16.69649,WAL
7276875786000,2.964755,0.892404736507293,4.23410661628849,1.82238520982577,0.16737708,3.1025846,-0.61941737,131.64516,-112.75382,-16.528675,WAL
7276880692000,2.969661,1.07060238271133,4.02789830238025,1.83883693612499,0.060170226,3.0228667,-0.5534439,130.94264,-112.67824,-16.328203,WAL
7276885805000,2.974774,1.26725385183661,3.84083973076697,1.73811303978842,-0.043982297,2.932764,-0.5012149,130.27141,-112.56814,-16.118933,WAL
7276890678000,2.979647,1.47810042811356,3.59524919118607,1.62063654337719,-0.15393804,2.8475482,-0.44318274,129.63086,-112.398224,-15.878455,WAL
7276895802000,2.984771,1.74508389092888,3.20690965038085,1.45559224487091,-0.2669481,2.7531698,-0.38515055,129.02812,-112.195656,-15.633423,WAL
7276900728000,2.989697,1.9278186595077,2.92030431525939,1.27247186303815,-0.3652974,2.6713138,-0.33658674,128.44754,-111.969475,-15.361565,WAL
7276905777000,2.994746,1.96575394494459,2.80175639972541,1.03537613099931,-0.49968776,2.5702155,-0.3115413,127.907715,-111.706276,-15.091649,WAL
7276910709000,2.999678,2.01497178037026,2.73334003065922,0.787621753413654,-0.6291912,2.4565945,-0.25473082,127.390564,-111.42827,-14.78911,WAL
7276915780000,3.004749,2.09584044642962,2.78090977578607,0.492689134939759,-0.7806858,2.406809,-0.20830505,126.89143,-111.115845,-14.4878845,WAL
7276920723000,3.009692,2.15821591832822,2.81672579668328,0.243384191973831,-0.93034774,2.329229,-0.17684549,126.44716,-110.830246,-14.201071,WAL
7276925782000,3.014751,2.17214873021472,2.82137016430215,0.104055972724118,-1.0064005,2.2421808,-0.098043874,126.035324,-110.51215,-13.896379,WAL
7276930750000,3.019719,2.19378511258531,2.81341728348348,-0.0492017294957685,-1.1441506,2.1380284,-0.0030543262,125.75381,-110.26251,-13.63176,WAL
7276935794000,3.024763,2.25532618132678,2.74308453513513,-0.286574780646192,-1.2852604,2.008525,0.092240654,125.51935,-109.98364,-13.35833,WAL
7276941263000,3.030232,2.32517195183069,2.69771759052194,-0.554636647260452,-1.4138476,1.8912388,0.17440203,125.40591,-109.75779,-13.101909,WAL
7276945812000,3.034781,2.41944378510344,3.01824175277417,-0.901556900779018,-1.5995506,1.767844,0.25473082,125.3429,-109.47161,-12.834297,WAL
7276950754000,3.039723,2.52186000845668,3.36645683517701,-1.27844850176578,-1.8081611,1.6371188,0.34208453,125.30498,-109.16961,-12.55246,WAL
7276955851000,3.04482,2.63302222102486,3.92882695082699,-2.0654844730898,-2.0124955,1.498147,0.47128254,125.31815,-108.805725,-12.250628,WAL
7276960756000,3.049725,2.74265267901573,4.56754325950279,-3.01402576624049,-2.191479,1.387275,0.57604593,125.36943,-108.391495,-11.942218,WAL
7276965761000,3.05473,2.65805616448598,5.51033361869159,-4.72163431682243,-2.2828035,1.3289373,0.67103547,125.33372,-107.862335,-11.53032,WAL
7276970785000,3.059754,2.48474875545171,6.58764961993769,-6.76853492461059,-2.2727242,1.4147639,0.75686204,125.303925,-107.304756,-11.095426,WAL
7276975780000,3.064749,1.92491442944414,7.77662173645203,-8.70288574751422,-2.0967948,1.6358972,0.8216137,125.07885,-106.72591,-10.538765,WAL
7276982471000,3.07144,0.884565933131536,9.45763685833792,-11.2185307593836,-1.7455474,1.9449949,0.8384125,124.816284,-106.19212,-9.968736,WAL
7276985844000,3.074813,-0.0137653032408953,10.6240116870476,-11.9708366390467,-1.3206906,2.211332,0.79320854,124.33255,-105.97435,-9.426388,WAL
7276990790000,3.079759,-1.56470250223856,12.5336689522219,-12.7515802833278,-0.829555,2.2791383,0.70096785,123.830055,-105.875725,-8.896124,WAL
7276995771000,3.08474,-3.01990725918367,14.2162032224194,-13.3464550217884,-0.32986724,2.1135938,0.5329799,123.15198,-106.25845,-8.569741,WAL
7277000871000,3.08984,-4.45487032040816,15.8148865409642,-13.8568783876565,0.16126843,1.9181169,0.33658674,122.474724,-106.775154,-8.278644,WAL
7277005760000,3.094729,-5.55852808002595,16.8226612636945,-14.3721186567801,0.5983425,1.8148806,0.13469578,121.75858,-107.588875,-8.256975,WAL
7277010910000,3.099879,-6.56423028551302,17.5815098733896,-14.9298260902771,0.94989544,1.822211,-0.087659165,121.06918,-108.488075,-8.283677,WAL
7277015712000,3.104681,-7.59009267101047,18.1440842666097,-14.8801048792993,1.2275337,1.8579466,-0.22571471,120.38645,-109.5542,-8.523739,WAL
7277020756000,3.109725,-8.76651133172399,18.5723426028626,-14.1887008152104,1.3213016,1.9318613,-0.5345071,119.67724,-110.63383,-8.823554,WAL
7277025740000,3.114709,-9.16755686803678,18.8501451800974,-13.1206550632774,1.4052955,1.9865338,-0.81153446,118.92601,-111.80735,-9.2352495,WAL
7277030763000,3.119732,-9.05915533026861,19.0322594918875,-11.7851473935461,1.3863586,1.9788979,-1.0366384,118.16545,-112.927605,-9.659226,WAL
7277035736000,3.124705,-8.66940387576687,18.6423565015337,-10.5291997822086,1.3090842,1.9770653,-1.1844677,117.38553,-113.97747,-10.183836,WAL
7277040744000,3.129713,-7.8129640037248,17.3130359003067,-9.37326801358457,1.2705997,2.0317378,-1.260215,116.597145,-114.9913,-10.686397,WAL
7277045757000,3.134726,-7.13473286701257,15.6579589332635,-8.29779322562833,1.2516629,2.071444,-1.3377949,115.90134,-115.81341,-11.149464,WAL
7277050766000,3.139735,-6.60041109657273,13.7444470190404,-7.28851882863671,1.2299771,2.0418172,-1.4114041,115.21629,-116.6024,-11.596093,WAL
7277055735000,3.144704,-6.11114820592844,11.8248932587558,-6.29724634079109,1.1484267,1.9416351,-1.4737124,114.48985,-117.26663,-11.9470825,WAL
7277060742000,3.149711,-5.66753400884546,9.86484300868498,-5.31043106579817,1.033584,1.7302758,-1.5045611,113.806625,-117.90578,-12.305934,WAL
7277065702000,3.154671,-5.01457599150974,8.00867924975788,-4.35682456131497,0.9080512,1.4025466,-1.4969252,113.17282,-118.50729,-12.676545,WAL
7277070748000,3.159717,-3.90695390540192,6.29784470547724,-3.43640619736361,0.79198676,0.95172805,-1.4373659,112.6362,-119.0709,-13.070579,WAL
7277075736000,3.164705,-2.72887801004514,4.9938970675494,-2.7951681345471,0.67347896,0.52626044,-1.351234,112.132935,-119.575806,-13.470515,WAL
7277080730000,3.169699,-1.45753258659043,4.11594906221286,-2.44974594387602,0.571159,0.10751228,-1.2104294,111.76452,-120.03754,-13.8903475,WAL
7277085738000,3.174707,-0.0464699511506173,3.58327225209877,-2.41073994849383,0.46211955,-0.2134974,-1.029308,111.51365,-120.40786,-14.24705,WAL
7277090743000,3.179712,1.51102157456296,3.42704976592593,-2.70424906562963,0.28955013,-0.34513888,-0.8558222,111.34017,-120.71727,-14.594426,WAL
7277095732000,3.184701,2.86034998924534,3.6005387487361,-3.05363693719092,0.031154128,-0.2751948,-0.66675943,111.23232,-120.888954,-14.774014,WAL
7277100851000,3.18982,3.99592920540491,4.1818470057634,-3.48173219259123,-0.22785273,-0.07269296,-0.44898596,111.14871,-120.986664,-14.896404,WAL
7277105698000,3.194667,5.00172875478289,4.92919928542308,-3.8092406636798,-0.4605924,0.15393804,-0.2098322,111.11079,-120.95323,-14.817544,WAL
7277110778000,3.199747,5.86946723699968,6.24113741176346,-3.94353355676823,-0.61544675,0.26908615,0.0421497,111.08014,-120.84154,-14.66421,WAL
7277115700000,3.204669,6.56237481159009,7.54829512640345,-3.79973387953365,-0.7257079,0.45662177,0.1740966,111.021126,-120.59304,-14.283483,WAL
7277120781000,3.20975,7.0438714681689,8.95464673281082,-3.21812424944646,-0.7593055,0.59620446,0.45173484,110.99983,-120.27347,-13.791491,WAL
7277125669000,3.214638,7.35824393902798,10.2604746596956,-2.61808184672558,-0.8585711,0.6545421,0.7189884,111.033875,-119.773544,-13.122921,WAL
7277130766000,3.219735,7.39658478910162,11.5305229501227,-1.91356454793324,-0.9615019,0.63041294,0.956615,111.086205,-119.24385,-12.38894,WAL
7277135709000,3.224678,7.25941810211556,12.662645428101,-1.38344201436982,-0.9810496,0.50915617,1.1585059,111.28056,-118.500565,-11.50708,WAL
7277140757000,3.229726,6.73357593650334,13.5985479527991,-1.18082387813591,-0.8793405,0.28221974,1.2974777,111.52632,-117.76697,-10.612311,WAL
7277146269000,3.235238,5.93786229293462,14.3952434486019,-0.863752922778386,-0.7263188,-0.074830994,1.3716979,111.92725,-116.88507,-9.696715,WAL
7277150747000,3.239716,4.99899413596378,14.7451851785252,-0.479670433350582,-0.5522222,-0.625526,1.3750577,112.43643,-116.0647,-8.838325,WAL
7277155719000,3.244688,3.75367827160356,15.0377763536099,0.52370718594562,-0.38759398,-1.4181237,1.3045027,113.10807,-115.25887,-8.114683,WAL
7277160767000,3.249736,2.01301713040089,15.1095559998608,2.89692808700724,-0.2687807,-2.3811526,1.2348641,113.9592,-114.519745,-7.4934034,WAL
7277165763000,3.254732,0.56459721276738,15.0395580014801,4.8236909204068,-0.21533,-3.302643,1.1731668,114.99083,-113.8049,-7.1019444,WAL
7277170747000,3.259716,0.623850509558824,14.1963384480042,4.43170755409664,-0.18936823,-3.9382482,1.1239921,116.18383,-113.1358,-6.8018003,WAL
7277175828000,3.264797,0.689368479350145,13.3175877008729,4.01954271691562,-0.18295415,-4.1783185,1.087951,117.60664,-112.279236,-6.718037,WAL
7277180730000,3.269699,0.816863532318138,12.2293261088264,3.46402853548012,-0.20555615,-4.085772,1.0143417,119.080284,-111.44233,-6.6700473,WAL
7277186195000,3.275164,0.95954468641418,11.0431205435278,2.87846669232085,-0.3323107,-3.746742,0.88239485,120.48321,-110.6815,-6.6338224,WAL
7277190742000,3.279711,1.08370097084205,10.3271530003802,2.7294791077932,-0.54428095,-3.302032,0.73273283,121.808846,-109.90526,-6.5837197,WAL
7277196505000,3.285474,1.23076784087116,9.4285024410747,2.56155302549359,-0.78984874,-2.8817568,0.634689,122.97047,-109.20533,-6.5170856,WAL
7277200734000,3.289703,1.13596757103603,8.94213559230613,2.85007553907999,-1.0577132,-2.5152376,0.5693264,124.00607,-108.45523,-6.4288974,WAL
7277205736000,3.294705,1.02383918377773,8.36686792204356,3.19133579279463,-1.3347405,-2.2770002,0.52412236,124.923904,-107.69448,-6.3193502,WAL
7277210741000,3.29971,0.777774938875634,8.0804829254399,3.90792847360573,-1.5827519,-2.2201898,0.49877146,125.78286,-106.87756,-6.1898737,WAL
7277215702000,3.304671,0.522722846664678,7.82070782214932,4.64946900437419,-1.815797,-2.207667,0.5002986,126.58319,-105.99807,-6.033194,WAL
7277220745000,3.309714,0.153677977475126,7.82564853608512,5.25505573381933,-1.9272798,-2.3267858,0.52320606,127.42502,-105.0879,-5.8939176,WAL
7277225673000,3.314642,-0.218261766628904,7.85819314323712,5.83156231169343,-2.1432207,-2.511267,0.5439755,128.27748,-104.09455,-5.7394857,WAL
7277230749000,3.319718,-0.640497424255767,8.20657450692065,6.18814997027855,-2.3408356,-2.680782,0.54641896,129.19856,-103.0193,-5.6102123,WAL
7277235754000,3.324723,-1.06260294076768,8.5965633212214,6.50472893998277,-2.4932466,-2.8420506,0.5708536,130.16454,-101.90454,-5.4586043,WAL
7277240739000,3.329708,-1.34533864150517,9.20789879228598,6.55542586694262,-2.6374106,-2.978579,0.571159,131.19011,-100.71415,-5.347275,WAL
7277245698000,3.334667,-1.59106077693321,9.87358226321731,6.53755513310442,-2.8026497,-3.0705142,0.57360244,132.23938,-99.50362,-5.21048,WAL
7277250750000,3.339719,-1.80258902579466,10.5451748706205,6.20014926657865,-2.9498682,-3.118467,0.60139686,133.31279,-98.29054,-5.0986958,WAL
7277255687000,3.344656,-1.98984877899868,11.1981834927389,5.71039305067533,-3.02531,-3.1019738,0.6450737,134.37978,-97.12426,-4.9584236,WAL
7277260737000,3.349706,-2.18647296041667,11.647280054274,4.97363295398784,-3.0537155,-2.9733865,0.7031059,135.41081,-96.06061,-4.811956,WAL
7277266310000,3.355279,-2.40599110833333,12.0338227163805,4.04306682825465,-3.0256155,-2.7085764,0.7651087,136.38072,-95.15761,-4.628388,WAL
7277270876000,3.359845,-2.60834440071942,12.2088258209903,3.16424909957681,-2.9477303,-2.3386977,0.8268061,137.2395,-94.537285,-4.4302154,WAL
7277275744000,3.364713,-2.84509380215827,12.2630814629708,2.11860609873043,-2.8609874,-1.9077321,0.8753699,137.98732,-85.78799,-4.203301,WAL
7277280713000,3.369682,-3.05636410576197,12.2040490249451,1.30109565094862,-2.7162123,-1.4718798,0.9242391,138.57156,-85.80698,-3.987368,WAL
7277285792000,3.374761,-3.2486194905314,12.0545167516908,0.660244494782609,-2.4926357,-1.0332786,0.9465357,139.01907,-85.61997,-3.7623754,WAL
7277290746000,3.379715,-3.42394110613504,11.9147165837647,0.0794498275470867,-2.237294,-0.6420194,0.95417154,139.3049,-85.37591,-3.5686169,WAL
7277295779000,3.384748,-3.57259200012116,11.7873016901641,-0.403665758073576,-1.9520199,-0.2678644,0.95569867,139.46477,-85.10732,-3.37625,WAL
7277300703000,3.389672,-3.67469346369672,11.7241726581353,-0.826250965332435,-1.6890424,0.090713486,0.9654725,139.49152,-84.91266,-3.2267687,WAL
7277305793000,3.394762,-3.73097662967382,11.7288625301645,-1.20616262952949,-1.46852,0.48472157,0.9877691,139.40103,-84.75751,-3.0835955,WAL
7277310686000,3.399655,-3.7563756190711,11.6986958621438,-1.54937648780199,-1.2889256,0.70280045,0.9914343,139.24994,-84.69181,-2.9731116,WAL
7277315745000,3.404714,-3.73726545983631,11.6127003451336,-1.86947180464451,-1.2296717,1.1505647,1.0247264,138.9234,-84.65387,-2.864451,WAL
7277320747000,3.409716,-3.73900963018723,11.4719623551258,-2.11902790906231,-1.1349876,1.5995506,1.0549643,138.54185,-84.72136,-2.7760875,WAL
7277325901000,3.41487,-3.77688480689073,11.2295614140577,-2.25916588885052,-1.0864239,2.0491474,1.0778717,138.03845,-84.79233,-2.693741,WAL
7277330796000,3.419765,-3.81285667145488,10.9993416611418,-2.39226162246777,-1.1068878,2.4492643,1.0528263,137.43768,-84.91696,-2.6288414,WAL
7277336156000,3.425125,-3.40996453321627,9.98950254667837,-1.74290130472149,-1.1814134,2.670703,1.0308352,136.7696,-85.037964,-2.5669298,WAL
7277340704000,3.429673,-2.96808048053848,8.96127255194615,-1.01209316272559,-1.2455542,2.656042,1.0204504,136.06702,-85.149704,-2.5168033,WAL
7277345797000,3.434766,-2.54382101629771,8.29440850545802,-0.530792722280534,-1.3472633,2.529593,0.99204516,135.35405,-85.23464,-2.5084932,WAL
7277350815000,3.439784,-2.1540504519084,7.83126941832061,-0.191463041221374,-1.421178,2.3900104,0.94897914,134.66052,-85.30402,-2.5103698,WAL
7277355674000,3.444643,-1.74738315860496,7.42021423373011,0.0680518996618089,-1.457219,2.2021692,0.9056077,134.03755,-85.247086,-2.455475,WAL
7277360647000,3.449616,-1.31293133400823,7.02284968107687,0.290576023698965,-1.4709635,2.0173824,0.88331115,133.46312,-85.174904,-2.4104407,WAL
7277365675000,3.454644,-0.950115018569586,6.84362077948616,0.369652774179149,-1.4724907,1.8469511,0.8472701,132.96864,-85.06372,-2.3208976,WAL
7277370646000,3.459615,-0.610103697559766,6.72083890397778,0.412154188072612,-1.4248432,1.7266107,0.80573124,132.52107,-84.9564,-2.2427938,WAL
7277375660000,3.464629,-0.311156784357119,6.70687221621508,0.560905613471895,-1.3860532,1.6459764,0.7648033,132.15363,-84.84369,-2.1153035,WAL
7277380644000,3.469613,-0.0259929298300236,6.72293781560922,0.737626871297543,-1.35551,1.5625933,0.72509706,131.82892,-84.73313,-2.002363,WAL
7277385660000,3.474629,0.257783595273678,6.69369052300988,1.07558725674608,-1.3518448,1.3939945,0.6728681,131.61444,-84.64687,-1.8621486,WAL
7277390659000,3.479628,0.535961725392214,6.59910979157467,1.64307065775712,-1.346347,1.1255192,0.59223384,131.45863,-84.55812,-1.7424446,WAL
7277395694000,3.484663,0.778402281010479,6.53850735389222,2.27173184416168,-1.3377949,0.7293731,0.49296826,131.39949,-84.42829,-1.5848727,WAL
7277400855000,3.489824,1.00962375832803,6.49226309416168,2.94227409313249,-1.3151928,0.23060162,0.3903429,131.45158,-84.292274,-1.4455562,WAL
7277405733000,3.494702,1.18625062798975,6.65147680493546,3.42953123055239,-1.3283265,-0.053450707,0.2919936,131.51976,-84.02314,-1.2772948,WAL
7277410735000,3.499704,1.33628912166856,6.96519373735763,3.82054050452733,-1.3408492,-0.70402217,0.24373524,131.83759,-83.75307,-1.1000147,WAL
7277415718000,3.504687,1.37171596999791,7.4337387237926,3.74194844883964,-1.3497068,-1.4010195,0.16737708,132.21097,-83.31417,-0.8849733,WAL
7277420752000,3.509721,1.2709221971775,8.09393772000836,3.10190813351453,-1.3649784,-1.9077321,0.18417588,132.71274,-82.866554,-0.63930523,WAL
7277425742000,3.514711,1.19669946117564,8.55083218998081,2.41303211532168,-1.3952162,-2.1716259,0.2593123,133.34052,-82.33697,-0.33994734,WAL
7277430708000,3.519677,1.14386209389961,8.84383923068377,1.68291605932734,-1.4214834,-2.2653937,0.2996294,134.0589,-81.79849,-0.029120507,WAL
7277435747000,3.524716,1.11916754233658,9.01567136260115,1.1422949271648,-1.4376713,-2.2440135,0.32925636,134.82999,-81.39952,0.28272483,WAL
7277440741000,3.52971,1.11685002820177,9.08983166971944,0.759904816630324,-1.416902,-2.1474967,0.3735441,135.5947,-80.99849,0.61376053,WAL
7277445769000,3.534738,1.11451673603721,9.16449687280128,0.374911329292048,-1.3790283,-2.0060816,0.41508293,136.30995,-80.71314,0.9294742,WAL
7277450753000,3.539722,1.11220386249939,9.23850868110675,-0.0067130821824877,-1.3359623,-1.8240436,0.42546764,136.97536,-80.42754,1.2423465,WAL
7277455740000,3.544709,1.11288092481738,9.2897818299307,-0.25575042347256,-1.2733486,-1.6383406,0.42149702,137.56882,-80.13246,1.5579273,WAL
7277460737000,3.549706,1.11736259456827,9.31219064665668,-0.336420539824874,-1.2156218,-1.4669929,0.4364632,138.10605,-79.842545,1.8717856,WAL
7277465714000,3.554683,1.10525079767863,9.34152199595357,-0.41397892006815,-1.1688906,-1.3008375,0.46670106,138.53232,-79.646675,2.1520157,WAL
7277470746000,3.559715,1.05393516790544,9.38770590735811,-0.485820791033969,-1.1172725,-1.1517864,0.5149594,138.90881,-79.462364,2.429917,WAL
7277475698000,3.564667,0.95724744994213,9.41207342361111,-0.603833949249614,-1.1111639,-0.98899084,0.57971114,139.20982,-79.26761,2.7050097,WAL
7277480710000,3.569679,0.795213956655093,9.40744428472222,-0.789015099627701,-1.1203269,-0.8127562,0.63224554,139.46053,-79.077805,2.9769814,WAL
7277485747000,3.574716,0.622107187130897,9.39578104329181,-1.01525299321625,-1.1102476,-0.6197228,0.6719518,139.63799,-78.89234,3.2420483,WAL
7277490732000,3.579701,0.432003555540127,9.37140880110272,-1.31259452097815,-1.131017,-0.3811799,0.70524395,139.74966,-78.69136,3.5024533,WAL
7277495692000,3.584661,0.235578822772643,9.3601166987061,-1.54404318743068,-1.1438452,-0.10903945,0.72601336,139.7649,-78.518105,3.7193215,WAL
7277500772000,3.589741,0.0225952636715634,9.36958233154976,-1.67656629746084,-1.1615603,0.14813483,0.7443393,139.71643,-78.336876,3.9267411,WAL
7277505677000,3.594646,-0.16729928418729,9.36336976964957,-1.70359271602653,-1.1896601,0.27366763,0.768163,139.59099,-78.18967,4.092862,WAL
7277510737000,3.599706,-0.330395085533558,9.32499401237379,-1.52130914623837,-1.2030991,0.45998153,0.7779369,139.37875,-78.04536,4.2367125,WAL
7277515689000,3.604658,-0.502130950760086,9.28188885480413,-1.26642296178133,-1.1902709,0.58123827,0.79351395,139.13211,-77.93943,4.3427844,WAL
7277521452000,3.610421,-0.73339376113818,9.21735021847593,-0.771628157641785,-1.1600331,0.65179324,0.80939645,138.85107,-77.83863,4.4383674,WAL
7277525696000,3.614665,-0.911665848202292,9.18052460173844,-0.390011743555907,-1.0421361,0.6411031,0.8072584,138.53345,-77.739716,4.5095725,WAL
7277530705000,3.619674,-1.14384101339392,9.16631000572896,0.10750638487258,-0.9990701,0.61911196,0.7831292,138.2056,-77.63679,4.5699286,WAL
7277535799000,3.624768,-1.36362210177016,9.18860291442722,0.595685653223883,-0.9202685,0.5833763,0.7644979,137.88521,-77.53535,4.612205,WAL
7277540755000,3.629724,-1.52904268157388,9.31919849179125,1.01794355789232,-0.86284715,0.5177083,0.7452556,137.58679,-77.44909,4.646498,WAL
7277545844000,3.634813,-1.70208075432268,9.45929473073907,1.44296447144678,-0.8313876,0.41722095,0.7284568,137.30038,-77.32647,4.6534414,WAL
7277550734000,3.639703,-1.90405548908057,9.66126917790629,1.75510709083513,-0.8237518,0.27885997,0.70524395,137.05055,-77.22197,4.657436,WAL
7277556000000,3.644969,-2.11970700237145,9.88106461037234,2.07763212946587,-0.8240572,0.14172074,0.6649268,136.83109,-77.08673,4.6350527,WAL
7277560744000,3.649713,-2.29088391744238,10.1076221529255,2.19846287139849,-0.84604836,0.0012217305,0.6392705,136.65613,-76.95307,4.6185627,WAL
7277565711000,3.65468,-2.44914071898148,10.3033829318519,2.28457375187037,-0.8582657,-0.15454891,0.6065892,136.51944,-76.80896,4.568781,WAL
7277570748000,3.659717,-2.52953800162037,10.343581922963,2.21757610184259,-0.88208944,-0.2941316,0.5720753,136.4225,-76.66114,4.5202246,WAL
7277575842000,3.664811,-2.61001065505876,10.383989201777,2.14317817117608,-0.9025534,-0.4147775,0.54336464,136.35837,-76.52163,4.4468107,WAL
7277580706000,3.669675,-2.67676553496704,10.4195916185153,1.99186697064106,-0.89766645,-0.5183192,0.50518554,136.33395,-76.38772,4.371543,WAL
7277585987000,3.674956,-2.74823779367828,10.4589939253077,1.82662254572293,-0.88422745,-0.60048056,0.4654793,136.3256,-76.26559,4.2786345,WAL
7277591310000,3.680279,-2.71633044562904,10.5759877569372,1.56072781205925,-0.87872964,-0.6930266,0.40500367,136.35504,-76.14784,4.180384,WAL
7277595910000,3.684879,-2.68189978448367,10.6656113576346,1.32999619939982,-0.88208944,-0.77213365,0.3368922,136.39873,-76.06392,4.0612354,WAL
7277600751000,3.68972,-2.56732634630185,10.6287842939982,1.07629784758164,-0.88789266,-0.8405506,0.25289822,136.47168,-75.98567,3.9310193,WAL
7277605676000,3.694645,-2.45076485424537,10.5913182150044,0.818197376045896,-0.8738427,-0.8588765,0.20952678,136.54878,-75.94718,3.799269,WAL
7277610737000,3.699706,-2.25577992757105,10.6223430306182,0.509473193143862,-0.8756753,-0.8891144,0.12675454,136.65659,-75.90953,3.6445796,WAL
7277615694000,3.704663,-2.04250494205489,10.6733433906632,0.194197138964743,-0.852157,-0.904386,0.07086037,136.76622,-75.88093,3.4916975,WAL
7277620743000,3.709712,-1.85240838033149,10.8001406878453,-0.0211324679779006,-0.782213,-0.8912524,0.04734206,136.85611,-75.88115,3.3568354,WAL
7277625683000,3.714652,-1.67657221900553,10.9522150273732,-0.192216284793571,-0.68875057,-0.8741482,0.040011674,136.95038,-75.89458,3.217689,WAL
7277630720000,3.719689,-1.72426162043383,11.0422762099891,-0.335624673645643,-0.55680364,-0.8341365,0.046120327,137.02486,-75.9666,3.119042,WAL
7277635731000,3.7247,-1.85547578806963,11.1078832253008,-0.466838804744805,-0.37415496,-0.7684685,0.04550946,137.08502,-76.07624,3.0177126,WAL
7277640697000,3.729666,-2.03499045718933,11.204595906311,-0.496121603741054,-0.18906279,-0.6337727,0.013439035,137.09943,-76.2262,2.9304104,WAL
7277645804000,3.734773,-2.2630403247018,11.3318799345044,-0.437783238494904,0.0012217305,-0.47036624,-0.034208454,137.08498,-76.42437,2.8342206,WAL
7277650732000,3.739701,-2.49222918535044,11.4832155573544,-0.259615605257256,0.18784106,-0.2733622,-0.0983493,136.99544,-76.69087,2.6940525,WAL
7277656781000,3.74575,-2.77816254909181,11.6833687865745,0.0205991139004936,0.3539964,-0.08093964,-0.18020524,136.86267,-77.00093,2.5282497,WAL
7277661016000,3.749985,-2.96736492714487,11.8642185905164,0.307464165969058,0.48502702,0.08552113,-0.27152961,136.67848,-77.35912,2.3003736,WAL
7277665722000,3.754691,-3.17563785949367,12.0724914755877,0.642511919797468,0.5546656,0.18448131,-0.3378085,136.4609,-77.738945,2.0546827,WAL
7277670700000,3.759669,-3.37752177117778,12.330511344169,0.840771920005788,0.5888741,0.23793201,-0.40133846,136.22246,-78.12776,1.7401116,WAL
7277675714000,3.764683,-3.57205839353719,12.608420528311,0.965831149599691,0.5739079,0.24709499,-0.44868052,135.9714,-78.51008,1.4173523,WAL
7277680704000,3.769673,-3.69580150259806,12.8326544710138,1.01808137757514,0.4896085,0.25625798,-0.48075095,135.71858,-78.83922,1.0547551,WAL
7277685719000,3.774688,-3.77409426214977,13.0234932320937,1.02297466866021,0.3747658,0.25992316,-0.48349985,135.46729,-79.13859,0.697873,WAL
7277690740000,3.779709,-3.73452326313496,13.1190959202891,0.797776719534607,0.22357668,0.2180789,-0.45937067,135.22728,-79.38593,0.32239515,WAL
7277695763000,3.784732,-3.62973121784335,13.1619652531934,0.445294481229825,0.07971791,0.14080444,-0.4538729,135.0002,-79.5844,-0.04579813,WAL
7277700760000,3.789729,-3.45590455912169,13.2950311384186,-0.339893656448915,-0.02443461,0.07360926,-0.42577308,134.77211,-79.73649,-0.39772514,WAL
7277705677000,3.794646,-3.24488960920135,13.4779110260904,-1.36214384196375,-0.043066,0.0571159,-0.42424592,134.55557,-79.8566,-0.743171,WAL
7277710682000,3.799651,-3.09587326682799,13.6684055854003,-2.15268609735834,0.03359759,0.012217305,-0.46273044,134.34656,-80.00223,-1.0627633,WAL
7277715707000,3.804676,-2.98912631734221,13.8624907638637,-2.78346333268804,0.31245756,-0.13072516,-0.52626044,134.1728,-80.185974,-1.374019,WAL
7277720685000,3.809654,-3.00330571695761,13.9551173855362,-2.98390841755611,0.7021896,-0.2996294,-0.56505036,133.94035,-80.534485,-1.6416643,WAL
7277725675000,3.814644,-3.08911007356608,13.9884854284289,-2.93147250204489,1.0622946,-0.36865717,-0.57787853,133.71994,-80.93061,-1.9109596,WAL
7277730669000,3.819638,-3.13888712028378,13.9647869201981,-2.70355603152081,1.2950343,-0.33841935,-0.5833763,133.49522,-81.45073,-2.17952,WAL
7277735688000,3.824657,-3.16635081489382,13.9052825432816,-2.3648374818303,1.4511104,-0.23182335,-0.6026186,133.26256,-82.00892,-2.4500334,WAL
7277740682000,3.829651,-3.17439319310558,13.7772122688825,-1.99329048401935,1.5974126,-0.0729984,-0.62125,132.99971,-82.57754,-2.727354,WAL
7277745683000,3.834652,-3.16453651955135,13.5850072374974,-1.58916661098992,1.7366899,0.09987647,-0.63194007,132.69641,-83.131226,-3.0055242,WAL
7277750697000,3.839666,-3.16854201268273,13.2710858553931,-1.26984454619518,1.8829921,0.29260445,-0.6569856,132.3606,-83.6237,-3.2893538,WAL
7277755686000,3.844655,-3.18270004958514,12.8699409837021,-1.01499966512446,2.043955,0.42943826,-0.68386364,131.98694,-84.07967,-3.5727568,WAL
7277760683000,3.849652,-3.12897217281207,12.5533805796785,-0.84011537101409,2.2366831,0.5119051,-0.7290677,131.60722,-84.442116,-3.8674054,WAL
7277765711000,3.85468,-3.01907924092082,12.3049271333598,-0.730222508970034,2.431549,0.52106804,-0.81092364,131.20677,-84.72153,-4.1737785,WAL
7277770844000,3.859813,-2.81500711769466,12.262261011144,-0.723333600489365,2.6123652,0.4905248,-0.906524,130.83852,-84.877365,-4.498104,WAL
7277775763000,3.864732,-2.54795580175396,12.3855155783226,-0.798655767135036,2.7910433,0.4709771,-1.0198395,130.46089,-84.89,-4.8423076,WAL
7277780766000,3.869735,-2.27634414620379,12.5108749195697,-0.875264183424585,2.933375,0.5357288,-1.1120802,130.07802,-84.749016,-5.1893153,WAL
7277785811000,3.87478,-2.00245232084888,12.6372866478512,-0.952515724536073,3.011871,0.7324274,-1.1798862,129.65646,-95.55178,-5.5515904,WAL
7277790729000,3.879698,-1.49117240942255,12.9070633523128,-0.98595555696362,3.02531,0.9392053,-1.1927143,129.2109,-95.983086,-5.914571,WAL
7277795830000,3.884799,-0.614871912435755,13.3944440339615,-0.961340366088884,2.9965994,1.0509937,-1.1664472,128.73001,-96.514694,-6.273632,WAL
7277800725000,3.889694,0.257144692144026,13.8291473585251,-0.715959181834023,3.0008755,1.1407908,-1.1117748,128.19398,-97.05446,-6.5488563,WAL
7277805782000,3.894751,1.19897990490998,14.2347891582748,-0.170440786427265,2.9923234,1.4312572,-1.0873401,127.5638,-97.64537,-6.8120193,WAL
7277810696000,3.899665,2.05276890547945,14.6800381287671,0.590456075506849,2.9480357,1.779756,-1.0482447,126.93882,-98.1702,-6.9551296,WAL
7277815779000,3.904748,2.81962848258317,15.2373209407045,1.81457351942466,2.8163943,2.0387628,-1.0268645,126.254776,-98.711235,-7.0864797,WAL
7277820672000,3.909641,3.48321206576687,15.7782103709611,2.94481536605317,2.6572638,2.1087067,-1.0198395,125.64437,-99.1405,-7.1046257,WAL
7277825783000,3.914752,3.99870768254601,16.3537643662577,4.01084036196319,2.5460863,1.996613,-0.97249746,125.014824,-99.56114,-7.102256,WAL
7277830688000,3.919657,4.41285467697715,16.7664651265378,4.8382905483304,2.461787,1.7314975,-0.8924741,124.4978,-99.763664,-6.9911957,WAL
7277835844000,3.924813,4.69248018305019,16.9303833374341,5.33004568443663,2.4459045,1.3539828,-0.8063421,124.05202,-99.963104,-6.881134,WAL
7277840689000,3.929658,4.92855832740327,16.9150115986239,5.61055334122457,2.468201,0.9147707,-0.72021013,123.80092,-100.01565,-6.713473,WAL
7277846396000,3.935365,5.1356668826087,16.4462915,5.45794709130435,2.4785857,0.44348818,-0.64904433,123.66953,-100.06568,-6.553264,WAL
7277850766000,3.939735,5.22851742194933,15.9821947889525,5.15653915260654,2.4877486,0.03176499,-0.61391956,123.68274,-100.05885,-6.375703,WAL
7277855789000,3.944758,5.19582842452189,15.2256766677992,4.41870019384526,2.4871378,-0.3032946,-0.61636305,123.804276,-100.06114,-6.2158375,WAL
7277860725000,3.949694,5.09640283005065,14.5344667118739,3.6105639957794,2.4544566,-0.52595496,-0.64751714,124.02205,-100.09312,-6.05927,WAL
7277865758000,3.954727,4.77995118486213,13.9964993398987,2.5210670114894,2.3952026,-0.6035349,-0.7021896,124.28486,-100.1312,-5.9259844,WAL
7277870742000,3.959711,4.45403195507109,13.4925495516588,1.46300927933649,2.3313673,-0.61850107,-0.75502944,124.54401,-100.26926,-5.8212047,WAL
7277875780000,3.964749,4.02211251545024,13.2181533827278,0.563600369131122,2.2586741,-0.64599,-0.8197812,124.820015,-100.40173,-5.7431045,WAL
7277880802000,3.969771,3.59149555423666,12.9565199669653,-0.203765424714446,2.2067506,-0.7079928,-0.8512407,125.05552,-100.69388,-5.7178707,WAL
7277885836000,3.974805,3.15960616431504,12.7360767099664,-0.518684713594625,2.1774292,-0.81122905,-0.8912524,125.30212,-100.97935,-5.7166343,WAL
7277890766000,3.979735,2.73034215701858,12.5154776950376,-0.812333975053381,2.1636846,-0.9611965,-0.92271197,125.53514,-101.38522,-5.773042,WAL
7277895857000,3.984826,2.20500098127718,12.226298980773,-0.923185789519573,2.144137,-1.063211,-0.9560041,125.77642,-101.779724,-5.8422413,WAL
7277900840000,3.989809,1.69871539348371,11.9380941566416,-1.00699373103914,2.1163425,-1.0488557,-0.9868528,126.00718,-102.23833,-5.9682,WAL
7277905779000,3.994748,1.31116122353383,11.5778968477444,-0.733426086983806,2.039679,-1.0567969,-1.0012082,126.26575,-102.6705,-6.1019015,WAL
7277911103000,4.000072,0.896495439511419,11.1848184860539,-0.426504948282478,1.9947804,-1.1026118,-1.1142182,126.511086,-103.159515,-6.326026,WAL
7277916433000,4.005402,0.557282495950955,10.6736099246537,0.175478556762448,1.8576412,-1.174083,-1.2153164,126.75805,-103.59358,-6.5482626,WAL
7277920728000,4.009697,0.283939232800449,10.2616698174841,0.660566578182329,1.7321084,-1.2250903,-1.2660183,127.01422,-104.01198,-6.8282695,WAL
7277925777000,4.014746,-0.20201077375,9.75996265625,1.20398415,1.6627752,-1.3500122,-1.3860532,127.29125,-104.42153,-7.156316,WAL
7277930689000,4.019658,-0.707194747310372,9.26843236987229,1.72737295743034,1.4984524,-1.3793337,-1.5314392,127.54166,-104.77617,-7.4937005,WAL
7277935839000,4.024808,-1.37142171101858,8.75648537625673,1.87698703320808,1.3029755,-1.2168436,-1.6890424,127.81403,-105.09492,-7.8957453,WAL
7277940673000,4.029642,-2.0343133788565,8.27694688168985,1.90049386162283,1.067487,-0.9080512,-1.8603901,128.03365,-105.38143,-8.320799,WAL
7277945867000,4.034836,-2.40876898680542,7.84990194515944,1.81192749276303,0.8200866,-0.6469063,-2.0005836,128.3048,-105.6603,-8.842732,WAL
7277950843000,4.039812,-2.6817545606836,7.46317239404239,1.69818346801604,0.63163465,-0.5015204,-2.0842721,128.51112,-105.91878,-9.373229,WAL
7277955932000,4.044901,-2.63039243249324,7.33902162813909,1.45525862387013,0.5299256,-0.3475823,-2.1255057,128.65034,-106.23957,-9.997378,WAL
7277960673000,4.049642,-2.46659534841166,7.3185470074757,1.18453844950396,0.5180137,-0.12736541,-2.1740694,128.72365,-106.56453,-10.624791,WAL
7277965770000,4.054739,-2.29049879967432,7.29653495484517,0.893489993746868,0.52290064,0.118202426,-2.2067506,128.73373,-106.94486,-11.286211,WAL
7277970775000,4.059744,-2.11758076427498,7.2749202160938,0.607694914079567,0.5222898,0.43890667,-2.1725423,128.66106,-107.328255,-11.916714,WAL
7277975779000,4.064748,-1.90152067755637,7.13385561251754,0.555640274884461,0.6062838,0.84116143,-2.0500638,128.50491,-107.73085,-12.50712,WAL
7277982422000,4.071391,-1.59202741553934,6.88388024964917,0.609206408977453,0.71685034,1.0345002,-1.9523253,128.31761,-108.141785,-13.080904,WAL
7277985721000,4.07469,-1.42256942510732,6.80394381268977,0.567368904004816,0.7141015,1.1612549,-1.8774943,127.973526,-108.56185,-13.544881,WAL
7277990774000,4.079743,-1.15910348680766,6.69247757423306,0.486302452090881,0.6569856,1.3384057,-1.8035797,127.56486,-108.969345,-13.958554,WAL
7277995862000,4.084831,-0.931000057242258,6.55611561606233,0.47899612998922,0.5726862,1.5464053,-1.7437148,127.12078,-109.34104,-14.314272,WAL
7278000747000,4.089716,-0.729271435378283,6.41398849429635,0.506504563627989,0.5177083,1.6691893,-1.6643023,126.65708,-109.6834,-14.631147,WAL
7278005740000,4.094709,-0.553197311190053,6.28610880487186,0.569930548955426,0.48716503,1.919644,-1.6300939,126.092186,-110.0029,-14.882931,WAL
7278010806000,4.099775,-0.393159401776199,6.16710613818828,0.656104807211368,0.4560109,2.1068742,-1.5543466,125.521,-110.28187,-15.091222,WAL
7278015694000,4.104663,-0.227909492872712,6.05089524902324,0.734056423195558,0.43493605,2.2223277,-1.4850134,124.91442,-110.53944,-15.257734,WAL
7278020773000,4.109742,-0.0228648005716636,5.92586808677771,0.799070599784084,0.4266894,2.307849,-1.4236214,124.272,-110.77552,-15.390243,WAL
7278025672000,4.114641,0.168265006333705,5.80292575504002,0.847084131638132,0.3839288,2.3845124,-1.3585643,123.62804,-110.967026,-15.478622,WAL
7278030726000,4.119695,0.349689751482119,5.67053460966467,0.861794236146287,0.34055737,2.475226,-1.2757921,122.96715,-111.137085,-15.534745,WAL
7278035721000,4.12469,0.502318833978665,5.53133404741209,0.890378150375346,0.29016098,2.5583036,-1.1682798,122.31561,-111.26403,-15.544362,WAL
7278040722000,4.129691,0.601663560665745,5.37522124278941,0.94714656421375,0.23548855,2.627026,-1.0687088,121.655014,-111.36418,-15.525972,WAL
7278045708000,4.134677,0.700983529800297,5.22770988077963,1.00809107766635,0.20005837,2.7003298,-0.9859365,120.99138,-111.432495,-15.460772,WAL
7278050809000,4.139778,0.803227445328333,5.09564469273568,1.08051384523415,0.18142697,2.740036,-0.89369583,120.33479,-111.47019,-15.3629,WAL
7278056217000,4.145186,0.913437761182284,4.96399852880244,1.15460187304824,0.13713925,2.77455,-0.82558435,119.67332,-111.47406,-15.237539,WAL
7278060742000,4.149711,1.0185537591609,4.91338714977091,1.19742692672716,0.07666359,2.819143,-0.743423,119.01514,-111.44941,-15.080354,WAL
7278065716000,4.154685,1.13410005174558,4.85775377975923,1.24450136142305,-0.019242255,2.8457158,-0.6789767,118.375786,-111.38899,-14.908294,WAL
7278070748000,4.159717,1.24528328524931,4.83834346121884,1.31848890817175,-0.11178834,2.840218,-0.6056729,117.749084,-111.29955,-14.712429,WAL
7278075671000,4.16464,1.35256187443609,4.8290148924812,1.39778183984962,-0.21166481,2.7999008,-0.5354234,117.13869,-111.17839,-14.503296,WAL
7278080747000,4.169716,1.42483247927422,4.79150120576245,1.50891222178303,-0.3036,2.7079656,-0.47739118,116.56555,-111.01328,-14.272012,WAL
