timestamp,rel_time,acc_x,acc_y,acc_z,gyro_x,gyro_y,gyro_z,azimuth,pitch,roll,label
15944611012000,0,-1.8506111007009,9.96166337807853,-2.71925150907296,1.0070114,1.636508,-0.037873644,92.03869,-105.78892,-12.43879,STD
15944616003000,0.004991,-1.84505837886123,9.99220335665224,-2.74192512546614,1.1426234,2.0112739,-0.018936822,91.73674,-106.02603,-12.370938,STD
15944620928000,0.009916,-1.83957908512043,10.0223394805704,-2.76429891042635,1.2156218,2.3289237,-0.027183503,91.31182,-106.299576,-12.29326,STD
15944625976000,0.014964,-1.82456466932599,10.0314383657663,-2.69781354066343,1.2534955,2.543643,-0.040927973,90.815605,-106.59457,-12.195737,STD
15944631008000,0.019996,-1.80796816124421,10.0367300003095,-2.61603364127236,1.2333369,2.6477954,-0.10415252,90.26458,-106.91053,-12.1012125,STD
15944635992000,0.02498,-1.79152996643507,10.0419711582115,-2.53503383631109,1.1557571,2.5961773,-0.20922135,89.682884,-107.31155,-12.045654,STD
15944640990000,0.029978,-1.77504559692142,10.0472270384673,-2.4538065038078,1.0818423,2.3866506,-0.32803464,89.12164,-107.7255,-12.010986,STD
15944646032000,0.03502,-1.75841610690784,10.0525291889774,-2.37186408474385,0.9972375,2.1120665,-0.4428773,88.5963,-108.139626,-12.007993,STD
15944651025000,0.040013,-1.74194822836009,10.0577798112497,-2.29071801207699,0.91904676,1.8854356,-0.5006041,88.12069,-108.547646,-12.028193,STD
15944656002000,0.04499,-1.72553312090321,10.063013607975,-2.20983197088674,0.8344419,1.6911805,-0.5012149,87.71637,-108.94153,-12.075851,STD
15944661001000,0.049989,-1.70904545319637,10.0682705398274,-2.12858838641616,0.74189585,1.4984524,-0.48349985,87.37827,-109.317444,-12.145257,STD
15944666004000,0.054992,-1.69254459271682,10.0735316780666,-2.04727979407643,0.61178154,1.2663237,-0.45814893,87.11114,-109.658295,-12.225235,STD
15944670991000,0.059979,-1.67609650332814,10.0787759907588,-1.96623123321329,0.4615087,1.0079277,-0.42058071,86.91165,-109.96188,-12.309395,STD
15944675996000,0.064984,-1.65958904646223,10.0840392321913,-1.88489013693899,0.28130344,0.72143185,-0.3921755,86.78933,-110.22031,-12.405598,STD
15944681002000,0.06999,-1.64307829140313,10.0893035252206,-1.80353278869739,0.08552113,0.46211955,-0.35735616,86.73722,-110.42766,-12.504564,STD
15944685992000,0.07498,-1.62662030743491,10.0945509927028,-1.7224354719324,-0.057726767,0.26145032,-0.3203988,86.752235,-110.59554,-12.609946,STD
15944690984000,0.079972,-1.61015572708034,10.0998005633785,-1.64130565123283,-0.19242255,0.1966986,-0.30848694,86.802376,-110.71517,-12.719084,STD
15944696028000,0.085016,-1.5935196406804,10.1051048170819,-1.55933072823431,-0.23090707,0.112399206,-0.3023783,86.91596,-110.81502,-12.834037,STD
15944701002000,0.08999,-1.57711442780307,10.1103354590171,-1.47849344294592,-0.2779437,0.11484267,-0.3182608,87.02135,-110.88172,-12.946454,STD
15944705991000,0.094979,-1.56065974202803,10.1155818749027,-1.39741237814821,-0.31306845,0.18234327,-0.33750305,87.13084,-110.939415,-13.056116,STD
15944711001000,0.099989,-1.54413579419621,10.1208503743187,-1.31599002203746,-0.29810223,0.301462,-0.35094208,87.22285,-110.99723,-13.160507,STD
15944716005000,0.104993,-1.52763163552348,10.1261125641546,-1.23466517773044,-0.27214047,0.48624873,-0.31581733,87.2787,-111.04222,-13.242481,STD
15944720995000,0.109983,-1.51117365155526,10.1313600316368,-1.15356786096545,-0.20769419,0.7360926,-0.30482176,87.27892,-111.10381,-13.316511,STD
15944725981000,0.114969,-1.49472886035977,10.1366032927323,-1.07253555206961,-0.122478485,1.0128145,-0.29046643,87.2229,-111.16693,-13.360265,STD
15944731009000,0.119997,-1.47814554505071,10.1418907208887,-0.990820660547686,-0.038789943,1.2452488,-0.29352075,87.10965,-111.24354,-13.387208,STD
15944735993000,0.124981,-1.46170735024157,10.1471318787908,-0.909820855586418,0.039095376,1.4123205,-0.29718593,86.940445,-111.33376,-13.391933,STD
15944740989000,0.129977,-1.44522957711428,10.1523856558532,-0.828626027017699,0.12003502,1.5430456,-0.29443705,86.71973,-111.441216,-13.378788,STD
15944746072000,0.13506,-1.42846486118032,10.1577309218276,-0.746017277294961,0.19853121,1.5974126,-0.27977628,86.47831,-111.562645,-13.355275,STD
15944751019000,0.140007,-1.41214869951885,10.1629331706522,-0.665618795123333,0.25411993,1.5787812,-0.23732115,86.227974,-111.6902,-13.318227,STD
15944755989000,0.144977,-1.39575667941423,10.1681596062006,-0.584846517704091,0.29016098,1.5164729,-0.16707164,85.98309,-111.822044,-13.268522,STD
15944761013000,0.150001,-1.3791865568779,10.1734428279703,-0.50319663405132,0.31031954,1.461495,-0.11178834,85.74832,-111.956665,-13.212431,STD
15944766004000,0.154992,-1.3627252747165,10.1786913470492,-0.422083065319038,0.3277292,1.4596626,-0.13439035,85.51939,-112.098915,-13.159778,STD
15944770998000,0.159986,-1.34625409797556,10.1839430209182,-0.340920740684895,0.32498032,1.5384641,-0.16218472,85.29126,-112.23126,-13.092082,STD
15944775978000,0.164966,-1.32982909593915,10.1891799724335,-0.259985943592777,0.30298916,1.6258179,-0.1563815,85.0658,-112.36,-13.021419,STD
15944780998000,0.169986,-1.31327216617553,10.1944589878164,-0.178401067809156,0.2751948,1.690875,-0.1441642,84.82646,-112.489174,-12.952088,STD
15944785992000,0.17498,-1.2968009894346,10.1997106616854,-0.0972387431750119,0.25411993,1.690875,-0.14569137,84.58442,-112.61518,-12.883794,STD
15944791567000,0.180555,-1.27841356245608,10.2055733132312,-0.0066340255467876,0.2611449,1.6044376,-0.1432479,84.35435,-112.737915,-12.814314,STD
15944796022000,0.18501,-1.26372011183916,10.2102581764844,0.065768488719354,0.25595254,1.4337007,-0.111177474,84.1548,-112.8477,-12.746425,STD
15944801001000,0.189989,-1.24729840799593,10.215494076403,0.146687033844184,0.23060162,1.2034045,-0.045814894,84.00312,-112.947815,-12.683812,STD
15944805996000,0.194984,-1.23082393306181,10.2207468018687,0.227865610445616,0.15974127,0.9654725,-0.009773844,83.903984,-113.03447,-12.638563,STD
15944811023000,0.200011,-1.21424391594594,10.2260331784285,0.30956425000025,0.07788532,0.8378017,-0.0012217305,83.84337,-113.10521,-12.595754,STD
15944816001000,0.204989,-1.19782551029588,10.2312680267504,0.390466543157792,0.0030543262,0.77671516,0.0070249503,83.83403,-113.15389,-12.560721,STD
15944820930000,0.209918,-1.18156871611164,10.2364513468346,0.470572489918244,-0.054061573,0.73792523,0.026267206,83.855606,-113.1832,-12.531382,STD
15944825979000,0.214967,-1.1823026696721,10.2279484372072,0.472889299028756,-0.101098195,0.6963864,0.058948494,83.896614,-113.19297,-12.503131,STD
15944830971000,0.219959,-1.18780558169516,10.2157463229421,0.45327020714102,-0.13439035,0.6243043,0.07941248,83.95699,-113.19091,-12.480514,STD
15944835996000,0.224984,-1.19334487114145,10.203463545662,0.433521421737198,-0.16187929,0.49632803,0.099265605,84.23599,-112.94069,-12.470476,STD
15944840989000,0.229977,-1.19884888551067,10.1912589870631,0.413898399742913,-0.18845193,0.33567044,0.109650314,84.5439,-112.686,-12.4682255,STD
15944846029000,0.235017,-1.20440471014934,10.1789395447762,0.394090662740872,-0.20891592,0.1731803,0.10903945,84.88709,-112.42976,-12.476107,STD
15944850995000,0.239983,-1.20987896117228,10.1668009831895,0.374573753623384,-0.22052236,0.019242255,0.122783914,85.27289,-112.17002,-12.49103,STD
15944855992000,0.24498,-1.21538738492613,10.1545866472555,0.354935011202907,-0.24190263,-0.0711658,0.1337795,85.68339,-111.908226,-12.514907,STD
15944861801000,0.250789,-1.22179091376066,10.1403875122863,0.332105022265434,-0.2593123,-0.12767084,0.12095132,86.12345,-111.65067,-12.550822,STD
15944866002000,0.25499,-1.22642186997237,10.1301188660468,0.315594644657185,-0.2855795,-0.13927728,0.10751228,86.5739,-111.388725,-12.586123,STD
15944870995000,0.259983,-1.23192588434159,10.1179143074479,0.2959716226629,-0.28955013,-0.10323623,0.089186326,87.021835,-111.135216,-12.624994,STD
15944875975000,0.264963,-1.23741556821075,10.1057415251882,0.276399692053739,-0.29535335,-0.02076942,0.067500606,87.45512,-110.882576,-12.663339,STD
15944881002000,0.26999,-1.24295706234936,10.0934538592405,0.256643046436822,-0.29749137,0.07788532,0.04642576,87.86887,-110.63739,-12.700099,STD
15944886000000,0.274988,-1.24846658844937,10.0812370789727,0.237000373909797,-0.2770274,0.119729586,0.03390302,88.271324,-110.402725,-12.736293,STD
15944890977000,0.279965,-1.25395296528006,10.0690716297143,0.217440233620281,-0.24953845,0.21166481,0.025350908,88.62772,-110.17664,-12.763511,STD
15944896024000,0.285012,-1.25951650634183,10.0567350770909,0.197604985872403,-0.23060162,0.31612277,-0.0070249503,88.96323,-109.9642,-12.794978,STD
15944900987000,0.289975,-1.2649874503263,10.0446038485056,0.178099867074559,-0.21135938,0.45051312,-0.04734206,89.26066,-109.76518,-12.820457,STD
15944905993000,0.294981,-1.27050579519558,10.0323675135675,0.15842575369515,-0.17134771,0.6017023,-0.08582657,89.5194,-109.58456,-12.8442745,STD
15944910970000,0.299958,-1.27599217202626,10.0202020643092,0.138865613405633,-0.13561209,0.7495316,-0.112704635,89.737305,-109.41648,-12.865548,STD
15944916008000,0.304996,-1.28154579197261,10.0078875106898,0.119065736616687,-0.095294975,0.840856,-0.121256754,89.92588,-109.265396,-12.884855,STD
15944920995000,0.309983,-1.28704319226488,9.99569761809364,0.0994662952616907,-0.03573562,0.86620694,-0.11789699,90.08966,-109.13218,-12.901977,STD
15944925992000,0.31498,-1.29255161601874,9.98348328215959,0.0798275528412139,0.025045475,0.8570439,-0.10995574,90.236855,-109.01153,-12.915894,STD
15944930975000,0.319963,-1.29804460692637,9.97130316689855,0.0602438319124094,0.08277224,0.82924956,-0.10048734,90.3823,-108.90435,-12.927817,STD
15944935999000,0.324987,-1.3035827940265,9.95902283395224,0.040498976615136,0.13133603,0.7666359,-0.09132435,90.540474,-108.80859,-12.940522,STD
15944940989000,0.329977,-1.30908350135725,9.94682560835469,0.0208877449404953,0.16676621,0.68783426,-0.0720821,90.711945,-108.71994,-12.950643,STD
15944946154000,0.335142,-1.31477711926572,9.9342006243444,0.000588744619950399,0.18753563,0.57910025,-0.0580322,90.90913,-108.63884,-12.965658,STD
15944951049000,0.340037,-1.32017310371141,9.92223561045662,-0.018649126932628,0.19425514,0.4474588,-0.041233405,91.13549,-108.55882,-12.981019,STD
15944955998000,0.344986,-1.32562861484966,9.91013860254434,-0.0380992242387997,0.20158553,0.32925636,-0.038179077,91.38717,-108.483955,-13.00211,STD
15944961038000,0.350026,-1.33118443948833,9.89781916025744,-0.0579069612408416,0.18997909,0.22052236,-0.02107485,91.673386,-108.40099,-13.021865,STD
15944966002000,0.35499,-1.33665648581895,9.88568548733835,-0.0774160101452336,0.18020524,0.122783914,-0.013133603,91.98683,-108.32151,-13.049211,STD
15944970990000,0.359978,-1.34215498845738,9.87349315040838,-0.0970193816067782,0.17837265,0.032986723,-0.004276057,92.3269,-108.23794,-13.076712,STD
15944975973000,0.364961,-1.34764797936502,9.86131303514733,-0.116603102535583,0.15271631,-0.032070424,-0.003970624,92.68398,-108.14815,-13.107523,STD
15944981001000,0.369989,-1.35319057584978,9.84902292486588,-0.136363678259048,0.14202617,-0.06627888,0.005192355,93.054855,-108.05747,-13.135392,STD
15944985992000,0.37498,-1.35869238552668,9.83682325493454,-0.155978840040237,0.12644911,-0.0711658,0.009468411,93.43124,-107.962036,-13.164858,STD
15944990963000,0.379951,-1.36417214828042,9.82467247167894,-0.175515399690465,0.12064589,-0.052839845,0.0036651916,93.80609,-107.86697,-13.193349,STD
15944996046000,0.385034,-1.3697753738039,9.81224792303919,-0.195492131274072,0.10629055,-0.012217305,0.00580322,94.17213,-107.765114,-13.21549,STD
15945000991000,0.389979,-1.37522647555751,9.80016069246206,-0.214926508154052,0.087659165,0.035430185,0.008857546,94.52604,-107.66294,-13.235661,STD
15945006031000,0.395019,-1.38078230019618,9.78784125017516,-0.234734245156094,0.064446285,0.07727446,0.004276057,94.8653,-107.55914,-13.253648,STD
15945010991000,0.399979,-1.38624993714217,9.77571735459122,-0.254227573634294,0.051618114,0.11881329,0.009773844,95.18765,-107.45189,-13.263714,STD
15945016003000,0.404991,-1.3917748960884,9.76346635365036,-0.273925267652991,0.040011674,0.15485434,0.009468411,95.49511,-107.34394,-13.273204,STD
15945020925000,0.409913,-1.39720064388037,9.75143534275033,-0.293269252082366,0.022907447,0.1731803,0.016798794,95.79284,-107.23106,-13.276425,STD
15945025987000,0.414975,-1.40317115773617,9.74998220914007,-0.301640179178253,0.011301007,0.18692477,0.009162978,96.077225,-107.12187,-13.281074,STD
15945031000000,0.419988,-1.40916964569935,9.75094198645582,-0.307398727322251,0.0076358155,0.19517145,0.011301007,96.355576,-107.00879,-13.279205,STD
15945036030000,0.425018,-1.41518847563248,9.75190501855202,-0.313176803756385,0.0030543262,0.1881465,0.0021380284,96.591896,-106.982605,-13.321336,STD
15945040980000,0.429968,-1.42111157864818,9.75285273403436,-0.318862982354588,-0.0012217305,0.18142697,0.009468411,96.82577,-106.95166,-13.356489,STD
15945046013000,0.435001,-1.42713399834071,9.75381634050358,-0.324644504957568,-0.007330383,0.15454891,-0.003970624,97.06482,-106.92638,-13.400157,STD
15945050998000,0.439986,-1.43309898188279,9.75477075700449,-0.330370888858991,-0.01863139,0.11026118,-0.0061086523,97.31072,-106.89522,-13.438497,STD
15945055994000,0.444982,-1.43907712787601,9.7557272795398,-0.336109908712853,-0.032070424,0.05955936,-0.0070249503,97.56439,-106.86537,-13.480487,STD
15945061073000,0.450061,-1.44515459054607,9.75669969306198,-0.341944272571494,-0.043982297,-0.007330383,-0.020463986,97.833435,-106.83717,-13.528031,STD
15945066042000,0.45503,-1.45110042870466,9.75765104624012,-0.347652276905731,-0.06352998,-0.08735373,-0.025350908,98.119865,-106.80358,-13.574821,STD
15945071054000,0.460042,-1.45709772008136,9.7586106320982,-0.353409676326779,-0.086437434,-0.16340645,-0.031154128,98.42199,-106.77064,-13.626725,STD
15945076044000,0.465032,-1.46306868655578,9.75956600588747,-0.359141803842948,-0.10751228,-0.23060162,-0.027183503,98.742935,-106.73346,-13.678455,STD
15945081020000,0.470008,-1.46902290081965,9.76051869926931,-0.364857849237828,-0.1133155,-0.2507602,-0.023823744,99.06957,-106.696335,-13.730901,STD
15945086020000,0.475008,-1.47500583315874,9.76147598763532,-0.370601463983487,-0.1160644,-0.28191432,-0.032986723,99.415886,-106.65817,-13.786861,STD
15945090977000,0.479965,-1.48093731227972,9.76242504332137,-0.376295683642334,-0.1160644,-0.30940324,-0.03481932,99.76478,-106.61688,-13.837928,STD
15945096078000,0.485066,-1.48704109985206,9.76340166891237,-0.382155319405855,-0.10354166,-0.3200934,-0.03145956,100.114746,-106.57784,-13.888051,STD
15945101044000,0.490032,-1.49298334825125,9.76435244771748,-0.387859877571244,-0.079107046,-0.29535335,-0.029321533,100.45922,-106.54104,-13.935908,STD
15945106019000,0.495007,-1.49893636592865,9.76530494964165,-0.393574774243175,-0.06780604,-0.24098633,-0.03268129,100.794914,-106.50432,-13.98089,STD
15945111139000,0.500127,-1.50506288864388,9.76628521292844,-0.399456235742731,-0.051923547,-0.16187929,-0.03970624,101.11299,-106.47192,-14.021675,STD
15945116231000,0.505219,-1.51115590693802,9.76726011540038,-0.40530553299971,-0.03634648,-0.098043874,-0.04886922,101.41646,-106.44204,-14.06004,STD
15945120886000,0.509874,-1.51672601694571,9.76815135086913,-0.410652838327919,-0.01282817,-0.010079277,-0.03940081,101.687584,-106.412315,-14.088634,STD
15945125929000,0.514917,-1.52276040250292,9.76911687191508,-0.416445848160391,-0.00061086525,0.0729984,-0.030848695,101.93851,-106.38514,-14.115692,STD
15945130948000,0.519936,-1.52876606998491,9.77007779797687,-0.422211288642084,0.022602014,0.1518,-0.036957346,102.16253,-106.36377,-14.139184,STD
15945135937000,0.524925,-1.53473583987285,9.77103298030847,-0.427942267435303,0.03359759,0.21410827,-0.03604105,102.36582,-106.33816,-14.154244,STD
15945140925000,0.529913,-1.54070441317434,9.77198797118239,-0.433672097505573,0.049785517,0.2611449,-0.047647487,102.54806,-106.32083,-14.170898,STD
15945145957000,0.534945,-1.5467256362804,9.77295138619394,-0.439452471385604,0.058948494,0.28985557,-0.04795292,102.7165,-106.300674,-14.181386,STD
15945150934000,0.539922,-1.55268104713073,9.77390427103346,-0.445169665503434,0.062308256,0.3115413,-0.06719518,102.87065,-106.28926,-14.198075,STD
15945155929000,0.544917,-1.55865799653749,9.77486060211109,-0.450907536634347,0.04886922,0.29840767,-0.07727446,103.02575,-106.274216,-14.211719,STD
15945160971000,0.549959,-1.56469118550823,9.77582593169937,-0.45669939774387,0.043676864,0.2770274,-0.07086037,103.17566,-106.261024,-14.224738,STD
15945165940000,0.554928,-1.57063702366682,9.7767772848775,-0.462407402078106,0.01740966,0.24709499,-0.07238753,103.32998,-106.24718,-14.242776,STD
15945170929000,0.559917,-1.57660679355477,9.7777324672091,-0.468138380871325,-0.0033597588,0.226631,-0.079107046,103.48656,-106.23268,-14.260012,STD
15945175927000,0.564915,-1.58258733272093,9.77868937265976,-0.473879698171086,-0.032375857,0.1863139,-0.076358154,103.65665,-106.2112,-14.27594,STD
15945180938000,0.569926,-1.58858342751117,9.77964876706016,-0.479635948869186,-0.0421497,0.16279559,-0.079107046,103.825874,-106.19228,-14.294373,STD
15945186195000,0.575183,-1.59487388257249,9.78065526004818,-0.485674785412772,-0.05131268,0.10293079,-0.06872234,104.016594,-106.16534,-14.310067,STD
15945190891000,0.579879,-1.60049305262537,9.78155434528153,-0.491069188381896,-0.083383106,0.080634214,-0.06841691,104.201,-106.13716,-14.327643,STD
15945196119000,0.585107,-1.60674880667913,9.78255528599702,-0.497074711959957,-0.08002335,0.05100725,-0.06169739,104.40382,-106.10797,-14.341728,STD
15945201032000,0.59002,-1.61262763599552,9.78349591754546,-0.502718387809042,-0.09865474,0.040317107,-0.06169739,104.605385,-106.073364,-14.356457,STD
15945206017000,0.595005,-1.6185926195376,9.78445033404636,-0.508444771710464,-0.098043874,0.029626964,-0.049480084,104.81424,-106.03674,-14.365627,STD
15945211005000,0.599993,-1.62456119283908,9.78540532492028,-0.514174601780734,-0.09987647,0.030543262,-0.04184427,105.020485,-105.99863,-14.374786,STD
15945216005000,0.604993,-1.63054412517817,9.78636261328629,-0.519918216526394,-0.10140363,0.040011674,-0.03145956,105.22572,-105.95683,-14.3786125,STD
15945220952000,0.60994,-1.63646363843447,9.78730975439561,-0.525600948955749,-0.09040806,0.05955936,-0.032070424,105.4254,-105.91734,-14.381952,STD
15945225957000,0.614945,-1.61660050121877,9.79174225837474,-0.529232970925712,-0.08002335,0.081855945,-0.022907447,105.62006,-105.87253,-14.378215,STD
15945231002000,0.61999,-1.59024999293685,9.79706069107912,-0.532375692634233,-0.070249505,0.1151481,-0.039095376,105.802765,-105.8359,-14.3799925,STD
15945235997000,0.624985,-1.56416063934553,9.8023264138459,-0.535487267447725,-0.054061573,0.1255328,-0.035430185,106.02201,-105.84321,-14.413157,STD
15945240992000,0.62998,-1.53807128575421,9.80759213661268,-0.538598842261217,-0.05131268,0.122478485,-0.03176499,106.233345,-105.85334,-14.44873,STD
15945246098000,0.635086,-1.51140216874976,9.81297487544094,-0.541779563181675,-0.041233405,0.10781772,-0.034208454,106.443405,-105.8659,-14.483611,STD
15945251038000,0.640026,-1.4856000853181,9.81818261727635,-0.544856876410634,-0.03848451,0.09101892,-0.030543262,106.653755,-105.87441,-14.514502,STD
15945256096000,0.645084,-1.45918167681662,9.82351475456451,-0.548007696311863,-0.03848451,0.033292156,-0.01160644,106.87923,-105.87941,-14.542144,STD
15945261021000,0.650009,-1.43345793979215,9.82870668341864,-0.551075665472313,-0.034208454,-0.0106901415,-0.0076358155,107.10353,-105.88717,-14.571685,STD
15945266003000,0.654991,-1.40743648642039,9.83395870160165,-0.554179142093097,-0.030848695,-0.056505036,0.00580322,107.34437,-105.8864,-14.5936985,STD
15945270992000,0.65998,-1.38137847139195,9.83921809917591,-0.557286979279185,-0.04153884,-0.1142318,0.01863139,107.59964,-105.8827,-14.615151,STD
15945275989000,0.664977,-1.355278671613,9.84448593034019,-0.560399799968477,-0.048563786,-0.16157386,0.015577064,107.86296,-105.87952,-14.637089,STD
15945281019000,0.670007,-1.32900650973826,9.84978855006329,-0.56353317760849,-0.04734206,-0.18173242,0.017104227,108.13331,-105.87059,-14.653674,STD
15945286029000,0.675017,-1.30283880973976,9.85507008581136,-0.566654096490491,-0.047647487,-0.22021692,0.022602014,108.42029,-105.85959,-14.670601,STD
15945290987000,0.679975,-1.27694271061949,9.8602968032243,-0.56974262260166,-0.055283304,-0.24617869,0.027794369,108.70675,-105.84671,-14.685971,STD
15945296129000,0.685117,-1.2500855622378,9.86571749320764,-0.57294576928654,-0.0729984,-0.27672195,0.03573562,109.003174,-105.82967,-14.698847,STD
15945301070000,0.690058,-1.22427825571233,9.87092628924181,-0.576023705453399,-0.08674286,-0.29932398,0.03604105,109.30176,-105.812096,-14.711524,STD
15945306038000,0.695026,-1.19832992565394,9.87616354864228,-0.579118460943575,-0.10476339,-0.30787608,0.029626964,109.60206,-105.79119,-14.722908,STD
15945311070000,0.700058,-1.17204731759158,9.88146827676288,-0.582253084459389,-0.12522738,-0.33169982,0.029932396,109.91045,-105.766106,-14.731916,STD
15945316035000,0.705023,-1.14611465681462,9.8867023735671,-0.585345971135862,-0.13255776,-0.34300083,0.025961773,110.21405,-105.742744,-14.742339,STD
15945321029000,0.710017,-1.12003052631712,9.89196704213513,-0.588456923011453,-0.15974127,-0.344528,0.021685716,110.51843,-105.71481,-14.751593,STD
15945326031000,0.715019,-1.09390461106911,9.89724014429317,-0.591572858390249,-0.17654006,-0.35124752,0.024740042,110.82433,-105.68578,-14.758772,STD
15945331004000,0.719992,-1.06793016554166,9.9024826746874,-0.594670728569928,-0.19914207,-0.37018433,0.014660766,111.1304,-105.657845,-14.769665,STD
15945336006000,0.724994,-1.04180425029366,9.90775577684544,-0.597786663948723,-0.21991149,-0.40439278,0.007330383,111.43972,-105.62663,-14.777871,WAL
15945341008000,0.729996,-1.01567833504566,9.91302887900349,-0.600902599327519,-0.23060162,-0.419359,-0.003970624,111.74512,-105.59775,-14.788368,WAL
15945346008000,0.734996,-0.98956286598528,9.91829987276403,-0.604017288830514,-0.25259277,-0.44440445,-0.0036651916,112.06011,-105.56454,-14.796947,WAL
15945351017000,0.740005,-0.963400389080593,9.92358035431333,-0.607137584774614,-0.24984388,-0.45570546,-0.01985312,112.371124,-105.539856,-14.811616,WAL
15945356010000,0.744998,-0.937321481676899,9.92884396868261,-0.610247913712304,-0.2593123,-0.48533243,-0.015577064,112.69178,-105.50632,-14.819458,WAL
15945361017000,0.750005,-0.911169450959836,9.93412234183441,-0.613366963780603,-0.2648101,-0.50915617,-0.016798794,113.00979,-105.47897,-14.831614,WAL
15945366009000,0.754997,-0.885095766649955,9.93938490200493,-0.616476669780393,-0.27366763,-0.53969944,-0.012217305,113.33493,-105.44756,-14.839715,WAL
15945371020000,0.760008,-0.858922843557644,9.94466749195175,-0.619598211600294,-0.29229903,-0.57635134,-0.0036651916,113.66508,-105.41399,-14.845673,WAL
15945376021000,0.765009,-0.832802151403453,9.94993953991104,-0.62271352404119,-0.31123585,-0.59223384,-0.003970624,113.99398,-105.38074,-14.851068,WAL
15945381016000,0.770004,-0.806712797812136,9.95520526267781,-0.625825098854681,-0.3231477,-0.62858033,-0.009162978,114.335724,-105.34559,-14.854618,WAL
15945386007000,0.774995,-0.780644336596066,9.96046676864959,-0.62893418191657,-0.32803464,-0.6649268,0.0030543262,114.67834,-105.30482,-14.851566,WAL
15945390996000,0.779984,-0.754586321567621,9.96572616622385,-0.632042019102658,-0.34972036,-0.6719518,0.020158553,115.0187,-105.262184,-14.84668,WAL
15945396071000,0.785059,-0.728079120471337,9.9710762248908,-0.635203428948198,-0.34300083,-0.6747007,0.03268129,115.364265,-105.21907,-14.838243,WAL
15945400942000,0.78993,-0.702637430512717,9.97621122701231,-0.638237759462015,-0.34330627,-0.66645396,0.043982297,115.704506,-105.169914,-14.823354,WAL
15945405937000,0.794925,-0.676548076921399,9.98147694977909,-0.641349334275507,-0.3539964,-0.65668017,0.05222898,116.04086,-105.118256,-14.80413,WAL
15945411041000,0.800029,-0.649889406104565,9.98685758020985,-0.644528809320164,-0.3368922,-0.627664,0.07452556,116.365135,-105.06146,-14.7757635,WAL
15945415954000,0.804942,-0.624228346205837,9.99203685867896,-0.647589303225806,-0.32620203,-0.5861252,0.095294975,116.67864,-105.00222,-14.743801,WAL
15945420919000,0.809907,-0.598295685428882,9.99727095548317,-0.65068218990228,-0.31581733,-0.5467244,0.122783914,116.98051,-104.93629,-14.702159,WAL
15945425931000,0.814919,-0.599495623320082,10.0323898034773,-0.5381328943287,-0.29718593,-0.5329799,0.13897185,117.273865,-104.869316,-14.6568775,WAL
15945430957000,0.819945,-0.606449530117073,10.0738734705326,-0.400973056369252,-0.28496864,-0.5357288,0.15149458,117.55709,-104.79666,-14.604092,WAL
15945435950000,0.824938,-0.613357778552683,10.1150847617397,-0.264713790366164,-0.2846632,-0.5555819,0.16279559,117.87514,-104.64546,-14.470376,WAL
15945441507000,0.830495,-0.621046369891895,10.1609512038061,-0.113062930927116,-0.2669481,-0.5635232,0.17989981,118.18886,-104.49249,-14.33256,WAL
15945446023000,0.835011,-0.627294647467543,10.1982254259353,0.0101789767976883,-0.25992316,-0.5742133,0.19883664,118.50747,-104.33749,-14.192536,WAL
15945450970000,0.839958,-0.634139250914562,10.2390570417177,0.145182900073731,-0.25411993,-0.57910025,0.20311269,118.824776,-104.18467,-14.053265,WAL
15945455989000,0.844977,-0.641083472604593,10.2804829320779,0.282151707618194,-0.25473082,-0.59498274,0.2144137,119.14675,-104.026764,-13.908293,WAL
15945461008000,0.849996,-0.648027694294625,10.3219088224381,0.419120515162656,-0.25289822,-0.61636305,0.21410827,119.4697,-103.87348,-13.767024,WAL
15945466002000,0.85499,-0.654937326316943,10.3631283674588,0.555407071225029,-0.25442538,-0.6401868,0.21930063,119.79613,-103.71757,-13.6226635,WAL
15945470996000,0.859984,-0.661846958339262,10.4043479124795,0.691693627287401,-0.26633725,-0.6649268,0.22907446,120.127,-103.56238,-13.478748,WAL
15945475976000,0.864964,-0.668737220147661,10.44545190411,0.827598122519802,-0.269697,-0.6808093,0.23609942,120.46003,-103.40898,-13.335749,WAL
15945481005000,0.869993,-0.675695277704778,10.486960332606,0.964839830657101,-0.27947086,-0.71776664,0.25259277,120.80431,-103.25184,-13.189038,WAL
15945485996000,0.874984,-0.682600758966971,10.5281551161859,1.10104451654162,-0.29138273,-0.77213365,0.2611449,121.15597,-103.09712,-13.044254,WAL
15945490987000,0.879975,-0.689506240229164,10.5693498997659,1.23724920242614,-0.30176744,-0.8332202,0.27855456,121.51804,-102.93738,-12.893939,WAL
15945496004000,0.884992,-0.696447694745778,10.6107592824989,1.37416342985204,-0.32345316,-0.9083566,0.29993483,121.89754,-102.77596,-12.741787,WAL
15945501001000,0.889989,-0.703361477528222,10.6520035889603,1.51053185609226,-0.3399465,-0.97219205,0.3222314,122.28872,-102.61175,-12.5859785,WAL
15945505995000,0.894983,-0.710271109550541,10.693223133981,1.64681841215464,-0.35369098,-1.0341948,0.3472769,122.698296,-102.442955,-12.424896,WAL
15945511692000,0.90068,-0.718153403028944,10.7402451099487,1.80228987989339,-0.35643986,-1.0873401,0.37110063,123.1206,-102.27081,-12.259286,WAL
15945516001000,0.904989,-0.724115278155931,10.7758107926668,1.91988274534649,-0.37568212,-1.1313224,0.3848451,123.55473,-102.09695,-12.090845,WAL
15945520993000,0.909981,-0.731022143004832,10.8170138300603,2.05611472129029,-0.37873647,-1.1362094,0.4147775,123.989174,-101.91487,-11.912412,WAL
15945525976000,0.914964,-0.737916555573357,10.8581425831316,2.19210108670054,-0.3943135,-1.1252137,0.45478916,124.42784,-101.72893,-11.728565,WAL
15945531002000,0.91999,-0.744870462370348,10.8996262501868,2.32926092465999,-0.38515055,-1.0650436,0.47433686,124.84949,-78.45631,-11.543603,WAL
15945536002000,0.92499,-0.751788395912918,10.940895318089,2.46571122107806,-0.38973203,-0.9947941,0.48655418,125.260994,-78.647285,-11.351131,WAL
15945540992000,0.92998,-0.758692493588402,10.9820818478553,2.6018886169033,-0.39095375,-0.9233228,0.50732356,125.65077,-78.84258,-11.152752,WAL
15945546009000,0.934997,-0.765633948105017,11.0234912305884,2.7388028443292,-0.3924809,-0.88422745,0.51343226,126.02597,-79.033295,-10.95736,WAL
15945551000000,0.939988,-0.77253942936721,11.0646860141683,2.87500753021372,-0.3903429,-0.87995136,0.52106804,126.38718,-79.22642,-10.758094,WAL
15945555995000,0.944983,-0.779450444976237,11.1059138130025,3.01132137633538,-0.37995818,-0.9129381,0.53786683,126.74468,-79.42003,-10.556935,WAL
15945560977000,0.949965,-0.786343473958053,11.1470343122602,3.14728045168634,-0.37232238,-0.9776898,0.5543602,127.10705,-79.611694,-10.356094,WAL
15945566003000,0.954991,-0.793297380755044,11.1885179793155,3.28444028964579,-0.3680463,-1.0403035,0.55771995,127.47519,-79.80045,-10.15665,WAL
15945570991000,0.959979,-0.800198711257112,11.2296880014547,3.42056310535246,-0.37384954,-1.0711522,0.5635232,127.84943,-79.9904,-9.954211,WAL
15945575977000,0.964965,-0.807097274585762,11.2708415159667,3.55663134094057,-0.398895,-1.1282681,0.5726862,128.24585,-80.17755,-9.751898,WAL
15945581534000,0.970522,-0.814785865924974,11.3167079580332,3.70828220037961,-0.41080686,-1.2082914,0.58062744,128.6541,-80.36194,-9.550383,WAL
15945585997000,0.974985,-0.820960813405072,11.3535447280426,3.83007773496239,-0.46303585,-1.2293663,0.57360244,129.05786,-80.53773,-9.3528185,WAL
15945590989000,0.979977,-0.827867678253973,11.3947477654362,3.96630971090619,-0.4804455,-1.2705997,0.56413406,129.4865,-80.71132,-9.155249,WAL
15945596010000,0.984998,-0.834814667117421,11.4361901634235,4.10333309856922,-0.50335294,-1.3274102,0.5647449,129.92139,-80.878365,-8.958437,WAL
15945600999000,0.989987,-0.841717381206197,11.4773684393763,4.23948320433518,-0.54825157,-1.4715744,0.5925393,130.38887,-81.04316,-8.757167,WAL
15945606001000,0.994989,-0.848638081922184,11.5186540149056,4.37598808087182,-0.61117065,-1.758681,0.6291912,130.90935,-81.202515,-8.552728,WAL
15945610993000,0.999981,-0.855544946771086,11.5598570522991,4.51222005681562,-0.72295904,-2.1190915,0.6966918,131.48683,-81.36521,-8.330285,WAL
15945616003000,1.004991,-0.86247671618074,11.6012086583371,4.64894325382653,-0.8341365,-2.4483478,0.77121735,132.1314,-81.52696,-8.093095,WAL
15945620984000,1.009972,-0.869368361575848,11.6423209037812,4.78487503911822,-0.90316427,-2.6875017,0.90010995,132.84473,-81.706,-7.817869,WAL
15945625974000,1.014962,-0.842015161751334,11.6092723662867,4.7896195239518,-0.9257663,-2.7895162,1.0677924,133.60275,-81.89683,-7.507408,WAL
15945630974000,1.019962,-0.799385369664748,11.5431722307454,4.7359730442755,-0.9468411,-2.586098,1.2049317,134.3301,-82.09068,-7.1701155,WAL
15945635997000,1.024985,-0.756559480534563,11.4767680345805,4.68207979079269,-0.98563105,-2.0182989,1.294118,135.16676,-82.08058,-6.765142,WAL
15945640974000,1.029962,-0.714125785491575,11.4109719596627,4.6286800849229,-1.0864239,-1.3090842,1.2999213,135.87674,-81.98931,-6.352523,WAL
15945646009000,1.034997,-0.671197584860382,11.3444091231726,4.57465807988887,-1.2421945,-0.643852,1.2131784,136.41438,-81.80525,-5.9565535,WAL
15945651040000,1.040028,-0.628303488062859,11.2778991667909,4.52067899203857,-1.4269812,-0.19150625,1.0638218,136.79459,-81.519,-5.5949936,WAL
15945656027000,1.045015,-0.585784533435698,11.2119708916019,4.46717199320943,-1.6114625,-0.042455133,0.81183994,137.06572,-81.11384,-5.3029823,WAL
15945661082000,1.05007,-0.542685813636159,11.1451436545696,4.41293540225669,-1.6960673,-0.08460484,0.49602258,137.26265,-80.6211,-5.083999,WAL
15945666009000,1.054997,-0.500678416514037,11.0800085810072,4.36007216118366,-1.6902641,-0.23060162,0.17715092,137.45206,-80.05109,-4.940632,WAL
15945670994000,1.059982,-0.45817651380371,11.0141067458725,4.30658662094639,-1.5754215,-0.2932153,-0.06169739,137.63646,-79.4517,-4.8650727,WAL
15945675976000,1.064964,-0.415700188968635,10.9482445708191,4.25313326859692,-1.4110987,-0.49480084,-0.15515977,137.90643,-78.85008,-4.822149,WAL
15945680991000,1.069979,-0.372942507505789,10.8819461348711,4.19932584948159,-1.3017539,-0.7458665,-0.28252518,138.21864,-78.24179,-4.844647,WAL
15945686028000,1.075016,-0.329997254957762,10.8153568583268,4.14528238585569,-1.0522153,-0.91751957,-0.34880406,138.56358,-77.72281,-4.863856,WAL
15945691007000,1.079995,-0.287546507997939,10.7495343433547,4.09186122139403,-0.8176431,-0.97249746,-0.3408628,138.94438,-77.23659,-4.8841925,WAL
15945696040000,1.085028,-0.244635359283581,10.6829979469188,4.03786067495186,-0.6056729,-0.9923506,-0.3036,139.35962,-76.81873,-4.9010377,WAL
15945701001000,1.089989,-0.20233807957527,10.6174133924347,3.98463263781703,-0.43860126,-1.0699304,-0.25320363,139.7986,-76.46436,-4.899829,WAL
15945705989000,1.094977,-0.159810598989692,10.5514718972187,3.93111490969196,-0.2941316,-1.1948525,-0.20616703,140.24736,-76.17302,-4.880536,WAL
15945711034000,1.100022,-0.116797138774326,10.4847768604574,3.87698561169857,-0.18478674,-1.2696834,-0.16493362,140.69356,-75.928925,-4.843711,WAL
15945715997000,1.104985,-0.0744828071491805,10.4191658659191,3.82373611597187,-0.16157386,-1.3109168,-0.13225232,141.15475,-75.71015,-4.7878547,WAL
15945721001000,1.109989,-0.0318189112289248,10.3530128502693,3.77004671911183,-0.1563815,-1.3048081,-0.1151481,141.61362,-75.52313,-4.7214475,WAL
15945725968000,1.114956,0.0105295242298901,10.2873489756226,3.71675430620139,-0.18203785,-1.2681563,-0.1142318,142.06601,-75.33985,-4.6484876,WAL
15945731005000,1.119993,0.0534747767779173,10.2207596990782,3.66271084257549,-0.21013765,-1.2232577,-0.13439035,142.50653,-75.160995,-4.5765777,WAL
15945735993000,1.124981,0.0960022573634959,10.1548182038622,3.60919311445041,-0.24312437,-1.1429288,-0.17195857,142.92041,-74.97652,-4.513211,WAL
15945741012000,1.13,0.138794042660011,10.0884668878058,3.55534277815134,-0.2932153,-1.0360274,-0.2180789,143.30916,-74.78157,-4.461692,WAL
15945746115000,1.135103,0.182302008463581,10.0210050894723,3.5005911809937,-0.33536503,-0.9184359,-0.27122417,143.66907,-74.58064,-4.427643,WAL
15945751035000,1.140023,0.224249723876782,9.95596255609961,3.44780304499222,-0.37690386,-0.8695667,-0.31490102,144.015,-74.368256,-4.4046373,WAL
15945755993000,1.144981,0.266521425709841,9.89041766169682,3.3946071957452,-0.3817908,-0.8045095,-0.35277468,144.32195,-74.15598,-4.4023404,WAL
15945761078000,1.150066,0.3098759242619,9.82319382385128,3.3400487259144,-0.3830125,-0.6963864,-0.37995818,144.60086,-73.936455,-4.4136147,WAL
15945766921000,1.155909,0.359693099294285,9.74594920545766,3.27735744976468,-0.38515055,-0.6078109,-0.38881573,144.86404,-73.71956,-4.4311795,WAL
15945771003000,1.159991,0.394496061553774,9.69198505480171,3.23356046375695,-0.38820487,-0.56230146,-0.4034765,145.10767,-73.5052,-4.4601355,WAL
15945775969000,1.164957,0.436835971054171,9.62633440018205,3.18027878014244,-0.3924809,-0.44257188,-0.410196,145.3028,-73.29549,-4.49945,WAL
15945781003000,1.169991,0.479755645726947,9.55978478371904,3.12626750440434,-0.39614612,-0.34055737,-0.41233405,145.48772,-73.089836,-4.541239,WAL
15945785991000,1.174979,0.522283126312525,9.49384328850299,3.07274977627927,-0.3921755,-0.25900686,-0.41050145,145.64276,-72.89034,-4.5891857,WAL
15945790993000,1.179981,0.564929970315946,9.42771671290744,3.01908183801109,-0.38728857,-0.18203785,-0.41874814,145.76973,-72.69451,-4.6458993,WAL
15945796010000,1.184998,0.607704703695627,9.36139183690526,2.96525296030389,-0.37751472,-0.13500121,-0.41416663,145.87946,-72.50745,-4.7004404,WAL
15945800999000,1.189987,0.650240710239623,9.29543712166211,2.91172450288288,-0.36957347,-0.12095132,-0.39950588,145.97546,-72.32643,-4.7557187,WAL
15945805989000,1.194977,0.692785242742036,9.22946918639185,2.85818531616593,-0.3817908,-0.13988814,-0.38728857,146.06616,-72.14756,-4.80928,WAL
15945811006000,1.199994,0.735559976121717,9.16314431038967,2.80435643845873,-0.40866885,-0.15943582,-0.37201694,146.15048,-71.97285,-4.8570065,WAL
15945816003000,1.204991,0.778164190333052,9.09708383492965,2.75074214667023,-0.4529566,-0.1863139,-0.35460728,146.23955,-71.795654,-4.896608,WAL
15945821022000,1.21001,0.820955975629567,9.03073251887326,2.69689181037116,-0.47555858,-0.1957823,-0.34238997,146.3271,-71.62239,-4.9314623,WAL
15945825973000,1.214961,0.829892645719309,8.92953648647329,2.71440140541068,-0.52106804,-0.204029,-0.33964106,146.41971,-71.43592,-4.960254,WAL
15945831005000,1.219993,0.825186067061236,8.81187251147573,2.76146699540971,-0.56169057,-0.21746802,-0.3368922,146.51398,-71.25022,-4.9828687,WAL
15945836756000,1.225744,0.835362143236598,8.65870633544942,2.81646322289399,-0.59742624,-0.23426682,-0.34788775,146.86836,-71.158554,-4.968472,WAL
15945840987000,1.229975,0.847611084353083,8.5403001547763,2.85729296977025,-0.63346726,-0.26267207,-0.35705075,147.22226,-71.058235,-4.947555,WAL
15945846111000,1.235099,0.872305278813694,8.39145205015924,2.90965270768312,-0.63194007,-0.28893927,-0.3744604,147.59352,-70.9512,-4.9306026,WAL
15945851054000,1.240042,0.900572499253583,8.24540430672771,2.96147594023686,-0.6301075,-0.31581733,-0.38362336,147.96494,-70.83717,-4.907856,WAL
15945856033000,1.245021,0.897064139296929,8.15318231381455,2.94973877328923,-0.6093381,-0.32436943,-0.3998113,148.58353,-70.688156,-4.966813,WAL
15945860994000,1.249982,0.878298234600573,8.08750184822751,2.90751555385603,-0.5564982,-0.3494149,-0.41050145,149.2008,-70.551895,-5.016621,WAL
15945865998000,1.254986,0.846860862454099,8.0328853401224,2.94760985563359,-0.49480084,-0.36468655,-0.41996986,149.77129,-70.410126,-5.0509763,WAL
15945871118000,1.260106,0.807504397961272,7.98368977876994,3.03616181469851,-0.43066,-0.4034765,-0.40744713,150.34332,-70.28803,-5.072743,WAL
15945875971000,1.264959,0.687957623239978,7.89756269247666,3.03081468176826,-0.3359759,-0.46853364,-0.39187005,151.1001,-70.16863,-5.1550746,WAL
15945881003000,1.269991,0.520353857228629,7.7872971387516,2.97788726203551,-0.2932153,-0.51251596,-0.35735616,151.84657,-70.05757,-5.2214694,WAL
15945885994000,1.274982,0.38664393043353,7.73189166516842,2.90875277899203,-0.22235495,-0.5519168,-0.31429017,152.6508,-69.94969,-5.299004,WAL
15945890979000,1.279967,0.290893101526356,7.73925715969144,2.82036740871689,-0.15882497,-0.57604593,-0.27947086,153.44916,-69.85584,-5.361585,WAL
15945896052000,1.28504,0.193451987174081,7.74675267698637,2.730421775135,-0.0983493,-0.5705481,-0.23701571,154.3692,-69.766594,-5.48435,WAL
15945901035000,1.290023,0.0977395738452044,7.75411521644639,2.64207186538956,-0.04642576,-0.5729916,-0.19975294,155.28006,-69.69588,-5.590177,WAL
15945906173000,1.295161,0.0208846726644769,7.77972199439668,2.58801014544488,-0.0012217305,-0.5849035,-0.1572978,156.31448,-69.626205,-5.7229877,WAL
15945911070000,1.300058,-0.0380148641464593,7.81596783700126,2.56082566887257,0.03023783,-0.5681047,-0.1133155,157.31909,-69.570755,-5.841133,WAL
15945916035000,1.305023,-0.0719790180469066,7.88324165467044,2.57460806166599,0.076358154,-0.54733527,-0.08093964,158.79434,-69.49376,-6.138231,WAL
15945921030000,1.310018,-0.0816507004114436,7.97995842782046,2.6278023878892,0.10781772,-0.54367006,-0.069027774,160.21613,-69.42113,-6.4118342,WAL
15945926011000,1.314999,-0.0911983437645659,8.11048443576139,2.6740555762632,0.15943582,-0.52839845,-0.058337633,161.96498,-69.314545,-6.799255,WAL
15945931052000,1.32004,-0.100773726639064,8.27326596712451,2.71475089661328,0.19211712,-0.50488013,-0.040011674,163.62941,-69.21108,-7.1566997,WAL
15945936028000,1.325016,-0.11022564197005,8.43394854995785,2.75492148063668,0.23884831,-0.48991394,-0.03023783,165.21355,-69.08262,-7.497821,WAL
15945941035000,1.330023,-0.119736441821788,8.59563216978232,2.79534232352358,0.28221974,-0.4746423,-0.026267206,166.72307,-68.96579,-7.812926,WAL
15945946092000,1.33508,-0.136409940248756,8.72661510945274,2.86084455721393,0.32711834,-0.48349985,-0.04153884,168.17827,-68.806015,-8.120022,WAL
15945951134000,1.340122,-0.159961913642571,8.82553343410399,2.95034214759536,0.36071593,-0.48349985,-0.05497787,169.56985,-68.66186,-8.403604,WAL
15945956005000,1.344993,-0.19514310552061,8.8963222398906,3.02857768171518,0.39278635,-0.50335294,-0.07238753,170.93607,-68.476074,-8.67783,WAL
15945961125000,1.350113,-0.247825835116234,8.93942615862473,3.10041781299082,0.4175264,-0.5207626,-0.10323623,172.25534,-68.30456,-8.93445,WAL
15945965963000,1.354951,-0.293509186853054,8.96564456717055,3.17714008543335,0.4373795,-0.5326745,-0.12308934,173.56102,-68.07639,-9.185802,WAL
15945971029000,1.360017,-0.334891449895276,8.97024268895418,3.27139963750652,0.4541783,-0.56321776,-0.15821409,174.83772,-67.86264,-9.420942,WAL
15945976343000,1.365331,-0.37829953236791,8.97506590631664,3.37027355375539,0.47891834,-0.6133087,-0.2180789,176.10112,-67.60563,-9.658314,WAL
15945981048000,1.370036,-0.416732921158603,8.97933636881012,3.45781622894375,0.49357912,-0.63255095,-0.23304509,177.3243,-67.36838,-9.868746,WAL
15945986027000,1.375015,-0.455104333672377,8.98554216663422,3.54133322158848,0.50579643,-0.68294734,-0.2602286,178.54262,-67.11386,-10.069856,WAL
15945991024000,1.380012,-0.483051741456103,8.99951567354487,3.58325442324314,0.51343226,-0.73945236,-0.27580565,179.7328,-66.87887,-10.246468,WAL
15945996088000,1.385076,-0.506238452643208,9.01310731587561,3.59272107405892,0.5204572,-0.8078693,-0.2959642,180.90973,-66.62951,-10.417736,WAL
15946001035000,1.390023,-0.496546062122545,9.0227999138707,3.39402681283756,0.5390886,-0.8918633,-0.30726522,182.07292,-66.4017,-10.562824,WAL
15946006009000,1.394997,-0.496931015032328,9.05182660237069,3.23357578846983,0.5739079,-0.93523467,-0.33353242,183.22824,-66.174225,-10.703366,WAL
15946011019000,1.400007,-0.548633395410462,9.17873204222179,3.27117743845024,0.6273586,-1.0155635,-0.32986724,184.38126,-65.976265,-10.807256,WAL
15946015960000,1.404948,-0.601102256643855,9.3146684786506,3.30242529713735,0.6774496,-1.1007792,-0.31306845,185.52771,-65.819595,-10.893947,WAL
15946021027000,1.410015,-0.666582675190361,9.53917296337349,3.28839378515663,0.713796,-1.149343,-0.33108896,186.65799,-65.68433,-10.966911,WAL
15946026185000,1.415173,-0.725753653112638,9.76627491317926,3.26068226743702,0.75991637,-1.1844677,-0.33567044,187.7723,-65.58245,-11.012543,WAL
15946030993000,1.419981,-0.701786729106808,9.96280379013117,3.09291374934416,0.81489426,-1.1673635,-0.34697145,188.85846,-65.50296,-11.049813,WAL
15946035966000,1.424954,-0.663186403167767,10.1452900262244,2.93218939112539,0.8546005,-1.0867293,-0.34116822,189.92342,-65.44984,-11.080758,WAL
15946040983000,1.429971,-0.521332235533171,10.1744954487669,2.86543445078152,0.9059132,-0.9954049,-0.33200526,190.95372,-65.42502,-11.102837,WAL
15946046089000,1.435077,-0.376961619638763,10.2042189663077,2.79749529881903,0.96486163,-0.8888089,-0.33078352,191.9338,-65.46009,-11.113125,WAL
15946051077000,1.440065,-0.167754203654658,10.1828404414151,2.70440505144434,0.99296147,-0.7849618,-0.31887165,192.86331,-65.5119,-11.115805,WAL
15946056333000,1.445321,0.0618783687205967,10.1528875008606,2.60139428835341,1.0122037,-0.65057147,-0.30634892,193.73267,-65.58412,-11.12182,WAL
15946061062000,1.45005,0.165811171306177,10.1875315633964,2.51911411981258,1.0268645,-0.54702985,-0.30818152,194.56789,-65.69405,-11.097758,WAL
15946065992000,1.45498,0.274161502612354,10.2236481267929,2.43333673962517,1.0253373,-0.5122105,-0.3118467,195.39156,-65.83166,-11.039895,WAL
15946070998000,1.459986,0.232183524909532,10.4288261035255,2.35599985549338,1.0204504,-0.49235737,-0.30604348,196.17194,-65.97731,-10.981922,WAL
15946075956000,1.464944,0.170185270123111,10.6546772921097,2.28071626468942,1.0100657,-0.5198463,-0.30390546,196.93877,-66.12407,-10.917575,WAL
15946081004000,1.469992,0.0386524774491139,10.9849856948861,2.09184227333671,0.9804387,-0.51923543,-0.29077184,197.68622,-66.2987,-10.831228,WAL
15946085929000,1.474917,-0.114188511259747,11.3432070037468,1.8673570827038,0.9465357,-0.49205196,-0.27977628,198.41708,-66.47249,-10.739125,WAL
15946091863000,1.480851,-0.298789052776291,11.6145171873805,1.63448813250478,0.9202685,-0.44898596,-0.23701571,199.11987,-66.66846,-10.633443,WAL
15946095995000,1.484983,-0.42741491033652,11.7734075984704,1.47938051606119,0.89644474,-0.3585779,-0.16615535,199.78304,-66.86394,-10.520043,WAL
15946100999000,1.489987,-0.581894777940704,11.7944989144557,1.38099534077047,0.88208944,-0.27030787,-0.11301007,200.35802,-67.128555,-10.408427,WAL
15946105953000,1.494941,-0.734201351931829,11.7317845768105,1.32724006725522,0.86132,-0.18753563,-0.058337633,200.89417,-67.39323,-10.283584,WAL
15946110988000,1.499976,-0.896935901706259,11.5750122553192,1.29428541216691,0.84757555,-0.13530666,-0.019547688,201.33594,-67.70654,-10.163975,WAL
15946116007000,1.504995,-1.06572786796943,11.3416821489362,1.27939196251807,0.8219192,-0.11148291,0.008552114,201.75554,-68.012825,-10.037277,WAL
15946120999000,1.509987,-1.23482303765913,11.1538079676305,1.25043534958058,0.8002335,-0.12858713,0.009468411,202.12823,-68.31624,-9.932771,WAL
15946125973000,1.514961,-1.40405831941182,10.9939743459982,1.2128275310076,0.75533485,-0.18936823,-0.004276057,202.50385,-68.60432,-9.822542,WAL
15946131001000,1.519989,-1.52400884550469,10.9845134435304,1.12879443047518,0.732122,-0.23182335,-0.03359759,202.86635,-68.86879,-9.752538,WAL
15946135993000,1.524981,-1.60728896163747,11.081673619278,1.01312757298945,0.72601336,-0.24220806,-0.04917465,203.23497,-69.122696,-9.678937,WAL
15946141011000,1.529999,-1.61518960533449,11.3088480504152,0.958961542716666,0.7272351,-0.21777347,-0.06352998,203.57089,-69.35682,-9.641424,WAL
15946146002000,1.53499,-1.55430683067713,11.6522270449381,0.96139685166862,0.7351763,-0.1414153,-0.06047566,203.89377,-69.58808,-9.605781,WAL
15946150992000,1.53998,-1.49343625453202,11.9955372398227,0.963831672680491,0.78984874,0.006414085,-0.0571159,204.18282,-69.84784,-9.595143,WAL
15946155991000,1.544979,-1.43245589177663,12.3394666314516,0.966270885153105,0.85918194,0.2406809,-0.036651913,204.42415,-70.111694,-9.59135,WAL
15946161863000,1.550851,-1.2133480160199,12.3905296169154,1.25341819303483,0.90316427,0.46792278,-0.016493361,204.63101,-70.37833,-9.598325,WAL
15946165999000,1.554987,-1.00446123322985,12.2959388853731,1.56083653755224,0.92087936,0.5448918,-0.0030543262,204.81383,-70.65174,-9.606333,WAL
15946170996000,1.559984,-0.784650311781648,11.9987825565975,1.92119850576021,0.91904676,0.60048056,0.028405234,204.97781,-70.96949,-9.583705,WAL
15946175965000,1.564953,-0.588855874312506,11.5753206775428,2.27180712339489,0.8765916,0.4746423,0.04337143,205.17227,-71.27336,-9.551378,WAL
15946181010000,1.569998,-0.478422917626215,11.0757556654124,2.48414379043587,0.79443026,0.20830505,0.040317107,205.49432,-71.50474,-9.483321,WAL
15946185993000,1.574981,-0.458470489774224,10.5120990395108,2.54898925126999,0.6921103,-0.1777618,0.010995574,205.8819,-71.715096,-9.398082,WAL
15946190988000,1.579976,-0.664135432640449,9.89999658426966,2.07676826910112,0.56169057,-0.59315014,-0.03970624,206.43713,-71.81895,-9.2881,WAL
15946196013000,1.585001,-1.03409695681254,9.25019266646954,1.21352472755766,0.3933972,-0.9673051,-0.084910266,207.07446,-71.88778,-9.157049,WAL
15946200991000,1.589979,-1.30528338760914,8.90734119282928,0.626651945502508,0.18784106,-1.2791518,-0.108123146,207.79384,-71.88672,-9.022792,WAL
15946205991000,1.594979,-1.50098253306706,8.80504414657254,0.253044393951328,0.011301007,-1.5515977,-0.13041973,208.58745,-71.85154,-8.872815,WAL
15946210965000,1.599953,-1.71418365434966,8.71172386106419,-0.112830807516892,-0.14874569,-1.81091,-0.13897185,209.29066,-71.865234,-8.761716,WAL
15946215998000,1.604986,-1.95844074483742,8.63030477776605,-0.474127794379223,-0.26939157,-2.042428,-0.10751228,210.04886,-71.851845,-8.624491,WAL
15946220993000,1.609981,-2.18989894029851,8.52145487824038,-0.722541133621367,-0.3277292,-2.223244,-0.029321533,210.7864,-71.877815,-8.494872,WAL
15946225965000,1.614953,-2.40965020895522,8.38586339984289,-0.862807849430479,-0.3726278,-2.3423629,0.07452556,211.55693,-71.88915,-8.334959,WAL
15946231192000,1.62018,-2.60887836817772,8.27847356363454,-1.11438452840237,-0.3866777,-2.4120014,0.18142697,212.30647,-71.94315,-8.178976,WAL
15946235992000,1.62498,-2.76101622395948,8.21393038842644,-1.44632156982249,-0.3924809,-2.4303274,0.26206118,213.06107,-72.00208,-7.9968786,WAL
15946241008000,1.629996,-2.85989182543066,8.2053016470073,-1.57909099150365,-0.36285394,-2.4184155,0.30085114,213.78734,-72.075195,-7.83306,WAL
15946245998000,1.634986,-2.89244828518735,8.26111242948905,-1.47677068941119,-0.31642818,-2.441323,0.3155119,214.51782,-72.161964,-7.651329,WAL
15946250977000,1.639965,-2.94497976605814,8.26581838039488,-1.55980243086616,-0.29718593,-2.5830436,0.27977628,215.25937,-72.28415,-7.4892163,WAL
15946255995000,1.644983,-3.02603532738367,8.19906688223038,-1.90309661102292,-0.31520647,-2.7302623,0.2648101,216.00189,-72.41598,-7.3180203,WAL
15946260998000,1.649986,-3.15811054862548,8.15601226226465,-2.29708264460355,-0.27275133,-2.7824912,0.22724187,216.75725,-72.549385,-7.169648,WAL
15946266000000,1.654988,-3.36559357936887,8.14754361495624,-2.76709528941925,-0.22632557,-2.8316658,0.18478674,217.5488,-72.67996,-7.018008,WAL
15946270949000,1.659937,-3.56391802414313,8.17103492907954,-3.22458863108429,-0.12034045,-2.7284296,0.07727446,218.31296,-72.86871,-6.915444,WAL
15946275967000,1.664955,-3.71930641379608,8.40411745947402,-3.63895741776245,-0.051618114,-2.504853,-0.044593163,219.05728,-73.05564,-6.8370395,WAL
15946280962000,1.66995,-3.81299626317463,8.67287415104673,-3.96561183626888,-0.0030543262,-2.2177463,-0.17898351,219.75179,-73.311005,-6.8396883,WAL
15946285992000,1.67498,-3.74917057940111,9.03880809504461,-4.07198800551188,0.0720821,-1.8894062,-0.3231477,220.37917,-73.57325,-6.9012756,WAL
15946291327000,1.680315,-3.67301611833611,9.42014603960066,-4.16330743813644,0.16065755,-1.5806139,-0.4447099,220.93736,-73.88876,-7.0273666,WAL
15946295990000,1.684978,-3.52440829974487,9.68763982340543,-4.03451387811425,0.28619036,-1.278541,-0.5320636,221.41014,-74.20885,-7.20768,WAL
15946301109000,1.690097,-3.34007545319315,9.94578230841121,-3.83976998294392,0.4071417,-0.9935723,-0.6041457,221.8299,-74.564476,-7.405908,WAL
15946305992000,1.69498,-3.09879160115849,10.0823579929907,-3.48922548817173,0.5119051,-0.7690793,-0.6392705,222.18176,-74.92234,-7.632909,WAL
15946310983000,1.699971,-2.84037781954138,10.2078065034895,-3.1364854108674,0.59406644,-0.64599,-0.64568454,222.49867,-75.2859,-7.849295,WAL
15946316000000,1.704988,-2.51942682415753,10.260500509671,-2.8107440558325,0.6649268,-0.5992588,-0.61208695,222.7707,-75.64982,-8.070723,WAL
15946320975000,1.709963,-2.20064788772539,10.3082094053611,-2.51361573610067,0.72326446,-0.6206391,-0.5519168,223.05075,-75.99086,-8.240077,WAL
15946325967000,1.714955,-1.87796738555588,10.3312579954681,-2.35688527523865,0.7834347,-0.6844745,-0.49296826,223.32613,-76.333374,-8.397819,WAL
15946330978000,1.719966,-1.55919283794339,10.3482944263967,-2.20550561709368,0.8347474,-0.7333437,-0.41508293,223.63141,-76.676254,-8.470126,WAL
15946335945000,1.724933,-1.30124986359883,10.2962322306353,-2.12267987279737,0.86559606,-0.7657196,-0.33964106,223.9463,-77.02237,-8.52269,WAL
15946341032000,1.73002,-1.03707512824735,10.2429122407343,-2.03785310387543,0.86376345,-0.7968737,-0.27030787,224.30034,-77.39454,-8.485214,WAL
15946345959000,1.734947,-0.781209407571763,10.1912693096861,-1.95569436778767,0.872621,-0.8042041,-0.22052236,224.65335,-77.773575,-8.432377,WAL
15946351042000,1.74003,-0.520915041026764,10.1369424149836,-1.86796227839021,0.8686504,-0.7996226,-0.19272798,225.02791,-78.14334,-8.365533,WAL
15946356035000,1.745023,-0.311587815540742,10.0703384477166,-1.74426891245647,0.86529064,-0.81122905,-0.18997909,225.40765,-78.507866,-8.292401,WAL
15946361095000,1.750083,-0.0980402707961783,10.0044529220682,-1.61216871901461,0.88361657,-0.8249735,-0.20433442,225.8595,-78.913795,-8.109378,WAL
15946365978000,1.754966,0.125352469426752,9.96065045447733,-1.40191678310229,0.958753,-0.84757555,-0.21624629,226.31491,-79.32257,-7.9280977,WAL
15946370987000,1.759975,0.354509593280255,9.91571771637317,-1.18623954636568,1.0192287,-0.8741482,-0.25809056,226.80573,-79.72678,-7.715172,WAL
15946376034000,1.765022,0.605803460622444,9.97394366832918,-1.06880989926185,1.2034045,-0.8940013,-0.31123585,227.29813,-80.1549,-7.5132737,WAL
15946380979000,1.769967,0.85380930325586,10.0400784189526,-0.962521649985037,1.4376713,-0.9300423,-0.3475823,227.839655252677,-80.5907013209246,-7.29938144377064,WAL
15946386027000,1.775015,1.10698088942643,10.1075906982544,-0.854019509975062,1.6673567,-0.9285152,-0.3726278,228.39246,-81.03558,-7.081034,WAL
15946390948000,1.779936,1.35378306366284,10.1734044713217,-0.748247118733167,1.8283197,-0.872621,-0.36010507,228.9725,-81.501434,-6.8466525,WAL
15946396039000,1.785027,1.56741818862108,10.1887067543284,-0.703167178047101,1.921782,-0.77579886,-0.31887165,229.6339,-82.00291,-6.5341053,WAL
15946400943000,1.789931,1.76879339389638,10.1978601973688,-0.666553507836284,1.9449949,-0.64721173,-0.24281894,230.25685,-82.51807,-6.2195272,WAL
15946406031000,1.795019,1.97772427571545,10.2073570811759,-0.628566078384278,1.9000963,-0.5140431,-0.15577064,230.94254,-83.077126,-5.8299108,WAL
15946410967000,1.799955,2.18041351169401,10.2165702530453,-0.59171349352282,1.8301523,-0.39461896,-0.090713486,231.57756,-83.6342,-5.4413185,WAL
15946416036000,1.805024,2.38856418778301,10.2260316728602,-0.553867919644632,1.7654005,-0.30482176,-0.023518313,232.18234,-84.18538,-5.0515385,WAL
15946420936000,1.809924,2.5897751392204,10.235177649797,-0.517284113765145,1.7058412,-0.24648413,0.026267206,232.74698,-84.72209,-4.663541,WAL
15946426006000,1.814994,2.77144774115673,10.091544602349,-0.350821898693249,1.6597209,-0.25167647,0.04642576,233.31421,-85.24025,-4.2806897,WAL
15946430939000,1.819927,2.9393046050533,9.90037429865772,-0.145663492175286,1.597718,-0.2959642,0.060170226,233.86234,-85.7412,-3.8997219,WAL
15946436030000,1.825018,3.07870405943659,9.70535650308581,0.154619764811865,1.5125023,-0.40622538,0.043066,234.33986,-86.268875,-3.4946482,WAL
15946441002000,1.82999,3.20193843996616,9.51576522456699,0.481664947921561,1.4144585,-0.5513059,0.027488936,234.83142,-86.76528,-3.0980644,WAL
15946446045000,1.835033,3.20726907743772,9.44374033950178,0.711519254092527,1.2571607,-0.71685034,0.015271631,235.28201,-87.2057,-2.7301507,WAL
15946450984000,1.839972,3.16687061189087,9.41905260446026,0.897800991933571,1.067487,-0.8753699,0.03940081,235.7645,-87.61474,-2.365816,WAL
15946456040000,1.845028,3.12551514685646,9.39378004151839,1.08849555895611,0.82741696,-0.95386606,0.09590584,236.21075,-87.98604,-2.011012,WAL
15946461124000,1.850112,3.08393065630368,9.36836751976275,1.28024618766311,0.5390886,-1.0742066,0.20647246,236.70685,-91.640945,-1.6408836,WAL
15946466039000,1.855027,2.93156109067132,9.44699244278553,1.25508877464037,0.40744713,-1.144456,0.27091873,237.19025,-91.28869,-1.2829243,WAL
15946471017000,1.860005,2.67178934699215,9.62363711998692,1.03168491232563,0.13805555,-1.1823297,0.37568212,237.69122,-90.89499,-0.8883615,WAL
15946476025000,1.865013,2.34754689611018,9.70438294905716,0.729017297304769,-0.03848451,-1.1945469,0.46822822,238.17499,-90.509346,-0.5090641,WAL
15946481049000,1.870037,1.99128845432915,9.73763340695034,0.387009278507256,-0.18142697,-1.1917981,0.5012149,238.65718,-89.815994,-0.122747146,WAL
15946486036000,1.875024,1.61706766520916,9.75537207908367,0.0548386714262948,-0.27214047,-1.1942415,0.5140431,239.17255,-89.6045,0.2537543,WAL
15946490981000,1.879969,1.23500174603586,9.76480599641434,-0.270624915984064,-0.3268129,-1.2024882,0.514654,239.67847,-89.20198,0.62878275,WAL
15946496027000,1.885015,0.885510508418891,9.76236474948665,-0.551069528788501,-0.35308012,-1.2095132,0.4978552,240.24557,-88.83221,0.9620363,WAL
15946501035000,1.890023,0.561927356213944,9.75298533890681,-0.799618904581989,-0.34972036,-1.2528846,0.4615087,240.80972,-88.47473,1.281411,WAL
15946506025000,1.895013,0.110245210046368,9.69710780631762,-1.00986463886592,-0.301462,-1.3069462,0.4071417,241.40619,-88.21172,1.5257952,WAL
15946511043000,1.900031,-0.432896284853169,9.6089055012558,-1.19555397411708,-0.25381452,-1.3884968,0.35002577,242.00238,-87.97039,1.7522898,WAL
15946516033000,1.905021,-0.764467825306244,9.57222594920825,-1.28079410364506,-0.18203785,-1.4828753,0.30634892,242.5935,-87.81812,1.9170198,WAL
15946521710000,1.910698,-0.926904429568768,9.58305527477343,-1.27537961047704,-0.113926366,-1.5806139,0.2660318,243.19208,-87.6903,2.0633013,WAL
15946526022000,1.91501,-1.01055674709975,9.55988776102293,-1.35561266074858,-0.03756821,-1.6820174,0.22357668,243.74342,-87.6906,2.1008427,WAL
15946531035000,1.920023,-1.07641207523026,9.5081442292769,-1.51554700801489,0.043066,-1.7394388,0.19425514,244.30206,-87.70376,2.1304085,WAL
15946536027000,1.925015,-1.21795502616822,9.46940363551402,-1.7389511953271,0.11484267,-1.7250835,0.16401732,244.85104,-87.752655,2.1236262,WAL
15946541057000,1.930045,-1.44552835398994,9.44466742107425,-2.0357860268974,0.1908954,-1.6410894,0.09712757,245.38907,-87.820724,2.0980675,WAL
15946546022000,1.93501,-1.64540340735019,9.41090121824264,-2.23327880736003,0.26908615,-1.4905112,0.015882496,245.90157,-87.91133,2.0513785,WAL
15946551037000,1.940025,-1.82498151228968,9.36836969556233,-2.34669656304241,0.34605515,-1.2852604,-0.03756821,246.36801,-87.99831,1.9937673,WAL
15946556088000,1.945076,-1.93885938388193,9.31876607583261,-2.38967980967084,0.43554693,-1.1746938,-0.07727446,246.82367,-91.89067,1.8874661,WAL
15946561108000,1.950096,-1.98553919357219,9.26274962180794,-2.36167192385669,0.50518554,-0.9440922,-0.09010262,247.18207,-91.82102,1.7748693,WAL
15946566002000,1.95499,-2.0010122636812,9.23001774176366,-2.28359147030973,0.5381723,-0.7339546,-0.119729586,247.51501,-91.7792,1.6215034,WAL
15946571035000,1.960023,-1.97724029958572,9.22526374610377,-2.13620509433813,0.59498274,-0.5305365,-0.129198,247.78125,-91.82487,1.4730363,WAL
15946575984000,1.964972,-1.95182569132393,9.21675502641849,-1.97711173863705,0.63316184,-0.35063666,-0.12492194,247.99225,-91.93129,1.3178287,WAL
15946581043000,1.970031,-1.92273590975683,9.20220983188232,-1.79287635412789,0.6563747,-0.22357668,-0.12034045,248.15906,-92.10339,1.1636677,WAL
15946585972000,1.97496,-1.90005930873152,9.22045209234483,-1.60154729388392,0.6420194,-0.11911872,-0.12308934,248.27243,-92.29462,1.0145973,WAL
15946591580000,1.980568,-1.88385161896188,9.29608816597928,-1.3638351687456,0.62949663,-0.06352998,-0.15668693,248.36319,-92.51777,0.8617187,WAL
15946595958000,1.984946,-1.86602049363094,9.35723298872145,-1.20897042975073,0.6105598,-0.04795292,-0.18784106,248.42621,-92.72264,0.7150968,WAL
15946601035000,1.990023,-1.83837112564686,9.43096473291631,-1.07072349359302,0.5873469,-0.057726767,-0.23548855,248.48041,-92.932465,0.55773133,WAL
15946605928000,1.994916,-1.79889830415927,9.50173400934667,-0.958726176951117,0.571159,-0.10293079,-0.2773328,248.52867,-93.10632,0.39696005,WAL
15946611064000,2.000052,-1.72534155769698,9.57529080381344,-0.894364017796056,0.5503896,-0.16829337,-0.31490102,248.58525,-93.27899,0.22707875,WAL
15946615934000,2.004922,-1.64478608791867,9.63657992723382,-0.835052460545746,0.52687126,-0.22968534,-0.3491095,248.68109,-93.41462,0.056118544,WAL
15946621033000,2.010021,-1.49847250639914,9.65225614660246,-0.782797613900482,0.4990769,-0.26267207,-0.3839288,248.7866,-93.54957,-0.12223827,WAL
15946625974000,2.014962,-1.3535858165707,9.67787398467844,-0.740229101619986,0.45753807,-0.30298916,-0.41233405,248.91223,-93.66426,-0.29031497,WAL
15946631040000,2.020028,-1.19734196207671,9.72995535190788,-0.716555797823753,0.43096542,-0.33750305,-0.43066,249.04431,-93.78063,-0.46163186,WAL
15946635961000,2.024949,-1.04473979921897,9.7822490060224,-0.707664480831843,0.39553526,-0.35613444,-0.4456262,249.18806,-93.8731,-0.60905766,WAL
15946641067000,2.030055,-0.883690447586337,9.84206709090054,-0.744475776305637,0.34697145,-0.36346483,-0.45631635,249.33656,-93.95787,-0.7568547,WAL
15946646014000,2.035002,-0.734534034056713,9.90190054639275,-0.781949830015432,0.30268374,-0.35094208,-0.4700608,249.51147,-94.02146,-0.8764311,WAL
15946651036000,2.040024,-0.632481210619213,9.97612084326775,-0.832976217515432,0.2761111,-0.35216382,-0.47647488,249.69002,-94.07856,-0.99394304,WAL
15946656197000,2.045185,-0.529727882738298,10.0497674790017,-0.886817851638769,0.24617869,-0.35277468,-0.49113566,249.893,-94.11475,-1.0738744,WAL
15946661246000,2.050234,-0.452184240555277,10.0933856366643,-0.954668527162474,0.21227567,-0.3622431,-0.5030475,250.09564,-94.144005,-1.1526245,WAL
15946666111000,2.055099,-0.377771713174282,10.1326143769713,-1.02256226880307,0.1731803,-0.3726278,-0.505491,250.30817,-94.16439,-1.2055267,WAL
15946671033000,2.060021,-0.306294202280631,10.1373796412252,-1.12263082784068,0.16218472,-0.38453966,-0.5207626,250.51962,-94.18632,-1.2639232,WAL
15946676016000,2.065004,-0.236185118927614,10.1439947131367,-1.22739748284182,0.12217305,-0.3933972,-0.5345071,250.74973,-94.19965,-1.3121461,WAL
15946681028000,2.070016,-0.19329060544931,10.1725911317645,-1.37514518126303,0.076052725,-0.3943135,-0.54458636,250.97656,-94.21046,-1.3621515,WAL
15946686087000,2.075075,-0.150672389487288,10.2031337913136,-1.52623757139831,0.02687807,-0.39370266,-0.54428095,251.21317,-94.22246,-1.3946506,WAL
15946691004000,2.079992,-0.117417332976695,10.2530165132415,-1.69666978506356,-0.013439035,-0.37934732,-0.54702985,251.44133,-94.22673,-1.4294299,WAL
15946696038000,2.085026,-0.0833709724978813,10.3040861943856,-1.87115743273305,-0.055588737,-0.34605515,-0.54428095,251.68784,-94.23888,-1.453075,WAL
15946701023000,2.090011,-0.0432722212412655,10.3697913486025,-2.03544882410714,-0.08032878,-0.30543262,-0.53878313,251.92311,-94.24595,-1.4753457,WAL
15946705925000,2.094913,-0.00226779951940994,10.4381320031056,-2.19491044642857,-0.089186326,-0.25870144,-0.5342017,252.14236,-94.24708,-1.4954946,WAL
15946711028000,2.100016,0.0530616433322044,10.5086053859298,-2.3460611164101,-0.09743301,-0.21105394,-0.5305365,252.3739,-94.27067,-1.5036373,WAL
15946715931000,2.104919,0.110888101845033,10.5760696897578,-2.48580834053777,-0.08246681,-0.14508049,-0.52564955,252.58224,-94.29832,-1.5085377,WAL
15946721030000,2.110018,0.171637995096458,10.6680967687878,-2.56221357494961,-0.06536258,-0.10140363,-0.5216789,252.79227,-94.348724,-1.5004139,WAL
15946725982000,2.11497,0.230810321899415,10.7636826311546,-2.61683429179384,-0.04550946,-0.062308256,-0.5183192,252.98093,-94.403755,-1.4901619,WAL
15946731005000,2.119993,0.283934521379943,10.9078558593262,-2.60700289966754,-0.025350908,-0.038179077,-0.51343226,253.17137,-94.48041,-1.4630865,WAL
15946735961000,2.124949,0.333391963436213,11.0703589506773,-2.56932101984816,0.004581489,-0.01160644,-0.50885075,253.34666,-94.56491,-1.435277,WAL
15946740980000,2.129968,0.383478101789808,11.2349277592914,-2.53116013308192,0.058643065,-0.0036651916,-0.49602258,253.53171,-94.66988,-1.4032029,WAL
15946746038000,2.135026,0.433953433089366,11.4007753452588,-2.49270271820573,0.1301143,-0.03940081,-0.48258355,253.71826,-94.78721,-1.3713458,WAL
15946751000000,2.139988,0.426090219486073,11.5049029636125,-2.39632402730939,0.21899518,-0.065973446,-0.46028697,253.89758,-94.92738,-1.3444206,WAL
15946755973000,2.144961,0.390358834387133,11.5808322741255,-2.27126420045015,0.28863382,-0.12614368,-0.44898596,254.09343,-95.08065,-1.3194444,WAL
15946760996000,2.149984,0.34882869625391,11.5920002529958,-2.06917516434862,0.4370741,-0.20616703,-0.42455134,254.30565,-95.24859,-1.2634362,WAL
15946766001000,2.154989,0.302693736407431,11.5458653244622,-1.8015923861591,0.5647449,-0.3051272,-0.4129449,254.53613,-95.430115,-1.2125531,WAL
15946770991000,2.159979,0.256697043173877,11.4998686624477,-1.53481155435777,0.70371675,-0.42149702,-0.40469822,254.79198,-95.63192,-1.1763676,WAL
15946775970000,2.164958,0.21080174545647,11.4539733958805,-1.26861881657443,0.82619524,-0.5513059,-0.3866777,255.07497,-95.86209,-1.1394888,WAL
15946781004000,2.169992,0.193140774696148,11.397607337985,-1.07724968779407,0.95722586,-0.698219,-0.376293,255.39023,-96.13149,-1.1085746,WAL
15946785995000,2.174983,0.222435572847579,11.3254967883174,-1.0141531980199,1.0488557,-0.8713993,-0.37018433,255.74403,-96.42084,-1.080834,WAL
15946790986000,2.179974,0.25173037099901,11.2533862386498,-0.951056708245722,1.1835514,-1.0421361,-0.35369098,256.09357,-96.667175,-1.0820206,WAL
15946796011000,2.184999,0.281224732992787,11.1807844530197,-0.8875303886474,1.3206906,-1.1591167,-0.3368922,256.4691,-96.93746,-1.0862255,WAL
15946800961000,2.189949,0.315981959282004,11.1243865322334,-0.797625415380385,1.4504995,-1.221425,-0.31642818,256.87146,-97.24243,-1.0968332,WAL
15946805991000,2.194979,0.389570931000102,11.168540291272,-0.522893270009166,1.5653422,-1.2278391,-0.26358834,257.28326,-97.57643,-1.0964693,WAL
15946811106000,2.200094,0.480644840813294,11.2538805531604,-0.229382791769151,1.627345,-1.2153164,-0.1966986,257.6995,-97.903465,-1.0753671,WAL
15946816000000,2.204988,0.633600678602714,11.4994148532291,0.108730134496737,1.6548339,-1.2308935,-0.15088372,258.11697,-98.24882,-1.0487709,WAL
15946820992000,2.20998,0.789619383597561,11.7498658597561,0.453613609756098,1.6982054,-1.2629639,-0.12339478,258.51346,-98.56387,-1.0037578,WAL
15946825976000,2.214964,1.05909594630801,12.0742917050604,1.86950276359317,1.7101172,-1.3790283,-0.129198,258.92944,-98.875145,-0.9626801,WAL
15946830940000,2.219928,1.34853551462421,12.4111807814153,3.47802776124164,1.6444492,-1.7424932,-0.1328632,259.41678,-99.173256,-0.92911726,WAL
15946835995000,2.224983,1.72448131900029,12.5311490373926,4.22408893351346,1.3671165,-2.2867742,-0.07788532,259.94016,-99.349,-0.91696805,WAL
15946840982000,2.22997,2.11160875558236,12.604887388208,4.78173678457976,0.8775079,-2.7003298,0.0021380284,260.5205,-99.4434,-0.9105589,WAL
15946846594000,2.235582,2.51117892429665,12.5123502530073,4.13527935684462,0.3136793,-2.7629435,0.089491755,261.04947,-99.167435,-0.8968164,WAL
15946850938000,2.239926,2.81308968814992,12.4048205983696,3.37429878422308,-0.16340645,-2.6685648,0.13591751,261.6482,-98.78618,-0.878921,WAL
15946855993000,2.244981,3.13084948215399,12.3185296461974,2.31309970883703,-0.3472769,-2.2928827,0.21960606,262.16525,-98.24326,-0.7740529,WAL
15946861022000,2.25001,3.43569948036845,12.2457291105338,1.19834940988002,-0.61911196,-1.7342464,0.31245756,262.6056,-97.55706,-0.63706815,WAL
15946865995000,2.254983,3.51851657732127,12.325838006407,0.353105898919963,-0.7672467,-1.1044444,0.3857614,262.9613,-97.01669,-0.4130234,WAL
15946871010000,2.259998,3.47944190875623,12.4919057558222,-0.355122978838605,-0.820392,-0.4746423,0.43463063,263.15845,-96.446075,-0.15124959,WAL
15946875972000,2.26496,3.32371535330157,12.7820245581056,-0.357109764671788,-0.81397796,0.058643065,0.46211955,263.2621,-96.06824,0.18507111,WAL
15946881140000,2.270128,3.10231351912866,13.1478192468151,-0.0057546579363999,-0.8197812,0.38056904,0.52778757,263.24847,-95.70301,0.5525742,WAL
15946885991000,2.274979,2.86413726785107,13.3068353885067,0.405808535873735,-0.8509353,0.46211955,0.6047566,263.18106,-95.47749,0.9282326,WAL
15946890982000,2.27997,2.60106543493323,13.3609971307163,0.877790427182517,-0.926988,0.38912117,0.70188415,263.06952,-95.278946,1.3239502,WAL
15946896042000,2.28503,2.33986297200079,13.3635484267301,1.33313774221693,-1.0134255,0.22510384,0.81122905,262.9519,-95.046036,1.6983327,WAL
15946900998000,2.289986,2.11398474665874,13.0812003993655,1.65313191116399,-1.1160508,0.044898596,0.9294315,262.8626,-94.84863,2.090708,WAL
15946905991000,2.294979,1.88388419929971,12.7995922326195,1.94809340485131,-1.2098186,-0.09010262,1.0760391,262.79022,-94.598785,2.457149,WAL
15946910997000,2.299985,1.63573480291282,12.536846075916,2.05513827837207,-1.3588698,-0.17562376,1.2324207,262.7544,-94.409935,2.8475728,WAL
15946916178000,2.305166,1.33366951634509,12.2691365303508,2.17903975341939,-1.4834863,-0.2742785,1.3979651,262.74823,-94.273735,3.2380893,WAL
15946920992000,2.30998,0.87027962107706,12.0374411960978,2.34713208134608,-1.5763378,-0.40133846,1.5525141,262.76996,-94.26514,3.6585615,WAL
15946925968000,2.314956,0.388594767816071,11.794191306518,2.51559393269037,-1.6059648,-0.54733527,1.6716328,262.82062,-94.36448,4.0706115,WAL
15946930987000,2.319975,-0.116715541514764,11.5217631615321,2.64741400580492,-1.5806139,-0.6994407,1.7760907,262.9004,-94.61245,4.510937,WAL
15946936534000,2.325522,-0.699251875148424,11.2271139081863,2.79294962164897,-1.5296066,-0.82344633,1.8362609,262.98334,-94.88938,4.8776546,WAL
15946941018000,2.330006,-1.60413391113806,11.1050268002341,2.90785535557321,-1.459357,-0.96577793,1.8796324,263.10132,-84.73519,5.258639,WAL
15946946054000,2.335042,-2.62041088108538,10.9679102356384,3.03690648760766,-1.4217888,-1.0537425,1.9269744,263.20822,-84.37948,5.555543,WAL
15946951046000,2.340034,-3.26755869186745,10.976258162651,3.05271256933379,-1.3759739,-1.2592987,1.9569068,263.372,-83.98084,5.852384,WAL
15946955968000,2.344956,-3.62552034194684,11.0966631610632,2.98112025290991,-1.3649784,-1.4691309,2.0005836,263.54486,-83.540596,6.1593986,WAL
15946961029000,2.350017,-3.99359102684156,11.2204684631688,2.9075061299068,-1.3371841,-1.6954565,2.0231857,263.81073,-83.14283,6.381268,WAL
15946966001000,2.354989,-4.41034593324419,11.3008720254063,2.62563509333471,-1.3552046,-1.8915442,2.028378,264.113,-82.713104,6.6096334,WAL
15946970990000,2.359978,-4.85756477858465,11.3598466033738,2.23247572186793,-1.4150693,-2.072971,1.9938642,264.46136,-82.27091,6.833103,WAL
15946975970000,2.364958,-5.15566583238378,11.3240787665678,1.64128665341246,-1.5305228,-2.201253,1.9419407,264.86496,-81.850784,7.0097575,WAL
15946980998000,2.369986,-5.39380718039565,11.2478729861523,0.960202277744807,-1.6869044,-2.245846,1.8765781,265.28406,-81.41542,7.173826,WAL
15946986284000,2.375272,-5.55253802089788,11.0381166704489,-0.03168707849038,-1.8396207,-2.194228,1.7980819,265.74948,-81.02607,7.284982,WAL
15946991027000,2.380015,-5.66010065002467,10.8005829250123,-1.02664118732116,-1.9767599,-2.02624,1.7201965,266.18375,-80.6175,7.3762813,WAL
15946996046000,2.385034,-5.8293426239918,10.4572840642515,-1.85367180697198,-2.0931299,-1.788308,1.6120734,266.63507,-80.27923,7.42225,WAL
15947001033000,2.390021,-6.0252121255932,10.0702084246656,-2.56253331720535,-2.169488,-1.4874569,1.4776831,267.0132,-79.93775,7.4317636,WAL
15947006008000,2.394996,-6.11470976687463,9.82158415831546,-3.05756516650419,-2.1713204,-1.1716396,1.3548992,267.40656,-79.7165,7.415568,WAL
15947011025000,2.400013,-6.13812910135504,9.65764984402418,-3.42290469112888,-2.1090124,-0.9077458,1.2180653,267.72592,-79.52024,7.348333,WAL
15947015996000,2.404984,-5.91684446860987,9.64356961659193,-3.5082014520587,-2.002111,-0.7510588,1.0458013,268.0476,-79.44731,7.226107,WAL
15947020991000,2.409979,-5.50244650112108,9.74595031726457,-3.37656915171219,-1.8945986,-0.6365216,0.8686504,268.30502,-79.41183,7.0554986,WAL
15947025977000,2.414965,-4.92856141462477,9.87190825396368,-3.23874043327568,-1.7708983,-0.548557,0.713796,268.56253,-79.46586,6.850413,WAL
15947031002000,2.41999,-4.23956414307678,10.015256192851,-3.0953919632555,-1.6340646,-0.48380527,0.60994893,268.7934,-79.565346,6.607027,WAL
15947035994000,2.424982,-3.55593955888371,10.1541584513776,-2.84932605458874,-1.4776831,-0.49266282,0.5338962,269.0271,-79.663414,6.3906007,WAL
15947040972000,2.42996,-2.8750296883205,10.2893752925446,-2.50645667332861,-1.3038919,-0.56505036,0.4804455,269.25958,-79.80709,6.152543,WAL
15947045998000,2.434986,-2.2551878435578,10.4497249377039,-2.09053852176407,-1.142318,-0.6020077,0.453262,269.4952,-79.91444,6.0102463,WAL
15947051057000,2.440045,-1.68987698456442,10.631773900623,-1.61146137678236,-1.0665708,-0.7067711,0.45020768,269.7693,-80.04652,5.865714,WAL
15947055951000,2.444939,-1.06888771906481,10.8109034796895,-1.10746374828669,-0.9431759,-0.7858781,0.4822781,270.0439,-80.12389,5.827881,WAL
15947060994000,2.449982,-0.358270112745983,10.9983666938075,-0.549432772926521,-0.8561276,-0.8597928,0.5522222,270.3436,-80.20548,5.803047,WAL
15947065995000,2.454983,0.150412291931052,11.1007732147157,-0.148696498680834,-0.8035932,-0.9117164,0.6365216,270.6443,-80.18353,5.8841715,WAL
15947070993000,2.459981,0.204594299675843,11.0096491438127,-0.101902943171083,-0.77732605,-0.94042706,0.7461719,270.9539,-80.16064,5.9914303,WAL
15947075976000,2.464964,0.258613696352971,10.9187985545151,-0.0552498245025984,-0.7641924,-0.9663888,0.8393288,271.26178,-79.97671,6.247743,WAL
15947081001000,2.469989,0.313088404019552,10.8271822167224,-0.00820348267856959,-0.7910705,-0.9627236,0.9129381,271.56232,-79.776375,6.522627,WAL
15947085977000,2.474965,0.324893576642085,10.6666020103041,-0.0662936769865643,-0.7858781,-0.9437868,0.9984592,271.8786,-79.5598,6.831162,WAL
15947090974000,2.479962,0.276550001958784,10.4055464939893,-0.274171044591171,-0.7669413,-0.86315256,1.0296134,272.172,-79.33946,7.1346693,WAL
15947095976000,2.484964,0.173121347927002,10.1069543076488,-0.449069419779308,-0.7538077,-0.8032878,1.0464121,272.47202,-79.07147,7.4802885,WAL
15947100998000,2.489986,-0.00378086843817786,9.75768588286334,-0.580612106117137,-0.71868294,-0.7837401,1.065349,272.75577,-78.80901,7.8249927,WAL
15947105926000,2.494914,-0.130218660337246,9.46786447741743,-0.704697519037008,-0.68936145,-0.72143185,1.0842859,273.045,-78.56007,8.174482,WAL
15947110997000,2.499985,-0.149543766120175,9.29393856068444,-0.820648143645046,-0.6795876,-0.6658431,1.0934488,273.32776,-78.31499,8.517316,WAL
15947115929000,2.504917,-0.161613749477113,9.13762992748157,-0.953858519838848,-0.6640105,-0.6178902,1.104139,273.61877,-78.09114,8.844251,WAL
15947120990000,2.509978,-0.157459091890108,9.00883559000514,-1.14081806353334,-0.61208695,-0.5644395,1.1071932,273.89087,-77.878334,9.161365,WAL
15947126355000,2.515343,-0.152111405116689,8.87166546807574,-1.32961169180978,-0.5558874,-0.5009095,1.1016954,274.17468,-77.6703,9.483915,WAL
15947131001000,2.519989,-0.127621180173932,8.73941813166006,-1.29532534722589,-0.48380527,-0.40103304,1.078788,274.43265,-77.47967,9.791116,WAL
15947136070000,2.525058,-0.100017509951075,8.60542709106335,-1.22684691291572,-0.42302418,-0.28130344,1.0534371,274.7131,-77.30181,10.11316,WAL
15947140975000,2.529963,-0.0690201788834842,8.52571991628959,-1.00986561440045,-0.37323865,-0.226631,1.0140363,274.98523,-77.143,10.41522,WAL
15947146142000,2.53513,-0.0348989777388555,8.43806844335547,-0.784960063187902,-0.344528,-0.07727446,0.9728029,275.20154,-76.98153,10.705282,WAL
15947151004000,2.539992,0.0190779209832438,8.30067249415112,-0.627936359864053,-0.3381139,-0.062308256,0.9505063,275.44226,-76.829506,10.985158,WAL
15947155968000,2.544956,0.070326086946592,8.16489117175864,-0.492253659961788,-0.3378085,-0.02076942,0.9126327,275.61542,-76.66035,11.243456,WAL
15947160990000,2.549978,0.0959697676077491,8.05804244283302,-0.522171288887408,-0.32986724,0.07941248,0.8866709,275.76804,-76.49774,11.489977,WAL
15947165937000,2.554925,0.12123047812761,7.95278942371812,-0.551642119292633,-0.31642818,0.24923302,0.84635377,275.8797,-76.318596,11.72795,WAL
15947171548000,2.560536,0.103734643055283,7.840544558456,-0.576218652365064,-0.30207285,0.46395215,0.8173377,275.95,-76.14713,11.951253,WAL
15947176044000,2.565032,0.0831915406441558,7.75175955155363,-0.591580424607985,-0.3032946,0.67073005,0.7779369,275.9756,-75.990654,12.149536,WAL
15947181013000,2.570001,0.0328347653766234,7.66020155584416,-0.554957293246753,-0.29626966,0.85154617,0.7370089,275.96036,-75.834145,12.346374,WAL
15947186329000,2.575317,-0.0216818297824891,7.56299077588929,-0.519517743296372,-0.27916542,1.0128145,0.69974613,275.90286,-75.68405,12.530223,WAL
15947190981000,2.579969,-0.0849144094606582,7.4958062889914,-0.578798311762619,-0.269697,1.1603385,0.67073005,275.79938,-75.544426,12.695137,WAL
15947196011000,2.584999,-0.153284976051628,7.42316270148142,-0.64289574499246,-0.25320363,1.2873985,0.65393126,275.65195,-75.41472,12.840523,WAL
15947200983000,2.589971,-0.289620019857156,7.29197115141453,-0.733677040274557,-0.2284636,1.4046847,0.6417139,275.4673,-75.29561,12.971232,WAL
15947206052000,2.59504,-0.456224137259994,7.1343725044059,-0.837241727084686,-0.19364429,1.4895949,0.61819565,275.25836,-75.18903,13.087932,WAL
15947210961000,2.599949,-0.59292560315506,6.98620474132359,-0.91416680157753,-0.15699236,1.5919148,0.6041457,275.0229,-75.098045,13.193092,WAL
15947216007000,2.604995,-0.713783516006156,6.83745680598307,-0.974595758003078,-0.13408493,1.5607607,0.5696318,274.80597,-75.0223,13.285258,WAL
15947220961000,2.609949,-0.833061152886641,6.64654616927939,-1.02467796759376,-0.07086037,1.450805,0.53023106,274.5968,-74.98784,13.351122,WAL
15947225986000,2.614974,-0.954738626812052,6.40319116848925,-1.06523716086178,0.016187929,1.3020593,0.4905248,274.41254,-74.9688,13.408027,WAL
15947231004000,2.619992,-1.08119365012024,6.16148538,-1.11859314003006,0.08827003,1.1575897,0.43799037,274.27637,-74.98176,13.442879,WAL
15947235993000,2.624981,-1.21045464092184,5.92211316,-1.18082991523046,0.17592919,1.047023,0.37843102,274.1786,-75.01922,13.467274,WAL
15947241009000,2.629997,-1.3243940349524,5.73231528327181,-1.24776102838547,0.25137106,1.0115929,0.30879238,274.11212,-75.08432,13.470664,WAL
15947246000000,2.634988,-1.42654599655139,5.57908731663105,-1.31741010853895,0.31490102,0.95172805,0.28069258,274.08884,-75.16178,13.4725485,WAL
15947250996000,2.639984,-1.47235595118943,5.43002423524229,-1.37258003929515,0.3381139,0.9294315,0.20341812,274.0832,-75.27965,13.435554,WAL
15947255990000,2.644978,-1.46767396007832,5.28488241302007,-1.41471795929515,0.39461896,0.93737274,0.13897185,274.0899,-75.41032,13.394659,WAL
15947260995000,2.649983,-1.40235509459459,5.15853408108108,-1.4085670972973,0.45204028,0.95081174,0.06566802,274.123,-75.56999,13.327694,WAL
15947266005000,2.654993,-1.27219793223149,5.05247993660203,-1.35071949195218,0.50915617,0.9621128,-0.017104227,274.15982,-75.75184,13.239494,WAL
15947270992000,2.65998,-1.11609992368345,4.9605975028777,-1.26045940796163,0.5476407,0.99173975,-0.0888809,274.20142,-75.93599,13.151337,WAL
15947275976000,2.664964,-0.932960111447482,4.88276319956835,-1.13684004880576,0.61819565,1.0152581,-0.16523905,274.24716,-76.14741,13.038662,WAL
15947280971000,2.669959,-0.664924371020061,4.86763187155015,-1.0022958187538,0.6765333,1.0433578,-0.22174409,274.28094,-76.33597,12.94107,WAL
15947285991000,2.674979,-0.27038322952462,4.94556587114488,-0.85129854195542,0.7443393,1.0790935,-0.25381452,274.31,-76.53966,12.828955,WAL
15947290978000,2.679966,0.108193432304474,5.06936991986464,-0.686290925616595,0.8164214,1.0867293,-0.27214047,274.30087,-76.71389,12.738298,WAL
15947296040000,2.685028,0.474642469553661,5.25685555240397,-0.498805399861123,0.8958339,1.0769554,-0.27488935,274.2896,-76.89126,12.643882,WAL
15947300945000,2.689933,0.835853450884296,5.45504357421692,-0.284632979578095,0.99204516,1.0390818,-0.27397305,274.2816,-76.9796,12.631142,WAL
15947305987000,2.694975,1.24226873313446,5.75342436403154,0.121782367134029,1.0726794,0.98868537,-0.2751948,274.28244,-77.06549,12.617867,WAL
15947311374000,2.700362,1.65602130396736,6.09008295430501,0.566066347912212,1.1417072,0.9034697,-0.26206118,274.27585,-77.04841,12.696784,WAL
15947316001000,2.704989,1.97603772121553,6.41009950174451,0.965047897062465,1.2030991,0.8231409,-0.24984388,274.28366,-77.028366,12.774904,WAL
15947320962000,2.70995,2.3868032889271,6.86142499331231,1.4587434369829,1.25319,0.7510588,-0.24129178,274.26648,-76.91051,12.931324,WAL
15947325980000,2.714968,3.20863370576096,7.96791149183147,2.35403350017197,1.3014483,0.68111473,-0.22815818,274.27148,-76.78739,13.090638,WAL
15947331080000,2.720068,4.01992452022359,9.07280047768716,3.22820267584532,1.3234396,0.6209445,-0.23548855,274.2368,-76.582344,13.313123,WAL
15947335964000,2.724952,4.49995660320718,9.88714045862733,3.6225146289288,1.3093897,0.61086524,-0.24678956,274.2057,-76.37814,13.533077,WAL
15947340979000,2.729967,4.99286423960414,10.7233228919637,4.02740292637222,1.2733486,0.63438356,-0.26389378,274.0577,-76.00535,13.893994,WAL
15947345990000,2.734978,5.81874555663572,11.7578642748225,5.03359973566357,1.2324207,0.70707655,-0.2874121,273.89563,-75.65251,14.233751,WAL
15947351138000,2.740126,6.70103560466043,12.835552991436,6.10401907767377,1.1554517,0.82863873,-0.26908615,273.70978,-75.304634,14.565041,WAL
15947355950000,2.744938,7.311383800239,13.647821179048,6.41148800398327,1.0464121,0.8561276,-0.22357668,273.48367,-74.885544,14.951071,WAL
15947361185000,2.750173,7.94854530233924,14.5125141038465,6.73916073693844,0.8240572,0.9642508,-0.14355333,273.06836,-74.31245,15.445491,WAL
15947365956000,2.754944,8.19898054184203,15.0670484098072,6.95381922013311,0.59712076,1.1435398,-0.07422013,272.63104,-73.75559,15.909577,WAL
15947371282000,2.76027,8.46785476425981,15.657426741463,7.17369112307475,0.40622538,1.2666291,0.0021380284,272.16486,-73.1026,16.445711,WAL
15947375964000,2.764952,8.50586957863501,15.6447550631624,7.0005119680373,0.23090707,1.3863586,0.09254608,271.656,-72.45508,16.953972,WAL
15947385959000,2.774947,8.58702251961754,15.6177039259102,6.63081404949837,-0.07452556,1.6551393,0.31123585,270.50513,-71.136116,17.92185,WAL
15947390987000,2.779975,8.62784663039895,15.6040958100419,6.444836947506,-0.21777347,1.7699821,0.43554693,269.89542,-70.46806,18.382557,WAL
15947396089000,2.785077,8.34292545165087,15.418300565586,6.05819634354115,-0.33567044,1.8289305,0.5525276,269.28104,-69.77677,18.855555,WAL
15947401105000,2.790093,7.95479382615461,15.1787133895262,5.61256389586035,-0.43249258,1.8872682,0.66828656,268.6388,-69.07485,19.31999,WAL
15947405912000,2.7949,7.39855328912273,14.7229635759858,5.08484098992025,-0.505491,1.9031507,0.7675522,267.9801,-68.38171,19.785032,WAL
15947410890000,2.799878,6.75959963989809,14.1737801174125,4.50397378544528,-0.5708536,1.8622227,0.8680395,267.32486,-67.67812,20.24917,WAL
15947415914000,2.804902,6.11931535612439,13.4358759957504,3.90831472642736,-0.5864306,1.7971655,0.9550878,266.6734,-67.04541,20.663948,WAL
15947420858000,2.809846,5.48965332968703,12.6925910018498,3.32126156614339,-0.57543504,1.7088956,1.0296134,266.04407,-66.40779,21.081707,WAL
15947425904000,2.814892,4.77981310806694,11.800648866169,2.86149016344323,-0.53878313,1.6267341,1.0986412,265.4529,-65.84691,21.451271,WAL
15947430865000,2.819853,4.0751774059525,10.9103318180178,2.42347348582022,-0.49663344,1.5748106,1.1646146,264.87994,-65.28572,21.826532,WAL
15947435910000,2.824898,3.27823149525562,10.0584868797444,2.2095524238962,-0.42394048,1.5464053,1.201572,264.3459,-64.80709,22.157724,WAL
15947440888000,2.829876,2.48429129707591,9.22300322792409,2.02029915921766,-0.3753767,1.4831808,1.2006557,263.83997,-64.334816,22.48965,WAL
15947445938000,2.834926,1.615511618,8.5207721,2.058726178,-0.2950479,1.3628404,1.1881329,263.38068,-63.939297,22.775867,WAL
15947451023000,2.840011,0.729670621142857,7.83899951428571,2.13757070114286,-0.19181168,1.1585059,1.1462886,262.97098,-63.56857,23.055004,WAL
15947455988000,2.844976,-0.11815830091031,7.5911225211767,2.24322208208126,-0.06291912,0.8857546,1.0363328,262.62042,-63.301247,23.247046,WAL
15947461064000,2.850052,-0.979905752692602,7.46069568369107,2.3596744522614,0.073303826,0.6081163,0.8720101,262.34204,-63.078037,23.421179,WAL
15947465998000,2.854986,-1.5394717497191,7.84224802247191,2.50011155926966,0.23426682,0.3286455,0.6462954,262.1094,-62.98544,23.47118,WAL
15947470999000,2.859987,-1.98293115836454,8.45511921972534,2.65457487397004,0.39003745,0.100792766,0.39370266,261.9599,-62.961678,23.480051,WAL
15947475977000,2.864965,-2.08443093228834,9.50110908274856,3.17809372513442,0.55833083,-0.122478485,0.17165314,261.89194,-63.099453,23.336391,WAL
15947481002000,2.86999,-2.08004521963,10.6939986548802,3.82278034296911,0.68111473,-0.4279111,0.031154128,261.93042,-63.29636,23.164276,WAL
15947485995000,2.874983,-1.85964206899355,12.3433522828954,4.82728970900347,0.7199047,-0.84604836,-0.036651913,262.0809,-63.619656,22.881718,WAL
15947490974000,2.879962,-1.4766657819534,14.3386121070897,6.1038778097174,0.6872234,-1.2757921,-0.018325957,262.3305,-63.96211,22.60474,WAL
15947496707000,2.885695,-0.304215365150771,15.9770075247029,6.84772086754739,0.6041457,-1.740966,0.074830994,262.677,-64.32819,22.286512,WAL
15947501002000,2.88999,0.932059063245261,16.8819924161674,7.04972651709066,0.40225476,-2.3151793,0.26053402,263.17657,-64.639694,22.037775,WAL
15947505993000,2.894981,1.79604883279046,17.2748203857589,5.67952449150649,0.046120327,-2.7036896,0.50701815,263.64636,-64.85268,21.803864,WAL
15947510972000,2.89996,2.12112883184358,17.0490709888268,2.80798404413408,-0.36377025,-2.6105325,0.6957755,264.1342,-64.98783,21.623589,WAL
15947515995000,2.904983,2.0142273527767,16.1729682368932,0.426558441009709,-0.70341134,-2.2809708,0.75716746,264.63666,-64.923164,21.645504,WAL
15947520997000,2.909985,1.26079862605825,14.335903607767,-1.17796583052427,-0.89949906,-2.032654,0.7696902,265.1238,-64.78556,21.71165,WAL
15947525974000,2.914962,0.30603070970894,12.2887882351351,-2.61398144230769,-0.9260717,-1.7794504,0.6936375,265.846,-64.80935,21.824059,WAL
15947531127000,2.920115,-1.09442195501039,9.72898674054054,-3.77846034615385,-0.82711154,-1.4724907,0.5644395,266.4743,-64.83033,21.904411,WAL
15947535971000,2.924959,-2.19761237656982,7.61524018744142,-4.38303603298969,-0.65668017,-1.3170254,0.44012842,267.21393,-64.95925,21.967752,WAL
15947540974000,2.929962,-3.04181104752577,5.83703425979381,-4.32915114412371,-0.5497787,-1.0757337,0.3885103,267.83487,-65.10392,21.988056,WAL
15947546093000,2.935081,-3.75278957611251,4.19599824280017,-4.08082746845088,-0.3109304,-0.9786061,0.2864958,268.5292,-65.399574,21.92716,WAL
15947551078000,2.940066,-4.09350605963476,3.00850129165617,-3.3943840218199,-0.09040806,-1.0351112,0.16279559,269.2004,-65.72325,21.834917,WAL
15947555922000,2.94491,-4.3962091240089,2.17744092265519,-1.97226842304196,0.11178834,-1.2431108,0.020463986,269.8122,-66.04647,21.73617,WAL
15947560993000,2.949981,-4.66386981158383,1.86751804447882,0.826429764919745,0.3200934,-1.557401,-0.12492194,270.484,-66.4278,21.602844,WAL
15947566585000,2.955573,-4.91170349023782,1.71531129494967,2.3654457345542,0.48991394,-1.9291124,-0.269697,271.08856,-66.69016,21.56176,WAL
15947570984000,2.959972,-5.04679052281999,1.83538859629465,1.61871493991984,0.6414085,-2.214081,-0.43127087,271.77884,-67.011375,21.478144,WAL
15947575984000,2.964972,-5.2102043475636,2.00892003182406,0.778256971944804,0.7678576,-2.4489589,-0.6395759,272.21042,-67.24306,21.3118,WAL
15947581006000,2.969994,-5.52129575409659,2.73479978188875,0.0575620200043122,0.82527894,-2.6768115,-0.90224797,272.7347,-67.539986,21.094616,WAL
15947585998000,2.974986,-5.81815022072452,3.52320604768324,-0.65213453657774,0.74281216,-2.7968466,-1.2159272,273.48288,-68.03461,20.729996,WAL
15947590981000,2.979969,-6.06830353748947,4.55955586267902,-1.33558937371899,0.56382865,-2.7601945,-1.5674802,274.2636,-68.606926,20.277935,WAL
15947596032000,2.98502,-6.31112299779759,5.62915802322733,-2.03407652246455,0.3268129,-2.5821273,-1.9642372,275.17624,-69.45428,19.561798,WAL
15947601002000,2.98999,-6.42873403249893,6.89731332554792,-2.78576536851096,0.07666359,-2.282498,-2.4107797,276.04703,-70.394455,18.721207,WAL
15947605988000,2.994976,-6.42274461462672,8.22677524422397,-3.45788019880157,-0.15118915,-1.9016235,-2.8047879,276.96558,-71.59118,17.629686,WAL
15947611006000,2.999994,-5.95067764482318,9.77987552410609,-3.82609226469548,-0.3594942,-1.4877623,-3.0705142,277.77484,-72.84957,16.440372,WAL
15947615987000,3.004975,-5.42063164879154,11.4206169592145,-4.30342184191843,-0.51068336,-0.9825767,-3.1893275,278.54254,-74.26848,15.096812,WAL
15947620991000,3.009979,-4.59719274070997,13.5380317802115,-5.31236104256042,-0.5748242,-0.39614612,-3.177721,279.1385,-75.69503,13.719349,WAL
15947626071000,3.015059,-3.79999354718035,15.508567372261,-6.2138760750012,-0.6114761,0.2883284,-3.054021,279.57385,-77.11693,12.343931,WAL
15947631002000,3.01999,-3.51344754483506,15.1697151789068,-5.54526871244883,-0.6188065,1.1588113,-2.8347201,279.75183,-78.473785,11.014755,WAL
15947636443000,3.025431,-3.19726486408861,14.795816419215,-4.80750909783771,-0.4636467,1.7779233,-2.7073548,279.85782,-79.76567,9.814696,WAL
15947640974000,3.029962,-2.93396331539128,14.4844517288707,-4.19313879572357,-0.36346483,1.9871446,-2.6456573,279.79358,-80.96328,8.691905,WAL
15947646039000,3.035027,-2.63963042107392,14.1363912220082,-3.50636201792439,-0.355829,2.2611177,-2.559831,279.50455,-82.083435,7.638487,WAL
15947651016000,3.040004,-2.3208921796056,13.7001463136482,-3.09987565475869,-0.40653083,2.3689353,-2.4263568,279.17767,-83.13606,6.65194,WAL
15947656308000,3.045296,-1.98224368793284,13.215160414576,-2.70968542808356,-0.44532076,2.3280075,-2.2317963,278.79306,-84.11089,5.7394624,WAL
15947660996000,3.049984,-1.75525790996852,12.5256375863779,-2.69683723134599,-0.4196644,2.2162192,-1.9828686,278.2992,-84.89721,4.9661126,WAL
15947665938000,3.054926,-1.51597384113326,11.7987557994849,-2.68329290790804,-0.29718593,2.0891593,-1.7305813,277.7967,-85.5575,4.312948,WAL
15947670996000,3.059984,-1.20289040754977,11.2306398650597,-2.67696539724524,-0.0842994,1.998751,-1.5042557,277.31232,-86.14951,3.7388997,WAL
15947676210000,3.065198,-0.868191964785423,10.6996981407946,-2.67068182112914,0.17470746,1.9333885,-1.3048081,276.85428,-86.67675,3.2432134,WAL
15947680984000,3.069972,-0.5404197062093,10.5949933828537,-2.65247231247635,0.46731192,1.9199494,-1.1074986,276.40173,-87.09957,2.8637445,WAL
15947686282000,3.07527,-0.185420865959046,10.4907671869247,-2.61568820071388,0.7296785,1.9575176,-0.94042706,275.95456,-87.40454,2.5922084,WAL
15947690974000,3.079962,0.0213971435919594,10.5456370550441,-2.37932475619012,0.93431836,2.003638,-0.7703011,275.5085,-92.40077,2.386294,WAL
15947695977000,3.084965,0.241923678498967,10.6041438645501,-2.12729442521135,1.0677924,2.007914,-0.61453044,275.06335,-92.39247,2.2863243,WAL
15947700995000,3.089983,0.425188937037707,10.6991964495886,-1.8521877334117,1.1575897,1.9575176,-0.49877146,274.62228,-92.52479,2.2297232,WAL
15947705936000,3.094924,0.600618831521837,10.7976080877114,-1.57834588805498,1.2232577,1.8417587,-0.42332962,274.20117,-92.78118,2.2110164,WAL
15947711032000,3.10002,0.756998004471734,10.7824250740971,-1.31901143934919,1.2996159,1.7030923,-0.3652974,273.79065,-93.12926,2.2570493,WAL
15947715978000,3.104966,0.896897097067205,10.7112484461889,-1.07848319736774,1.3665055,1.491733,-0.34330627,273.4368,-93.52352,2.3151488,WAL
15947720992000,3.10998,1.03871959004612,10.6390932475776,-0.834648056790507,1.4398094,1.255328,-0.35369098,273.10867,-93.93157,2.402829,WAL
15947725979000,3.114967,1.1797783799316,10.5673265990984,-0.592125949479248,1.5118915,1.0216721,-0.3903429,272.84174,-94.358215,2.487016,WAL
15947730997000,3.119985,1.23173900335509,10.4784573890063,-0.4921751622355,1.5418239,0.91751957,-0.43218717,272.59424,-94.79101,2.5620005,WAL
15947735990000,3.124978,1.26250642102215,10.3861555031712,-0.426244926445445,1.5491543,0.71959925,-0.45448375,272.4413,-95.23334,2.6264787,WAL
15947740982000,3.12997,1.2283080071299,10.3298248963603,-0.379522236951649,1.543351,0.50976706,-0.46517387,272.28558,-95.633316,2.7260745,WAL
15947746039000,3.135027,1.15593968691429,10.2936400075782,-0.343338082241435,1.5189165,0.30604348,-0.44073927,272.1852,-96.026634,2.824305,WAL
15947751057000,3.140045,1.03389438923997,10.1867943125534,-0.306989404329633,1.4660766,0.10995574,-0.36743546,272.1236,-96.40687,2.9333005,WAL
15947755989000,3.144977,0.899442893424424,10.0613065243382,-0.271135664312553,1.4239268,-0.071776666,-0.2910773,272.1168,-96.780914,3.0439155,WAL
15947761030000,3.150018,0.760361185104048,9.87937802277669,-0.235580116276012,1.3545936,-0.26083946,-0.22968534,272.15002,-97.12774,3.1488163,WAL
15947766016000,3.155004,0.621941194198157,9.67174795382545,-0.200975118549539,1.280679,-0.43982297,-0.17440203,272.23395,-97.465324,3.2664645,WAL
15947770992000,3.15998,0.496163619900284,9.48985242291524,-0.205077917435722,1.1939361,-0.6084218,-0.13194689,272.34778,-97.77065,3.3627913,WAL
15947775997000,3.164985,0.374330597610715,9.31647460396911,-0.223821458950044,1.1191051,-0.7602218,-0.10720685,272.50833,-98.05955,3.4622772,WAL
15947781002000,3.16999,0.27218591159209,9.20440139741107,-0.289529775293038,1.0439687,-0.87964594,-0.09773844,272.6816,-98.31758,3.5378523,WAL
15947785991000,3.174979,0.179657617088982,9.12161277912547,-0.377188157953318,0.95539325,-0.9642508,-0.099571034,272.88757,-98.550476,3.6113963,WAL
15947790972000,3.17996,0.103503719863915,9.08470602803465,-0.445321055422953,0.8527679,-1.0064005,-0.09285152,273.09427,-98.761345,3.6652532,WAL
15947796016000,3.185004,0.0329711385797722,9.0658974513774,-0.506449307625815,0.73823065,-1.0305296,-0.09193522,273.3182,-98.9422,3.7133746,WAL
15947800995000,3.189983,-0.0201294445952336,9.08045348564459,-0.553460020138863,0.6426302,-1.0198395,-0.073303826,273.52252,-99.11518,3.7508168,WAL
15947805985000,3.194973,-0.0649673742565209,9.1118402017264,-0.593814147329705,0.5647449,-1.0057896,-0.067500606,273.73077,-99.25936,3.7834795,WAL
15947811015000,3.200003,-0.121348115558848,9.19430642993226,-0.675116230821338,0.47769663,-0.98349303,-0.052534413,273.9135,-99.38737,3.8116698,WAL
15947815998000,3.204986,-0.187010263703429,9.32057996417231,-0.791287724098222,0.40317106,-0.9502009,-0.05100725,274.08734,-99.49572,3.8383262,WAL
15947821666000,3.210654,-0.243342559372676,9.44593537575847,-0.931140624329614,0.33414328,-0.9034697,-0.06078109,274.25446,-99.58301,3.8554382,WAL
15947825970000,3.214958,-0.279647827143277,9.53468147166765,-1.04005642342924,0.2855795,-0.86070913,-0.06505715,274.41202,-99.65592,3.8755374,WAL
15947830996000,3.219984,-0.299797568688106,9.60597248688106,-1.17633597286371,0.26725355,-0.8371908,-0.071776666,274.53284,-99.73368,3.8834145,WAL
15947835989000,3.224977,-0.304679341265952,9.65479021265952,-1.31790747957121,0.2510656,-0.77518797,-0.07574729,274.62933,-99.79814,3.8942742,WAL
15947840971000,3.229959,-0.318351973024443,9.64878683056837,-1.44084831193678,0.2611449,-0.7134906,-0.108123146,274.71542,-99.87569,3.885116,WAL
15947846012000,3.235,-0.337308161894572,9.61087467056052,-1.55458543526063,0.269697,-0.6600399,-0.14721853,274.78485,-99.946365,3.875285,WAL
15947850997000,3.239985,-0.399144532157292,9.58737459263315,-1.63939579413639,0.2947425,-0.64660084,-0.19425514,274.8544,-100.03897,3.8516746,WAL
15947855981000,3.244969,-0.489426806944749,9.57311921144848,-1.70591956667994,0.31703907,-0.68294734,-0.23701571,274.92072,-100.12817,3.8185914,WAL
15947860984000,3.249972,-0.529308880630672,9.59565934091117,-1.82902789128243,0.36163223,-0.7431176,-0.2773328,274.97543,-100.24691,3.7699585,WAL
15947866015000,3.255003,-0.533725498175818,9.64424222614355,-1.99244292492437,0.42149702,-0.82924956,-0.30787608,275.04578,-100.37119,3.7097363,WAL
15947871029000,3.260017,-0.508773090974806,9.67045741097055,-2.13432996364409,0.48349985,-0.9049969,-0.34422258,275.12573,-100.50861,3.614676,WAL
15947876017000,3.265005,-0.442758567985543,9.66537926958648,-2.2460466879983,0.5381723,-0.93370754,-0.36071593,275.2154,-100.65889,3.5162036,WAL
15947881035000,3.270023,-0.386161801253248,9.63222912542475,-2.30868992539476,0.61453044,-0.960891,-0.38087448,275.3233,-100.85773,3.4013345,WAL
15947886028000,3.275016,-0.338373481886868,9.57488347751349,-2.32780539086548,0.68783426,-0.979217,-0.41416663,275.43423,-101.06765,3.2787876,WAL
15947891677000,3.280665,-0.319180394702735,9.51661931866825,-2.33359516617122,0.77304995,-0.99021256,-0.44226643,275.55096,-101.32285,3.1656454,WAL
15947896047000,3.285035,-0.323327313390805,9.4751502183908,-2.32944816954023,0.84391034,-0.9728029,-0.46028697,275.66266,-101.591064,3.0480776,WAL
15947901030000,3.290018,-0.335115379007994,9.44993296686892,-2.3010281813734,0.8949176,-0.9437868,-0.48380527,275.76123,-101.88405,2.9366648,WAL
15947906030000,3.295018,-0.353562465591833,9.44532110131946,-2.25029871975344,0.9272934,-0.8912524,-0.49571714,275.8473,-102.18854,2.8272967,WAL
15947911042000,3.30003,-0.376805270272579,9.45347083441823,-2.19389823051261,0.9605856,-0.81214535,-0.51068336,275.91638,-102.50354,2.7145727,WAL
15947916005000,3.304993,-0.405810370854353,9.47764173474369,-2.1310538896664,0.9755518,-0.6979135,-0.5155703,275.96045,-102.81923,2.608491,WAL
15947920973000,3.309961,-0.419248645989377,9.50553181342347,-2.04404949423467,0.96883225,-0.5766568,-0.5317582,275.97623,-103.12377,2.5013506,WAL
15947926048000,3.315036,-0.414555033097055,9.53838674099469,-1.92670926994689,0.9819659,-0.44501534,-0.5491679,275.95715,-103.43397,2.4024732,WAL
15947930980000,3.319968,-0.406164403535668,9.56892958432828,-1.79024117065316,0.9831876,-0.37965274,-0.5534439,275.9151,-103.72159,2.299669,WAL
15947935991000,3.324979,-0.391719923288853,9.59781862526337,-1.61690737752584,0.9822713,-0.24495697,-0.57726765,275.81558,-104.00639,2.2022743,WAL
15947940975000,3.329963,-0.378000535326986,9.63032913871341,-1.46241813561705,0.9804387,-0.12492194,-0.60139686,275.6969,-104.26408,2.1130972,WAL
15947946011000,3.334999,-0.365126943868672,9.66894982347184,-1.33368217622564,0.96577793,-0.019242255,-0.6059783,275.5462,-104.513374,2.0334754,WAL
15947951008000,3.339996,-0.356698201049968,9.70994493358634,-1.20226786899642,0.93554014,0.0711658,-0.6102544,275.35376,-104.72092,1.963437,WAL
15947955989000,3.344977,-0.371784235458571,9.76526049810247,-1.05140739363799,0.9089675,0.1459968,-0.6068946,275.13882,-104.92116,1.9029074,WAL
15947961570000,3.350558,-0.386326251705306,9.80990405626317,-0.837653342812242,0.88117313,0.19242255,-0.6096435,274.88824,-105.08233,1.8532151,WAL
15947966004000,3.354992,-0.394108451932558,9.8176864108861,-0.596405221091359,0.850019,0.22174409,-0.61361414,274.6247,-105.23098,1.810014,WAL
15947970981000,3.359969,-0.401899608842431,9.8251514440573,-0.341502326039489,0.8072584,0.22693644,-0.61575216,274.34793,-105.33604,1.7697681,WAL
15947975975000,3.364963,-0.397270636794425,9.81589330662021,-0.295212571724739,0.752586,0.21410827,-0.62980205,274.0697,-105.42495,1.7273345,WAL
15947981258000,3.370246,-0.390016920660744,9.80533392115491,-0.245838378847862,0.691194,0.20250183,-0.66431594,273.76508,-105.44339,1.6853002,WAL
15947985994000,3.374982,-0.348044171062373,9.78434755950398,-0.195471080206367,0.6236934,0.18387043,-0.68477994,273.4687,-105.44251,1.6429111,WAL
15947990979000,3.379967,-0.303864661613918,9.76225781861929,-0.142455669790857,0.54458636,0.15332718,-0.72387534,273.16803,-105.4104,1.585368,WAL
15947996008000,3.384996,-0.208449703629238,9.69981192275791,-0.142497327994816,0.44409904,0.098043874,-0.75655663,272.88104,-105.35161,1.5219519,WAL
15948001021000,3.390009,-0.103921010168585,9.63012628512183,-0.15245243913323,0.36254853,0.047036625,-0.79290307,272.60065,-105.274086,1.4461815,WAL
15948005981000,3.394969,0.0274775132325175,9.53969410955711,-0.21697662664627,0.29626966,0.01282817,-0.8246681,272.3224,-105.164185,1.3758925,WAL
15948010972000,3.39996,0.162106245114219,9.44684677311577,-0.286612182299922,0.2125811,-0.004276057,-0.852157,272.05347,-105.02614,1.2956265,WAL
15948016000000,3.404988,0.337352740242158,9.39535671942372,-0.397676747695923,0.14263703,-0.0070249503,-0.87872964,271.7649,-104.88366,1.2320749,WAL
15948020927000,3.409915,0.515736554842138,9.35196619556555,-0.513385170426075,0.06841691,0.012217305,-0.8961393,271.47656,-104.71688,1.164718,WAL
15948025979000,3.414967,0.637561356272401,9.436072609319,-0.66038777921147,-0.008857546,0.02076942,-0.89369583,271.18597,-104.55172,1.131776,WAL
15948031268000,3.420256,0.757000465666855,9.54117863846444,-0.818047371684588,-0.03481932,0.06994407,-0.88208944,270.88165,-104.381004,1.1007851,WAL
15948035991000,3.424979,0.833099334599481,9.74054518174825,-0.953928786902587,-0.12492194,0.0983493,-0.8698721,270.5518,-104.2025,1.1206816,WAL
15948040980000,3.429968,0.906612050500048,9.97486698317146,-1.09635972343495,-0.14446963,0.15821409,-0.838718,270.2071,-104.03807,1.1524175,WAL
15948046014000,3.435002,0.943291519075237,10.2504331545174,-1.19700507630095,-0.16798794,0.20555615,-0.79534656,269.8461,-103.8785,1.2243379,WAL
15948051020000,3.440008,0.963698680243695,10.5412353010535,-1.27863372097478,-0.16310102,0.22113322,-0.7489208,269.48694,-103.72312,1.3031247,WAL
15948055995000,3.444983,0.978768742508302,10.7684540982614,-1.31972856585271,-0.13683382,0.22052236,-0.70829827,269.1299,-103.58723,1.4045779,WAL
15948061028000,3.450016,0.992892604903302,10.9850198408381,-1.35268424477437,-0.0983493,0.20311269,-0.6814202,268.78326,-103.45827,1.508994,WAL
15948066005000,3.454993,1.01497295817214,11.1691736091495,-1.41306465186777,-0.062308256,0.18478674,-0.655153,268.42172,-103.34502,1.625475,WAL
15948070944000,3.459932,1.03917719211954,11.343444336199,-1.48083636538737,-0.038789943,0.19242255,-0.63713247,268.06827,-103.24048,1.7404598,WAL
15948075977000,3.464965,1.11366421932439,11.4354071490313,-1.50561382980626,-0.0143553335,0.19425514,-0.6169739,267.70892,-103.14813,1.8548054,WAL
15948080976000,3.469964,1.19928171733731,11.5067550226528,-1.51988340453055,-0.0018325958,0.21533,-0.59040123,267.3532,-103.06052,1.9704387,WAL
15948085994000,3.474982,1.29663038334596,11.5099384337817,-1.46791047522736,0.010079277,0.2171626,-0.5684101,266.98755,-102.989655,2.0823376,WAL
15948090998000,3.479986,1.39650644996211,11.4963186986548,-1.39981317431792,0.023823744,0.18417588,-0.5558874,266.63733,-102.92349,2.1907995,WAL
15948096000000,3.484988,1.49717955332208,11.425444582683,-1.33691894800675,0.06811147,0.15271631,-0.52381694,266.26758,-102.8782,2.3263237,WAL
15948101073000,3.490061,1.5996539393166,11.3280940229909,-1.27543431641004,0.13469578,0.084910266,-0.5045747,265.92917,-102.84272,2.449109,WAL
15948105993000,3.494981,1.6613855901832,11.2739044839267,-1.20143078409955,0.22510384,-0.009773844,-0.462425,265.59692,-102.824524,2.6096807,WAL
15948111064000,3.500052,1.71594244236951,11.2277409430522,-1.121693866514,0.31795537,-0.1328632,-0.4034765,265.30615,-102.82746,2.7651072,WAL
15948115997000,3.504985,1.70986676900758,11.1564693192659,-1.02359636979888,0.42394048,-0.269697,-0.31764993,264.98682,-102.87183,2.9538045,WAL
15948120991000,3.509979,1.64153557777778,11.0566002962963,-0.902702711111111,0.5369505,-0.43860126,-0.23335053,264.7314,-102.9459,3.13768,WAL
15948125991000,3.514979,1.54649139793084,11.0049070328798,-0.74193107045068,0.66859204,-0.53023106,-0.18600847,264.48297,-103.04913,3.340854,WAL
15948131005000,3.519993,1.43760682629441,10.9776862808012,-0.560456744912132,0.7141015,-0.7113526,-0.092240654,264.33035,-103.16711,3.552471,WAL
15948135996000,3.524984,1.32142549723757,11.0688462288871,-0.300471375603789,0.81214535,-0.8970556,-0.004886922,264.20163,-103.31991,3.744695,WAL
15948140975000,3.529963,1.19911333632597,11.2570186329913,0.024126257261247,0.8854492,-1.074512,0.082161374,264.13904,-103.48317,3.941749,WAL
15948145983000,3.534971,1.0760008887789,11.5859390623395,0.534422149580122,0.91996306,-1.284955,0.19394971,264.1289,-103.63311,4.116429,WAL
15948150992000,3.53998,0.952781596893895,12.0456422394784,1.21686755478957,0.89949906,-1.5473217,0.29932398,264.19574,-103.79267,4.2904286,WAL
15948155997000,3.544985,0.909305455279552,12.3684460807704,1.90160827962071,0.82619524,-1.8093829,0.40194935,264.30243,-103.88638,4.4464083,WAL
15948160993000,3.549981,0.946916317246733,12.5517988389506,2.5880066430677,0.6563747,-2.0647244,0.48349985,264.48752,-103.95661,4.602399,WAL
15948165996000,3.554984,1.05154573389309,12.6365712510495,3.01268437724601,0.35796702,-2.2220223,0.54733527,264.67145,-103.84016,4.720459,WAL
15948170994000,3.559982,1.23462812980689,12.6053131183879,3.12878541335013,-0.049480084,-2.268448,0.6084218,264.8962,-103.665085,4.8485446,WAL
15948175965000,3.564953,1.48002925847589,12.5500433738725,3.03882657437014,-0.4868596,-2.1560488,0.6600399,265.1123,-103.29168,4.9708095,WAL
15948181006000,3.569994,1.87044726065319,12.4399258778642,2.48823716050804,-0.87781334,-1.9068159,0.71959925,265.3008,-102.85171,5.117934,WAL
15948185969000,3.574957,2.25282330732411,12.3451045405613,1.95259535932334,-1.1560625,-1.5717562,0.7806858,265.4459,-102.34565,5.304875,WAL
15948190972000,3.57996,2.6350569794406,12.2714204104191,1.42299443675509,-1.289842,-1.2000448,0.83260936,265.50766,-101.816734,5.5194964,WAL
15948195992000,3.58498,2.93762690605289,12.2243074652302,0.977437462761998,-1.3643675,-0.8167268,0.8671232,265.52057,-101.38095,5.808462,WAL
15948200992000,3.58998,3.05487480027424,12.2383770048972,0.728871938765916,-1.3591752,-0.48747048,0.92179567,265.44376,-100.98519,6.1255856,WAL
15948205927000,3.594915,3.13394873520659,12.1811246451191,0.600207868322107,-1.3417655,-0.2312125,1.0112875,265.33813,-100.73855,6.5198283,WAL
15948210978000,3.599966,3.10477069200764,11.9087961742234,0.819043725495124,-1.3304645,-0.05131268,1.1456778,265.16467,-100.55613,6.9417386,WAL
15948216462000,3.60545,2.88588622634324,11.6127451977047,1.07038925899844,-1.4230106,0.04153884,1.3048081,264.9874,-100.46328,7.402851,WAL
15948220994000,3.609982,2.39911258561989,11.367471482177,1.300568995253,-1.5485435,0.059864793,1.4935656,264.7868,-100.44929,7.900865,WAL
15948226327000,3.615315,1.82395020981177,11.0987872327793,1.56750599309171,-1.6694947,0.1255328,1.7098118,264.55017,-100.49222,8.442202,WAL
15948231004000,3.619992,1.26787794829796,11.3005879825791,1.71549295987185,-1.7418822,0.14538592,1.8069394,264.32196,-100.59571,8.987068,WAL
15948236310000,3.625298,0.639512406125614,11.5279947525631,1.87606399402947,-1.7449366,0.15760323,2.0534234,264.0326,-100.74597,9.539007,WAL
15948240972000,3.62996,0.143305585913673,11.6933967448092,1.85298462385629,-1.7504344,0.12644911,2.1096232,263.7424,-100.917725,10.046476,WAL
15948245983000,3.634971,-0.390047562109072,11.8711808252778,1.82817751876454,-1.7427986,0.06414085,2.2079725,263.3462,-101.11427,10.514313,WAL
15948251030000,3.640018,-0.932386029110206,12.1461651904672,1.57305743942955,-1.754405,-0.012217305,2.281887,262.9621,-101.35651,10.97029,WAL
15948255969000,3.644957,-1.46575871555008,12.4643962911968,1.20552329655074,-1.767844,-0.08277224,2.3267858,262.59406,-101.65162,11.425185,WAL
15948260980000,3.649968,-2.00023348253867,12.7748963657555,0.74556016857385,-1.7941113,-0.13683382,2.3527474,262.2926,-101.91526,11.8037815,WAL
15948266001000,3.654989,-2.53009735686586,13.0754918998729,0.210601463521933,-1.8044959,-0.13652839,2.3695462,261.99008,-102.21707,12.1778345,WAL
15948270991000,3.659979,-2.94433935240521,13.3162998758695,-0.223854446068384,-1.7999145,-0.10323623,2.359467,261.83267,-102.50893,12.503425,WAL
15948275975000,3.664963,-3.29973673686686,13.5267328814539,-0.607309509268149,-1.7907515,-0.11636983,2.348166,261.68033,-77.1743,12.823731,WAL
15948281002000,3.66999,-3.61236370461003,13.5714990536387,-0.890856824383879,-1.7873917,-0.16584991,2.3353379,261.6038,-76.89737,13.081946,WAL
15948286629000,3.675617,-3.93006063322702,13.5037928708804,-1.13563975373538,-1.8014416,-0.22785273,2.2837198,261.528,-76.62267,13.319812,WAL
15948290974000,3.679962,-4.09660459520284,13.3764708273616,-1.20924134441812,-1.8078557,-0.35155296,2.1994202,261.52646,-76.403534,13.494898,WAL
15948296005000,3.684993,-4.23452262457803,13.1767275635179,-1.21399713168493,-1.8341229,-0.5183192,2.0964894,261.55048,-76.19573,13.647618,WAL
15948300997000,3.689985,-4.36819616665039,12.9211377249194,-1.11881186356354,-1.8784106,-0.7415904,1.9871446,261.6642,-76.03278,13.75164,WAL
15948305995000,3.694983,-4.49911491231806,12.6125433259744,-0.931784867822604,-1.9456058,-1.0204504,1.8429805,261.8391,-75.89949,13.81816,WAL
15948310967000,3.699955,-4.59072784939941,12.3978893776118,-0.853514182562834,-2.0460932,-1.323745,1.6988163,262.0943,-75.78828,13.8525,WAL
15948316005000,3.704993,-4.63942883813465,12.2858771492884,-0.897344960548097,-2.1691825,-1.6212363,1.5827519,262.42505,-75.69542,13.858818,WAL
15948320985000,3.709973,-4.59156081639344,12.2476681639344,-1.46873674311475,-2.2516494,-1.6985108,1.5296066,262.75888,-75.6052,13.8394375,WAL
15948325985000,3.714973,-4.44379900347155,12.2846088582449,-2.59080229277724,-2.2586741,-1.5980235,1.5344934,263.12128,-75.51623,13.807151,WAL
15948330971000,3.719959,-4.2312566959202,12.2923948621446,-3.29385877432419,-2.1303926,-1.2428054,1.534188,263.44226,-75.4339,13.760508,WAL
15948335961000,3.724949,-3.92617451696758,12.2590263214963,-3.4082646163192,-1.8237382,-0.90408057,1.4737124,263.733,-75.37433,13.696825,WAL
15948340938000,3.729926,-3.54306834137002,12.2151311960747,-3.3876631050991,-1.5632042,-0.6053675,1.402852,264.0939,-75.35231,13.677068,WAL
15948345964000,3.734952,-3.03830596217048,12.1549299286127,-3.16538237998846,-1.3411547,-0.33414328,1.3793337,264.359,-75.36106,13.64538,WAL
15948350931000,3.739919,-2.53171518859784,12.0609768305085,-2.89511726964561,-1.1520919,-0.17562376,1.3475688,264.60635,-75.374725,13.639692,WAL
15948356236000,3.745224,-1.97330424031844,11.8835380677966,-2.49327019517206,-0.9941832,-0.11056661,1.31672,264.79944,-75.41463,13.621934,WAL
15948360963000,3.749951,-1.53258587141367,11.7370827674373,-2.20581038974914,-0.8509353,-0.13225232,1.3005321,264.97195,-75.39129,13.674944,WAL
15948365961000,3.754949,-1.15588243698967,11.6005279670438,-2.01274986817511,-0.7489208,-0.22143865,1.2962561,265.1446,-75.38599,13.720223,WAL
15948370937000,3.759925,-0.839401383003012,11.4643917987754,-1.80895335877241,-0.67011917,-0.27458394,1.278541,265.292,-75.30762,13.830782,WAL
15948375978000,3.764966,-0.632000686719076,11.3261246191299,-1.58009743514394,-0.5992588,-0.31642818,1.2574661,265.46213,-75.24288,13.937159,WAL
15948385978000,3.774966,-0.220573001172683,11.051839398647,-1.126108298805,-0.5204572,-0.41508293,1.289842,265.85455,-74.98752,14.275336,WAL
15948390977000,3.779965,0.0144047875977962,10.9057404848485,-0.9685766184573,-0.5137377,-0.39920044,1.31672,266.03992,-74.81321,14.4825115,WAL
15948395998000,3.784986,0.319076528972819,10.737950329798,-0.972992147640037,-0.54519725,-0.3200934,1.3310753,266.2236,-74.64016,14.686343,WAL
15948401075000,3.790063,0.633900374393683,10.5728273420756,-0.992768639311901,-0.56688297,-0.14019357,1.3509285,266.35526,-74.414185,14.928149,WAL
15948405911000,3.794899,0.973480021184433,10.4422201108291,-1.10160827901861,-0.5897904,0.053450707,1.393689,266.45807,-74.18073,15.172585,WAL
15948411204000,3.800192,1.34213235633918,10.2997538410841,-1.22016741078945,-0.6072,0.20952678,1.4547756,266.54922,-73.87361,15.490954,WAL
15948415915000,3.804903,1.60150146444924,10.1839636418232,-1.3127991832974,-0.56596667,0.28344148,1.5201381,266.60596,-73.56283,15.81322,WAL
15948421115000,3.810103,1.87127713070381,10.0586606695015,-1.40709962595308,-0.5329799,0.47952923,1.5937474,266.62967,-73.16773,16.223469,WAL
15948425899000,3.814887,1.92054106047898,9.97356860146628,-1.39814260307918,-0.52198434,0.52778757,1.6206255,266.6744,-72.77668,16.631647,WAL
15948431196000,3.820184,1.96167248690229,9.87510181912682,-1.38565046985447,-0.5183192,0.6188065,1.6505579,266.68054,-72.32438,17.10551,WAL
15948435911000,3.824899,1.72271386301266,9.70015001086751,-1.32164369878095,-0.49327368,0.71837753,1.6557503,266.66913,-71.88253,17.56801,WAL
15948440895000,3.829883,1.47012218083538,9.51521685872236,-1.25398521584767,-0.4972443,0.7473936,1.6255124,266.67535,-71.41959,18.047647,WAL
15948445942000,3.83493,1.19797144639498,9.41658339028213,-1.17917813103448,-0.52839845,0.77732605,1.5711454,266.65146,-70.970825,18.50914,WAL
15948450994000,3.839982,0.923073557523511,9.33127026430251,-1.10334423577586,-0.5525276,0.8017606,1.5302174,266.62064,-70.53586,18.955128,WAL
15948455992000,3.84498,0.59039071469697,9.2346142899449,-1.33464921676505,-0.55955255,0.93584555,1.500285,266.52374,-70.14667,19.343943,WAL
15948460980000,3.849968,0.247302848939394,9.13591750344353,-1.62133908075561,-0.5708536,1.1362094,1.4776831,266.40036,-69.77273,19.712948,WAL
15948466007000,3.854995,-0.206836538277125,8.90805052080789,-1.73829524780648,-0.57543504,1.3307699,1.4407257,266.21637,-69.45118,20.019363,WAL
15948470925000,3.859913,-0.675832878769375,8.65585437200563,-1.81351163414749,-0.55771995,1.5060883,1.3988814,265.97882,-69.144646,20.306805,WAL
15948475974000,3.864962,-0.976799335645824,8.49035410832192,-1.73309751999087,-0.55771995,1.6508633,1.3616186,265.73508,-68.90111,20.53818,WAL
15948480937000,3.869925,-1.18649978995892,8.37224683959633,-1.57883512723262,-0.5467244,1.8350391,1.344209,265.42816,-68.67085,20.75256,WAL
15948485994000,3.874982,-1.40017200383387,8.25190260063898,-1.42165098051118,-0.56016344,1.933083,1.3005321,265.09653,-68.52535,20.878073,WAL
15948491002000,3.87999,-1.61177383240529,8.13272444190882,-1.26598987574928,-0.5696318,1.9575176,1.2528846,264.73386,-68.39121,20.9902,WAL
15948496023000,3.885011,-1.82179445266321,8.02426316688083,-1.22953201369948,-0.55833083,1.9822577,1.2021828,264.34985,-68.26765,21.089346,WAL
15948500969000,3.889957,-2.02795080569948,7.92118524663212,-1.23444049585492,-0.54702985,2.0295997,1.1609493,263.95468,-68.15808,21.172195,WAL
15948506046000,3.895034,-2.23151778120464,7.7897786919031,-1.24651679080969,-0.5198463,2.069917,1.1053606,263.46817,-68.118576,21.161402,WAL
15948511012000,3.9,-2.42876262963522,7.65529366371948,-1.25996529362805,-0.48838675,2.0934353,1.0296134,262.97626,-68.10026,21.128105,WAL
15948516003000,3.904991,-2.65654038165109,7.46087179640794,-1.24331718291146,-0.45478916,2.0867157,0.9611965,262.47342,-68.122154,21.052782,WAL
15948520993000,3.909981,-2.89746435308266,7.24002480512551,-1.21320171268774,-0.41447207,2.0659463,0.91813046,261.9715,-68.16311,20.959627,WAL
15948525974000,3.914962,-3.11613133755943,7.06640101248019,-1.14378722555468,-0.3924809,2.0088303,0.8396343,261.4804,-68.2604,20.808477,WAL
15948531005000,3.919993,-3.33088387801109,6.90414353857964,-1.06265851352021,-0.35246924,1.9556851,0.7507534,260.99857,-68.37856,20.640411,WAL
15948535994000,3.924982,-3.44255097755029,6.77203338410183,-1.02431258379918,-0.30818152,1.8799378,0.66920286,260.5275,-68.54137,20.424444,WAL
15948541635000,3.930623,-3.53391936025458,6.63257630492256,-0.995459375956916,-0.2660318,1.7684549,0.5891795,260.08887,-68.73207,20.185228,WAL
15948546068000,3.935056,-3.54656594312752,6.46746240210174,-0.979741830945783,-0.21777347,1.6438384,0.5021312,259.65128,-68.956505,19.907381,WAL
15948550998000,3.939986,-3.51694475454593,6.24283539472996,-0.967399677628483,-0.13927728,1.5008959,0.43310347,259.25732,-69.20431,19.615929,WAL
15948555991000,3.944979,-3.48694503961939,6.01533790024573,-0.954899805110577,-0.047036625,1.3429873,0.36041048,258.89948,-69.48013,19.30093,WAL
15948560992000,3.94998,-3.45689725785539,5.78747589946149,-0.942379904757672,0.04734206,1.1847731,0.29229903,258.5893,-69.78042,18.97329,WAL
15948566005000,3.954993,-3.36485670824209,5.57494870217002,-0.948462306151702,0.14782938,1.0235047,0.21899518,258.3306,-70.10781,18.633156,WAL
15948570991000,3.959979,-3.24602845634083,5.37056389647621,-0.962721715239896,0.24984388,0.88025683,0.14874569,258.1185,-70.4608,18.281324,WAL
15948576041000,3.965029,-3.09705305553901,5.22216798603612,-0.911668868095327,0.3454443,0.75808376,0.058948494,257.95255,-70.79865,17.955109,WAL
15948581007000,3.969995,-2.93766904976727,5.10262986613294,-0.831976851340533,0.4343252,0.63621616,-0.028405234,257.83398,-71.16311,17.616066,WAL
15948585986000,3.974974,-2.79509845905621,4.98873865142262,-0.749297074274809,0.5109888,0.50823987,-0.1160644,257.7661,-71.519585,17.299892,WAL
15948590991000,3.979979,-2.66679848195697,4.87944621249132,-0.663763752900763,0.5882632,0.39492437,-0.2049453,257.73535,-71.90696,16.963688,WAL
15948596090000,3.985078,-2.50935572233959,4.80911199237089,-0.574724546420188,0.6737844,0.29046643,-0.2910773,257.7268,-72.28394,16.643614,WAL
15948601078000,3.990066,-2.33181009679186,4.77640619741784,-0.485951743403756,0.7480045,0.19120082,-0.37568212,257.75504,-72.688255,16.30375,WAL
15948605995000,3.994983,-2.14965456600452,4.77971847394041,-0.444987651573409,0.8353582,0.10445796,-0.46089783,257.79956,-73.09116,15.969146,WAL
15948611712000,4.0007,-1.92890769761038,4.82817512278493,-0.45575580013374,0.9053023,0.038789943,-0.53969944,257.8711,-73.516914,15.616448,WAL
15948615965000,4.004953,-1.75737796679104,4.88843462557836,-0.415181380438433,0.97341377,0.01160644,-0.58062744,257.946,-73.92692,15.281085,WAL
15948620990000,4.009978,-1.54638890429104,4.98719542245336,-0.311931435125933,1.0094548,-0.031154128,-0.643852,258.04895,-74.36302,14.921226,WAL
15948625975000,4.014963,-1.31845472133467,5.11532379989965,-0.205837445319819,1.0708468,-0.063224554,-0.70096785,258.15857,-74.78259,14.587106,WAL
15948631004000,4.019992,-1.04296852373307,5.31831372002007,-0.0898432332960361,1.131017,-0.0888809,-0.75747293,258.2809,-75.21532,14.238336,WAL
15948635971000,4.024959,-0.747986400765205,5.54673159040092,0.0455793038017377,1.1914927,-0.079107046,-0.7974846,258.38452,-75.61836,13.913782,WAL
15948640987000,4.029975,-0.395991386265048,5.84341294712656,0.231633810716005,1.2495248,-0.035430185,-0.83108217,258.48682,-76.03101,13.577823,WAL
15948646011000,4.034999,0.00801880616040954,6.23888095802048,0.502482748043231,1.3005321,0.02107485,-0.86559606,258.57147,-76.40095,13.27704,WAL
15948651030000,4.040018,0.491048322568259,6.78570700341297,0.903488409982935,1.3539828,0.09865474,-0.8885035,258.6372,-76.77084,12.972605,WAL
15948655961000,4.044949,1.10793230618637,7.40263186570086,1.33844314964761,1.3942999,0.10354166,-0.8854492,258.67776,-77.06839,12.7293,WAL
15948660973000,4.049961,2.10869359412686,8.23894877623336,1.88815701362569,1.4239268,0.103847094,-0.8213083,258.69592,-77.34695,12.500002,WAL
15948665982000,4.05497,3.16227924413188,9.09359486820714,2.46399181611106,1.4498887,0.16187929,-0.7318166,258.6384,-77.49686,12.378904,WAL
15948670999000,4.059987,4.39098648698511,10.0107367427162,3.12661608904009,1.4385877,0.22876903,-0.63804877,258.57733,-77.62071,12.280437,WAL
15948676111000,4.065099,5.65791268601467,10.9727724678568,3.80711573047859,1.4089607,0.2312125,-0.5329799,258.4679,-77.463455,12.443965,WAL
15948681412000,4.0704,7.1757414964407,12.3460467063848,4.5854894675063,1.3637567,0.20922135,-0.4156938,258.34448,-77.28085,12.631523,WAL
15948686040000,4.075028,8.38621779002457,13.4467721841267,5.11708633084554,1.280679,0.24648413,-0.30634892,258.14893,-76.721794,13.171953,WAL
15948690975000,4.079963,9.3110588890507,14.3070895168836,5.21172136770729,1.1725558,0.43463063,-0.21135938,257.91223,-76.163185,13.708675,WAL
15948696163000,4.085151,10.2529931355265,15.1835452730757,5.30645331747046,1.0384709,0.7440339,-0.16401732,257.5833,-75.31789,14.508465,WAL
15948701011000,4.089999,10.6632512000426,15.5690890150112,5.32128191101884,0.86742866,1.1365148,-0.15363261,257.17178,-74.515656,15.254507,WAL
15948705978000,4.094966,11.0111757587662,15.8656820548578,5.37015618127198,0.6988298,1.4468343,-0.14172074,256.7249,-73.57932,16.1281,WAL
15948710988000,4.099976,10.9292252865468,15.5764440281322,5.62082933911383,0.5296202,1.5509869,-0.07788532,256.22412,-72.700676,16.931458,WAL
15948715984000,4.104972,10.8420896359196,15.2576598889724,5.84612873862484,0.3594942,1.6865989,-0.046120327,255.62921,-71.82405,17.718288,WAL
15948720992000,4.10998,10.7249586030434,14.77111570712,5.93622941373286,0.27947086,1.7739527,0.055283304,255.02252,-70.98196,18.463282,WAL
15948726222000,4.11521,10.5945413386835,14.2643893076335,6.01917432105665,0.13439035,1.7889189,0.1685988,254.38329,-70.141106,19.17317,WAL
15948731005000,4.119993,10.3757301699627,13.8180152728576,5.95790727606764,0.018936822,1.7479908,0.2764165,253.74033,-69.32877,19.846664,WAL
