timestamp,rel_time,acc_x,acc_y,acc_z,gyro_x,gyro_y,gyro_z,azimuth,pitch,roll,label
6164300614000,0,0.498110137489743,9.95860093385185,-0.568284855536258,-1.1655309,0.75625116,0.032375857,138.12971,-94.53783,4.5010424,STD
6164305427000,0.004813,0.498342174995192,9.95604851378087,-0.574781917318835,-1.1847731,0.75900006,0.034208454,137.87425,-94.453865,4.44582,STD
6164310365000,0.009751,0.498580238822724,9.95342980397191,-0.581447716421757,-1.1869112,0.74464476,0.03573562,137.67342,-85.62689,4.372781,STD
6164315361000,0.014747,0.498821098863702,9.95078033572453,-0.58819180964132,-1.1753048,0.7593055,0.03848451,137.46736,-85.68356,4.3009853,STD
6164320700000,0.020086,0.499078495132473,9.94794896843616,-0.59539891806791,-1.1902709,0.7684685,0.03573562,137.2709,-85.71848,4.228473,STD
6164325403000,0.024789,0.49930522947449,9.94545488333459,-0.601747491008583,-1.1985176,0.76144356,0.036651913,137.0788,-85.73181,4.158329,STD
6164330391000,0.029777,0.499545703830854,9.94280965763045,-0.608480785039644,-1.1939361,0.73273283,0.03573562,136.89427,-85.728035,4.0875707,STD
6164335365000,0.034751,0.499785503239145,9.94017185637695,-0.615195180490825,-1.1667526,0.70738196,0.031154128,136.71469,-85.710175,4.016809,STD
6164340361000,0.039747,0.500026363280123,9.93752238812958,-0.621939273710388,-1.1279627,0.72021013,0.026572637,136.53615,-85.68058,3.9465656,STD
6164345376000,0.044762,0.500268139322057,9.93486284384203,-0.628709015002643,-1.1328496,0.7724391,0.0580322,136.35684,-85.629166,3.886129,STD
6164350563000,0.049949,0.500518207583176,9.93211208487503,-0.635710938847693,-1.2483032,0.7648033,0.050396383,136.19485,-85.56811,3.8146234,STD
6164355572000,0.054958,0.50075969436165,9.9294557224949,-0.642472580748572,-1.2544118,0.75716746,0.05375614,136.02118,-85.50268,3.7555702,STD
6164360483000,0.059869,0.500996456503612,9.92685133126935,-0.649101932590299,-1.2455542,0.7480045,0.053145275,135.85405,-85.417725,3.6940672,STD
6164365464000,0.06485,0.50123659338594,9.92420981779053,-0.65582577733142,-1.2492194,0.73456544,0.06169739,135.69385,-85.320435,3.6371393,STD
6164370516000,0.069902,0.50148015321921,9.92153065174054,-0.662645464870498,-1.2574661,0.7287622,0.07269296,135.53761,-85.21858,3.5816863,STD
6164375548000,0.074934,0.501722748840947,9.91886209204863,-0.66943815443832,-1.2574661,0.7144069,0.07574729,135.39114,-85.11398,3.5276406,STD
6164380519000,0.079905,0.501962403617509,9.91622588174885,-0.676148500193813,-1.2654073,0.68019843,0.07849618,135.25525,-85.00168,3.4779346,STD
6164385501000,0.084887,0.502202588710413,9.91358383795213,-0.682873694833497,-1.2321151,0.61911196,0.069027774,135.13463,-84.89845,3.4272788,STD
6164390487000,0.089873,0.502442966645624,9.91093967288379,-0.689604289067432,-1.1313224,0.5662721,0.05681047,135.02454,-84.80789,3.3781328,STD
6164395524000,0.09491,0.502685803320245,9.90826846160236,-0.696403728128068,-1.0103711,0.50610185,0.04337143,134.93695,-84.731636,3.328423,STD
6164400551000,0.099937,0.502928157889099,9.90560255349996,-0.703189668203076,-0.8897252,0.44806966,0.03573562,134.86617,-84.67959,3.2792835,STD
6164405667000,0.105053,0.503174803199275,9.90288944710413,-0.71009574925017,-0.7635816,0.43371433,0.016187929,134.80228,-84.66106,3.2247834,STD
6164410526000,0.109912,0.503409058391251,9.90031263240957,-0.716654906366634,-0.7031059,0.33169982,0.0027488936,134.78122,-84.65542,3.1744344,STD
6164415524000,0.11491,0.503650014853382,9.89766210352639,-0.723401699383322,-0.50885075,0.07727446,-0.050701816,134.80983,-84.71936,3.1122932,STD
6164420482000,0.119868,0.503889042892446,9.89503278735936,-0.7300944964575,-0.050396383,0.043676864,-0.060170226,134.80392,-84.852356,3.0581558,STD
6164425543000,0.124929,0.504133036620907,9.89234884844824,-0.736926333083642,-0.003970624,0.06383542,-0.054061573,134.85477,-84.93867,2.9997125,STD
6164430546000,0.129932,0.504374234135921,9.88969566797553,-0.743679875593144,-0.050701816,0.060170226,-0.051618114,134.91978,-85.10525,2.9405584,STD
6164435598000,0.134984,0.504617793969191,9.88701650192555,-0.750499563132221,-0.04886922,0.04886922,-0.049480084,134.97868,-85.285904,2.884458,STD
6164440531000,0.139917,0.50485561674384,9.88440044370611,-0.757158612742329,-0.03481932,0.049480084,-0.050396383,135.03299,-85.45256,2.8296628,STD
6164445503000,0.144889,0.505095319730977,9.88176370308842,-0.763870308396386,-0.033292156,0.03481932,-0.04520403,135.0925,-85.60928,2.7792726,STD
6164450559000,0.149945,0.505339072406554,9.87908241576682,-0.770695395529714,-0.018936822,0.032375857,-0.04337143,135.14624,-85.7667,2.728951,STD
6164455789000,0.155175,0.50559121372247,9.87630885312996,-0.777755365012963,-0.014966198,0.031154128,-0.04337143,135.2016,-85.91562,2.6812606,STD
6164463100000,0.162486,0.505943681248408,9.87243169893529,-0.787624473405321,-0.006414085,0.01740966,-0.03481932,135.25897,-86.06072,2.6381223,STD
6164465526000,0.164912,0.506060640107378,9.87114514770067,-0.790899327318583,-0.007330383,0.017715093,-0.03176499,135.31065,-86.199844,2.5945435,STD
6164470486000,0.169872,0.506299764567596,9.86851477089783,-0.797594824189886,-0.006414085,0.018936822,-0.03359759,135.36392,-86.33464,2.553408,STD
6164475548000,0.174934,0.506543806506632,9.8658303016688,-0.804428010714591,-0.0106901415,0.008246681,-0.022602014,135.4183,-86.459305,2.5181143,STD
6164480580000,0.179966,0.50678640212837,9.86316174197689,-0.811220700282413,-0.005497787,0.00580322,-0.019547688,135.46822,-86.58243,2.4810302,STD
6164485545000,0.184931,0.507025767641471,9.86052871358454,-0.81792294664653,0.0036651916,0.0076358155,-0.016493361,135.51797,-86.697716,2.448184,STD
6164490512000,0.189898,0.507265229575726,9.85789462455637,-0.824627892807773,0.0009162979,-0.0015271631,-0.008857546,135.56969,-86.80468,2.4186287,STD
6164495499000,0.194885,0.507505655721513,9.85524992917013,-0.83135983694027,-0.0061086523,-0.019242255,-0.018020526,135.6217,-86.91025,2.3860836,STD
6164500618000,0.200004,0.513294665193467,9.85739601339994,-0.818872422877418,-0.003970624,-0.035430185,-0.008857546,135.67395,-87.006,2.3618376,STD
6164505696000,0.205082,0.521006549548049,9.86125202402474,-0.799592760306851,-0.002443461,-0.04153884,-0.008246681,135.7268,-87.09918,2.3334875,STD
6164510523000,0.209909,0.527759993279707,9.86618222981366,-0.786333763279707,-0.007941248,-0.060170226,-0.0076358155,135.79512,-87.21854,2.2791076,STD
6164515528000,0.214914,0.532640543529172,9.87594353416149,-0.791214313529172,-0.0067195175,-0.076052725,-0.004276057,135.86252,-87.33243,2.2275186,STD
6164520482000,0.219868,0.537055427210081,9.88401916420555,-0.79487497,0.0033597588,-0.09285152,0.002443461,135.96,-87.456276,2.16141,STD
6164525520000,0.224906,0.54022192444707,9.88718539692853,-0.79487497,0.01160644,-0.08582657,0.004886922,136.05334,-87.57387,2.0974083,STD
6164530973000,0.230359,0.543649258594211,9.89061244477259,-0.79487497,-0.0027488936,-0.093767814,0.005192355,136.16455,-87.69808,2.0157008,STD
6164535549000,0.234935,0.537666458439126,9.892841,-0.79487497,-0.0061086523,-0.09407325,-0.008552114,136.27039,-87.822136,1.9334519,STD
6164540546000,0.239932,0.497828523313215,9.892841,-0.79487497,-0.007330383,-0.08124508,0.0036651916,136.37332,-87.93214,1.8615266,STD
6164545447000,0.244833,0.461123146909895,9.89051525336282,-0.803015341875806,-0.013439035,-0.058948494,0.0033597588,136.48787,-88.057045,1.7685946,STD
6164550563000,0.249949,0.429525158496407,9.88148754486825,-0.834613325575825,-0.016493361,-0.040011674,-0.0009162979,136.59853,-88.174446,1.6811917,STD
6164555582000,0.254968,0.400776535080007,9.873688,-0.863361946937848,-0.03848451,-0.021991149,-0.00061086525,136.70674,-88.30433,1.5719277,STD
6164560564000,0.25995,0.38872205028634,9.873688,-0.875416448514401,-0.04337143,-0.0018325958,-0.004886922,136.8084,-88.43317,1.4636536,STD
6164565450000,0.264836,0.376899847817079,9.873688,-0.887238667443153,-0.03573562,0.014049901,0.0061086523,136.91304,-88.5728,1.343968,STD
6164570486000,0.269872,0.370705078048976,9.87089755977519,-0.899014202939382,-0.03726278,0.018020526,0.004581489,137.01508,-88.71057,1.2232091,STD
6164575525000,0.274911,0.366830530060217,9.86702293087114,-0.910637842859896,-0.029932396,0.01282817,-0.0009162979,137.1149,-88.8429,1.1080402,STD
6164580494000,0.27988,0.366060528987701,9.86089824124882,-0.921515318987701,-0.01863139,0.0030543262,-0.0030543262,137.22311,-88.98489,0.9816641,STD
6164585547000,0.284933,0.375216928306528,9.84716383349101,-0.930671718306528,-0.013439035,-0.013744468,-0.0015271631,137.33496,-89.121826,0.8583852,STD
6164590498000,0.289884,0.385768061785225,9.83313450007616,-0.934483347791318,0.008857546,-0.025045475,0.0067195175,137.46101,-89.26753,0.7251737,STD
6164595514000,0.2949,0.407719590607769,9.81484157212491,-0.901556058377761,0.01740966,-0.040927973,-0.0012217305,137.5934,-89.40788,0.5915562,STD
6164600702000,0.300088,0.430423843305407,9.79592137471439,-0.867499683282559,0.02687807,-0.048258353,-0.0018325958,137.74109,-90.457794,0.4541576,STD
6164605593000,0.304979,0.443071122202485,9.78495893274463,-0.834569692285655,0.02565634,-0.055588737,0.01160644,137.89348,-90.35059,0.32246345,STD
6164610660000,0.310046,0.448053748510114,9.77997621798953,-0.799691401782524,0.029626964,-0.06505715,0.009773844,138.0486,-90.28997,0.19013402,STD
6164615537000,0.314923,0.447787213156612,9.78953354783668,-0.776007314753199,0.026572637,-0.07574729,0.014966198,138.22339,-90.29096,0.059250187,STD
6164620509000,0.319895,0.443642005638548,9.81025952050144,-0.7594265063228,0.024129177,-0.08368854,0.016493361,138.40028,-90.356285,-0.06941011,STD
6164625535000,0.324921,0.438553167012035,9.82778387096517,-0.733131362881964,0.026267206,-0.095294975,0.027183503,138.59924,-90.45416,-0.20349738,STD
6164630704000,0.33009,0.430662439475572,9.83567435131904,-0.677896245408464,0.021380283,-0.09010262,0.032070424,138.79573,-90.566795,-0.33472723,STD
6164635459000,0.334845,0.423403702885152,9.84293286052443,-0.627085066537021,0.01740966,-0.0852157,0.028405234,139.01556,-90.69582,-0.48265252,STD
6164640526000,0.339912,0.377678248578181,9.85588253388732,-0.317932174364565,0.015271631,-0.07941248,0.032375857,139.23361,-90.82524,-0.62241495,STD
6164646380000,0.345766,0.309293558435618,9.87297905229854,0.143664513106656,0.0106901415,-0.08674286,0.038179077,139.45383,-90.953674,-0.75820714,STD
6164650613000,0.349999,0.26915415266028,9.88677740287399,0.355144977266028,0.009773844,-0.0842994,0.036651913,139.70187,-91.096825,-0.9148402,STD
6164655652000,0.355038,0.27626653220339,9.91167050847458,-0.114272406779661,0.009773844,-0.089491755,0.04550946,139.95366,-91.23376,-1.0616428,STD
6164660513000,0.359899,0.283127670714812,9.93568427833456,-0.567107870928519,0.01863139,-0.087964594,0.04886922,140.33148,-91.415726,-1.2914537,STD
6164665481000,0.364867,0.275298081689028,9.95430412022881,-0.682677419873739,0.03176499,-0.09315695,0.047647487,140.7077,-91.60028,-1.5092195,STD
6164670507000,0.369893,0.245261869329173,9.96431639313573,-0.282194581787832,0.040011674,-0.086132,0.05131268,141.07507,-91.78147,-1.7141994,STD
6164675538000,0.374924,0.24762452526961,9.9629901603884,-0.388593071274706,0.05375614,-0.09712757,0.05375614,141.34518,-91.95211,-1.8786708,STD
6164680545000,0.379931,0.283948594835066,9.9497814868122,-1.02591536286771,0.06627888,-0.09254608,0.044593163,141.6084,-92.119576,-2.0399323,STD
6164685537000,0.384923,0.320163844539632,9.93661238385786,-1.66132836059734,0.07269296,-0.082161374,0.05497787,141.94478,-92.29378,-2.221987,STD
6164690529000,0.389915,0.33518824,9.91114716159346,-1.58205134884576,0.070554934,-0.08124508,0.058948494,142.27951,-92.465576,-2.4005473,STD
6164695513000,0.394899,0.33518824,9.87701872522983,-0.996995523391216,0.07788532,-0.07819075,0.06078109,142.60768,-92.62917,-2.569114,STD
6164700582000,0.399968,0.337284522909391,9.85572591214079,-0.670907171351574,0.06566802,-0.07941248,0.05100725,142.79335,-92.76433,-2.680206,STD
6164705706000,0.405092,0.340658063621614,9.84223181974426,-0.502230001880929,0.06841691,-0.08246681,0.051618114,142.97949,-92.896576,-2.7846336,STD
6164710458000,0.409844,0.343786686858243,9.82971739213529,-0.345798715908153,0.071776666,-0.09560041,0.04917465,143.25087,-93.026,-2.9104316,STD
6164716601000,0.415987,0.353581725612336,9.83902883048334,-0.521706429464268,0.06688975,-0.10293079,0.06352998,143.5203,-93.14493,-3.026363,STD
6164720492000,0.419878,0.360948211272116,9.85007839359494,-0.709551752252644,0.06047566,-0.10934488,0.061391957,143.79182,-93.26405,-3.142971,STD
6164725547000,0.424933,0.36391866,9.85751750509383,-0.844967066262735,0.06261369,-0.11575896,0.052839845,144.1021,-93.377304,-3.2630403,STD
6164730632000,0.430018,0.36391866,9.86186951983914,-0.932005602549598,0.06383542,-0.10567969,0.05222898,144.40697,-93.48317,-3.3757877,STD
6164735613000,0.434999,0.36391866,9.87850825066299,-1.01042779300944,0.057421334,-0.10415252,0.047647487,144.67255,-93.57953,-3.470223,STD
6164740529000,0.439915,0.36391866,9.90847306194972,-1.08034549480216,0.05467244,-0.102319926,0.039095376,144.93399,-93.67335,-3.5620468,STD
6164745494000,0.44488,0.366429671992551,9.93412705996275,-1.09584352804469,0.05467244,-0.08979719,0.03268129,145.17854,-93.761246,-3.643159,STD
6164750568000,0.449954,0.370954130391061,9.95674935195531,-1.06869677765363,0.052534413,-0.08674286,0.038789943,145.42435,-93.84398,-3.719774,STD
6164755709000,0.455095,0.379360848720371,9.97141106696667,-1.03389749746035,0.05222898,-0.06811147,0.03573562,145.65108,-93.926605,-3.7937336,STD
6164760543000,0.459929,0.391736793318482,9.97553624973267,-0.992644334441276,0.04153884,-0.057421334,0.03176499,145.87848,-94.003555,-3.8632147,STD
6164765498000,0.464884,0.405282308723404,9.97353091489362,-0.960125840425532,0.033292156,-0.055283304,0.033292156,146.11028,-94.07742,-3.9307353,STD
6164770512000,0.469898,0.42314353671775,9.9413806261717,-0.97441480790061,0.029932396,-0.05009095,0.035430185,146.33698,-94.14827,-3.99596,STD
6164775533000,0.474919,0.441029700610772,9.90918545272281,-0.988723724073799,0.02107485,-0.049785517,0.03145956,146.5732,-94.21339,-4.05825,STD
6164780674000,0.48006,0.457182033384615,9.88341158461538,-0.988915801538462,0.013744468,-0.04550946,0.025961773,146.80542,-94.274796,-4.1171947,STD
6164786373000,0.485759,0.472731384151947,9.86267923960114,-0.973366461595442,0.009468411,-0.053145275,0.025961773,147.03963,-94.33199,-4.1726823,STD
6164790525000,0.489911,0.47884035,9.86629800824058,-0.963336167331978,0.010079277,-0.07147124,0.032375857,147.26851,-94.380035,-4.2194395,STD
6164795483000,0.494869,0.47884035,9.89678726744435,-0.953173089774187,0.022296581,-0.06872234,0.02687807,147.4923,-94.42906,-4.266828,STD
6164800597000,0.499983,0.480868766777608,9.92010862474938,-0.915649164613842,0.025045475,-0.08246681,0.02076942,147.73222,-94.471886,-4.3085604,STD
6164805797000,0.505183,0.484862620334429,9.93608395556981,-0.851747474341968,0.0290161,-0.09132435,0.013133603,147.96855,-94.51487,-4.34965,STD
6164810735000,0.510121,0.490011284911402,9.95163044460354,-0.790092565543225,0.03481932,-0.09987647,0.0143553335,148.21199,-94.55545,-4.3882,STD
6164815529000,0.514915,0.514663809960623,9.97217419760158,-0.716134994685878,0.04550946,-0.0983493,0.0070249503,148.45345,-94.59827,-4.428672,STD
6164820470000,0.519856,0.540072263500089,9.99334789046,-0.63990963848935,0.058337633,-0.10293079,0.008246681,148.7088,-94.63181,-4.460466,STD
6164825589000,0.524975,0.583340223796791,9.99137472860963,-0.585030209759358,0.062308256,-0.108123146,0.004276057,148.96198,-94.66612,-4.49321,STD
6164830498000,0.529884,0.629430964803922,9.98299464558824,-0.538939473127451,0.07422013,-0.09315695,-0.010079277,149.20877,-94.70178,-4.525939,STD
6164835508000,0.534894,0.643322681794662,9.96849881889764,-0.485546727673586,0.08277224,-0.0693332,-0.015882496,149.47313,-94.73148,-4.5571537,STD
6164840479000,0.539865,0.628718001728193,9.94902580708662,-0.427128119241231,0.06291912,-0.043066,-0.018020526,149.73012,-94.75981,-4.5883856,STD
6164845480000,0.544866,0.61189932679716,9.92483556227212,-0.365149986989062,0.049480084,-0.018936822,-0.020463986,149.9919,-94.77816,-4.6098046,STD
6164850561000,0.549947,0.593223560879869,9.89682229610439,-0.299784750213011,0.027794369,0.019242255,-0.018325957,150.23984,-94.79114,-4.6277056,STD
6164856232000,0.555618,0.549413090510739,9.88642583773507,-0.258667288003288,-0.009773844,0.047647487,-0.016798794,150.4835,-94.802155,-4.6493835,STD
6164860531000,0.559917,0.502873404752852,9.89065636121673,-0.245974648441065,-0.045814894,0.08093964,-0.023518313,150.71268,-94.81152,-4.6700797,STD
6164865488000,0.564874,0.43735380072015,9.892841,-0.20052653656425,-0.07360926,0.11026118,-0.022602014,150.94331,-94.82023,-4.693411,STD
6164870511000,0.569897,0.361216812399842,9.892841,-0.129148103616579,-0.076052725,0.113926366,-0.031154128,151.16942,-94.831345,-4.718715,STD
6164875495000,0.574881,0.298359941336393,9.90419578221742,-0.0753294424921706,-0.0842994,0.10751228,-0.042760566,151.38239,-94.84774,-4.7502737,STD
6164880568000,0.579954,0.245894342580994,9.9260564312455,-0.0359802482192225,-0.092240654,0.090713486,-0.054367006,151.59505,-94.86529,-4.7816763,STD
6164885492000,0.584878,0.194785849820051,9.93370857840617,-0.0133189011053985,-0.09285152,0.059864793,-0.060170226,151.81497,-94.89817,-4.8289084,STD
6164890523000,0.589909,0.142146032842866,9.91048514614396,-0.025704740213464,-0.10720685,0.043676864,-0.05955936,152.03265,-94.92997,-4.874236,STD
6164895451000,0.594837,0.0905839143647172,9.88773716876607,-0.0378370032078085,-0.116675265,-0.0061086523,-0.064751714,152.27338,-94.97897,-4.9360104,STD
6164900554000,0.59994,0.0371907547474293,9.86418137969152,-0.0504000994050771,-0.12003502,-0.052534413,-0.062002823,152.51427,-95.02314,-4.9911885,STD
6164905535000,0.604921,-0.0149259076185733,9.84118875077121,-0.0626628433123072,-0.14080444,-0.09315695,-0.062308256,152.7671,-95.06852,-5.0464635,STD
6164910520000,0.609906,-0.0670844223534704,9.81817765758355,-0.0749354348356041,-0.1704314,-0.13530666,-0.06566802,153.02986,-95.11155,-5.097662,STD
6164915491000,0.614877,-0.119467281418587,9.79508431873606,-0.0873276603546468,-0.1853976,-0.17989981,-0.06688975,153.29982,-95.15343,-5.1460958,STD
6164920513000,0.619899,-0.176680339875093,9.77005384929368,-0.101630924968773,-0.20830505,-0.22327125,-0.052839845,153.57773,-95.189476,-5.186881,STD
6164925542000,0.624928,-0.233973145724907,9.74498849070632,-0.115954126431227,-0.23945917,-0.27091873,-0.04886922,153.84607,-95.2594,-5.259123,STD
6164930544000,0.62993,-0.313854455184744,9.72588102026222,-0.153582758128725,-0.25900686,-0.3286455,-0.03573562,154.12573,-84.679756,-5.31993,STD
6164935594000,0.63498,-0.429141402578828,9.71540017726731,-0.226947170741142,-0.28496864,-0.39767328,-0.03481932,154.41823,-84.6187,-5.3783245,STD
6164940520000,0.639906,-0.504998829220014,9.73143511603974,-0.299679953303762,-0.3032946,-0.4550946,-0.029932396,154.6998,-84.55347,-5.438059,STD
6164945511000,0.644897,-0.552491360972321,9.76875072249823,-0.374311077665011,-0.32070425,-0.5027421,-0.03634648,154.9944,-84.486916,-5.4959674,STD
6164950591000,0.649977,-0.600830784194464,9.80673174449965,-0.450273031533002,-0.32589662,-0.539394,-0.032375857,155.2728,-84.412575,-5.55983,STD
6164955547000,0.654933,-0.626243991931282,9.86954039380781,-0.579222338189541,-0.31337386,-0.5516113,-0.028405234,155.55397,-84.339096,-5.620786,STD
6164960576000,0.659962,-0.644428550222768,9.94227860798565,-0.729244827792147,-0.3005457,-0.5503896,-0.021380283,155.83789,-84.27021,-5.675079,STD
6164965526000,0.664912,-0.648456139896519,9.99988995667921,-0.873833635280339,-0.2843578,-0.550695,-0.015577064,156.10997,-84.193054,-5.738998,STD
6164971437000,0.670823,-0.643130734825964,10.0584686339605,-1.04424494601693,-0.2510656,-0.5348125,-0.0106901415,156.37343,-84.12239,-5.7969666,STD
6164975532000,0.674918,-0.621246061284004,10.1079504270403,-1.15550586174102,-0.22357668,-0.5152648,-0.0106901415,156.476116939722,-84.0988634157651,-5.81687576846986,STD
6164980495000,0.679881,-0.579870950598477,10.1751850359086,-1.284803190642,-0.20311269,-0.47952923,0.01985312,156.60057,-84.07035,-5.841005,STD
6164985485000,0.684871,-0.519933972518337,10.2113249628362,-1.35823478904645,-0.1853976,-0.46303585,0.030543262,156.83165,-84.0174,-5.8858585,STD
6164990523000,0.689909,-0.449154580850856,10.230199355599,-1.4007024437555,-0.1685988,-0.46578476,0.046120327,157.03996,-83.98108,-5.91958,STD
6164995497000,0.694883,-0.357427427852941,10.1685378378342,-1.41992558106952,-0.16371189,-0.43493605,0.049785517,157.22693,-83.95594,-5.944907,STD
6165000587000,0.699973,-0.248813464813726,10.0512348864082,-1.42427013650624,-0.16371189,-0.42088616,0.056199603,157.41788,-83.93843,-5.9628873,STD
6165005557000,0.704943,-0.18195933,9.9790325,-1.4269443,-0.1591304,-0.41538838,0.059864793,157.6037,-83.93806,-5.9646125,STD
6165010493000,0.709879,-0.18195933,9.9790325,-1.4269443,-0.15607607,-0.41508293,0.0580322,157.78574,-83.93907,-5.9647727,STD
6165015525000,0.714911,-0.120054243186107,9.95839741392291,-1.44299373159004,-0.160963,-0.4007276,0.08155051,157.97087,-83.96643,-5.9366937,STD
6165020527000,0.719913,0.00977772504998996,9.9151199713411,-1.47665379733989,-0.15821409,-0.38728857,0.099571034,158.15508,-83.99307,-5.9098244,STD
6165025546000,0.724932,0.107552854466398,9.87167270224016,-1.51677851860303,-0.12522738,-0.38087448,0.10048734,158.33385,-84.02549,-5.878636,STD
6165030582000,0.729968,0.171303175558369,9.82805422944205,-1.56375244449701,-0.10140363,-0.37995818,0.10415252,158.50922,-84.06381,-5.8411107,STD
6165035555000,0.734941,0.234255984690692,9.78498142062056,-1.610138729936,-0.09010262,-0.37782016,0.092240654,158.69273,-84.121376,-5.784914,STD
6165041608000,0.740994,0.250747938507861,9.75269141056067,-1.58501496346287,-0.04520403,-0.36254853,0.081855945,158.87132,-84.18305,-5.727441,STD
6165045514000,0.7449,0.243350141361614,9.73789588579057,-1.544327019292,-0.007330383,-0.3454443,0.07147124,159.04796,-84.2413,-5.673473,STD
6165050575000,0.749961,0.231752226480157,9.73770383875581,-1.42558483678942,0.027488936,-0.32284227,0.052534413,159.22348,-84.31144,-5.610443,STD
6165055603000,0.754989,0.218840481571326,9.75061539041831,-1.26203614883804,0.06963864,-0.29779682,0.03359759,159.39276,-84.379845,-5.5508456,STD
6165060755000,0.760141,0.204747804081974,9.7686692363028,-1.0340127398578,0.10262536,-0.2773328,0.008552114,159.56348,-84.43461,-5.5040383,STD
6165065542000,0.764928,0.190367573996236,9.79263626976161,-0.732027918067754,0.13041973,-0.24984388,-0.011301007,159.72429,-84.48621,-5.461348,STD
6165070469000,0.769855,0.210446115022831,9.81804474494455,-0.428213833111546,0.15057829,-0.23793201,-0.020158553,159.8971,-84.52907,-5.4243755,STD
6165075532000,0.774918,0.27822270927593,9.84515545624825,-0.125478393564439,0.13744467,-0.21777347,-0.016798794,160.05865,-84.56932,-5.3894167,STD
6165080471000,0.779857,0.361021066683634,9.87853716043461,0.141272898616876,0.106595986,-0.18875736,-0.03390302,160.2431,-84.58964,-5.368577,STD
6165085641000,0.785027,0.491877228194988,9.93184898991777,0.344826916950861,0.05681047,-0.17195857,-0.022296581,160.42358,-84.61864,-5.337778,STD
6165090452000,0.789838,0.610184554275214,9.97181953947275,0.495507871252385,-0.022602014,-0.1704314,-0.021380283,160.64201,-84.639885,-5.3052316,STD
6165095512000,0.794898,0.723205628358188,9.98209403236978,0.526331796971517,-0.055588737,-0.16615535,-0.004276057,160.8523,-84.66895,-5.263675,STD
6165100604000,0.79999,0.836941460221924,9.99243350229698,0.557350656608241,-0.1328632,-0.18509217,0.01160644,161.10072,-84.70792,-5.19799,STD
6165105553000,0.804939,0.889817121708419,9.98154172648871,0.49970872601232,-0.19822577,-0.2144137,0.024129177,161.34781,-84.74657,-5.127485,STD
6165110826000,0.810212,0.863893851854209,9.94006476324435,0.31306128700616,-0.24220806,-0.2489276,0.029321533,161.59879,-84.78072,-5.05361,STD
6165115530000,0.814916,0.83429219243319,9.90352825112601,0.123837092536283,-0.26358834,-0.28863382,0.03481932,161.89207,-84.834366,-4.950659,STD
6165120510000,0.819896,0.796103851726554,9.86533961135022,-0.100519563634271,-0.26816985,-0.32528573,0.04062254,162.19075,-84.88222,-4.84547,STD
6165125552000,0.824938,0.753099111585366,9.82929546463415,-0.295094110146341,-0.25534168,-0.3567453,0.053145275,162.47812,-84.93065,-4.7415385,STD
6165130678000,0.830064,0.704457395807927,9.79562053582317,-0.455985919420732,-0.24831672,-0.37507126,0.053145275,162.76926,-84.97232,-4.639031,STD
6165135495000,0.834881,0.658747847446646,9.76397556272866,-0.607179022283537,-0.21227567,-0.3903429,0.054367006,163.0411,-85.02552,-4.538975,STD
6165140526000,0.839912,0.625961580012448,9.74192522551867,-0.766796225970954,-0.16676621,-0.3643811,0.04917465,163.30415,-85.07702,-4.4409857,STD
6165145493000,0.844879,0.596354931504149,9.72218758350622,-0.924698299823651,-0.13103059,-0.3359759,0.057421334,163.5684,-85.1337,-4.338745,STD
6165150685000,0.850071,0.547417306248728,9.70887298694473,-0.996457982311801,-0.086132,-0.2855795,0.05009095,163.79547,-85.18826,-4.2582684,STD
6165155582000,0.854968,0.499708632466938,9.69694599389624,-1.05609384010682,-0.049785517,-0.2321288,0.03604105,164.012,-85.2462,-4.1778965,STD
6165160520000,0.859906,0.446824663865217,9.691729,-1.13456849021739,-0.003970624,-0.15943582,0.050701816,164.18877,-85.32106,-4.0972867,STD
6165165552000,0.864938,0.389205589247826,9.691729,-1.22885422282609,0.014049901,-0.10262536,0.03756821,164.35442,-85.386,-4.0294414,STD
6165170530000,0.869916,0.35235160188402,9.68870838756232,-1.27872612639727,0.05681047,-0.05131268,0.03940081,164.49083,-85.45807,-3.968666,STD
6165175559000,0.874945,0.322863952836526,9.68449578080994,-1.31242632061576,0.07849618,-0.0033597588,0.038789943,164.6117,-85.52505,-3.9132771,STD
6165180531000,0.879917,0.27943058567936,9.67089066118563,-1.33793300328862,0.12950343,0.027794369,0.03940081,164.71536,-85.59373,-3.8720262,STD
6165185588000,0.884974,0.21656180740913,9.64469535742103,-1.35365018554738,0.17165314,0.06566802,0.035124753,164.80339,-85.6614,-3.8331432,STD
6165190566000,0.889952,0.166208374177403,9.63145374777007,-1.3289504425669,0.21563543,0.07269296,0.03970624,164.88612,-85.73278,-3.7993329,STD
6165195544000,0.89493,0.123685079578791,9.62672884132805,-1.27697750776016,0.23151793,0.079107046,0.05467244,164.95833,-85.8053,-3.7643178,STD
6165200718000,0.900104,0.144959356771941,9.6488998760249,-1.16432871900243,0.28069258,0.067500606,0.07147124,165.0286,-85.873184,-3.7415435,STD
6165205487000,0.904873,0.207371461075008,9.68704065229274,-1.02216780510173,0.30604348,0.071776666,0.07849618,165.09271,-85.93841,-3.7175107,STD
6165210401000,0.909787,0.271681186498633,9.72634108730641,-0.87568453168843,0.3277292,0.076358154,0.09254608,165.15927,-85.99894,-3.6962595,STD
6165215377000,0.914763,0.2777274,9.730036,-0.8619126,0.34880406,0.07971791,0.105374254,165.22514,-86.06058,-3.673325,STD
6165220354000,0.91974,0.302271931481552,9.73775000473037,-0.827550257097446,0.3475823,0.0729984,0.13041973,165.29268,-86.12592,-3.6429038,STD
6165225466000,0.924852,0.464379999871334,9.78869831504257,-0.600598969089877,0.3491095,0.070554934,0.14721853,165.38338,-86.196556,-3.595244,STD
6165230503000,0.929889,0.61291564,9.835381,-0.38806687132103,0.34238997,0.052534413,0.16982053,165.4827,-86.27244,-3.540018,STD
6165235363000,0.934749,0.61291564,9.835381,-0.324980372228131,0.32711834,0.023518313,0.19608775,165.58565,-86.35118,-3.4795508,STD
6165240360000,0.939746,0.619135574492993,9.83315959581803,-0.267262036935472,0.31123585,-0.00580322,0.2098322,165.7374,-86.444176,-3.3894324,STD
6165245356000,0.944742,0.669337178252267,9.81523045964176,-0.260090371232107,0.29077184,-0.029321533,0.25137106,165.89467,-86.54862,-3.2850752,STD
6165250675000,0.950061,0.72278440211047,9.79614217394889,-0.252455044995878,0.26236662,-0.05375614,0.27183503,166.05788,-86.64643,-3.181563,STD
6165255478000,0.954864,0.730237623273657,9.77702620204604,-0.253185295741688,0.2489276,-0.067500606,0.3023783,166.2235,-86.75571,-3.0649006,STD
6165260434000,0.95982,0.695555401278772,9.75534981329923,-0.261855864820972,0.23365596,-0.09010262,0.31429017,166.39763,-86.860435,-2.9492655,STD
6165265441000,0.964827,0.649096754691607,9.73251973304714,-0.266968389252672,0.21410827,-0.09712757,0.3390302,166.58818,-86.97992,-2.8149164,STD
6165270425000,0.969811,0.573824752834239,9.70742900026283,-0.262786601910811,0.19822577,-0.11301007,0.35033122,166.78648,-87.09478,-2.682728,STD
6165275643000,0.975029,0.493405003010033,9.68234320999291,-0.255705678206142,0.1881465,-0.11942416,0.36071593,166.98468,-87.2036,-2.5559437,STD
6165280438000,0.979824,0.381709567391304,9.68699728063241,-0.185896032766798,0.17745635,-0.12522738,0.36713,167.18584,-87.30931,-2.428687,STD
6165285703000,0.985089,0.258488991748085,9.691729,-0.106746473536962,0.1704314,-0.13836098,0.3735441,167.37874,-87.39763,-2.316857,STD
6165290418000,0.989804,0.141682625317879,9.691729,-0.00791032360561139,0.17195857,-0.14263703,0.38056904,167.5693,-87.48449,-2.2043903,STD
6165296436000,0.995822,-0.00201590968828937,9.6970213034625,0.10811695284887,0.16798794,-0.14844026,0.3753767,167.75319,-87.5408,-2.1171877,STD
6165300713000,1.000099,-0.0864767798513618,9.71813621195979,0.15738579389982,0.15790866,-0.15057829,0.37232238,167.93544,-87.596115,-2.028173,STD
6165305431000,1.004817,-0.179646381307844,9.74142827141507,0.211734728217888,0.15027285,-0.13133603,0.3594942,168.09933,-87.61863,-1.9670062,STD
6165310452000,1.009838,-0.292351162264636,9.77532083692642,0.242909189782437,0.12980886,-0.12217305,0.36346483,168.2645,-87.63887,-1.901976,STD
6165315451000,1.014837,-0.410711672531646,9.81319646835443,0.261846876962025,0.1133155,-0.10293079,0.36132678,168.41936,-87.65226,-1.8426952,STD
6165320452000,1.019838,-0.535694205985915,9.87969016197183,0.258641235633803,0.09254608,-0.087659165,0.35521814,168.56003,-87.63861,-1.8050907,STD
6165325530000,1.024916,-0.665930032613569,9.96169014114263,0.244170587671097,0.06780604,-0.0888809,0.34483343,168.69771,-87.619156,-1.7689772,STD
6165330481000,1.029867,-0.780580663542391,10.0323724372329,0.208160625808568,0.056505036,-0.08582657,0.33964106,168.81483,-87.58596,-1.754092,STD
6165335490000,1.034876,-0.890243236740881,10.0991236726469,0.160481238797336,0.053145275,-0.095294975,0.33567044,168.93353,-87.54869,-1.7407529,STD
6165340441000,1.039827,-0.977287985168484,10.1377898697225,0.0771877318880079,0.06505715,-0.10842858,0.3286455,169.02852,-87.500755,-1.7496127,STD
6165345468000,1.044854,-1.05362910822597,10.1616461982161,-0.0277812842913776,0.06261369,-0.119729586,0.32711834,169.12352,-87.451614,-1.756625,STD
6165350519000,1.049905,-1.13229666693141,10.1423770086643,-0.132816831480144,0.06261369,-0.1301143,0.3359759,169.19582,-87.41067,-1.7749237,STD
6165355459000,1.054845,-1.21037307394533,10.0984591602888,-0.235292125239814,0.06414085,-0.15332718,0.33536503,169.27327,-87.36946,-1.7946051,STD
6165360464000,1.05985,-1.25039399533437,10.0184391106029,-0.361063407702863,0.065973446,-0.16462818,0.3381139,169.3245,-87.34239,-1.8168111,STD
6165366274000,1.06566,-1.27584504821151,9.906454562986,-0.518860371384137,0.076358154,-0.1777618,0.34300083,169.38162,-87.31897,-1.837082,STD
6165370455000,1.069841,-1.283292,9.873688,-0.5650316,0.09468412,-0.19608775,0.35705075,169.42935,-87.309784,-1.8647007,STD
6165375530000,1.074916,-1.283292,9.873688,-0.5650316,0.112704635,-0.2144137,0.35430184,169.47987,-87.300476,-1.894378,STD
6165380458000,1.079844,-1.23534943207733,9.81975242335766,-0.618967020201223,0.12308934,-0.21960606,0.35521814,169.51651,-87.31173,-1.919143,STD
6165385473000,1.084859,-1.15955120441902,9.73447912043796,-0.704240075784178,0.13683382,-0.23609942,0.35918877,169.56096,-87.32607,-1.9427595,STD
6165390456000,1.089842,-1.02897509898382,9.69310878622507,-0.781127894384644,0.16126843,-0.24648413,0.35796702,169.60555,-87.3419,-1.9673469,STD
6165395464000,1.09485,-0.862006362213022,9.67957097666541,-0.853330626006775,0.18234327,-0.25259277,0.34483343,169.65292,-87.35648,-1.9932985,STD
6165400821000,1.100207,-0.743362414495882,9.68268717175107,-0.866373835126602,0.20922135,-0.22907446,0.32986724,169.69434,-87.39669,-2.001948,STD
6165405719000,1.105105,-0.68612358784396,9.7005742852349,-0.823444740352349,0.23762658,-0.22082779,0.32650748,169.74124,-87.43804,-2.0105503,STD
6165410455000,1.109841,-0.63077791960723,9.71786978737035,-0.781935513555522,0.25411993,-0.22785273,0.3323107,169.79713,-87.50884,-1.984994,STD
6165415531000,1.114917,-0.547130480634484,9.74029107776935,-0.716225096283194,0.28191432,-0.24831672,0.33750305,169.8542,-87.58246,-1.9610302,STD
6165420508000,1.119894,-0.461241673216995,9.76289337936267,-0.648418111259484,0.2837469,-0.28680122,0.3313944,169.91809,-87.64984,-1.9389689,STD
6165425561000,1.124947,-0.393495186346342,9.77557974857815,-0.624832636327711,0.2950479,-0.30848694,0.33628133,169.99577,-87.73203,-1.8989043,STD
6165430604000,1.12999,-0.331929601463032,9.78505156873897,-0.615361018915474,0.2950479,-0.32375857,0.33750305,170.08205,-87.80734,-1.8620167,STD
6165436415000,1.135801,-0.255318994549563,9.81351760259114,-0.62158929042784,0.2874121,-0.33841935,0.33841935,170.18651,-87.889755,-1.8075501,STD
6165440520000,1.139906,-0.200043402960731,9.83720679612333,-0.629485794088581,0.27672195,-0.33536503,0.33567044,170.28943,-87.968796,-1.7546108,STD
6165445473000,1.144859,-0.143980662693933,9.85079998969072,-0.661283589700862,0.26389378,-0.3304781,0.3378085,170.39838,-88.06207,-1.6851847,STD
6165450599000,1.149985,-0.0900530592006084,9.85909671134021,-0.702766361952003,0.25259277,-0.31856623,0.33414328,170.50359,-88.149605,-1.6193678,STD
6165455798000,1.155184,-0.0393411844806884,9.86612433570142,-0.749983551240745,0.23518312,-0.30879238,0.33628133,170.61638,-88.246506,-1.5399941,STD
6165460534000,1.15992,0.00150350306784071,9.87066272593556,-0.799904848659196,0.22937989,-0.30818152,0.34666604,170.7276,-88.3425,-1.4606322,STD
6165465466000,1.164852,0.040870708833738,9.87611597993144,-0.842894431574061,0.23487769,-0.30176744,0.35338554,170.83951,-88.45078,-1.3704425,STD
6165470509000,1.169895,0.07536280832024,9.88301417868876,-0.870488112603914,0.21502456,-0.30848694,0.35094208,170.95435,-88.55292,-1.2814944,STD
6165475533000,1.174919,0.109724955419226,9.88988638780174,-0.897977831718326,0.2134974,-0.30085114,0.36468655,171.06583,-88.67598,-1.1780459,STD
6165480573000,1.179959,0.139827057914042,9.89795062578733,-0.958337128618007,0.2049453,-0.29168814,0.36560285,171.17824,-88.78909,-1.080775,STD
6165485534000,1.18492,0.166231580629863,9.90675231104113,-1.0419514566784,0.19272798,-0.2733622,0.37018433,171.2853,-88.90348,-0.9804541,STD
6165490493000,1.189879,0.177920626881313,9.90593703282828,-1.09781405151515,0.18570304,-0.24770586,0.38240165,171.39037,-89.02931,-0.8693985,STD
6165495510000,1.194896,0.167809761838173,9.89077095433502,-1.11298034116162,0.1777618,-0.21960606,0.38789943,171.48914,-89.1503,-0.7611022,STD
6165500601000,1.199987,0.169473180608649,9.88659862413241,-1.1188195357181,0.17195857,-0.17470746,0.38698313,171.5716,-89.283295,-0.644865,STD
6165506248000,1.205634,0.183909971274693,9.89381678957555,-1.11521033993593,0.17348573,-0.12736541,0.3915646,171.64525,-89.415955,-0.5279742,STD
6165510543000,1.209929,0.19489031763748,9.8993067879071,-1.11246525477843,0.1957823,-0.07941248,0.38759398,171.70499,-89.54663,-0.41726243,STD
6165515521000,1.214907,0.219808818868669,9.90775978645034,-1.09755541276036,0.19150625,-0.018325957,0.3866777,171.74762,-89.67267,-0.30690578,STD
6165520484000,1.21987,0.25628195048235,9.91818088949792,-1.0715031992107,0.19547687,0.03756821,0.37843102,171.77837,-89.793076,-0.2022982,STD
6165525529000,1.224915,0.298010107844741,9.91559997745659,-0.940601600999909,0.21227567,0.08552113,0.3585779,171.79726,-90.104164,-0.09967299,STD
6165530696000,1.230082,0.342990888321062,9.90660363912372,-0.756180375684029,0.21563543,0.12767084,0.33169982,171.80244,-90.0995,-0.004003771,STD
6165535531000,1.234917,0.391589470876283,9.8923559452188,-0.56472429439222,0.22143865,0.16829337,0.3100141,171.80069,-90.1936,0.09109127,STD
6165540524000,1.23991,0.448422197616424,9.87168961880065,-0.347726572220421,0.20250183,0.21044308,0.26328292,171.78712,-90.288635,0.16892019,STD
6165545485000,1.244871,0.522799728101965,9.86654451274558,-0.229215178697841,0.18570304,0.2660318,0.22235495,171.76161,-90.36781,0.25059146,WAL
6165550583000,1.249969,0.609997040850787,9.87050810634843,-0.165798955759052,0.15027285,0.3203988,0.16279559,171.72519,-90.427155,0.31131342,WAL
6165555539000,1.254925,0.68566508292011,9.88511154879969,-0.130425102711531,0.11484267,0.376293,0.1020145,171.68483,-90.46504,0.36683953,WAL
6165560562000,1.259948,0.718794742975207,9.95137077007084,-0.220348534905549,0.0729984,0.38912117,0.077579886,171.64244,-90.49275,0.41388443,WAL
6165565491000,1.264877,0.730530956092052,10.0019797986363,-0.315565282058385,0.01282817,0.35796702,0.07422013,171.61354,-90.51564,0.4659017,WAL
6165570511000,1.269897,0.604187044138078,9.95758886462107,-0.458982706420911,-0.05955936,0.33261612,0.060170226,171.58063,-90.53114,0.50631785,WAL
6165575889000,1.275275,0.468832948821649,9.91003220264223,-0.612627907261879,-0.11484267,0.30298916,0.042455133,171.55963,-90.56234,0.5520072,WAL
6165580580000,1.279966,0.322845646650075,9.86740059462419,-0.7958798224888,-0.16187929,0.2874121,0.029932396,171.54292,-90.594986,0.5937893,WAL
6165585566000,1.284952,0.113687041672474,9.81986458188153,-1.08584964912892,-0.1685988,0.2779437,0.01985312,171.53387,-89.36898,0.63011384,WAL
6165590475000,1.289861,-0.0554989656024995,9.78646741979692,-1.31006054775261,-0.18234327,0.29718593,-0.011911872,171.49501,-89.3683,0.62587506,WAL
6165595510000,1.294896,-0.144521176374352,9.7830434195839,-1.39908276567493,-0.17165314,0.3472769,-0.03756821,171.4506,-89.36617,0.6202146,WAL
6165600577000,1.299963,-0.234109168823404,9.77959765809842,-1.48867076531989,-0.16249016,0.38606682,-0.050396383,171.36359,-89.40801,0.5760089,WAL
6165605757000,1.305143,-0.292887495197899,9.81076674452981,-1.53986906870563,-0.13072516,0.42363504,-0.058643065,171.26309,-89.45741,0.5261343,WAL
6165610537000,1.309923,-0.319597873025382,9.86863900359817,-1.55322429480696,-0.105374254,0.46792278,-0.062002823,171.15018,-89.508804,0.4743663,WAL
6165615505000,1.314891,-0.301119991124949,9.93222765189874,-1.49714153474888,-0.090713486,0.5161811,-0.062308256,171.00162,-89.58644,0.40164012,WAL
6165621613000,1.320999,-0.205578731194365,10.0158260696203,-1.31800167627603,-0.06994407,0.5348125,-0.051923547,170.84962,-89.6628,0.3316506,WAL
6165625530000,1.324916,-0.109851869000998,10.0794508611647,-1.14637659752745,-0.074830994,0.55955255,-0.04428773,170.67815,-89.74268,0.25599852,WAL
6165630587000,1.329973,0.0416427011161398,10.1697034178369,-0.878843644306156,-0.08093964,0.5681047,-0.054367006,170.50699,-90.1794,0.17885175,WAL
6165635496000,1.334882,0.188703576082529,10.2573146103827,-0.619140407730449,-0.083383106,0.5674938,-0.05681047,170.34058,-90.128296,0.123495035,WAL
6165640507000,1.339893,0.34396957747247,10.3425542660724,-0.395913335658102,-0.092240654,0.5558874,-0.05681047,170.17621,-90.08413,0.0661743,WAL
6165645529000,1.344915,0.50537818487677,10.4232580957525,-0.219372654850551,-0.09621128,0.5332854,-0.062308256,170.0165,-90.0701,0.0068267733,WAL
6165650573000,1.349959,0.677754491642229,10.5846918782991,-0.0371241663062072,-0.11178834,0.52198434,-0.056505036,169.89166,-90.02913,-0.0042543537,WAL
6165655615000,1.355001,0.857706946334311,10.805944744868,0.148728374068915,-0.11881329,0.5369505,-0.07788532,169.76743,-89.97304,-0.02526743,WAL
6165660536000,1.359922,1.0333408276393,11.021887893695,0.330120748362048,-0.129198,0.55924714,-0.09040806,169.66708,-89.92341,-0.012906494,WAL
6165665493000,1.364879,1.21741510066858,11.250875518943,0.512446060707842,-0.1386664,0.59681535,-0.095294975,169.55989,-89.858925,-0.0056464327,WAL
6165670507000,1.369893,1.42124880687679,11.5107638615091,0.695896327121936,-0.17623462,0.6227771,-0.095294975,169.45145,-89.78495,-0.00165504,WAL
6165675538000,1.374924,1.57931835907368,11.7241972686316,0.843291263225263,-0.20433442,0.6441574,-0.102319926,169.37987,-89.67058,0.052633017,WAL
6165680573000,1.379959,1.67068106640702,11.8697006419649,0.93803782269193,-0.26267207,0.68752885,-0.10354166,169.29662,-89.53743,0.105646014,WAL
6165685560000,1.384946,1.76117278864561,12.0138168927719,1.03188113789754,-0.2843578,0.7131852,-0.11453723,169.24072,-89.386734,0.18890375,WAL
6165691594000,1.39098,1.82068785122378,12.1411471684878,1.18194250118007,-0.35430184,0.7877107,-0.12644911,169.15955,-89.211075,0.26729447,WAL
6165695510000,1.394896,1.84117667814685,12.2067115002185,1.29258225214161,-0.4859433,0.806953,-0.1337795,169.08809,-89.01912,0.34015563,WAL
6165700601000,1.399987,1.80053801751206,12.2072818973031,1.37259042932667,-0.5338962,0.872621,-0.16829337,168.9958,-88.819244,0.42485362,WAL
6165705866000,1.405252,1.73299664347205,12.1757624232899,1.43112624607966,-0.636827,0.95294976,-0.20861048,168.89488,-88.578476,0.50094265,WAL
6165710529000,1.409915,1.62019153216463,12.1036640969077,1.47103460261324,-0.73945236,1.065349,-0.26083946,168.76736,-88.31527,0.56445086,WAL
6165715537000,1.414923,1.44785907606707,11.9835538913328,1.50236775662021,-0.86345804,1.1930199,-0.3118467,168.61426,-88.03045,0.6116359,WAL
6165720489000,1.419875,1.2654685077134,11.8191095934542,1.49397589867315,-0.9859365,1.3142766,-0.35613444,168.41592,-87.727165,0.63479704,WAL
6165725534000,1.42492,1.07314877896506,11.6267899985847,1.46405956187528,-1.1038336,1.4373659,-0.42394048,168.18422,-87.40445,0.6315939,WAL
6165730791000,1.430177,0.865842278281923,11.4309633622669,1.44992447801291,-1.235475,1.5705346,-0.49571714,167.89932,-87.05251,0.5820122,WAL
6165735547000,1.434933,0.669799399605452,11.2594258034433,1.45809288242468,-1.3658947,1.6899587,-0.56016344,167.58865,-86.67741,0.51098216,WAL
6165740484000,1.43987,0.465894698965958,11.0758899015556,1.49901095653415,-1.4731015,1.772731,-0.6239988,167.22127,-86.28551,0.38345814,WAL
6165745504000,1.44489,0.256352123945292,10.8591218726986,1.71939193677012,-1.59558,1.847562,-0.679893,166.8295,-85.85936,0.23638667,WAL
6165750562000,1.449948,0.045223370069888,10.6407129703164,1.94144113956564,-1.6978999,1.8790215,-0.72509706,166.39719,-85.41486,0.03841768,WAL
6165755780000,1.455166,-0.118572185500819,10.529395285067,2.18693708483563,-1.7620409,1.8726074,-0.75441855,165.96251,-84.95266,-0.1719737,WAL
6165760709000,1.460095,-0.227788219573894,10.5202937651595,2.4326730854719,-1.8344283,1.8182404,-0.79137594,165.54117,-84.46661,-0.39690587,WAL
6165765527000,1.464913,-0.311906597213276,10.533226662285,2.6493375484719,-1.8961257,1.7052304,-0.8060367,165.10754,-83.91842,-0.66557497,WAL
6165770483000,1.469869,-0.369096785106802,10.5748195489101,2.84170461518239,-1.9126191,1.6395624,-0.8167268,164.68419,-83.370476,-0.9421926,WAL
6165775509000,1.474895,-0.371385493336805,10.5706850376748,2.89115697511901,-1.9144517,1.5088371,-0.8237518,164.30354,-82.77507,-1.2304242,WAL
6165780717000,1.480103,-0.334286411480214,10.5335861727536,2.83921825432163,-1.9199494,1.3949108,-0.8374963,163.94443,-82.18432,-1.5196533,WAL
6165785475000,1.484861,-0.300392895452246,10.4996928549167,2.79176732621988,-1.9101756,1.3744467,-0.86590147,163.59825,-81.57379,-1.8198717,WAL
6165790525000,1.489911,-0.254460281541203,10.4584734122475,2.63130802020737,-1.9162843,1.3921618,-0.8894198,163.28033,-80.96926,-2.1170247,WAL
6165795610000,1.494996,-0.207642744962156,10.4205816888499,2.46641487709987,-1.8909334,1.4608842,-0.9086621,162.96074,-80.38738,-2.419271,WAL
6165800607000,1.499993,-0.167888478189035,10.4338333786229,2.40899213341333,-1.8701639,1.5360206,-0.91965765,162.64322,-79.82021,-2.7160282,WAL
6165805956000,1.505342,-0.12533383080672,10.4480185474432,2.34752440157836,-1.851838,1.5800029,-0.94134337,162.31917,-79.28784,-3.0126464,WAL
6165810517000,1.509903,-0.0654909517050147,10.4679661651917,2.27944255619469,-1.8301523,1.593442,-0.9483683,161.98772,-78.77587,-3.3067749,WAL
6165815526000,1.514912,0.000839559811946899,10.4900763196903,2.20426793855088,-1.7901406,1.5784758,-0.95722586,161.65822,-78.28519,-3.6044593,WAL
6165820510000,1.519896,0.0070052804,10.5052921166887,2.09543658235139,-1.738828,1.5164729,-0.94959,161.34158,-77.82281,-3.8843367,WAL
6165825560000,1.524946,-0.0100313996,10.518069439454,1.9719206536856,-1.6655241,1.3545936,-0.9621128,161.06332,-77.387314,-4.161617,WAL
6165831512000,1.530898,-0.0891809313379074,10.5349147564322,1.84576115608919,-1.5473217,1.1438452,-0.99296147,160.82646,-76.99988,-4.4199224,WAL
6165835505000,1.534891,-0.175270548988851,10.5472130936964,1.77197001953259,-1.395827,0.9098838,-0.9950995,160.64355,-76.654015,-4.657969,WAL
6165840527000,1.539913,-0.343460960374539,10.5312421465285,1.7054032577448,-1.2745703,0.68019843,-1.0015136,160.50914,-76.35597,-4.8890896,WAL
6165845485000,1.544871,-0.551569269279809,10.4934044921805,1.65810589348541,-1.146594,0.40133846,-1.0198395,160.45564,-76.10688,-5.101112,WAL
6165850598000,1.549984,-0.766476829402776,10.4408439948427,1.51642139000382,-1.0210613,0.089186326,-1.0534371,160.45479,-75.893005,-5.313849,WAL
6165855799000,1.555185,-0.985298920310709,10.3774170282695,1.30394202886795,-0.8915578,-0.17745635,-1.0650436,160.51756,-75.71966,-5.504499,WAL
6165860475000,1.559861,-1.18203264403413,10.3203925145804,1.1129107862855,-0.8191703,-0.37751472,-1.0403035,160.61475,-75.5474,-5.7141657,WAL
6165865536000,1.564922,-1.32446060369015,10.2128411639139,0.938749304662346,-0.7867944,-0.5665775,-1.0317514,160.78159,-75.39846,-5.9072347,WAL
6165870509000,1.569895,-1.37424669680117,10.0485470930378,0.809305223437173,-0.73823065,-0.65087694,-1.0231993,160.96913,-75.27777,-6.0800643,WAL
6165875517000,1.574903,-1.50509573067378,9.91768502374916,0.723610464400267,-0.73273283,-0.75747293,-1.0167851,161.14943,-75.13295,-6.3069906,WAL
6165880532000,1.579918,-1.71015058294196,9.81836159379586,0.678754731985324,-0.7370089,-0.89675015,-1.0143417,161.35783,-75.00028,-6.5164785,WAL
6165885544000,1.58493,-1.91508277029353,9.7190975796531,0.633925832511007,-0.71685034,-1.0836749,-1.0476339,161.59421,-74.84798,-6.73651,WAL
6165890497000,1.589883,-2.06313234701282,9.56596874413513,0.467307435605881,-0.64996064,-1.1899655,-1.0922271,161.84328,-74.70801,-6.946856,WAL
6165895512000,1.594898,-2.16328395195496,9.36065754092378,0.186883032750078,-0.5531385,-1.1355985,-1.1151345,162.0956,-74.58203,-7.1504583,WAL
6165900491000,1.599877,-2.26300203055719,9.19507692221567,0.284021013236692,-0.47952923,-1.0677924,-1.1142182,162.33278,-74.423164,-7.414712,WAL
6165905628000,1.605014,-2.36607760214758,9.05012694696523,0.638343425873502,-0.4334089,-1.033584,-1.1252137,162.56133,-74.27834,-7.679888,WAL
6165910555000,1.609941,-2.46493945560794,8.91110251090159,0.978181176907484,-0.40469822,-1.0479393,-1.1365148,162.75752,-74.127495,-7.9769053,WAL
6165915522000,1.614908,-2.51795168300994,8.84190633046609,1.1900962413416,-0.38148534,-1.0506883,-1.1270463,162.93565,-73.98805,-8.264683,WAL
6165920511000,1.619897,-2.53388108729079,8.82916287357472,1.29841625698473,-0.35521814,-1.0543534,-1.1123856,163.11397,-73.85554,-8.54373,WAL
6165927014000,1.6264,-2.55464455011669,8.81255219003801,1.43960789092485,-0.3203988,-1.0818423,-1.097114,163.29941,-73.66117,-8.807905,WAL
6165930700000,1.630086,-2.53246692354306,8.78066829196869,1.50202867289069,-0.23854288,-1.0974194,-1.0998629,163.47855,-73.487976,-9.063349,WAL
6165935543000,1.634929,-2.49212441058278,8.73136091654586,1.57823124417706,-0.20005837,-1.110553,-1.108415,163.65994,-73.31807,-9.304767,WAL
6165940501000,1.639887,-2.4195366742555,8.6941698038122,1.60956214304976,-0.15027285,-1.1273518,-1.1233811,163.86127,-73.1253,-9.542938,WAL
6165945509000,1.644895,-2.31253360586866,8.670908277767,1.5909529222136,-0.10323623,-1.1600331,-1.1255192,164.06659,-72.94677,-9.768169,WAL
6165950616000,1.650002,-2.15172606574947,8.75916360655568,1.51332189145628,-0.08002335,-1.178359,-1.106277,164.29059,-72.74867,-9.979744,WAL
6165955602000,1.654988,-1.92836516739355,8.98909393805462,1.3622248262709,-0.0720821,-1.1798862,-1.0980303,164.51602,-72.5618,-10.184366,WAL
6165960717000,1.660103,-1.69922537696223,9.22497312891243,1.20721851090321,-0.074830994,-1.17897,-1.1074986,164.7686,-72.367935,-10.37084,WAL
6165965506000,1.664892,-1.48373955863117,9.41771106823184,1.12165978635363,-0.06566802,-1.1902709,-1.0961977,165.01884,-72.19004,-10.539714,WAL
6165970525000,1.669911,-1.25703699414108,9.59403520322817,1.08639495935437,-0.06994407,-1.1948525,-1.0888673,165.26378,-72.01245,-10.704572,WAL
6165975532000,1.674918,-1.09393507293709,9.70641866614653,1.0415876369246,-0.06719518,-1.219287,-1.0769554,165.57344,-71.88198,-10.835823,WAL
6165980551000,1.679937,-0.971204649668771,9.77801141364636,0.990449957596284,-0.059864793,-1.246776,-1.0567969,165.88026,-71.75863,-10.955587,WAL
6165985556000,1.684942,-0.848816570677353,9.84940446031633,0.939454921724945,-0.048563786,-1.2669345,-1.0403035,166.2264,-71.65733,-11.036709,WAL
6165990533000,1.689919,-0.720914939970015,9.91722670389805,0.904162903026612,-0.010995574,-1.2846496,-1.0183123,166.57379,-71.57215,-11.103662,WAL
6165995540000,1.694926,-0.590613132293853,9.9846241517991,0.872710737214205,0.015271631,-1.2855659,-1.003957,166.91753,-71.49234,-11.162982,WAL
6166000601000,1.699987,-0.500568227336755,9.92563916050257,0.935540982056273,0.052534413,-1.2922854,-1.0106765,167.29482,-71.43712,-11.19708,WAL
6166005606000,1.704992,-0.432712029796496,9.80264998734737,1.0458073052734,0.07941248,-1.317331,-1.0345002,167.67389,-71.38811,-11.226611,WAL
6166010577000,1.709963,-0.428557652052077,9.71806644265344,1.14681814705518,0.124005646,-1.3460416,-1.0662653,168.08435,-71.355225,-11.243069,WAL
6166016373000,1.715759,-0.531794796701798,9.68365396528208,1.25005521983881,0.1423316,-1.3897184,-1.0830641,168.50298,-71.32366,-11.255337,WAL
6166020507000,1.719893,-0.577385487803583,9.63757225016589,1.2729971203716,0.16615535,-1.4639386,-1.0885619,168.9634,-71.28275,-11.252634,WAL
6166025501000,1.724887,-0.604588007949569,9.56049829396151,1.2503284127595,0.19181168,-1.541213,-1.1071932,169.43515,-71.24446,-11.250782,WAL
6166030502000,1.729888,-0.645322253642096,9.50063720213259,1.23997406250348,0.19303341,-1.6181821,-1.1362094,169.93665,-71.17492,-11.264877,WAL
6166035531000,1.734917,-0.712306607840519,9.47384384654613,1.25337092681502,0.19120082,-1.6856827,-1.1334605,170.45184,-71.11674,-11.265561,WAL
6166040506000,1.739892,-0.778647062059702,9.44314044729478,1.25413645278918,0.19242255,-1.7583756,-1.1154399,170.99673,-71.04784,-11.279629,WAL
6166045510000,1.744896,-0.845702603910448,9.39396634468284,1.20049203237873,0.17684549,-1.8329011,-1.0858129,171.55554,-70.981544,-11.279034,WAL
6166050775000,1.750161,-0.914238754017322,9.33295428055371,1.14750830284995,0.16768251,-1.8903224,-1.0482447,172.1331,-70.905685,-11.287373,WAL
6166055545000,1.754931,-0.958198896055963,9.19431037648975,1.13060056134429,0.15851954,-1.9398025,-1.028697,172.72382,-70.833015,-11.281832,WAL
6166060535000,1.759921,-1.00418654988674,9.04927199467022,1.11291300786143,0.17562376,-1.9785925,-1.0073168,173.32106,-70.76162,-11.2831545,WAL
6166065483000,1.764869,-1.03094087543494,8.87884394728617,1.12145816490259,0.18417588,-2.0024164,-0.98563105,173.92172,-70.69443,-11.270773,WAL
6166070466000,1.769852,-1.02099792421086,8.65512754474424,1.18111592415877,0.1957823,-2.0732768,-0.9737192,174.54079,-70.63853,-11.24336,WAL
6166075575000,1.774961,-0.99298585221952,8.49012452006689,1.23524505760109,0.2098322,-2.141999,-0.9596693,175.16405,-70.57517,-11.232227,WAL
6166080589000,1.779975,-0.941887223897841,8.41347655852843,1.27904388732137,0.20708331,-2.2235496,-0.9285152,175.80363,-70.520226,-11.201058,WAL
6166086993000,1.786379,-0.872841880559386,8.30661878833957,1.32829768540477,0.19211712,-2.3417518,-0.88697636,176.485,-70.448746,-11.155825,WAL
6166090506000,1.789892,-0.806575747084893,8.18071309668111,1.30510451620051,0.17531833,-2.368019,-0.86009824,177.15663,-70.38421,-11.101326,WAL
6166095447000,1.794833,-0.713373081130589,8.00362797784124,1.2724835514871,0.16157386,-2.42147,-0.8023715,177.88437,-70.32276,-11.007195,WAL
6166100567000,1.799953,-0.621863469451249,7.85504570700164,1.2214016810975,0.15363261,-2.4260514,-0.75625116,178.59827,-70.266846,-10.905465,WAL
6166105657000,1.805043,-0.532542113254894,7.71871318149291,1.16498819349021,0.16523905,-2.4019222,-0.6933321,179.30656,-70.22981,-10.776703,WAL
6166110558000,1.809944,-0.434587566402337,7.53463266732054,1.11793831569282,0.17989981,-2.3521366,-0.63346726,180.02896,-70.19516,-10.63431,WAL
6166115505000,1.814891,-0.330778549787145,7.32701465473706,1.07344876368948,0.19792034,-2.2837198,-0.5546656,180.72646,-70.181725,-10.469286,WAL
6166120486000,1.819872,-0.249429689519605,7.1199617705531,1.06936205453129,0.22510384,-2.2030854,-0.4990769,181.42177,-70.18386,-10.297468,WAL
6166125569000,1.824955,-0.173586155445339,6.90928534567645,1.07778910800658,0.2415972,-2.0916026,-0.45906523,182.07875,-70.20113,-10.114168,WAL
6166130718000,1.830104,-0.0928212872624114,6.76070567183384,1.11129968345491,0.267559,-1.9804251,-0.42180246,182.7303,-70.234245,-9.920237,WAL
6166135555000,1.834941,-0.0130349379574468,6.68561259452887,1.16761946693009,0.30298916,-1.8646661,-0.38515055,183.34175,-70.28228,-9.723693,WAL
6166140526000,1.839912,0.0585457564025104,6.61648858057653,1.25921616687586,0.3286455,-1.7296649,-0.33414328,183.93224,-70.33218,-9.51874,WAL
6166145483000,1.844869,0.119142157610892,6.55589201063717,1.38545863424104,0.35643986,-1.6071864,-0.2968805,184.48825,-70.39653,-9.315314,WAL
6166150575000,1.849961,0.149765334528536,6.52119328287841,1.50376657555831,0.3866777,-1.4718798,-0.25992316,185.02876,-70.45868,-9.100273,WAL
6166156580000,1.855966,0.161657130234353,6.5013736371657,1.63457632004411,0.41325033,-1.3191634,-0.23487769,185.52475,-70.53157,-8.890207,WAL
6166160611000,1.859997,0.169639782772264,6.48806922553074,1.72238549240419,0.44868052,-1.1982121,-0.22082779,186.02377,-70.58753,-8.672993,WAL
6166165525000,1.864911,0.168852119164316,6.56822780437689,1.88318057837668,0.4813618,-1.1322387,-0.19914207,186.48907,-70.654854,-8.4560375,WAL
6166170475000,1.869861,0.163900154263031,6.68707522054737,2.06640348655594,0.48563787,-0.9993755,-0.19181168,186.89919,-70.724396,-8.2564125,WAL
6166175527000,1.874913,0.117618646612196,6.78981207476387,2.24245879149014,0.52015173,-0.8753699,-0.16768251,187.31854,-70.77901,-8.050816,WAL
6166180626000,1.880012,0.059405183447868,6.88832709268226,2.41709914404402,0.5546656,-0.75625116,-0.14660765,187.69812,-70.836235,-7.8567247,WAL
6166185541000,1.884927,-0.0242264468534171,6.99907181819246,2.58357352070471,0.58093286,-0.6621779,-0.11575896,188.0746,-70.86881,-7.662002,WAL
6166190493000,1.889879,-0.125193761141686,7.12023277224824,2.75016952283372,0.59040123,-0.57451874,-0.08246681,188.41318,-70.909996,-7.4732394,WAL
6166195504000,1.89489,-0.170128336857559,7.20738975564183,2.84430923491871,0.6096435,-0.47158796,-0.053450707,188.74251,-70.925865,-7.307745,WAL
6166200584000,1.89997,-0.193739197263609,7.28215734603252,2.91120670834749,0.6407976,-0.36957347,-0.011301007,189.03813,-70.954704,-7.1401587,WAL
6166205563000,1.904949,-0.204571617821583,7.4202642094964,3.00206021119424,0.64904433,-0.23854288,0.03145956,189.30792,-70.95483,-7.005762,WAL
6166210498000,1.909884,-0.181904213692086,7.73307433251798,3.16073198802878,0.66920286,-0.1301143,0.070554934,189.5464,-70.972984,-6.8708677,WAL
6166215487000,1.914873,-0.163398077335318,8.04165270078154,3.32107750483067,0.68416905,-0.036651913,0.129198,189.76447,-70.98016,-6.745813,WAL
6166220492000,1.919878,-0.166965765016747,8.31279722534425,3.48162359950875,0.6948592,0.036651913,0.19639318,189.94847,-70.99853,-6.6187963,WAL
6166225786000,1.925172,-0.170739459039821,8.59959824692966,3.65143998816524,0.6960809,0.08674286,0.25595254,190.13164,-71.01576,-6.4854503,WAL
6166230583000,1.929969,-0.179934862472574,8.92838442025317,3.87390725628692,0.6759224,0.13622294,0.33383787,190.28194,-71.039894,-6.3397446,WAL
6166235561000,1.934947,-0.195021363607595,9.33572029746835,4.17060855379747,0.62949663,0.13958271,0.4034765,190.42189,-71.06281,-6.1852927,WAL
6166240502000,1.939888,-0.264791750250454,9.72179521796733,4.52474767789474,0.57787853,0.12186762,0.45478916,190.55597,-71.08313,-6.023452,WAL
6166245488000,1.944874,-0.373117423368421,10.0987684894737,4.92338625052632,0.49357912,0.0693332,0.49510628,190.68878,-71.08745,-5.849024,WAL
6166250616000,1.950002,-0.521794108331709,10.5034560563243,5.35100600389788,0.38148534,-0.030848695,0.5131268,190.83647,-71.06496,-5.6650596,WAL
6166255603000,1.954989,-0.721916897739232,10.9223174034301,5.79313742584292,0.24037547,-0.12339478,0.5036584,190.98984,-71.01314,-5.4806314,WAL
6166260501000,1.959887,-1.03491695568525,11.3531949420532,6.24246975883273,0.094989546,-0.18295415,0.473726,191.1393,-70.9072,-5.3115506,WAL
6166265529000,1.964915,-1.59196674378322,11.8349674739969,6.73427942595102,-0.04337143,-0.3118467,0.44104472,191.32729,-70.766464,-5.1377664,WAL
6166270448000,1.969834,-2.27177401630071,12.3249435876442,7.21047977781913,-0.11056661,-0.48899764,0.34116822,191.51959,-70.575516,-5.0155907,WAL
6166275527000,1.974913,-3.17688385539635,12.8589587584667,7.69471361309081,-0.26083946,-0.7348709,0.21166481,191.76456,-70.32563,-4.8963146,WAL
6166280556000,1.979942,-4.09763559047619,13.3444008979592,8.07774307482993,-0.43982297,-1.0363328,0.05375614,192.02495,-69.99665,-4.878078,WAL
6166285544000,1.98493,-5.07657750142857,13.7099805795918,8.19960275663265,-0.6065892,-1.3472633,-0.13652839,192.36427,-69.630424,-4.8768625,WAL
6166290506000,1.989892,-6.05041666785714,14.0736546734694,8.32082724362245,-0.7657196,-1.6441438,-0.34483343,192.70213,-69.14713,-5.0392075,WAL
6166295512000,1.994898,-6.84208097941106,14.2633226245312,7.50660636509456,-0.8402451,-1.9004018,-0.55771995,193.1294,-68.64683,-5.213058,WAL
6166300542000,1.999928,-7.61860387766339,14.436310710877,6.59553752980608,-0.84574294,-2.1316142,-0.77213365,193.64679,-68.12686,-5.4001703,WAL
6166305655000,2.005041,-8.25403786571548,13.914630300042,5.79420105392363,-0.7593055,-2.3295345,-0.9275989,194.13846,-67.57411,-5.760881,WAL
6166310503000,2.009889,-8.65831335879144,12.5215845577004,5.19509414498531,-0.59864795,-2.486527,-1.0302242,194.69682,-67.04839,-6.115832,WAL
6166315485000,2.014871,-8.60073241305504,11.3568501241508,4.68886002692724,-0.41172317,-2.5686884,-1.0830641,195.22784,-66.63285,-6.6082435,WAL
6166320522000,2.019908,-8.05456599519543,10.4544879641134,4.28992089883824,-0.25411993,-2.5668557,-1.1117748,195.78033,-66.25462,-7.079515,WAL
6166325518000,2.024904,-7.57477385465605,9.65058309289577,3.91465268071493,-0.13988814,-2.4727826,-1.1209377,196.28201,-65.879425,-7.6227713,WAL
6166330571000,2.029957,-7.16048708965906,8.94193456424602,3.5585115031541,-0.06658431,-2.2821925,-1.1136073,196.7516,-65.5355,-8.15262,WAL
6166335519000,2.034905,-6.75480909377441,8.24801156409582,3.20977084481826,-0.036957346,-2.0131063,-1.1029172,197.2082,-65.22661,-8.62596,WAL
6166341418000,2.040804,-6.04549398444066,7.57131121845542,2.55630045820556,-0.011911872,-1.6853772,-1.0543534,197.58437,-64.94061,-9.09759,WAL
6166345445000,2.044831,-5.53084525196858,7.12966247540223,2.0781516442173,0.027488936,-1.3200798,-0.9984592,197.86905,-64.66777,-9.5819845,WAL
6166350553000,2.049939,-4.69690030351018,6.85410680289389,1.50994831586281,0.077579886,-0.9505063,-0.91751957,198.08894,-64.43359,-10.023615,WAL
6166355629000,2.055015,-3.78510213212755,6.71082432572347,0.962869403965702,0.16065755,-0.5907067,-0.7901542,198.19418,-64.22839,-10.467725,WAL
6166360540000,2.059926,-2.81153412751843,6.72189491197789,0.527547945405405,0.22388211,-0.42394048,-0.6178902,198.29184,-64.10481,-10.821324,WAL
6166365526000,2.064912,-1.71653094029484,6.90765419164619,0.195136266486486,0.28955013,-0.12675454,-0.52656585,198.24812,-64.00491,-11.2130375,WAL
6166370491000,2.069877,-0.689678929412429,7.28340756926554,-0.142707947446328,0.3118467,0.076052725,-0.32925636,198.24417,-64.05267,-11.41411,WAL
6166375557000,2.074943,0.292520947702448,7.86359069453861,-0.49447253613936,0.34300083,0.23335053,-0.12644911,198.15926,-64.12925,-11.615802,WAL
6166380533000,2.079919,1.2212573476809,8.57850929342969,-0.904985934097176,0.3866777,0.37598756,0.08277224,198.09106,-64.354904,-11.625431,WAL
6166385531000,2.084917,2.09508612072644,9.53425929266901,-1.4238217701721,0.4361578,0.4746423,0.28038713,197.97102,-64.61362,-11.595738,WAL
6166390448000,2.089834,2.85792586304829,10.5863101273264,-1.73364153661556,0.50732356,0.5002986,0.41630468,197.90562,-65.04351,-11.355975,WAL
6166395504000,2.09489,3.36209756481102,11.9916393591047,-1.47163105246372,0.57787853,0.44043383,0.4905248,197.8273,-65.49791,-11.082905,WAL
6166400539000,2.099925,3.86417519898336,13.3911315826023,-1.21070882388292,0.5335908,0.22540927,0.4886922,197.87263,-66.09642,-10.609161,WAL
6166405583000,2.104969,2.94754863692972,15.3084248693422,1.2613007699991,0.31123585,-0.21471913,0.41172317,198.00797,-66.649666,-10.115054,WAL
6166410632000,2.110018,1.75535902071448,17.3273152015657,4.16345602011158,-0.09773844,-0.7098254,0.18325958,198.2444,-67.10741,-9.643836,WAL
6166415504000,2.11489,0.373647813552112,17.5319462459232,4.51870004755394,-0.56077427,-0.870483,-0.16584991,198.6225,-67.52813,-9.095916,WAL
6166420519000,2.119905,-1.19273676833789,16.656327652284,3.3609373913704,-0.9434814,-0.49846604,-0.5235115,199.0202,-67.81569,-8.631652,WAL
6166425509000,2.124895,-1.89038789252048,15.450931612369,2.71563264389041,-1.0403035,0.21502456,-0.8142834,199.3328,-67.72054,-8.416183,WAL
6166430578000,2.129964,-2.09566957600211,14.0310667986961,2.35638978711127,-0.91599244,0.9007208,-0.93309665,199.56343,-67.564835,-8.298843,WAL
6166435564000,2.13495,-1.97242036689694,12.5148630010234,2.21814961252687,-0.6939429,1.3399329,-0.86620694,199.52414,-67.40845,-8.508156,WAL
6166440526000,2.139912,-1.31100026542319,10.8078156611401,2.43700169235493,-0.54153204,1.536937,-0.7089091,199.36664,-67.26587,-8.763975,WAL
6166445458000,2.144844,-0.502824782018697,9.192705619554,2.38992278453598,-0.5122105,1.4095715,-0.5030475,199.13223,-67.11081,-9.066682,WAL
6166450563000,2.149949,0.563615012386795,7.64541601214334,1.9376381782452,-0.5213735,1.0946705,-0.27672195,198.8769,-67.00653,-9.3160305,WAL
6166455510000,2.154896,1.45202349498951,6.2932392323015,1.45291700808674,-0.4541783,0.94225967,-0.079107046,198.6485,-66.8712,-9.46267,WAL
6166460534000,2.15992,2.09152241880902,5.18673767455404,0.876526544512067,-0.2996294,0.6569856,0.015577064,198.52908,-66.77358,-9.528742,WAL
6166465504000,2.16489,2.70198152816327,4.12781669521336,0.303813972734694,-0.19517145,0.41508293,0.19211712,198.50705,-66.7221,-9.394736,WAL
6166470515000,2.169901,3.00825875689796,3.55799861167347,-0.308740648359184,0.035124753,0.23976462,0.35918877,198.53648,-66.75453,-9.2164545,WAL
6166475520000,2.174906,3.3141692597551,2.98886280881633,-0.920561817502041,0.29901853,0.19547687,0.54519725,198.5715,-66.946754,-8.9031925,WAL
6166480508000,2.179894,3.54181935101789,2.58039519827267,-1.58509845934608,0.56077427,0.28160888,0.788627,198.59676,-67.22183,-8.52399,WAL
6166485538000,2.184924,3.64087621776681,2.43676278803208,-2.34783605404072,0.80756384,0.41996986,1.031446,198.60294,-67.57848,-8.095434,WAL
6166490470000,2.189856,3.60470546797853,2.66170139189028,-2.92917800715563,1.024421,0.5849035,1.2452488,198.56017,-68.11216,-7.572701,WAL
6166495510000,2.194896,3.38404483112701,3.39563769242695,-3.29374762432916,1.2238685,0.7309003,1.4382823,198.46603,-68.72457,-6.99908,WAL
6166500547000,2.199933,3.05201986709817,4.20382287604087,-3.41298531636694,1.3768903,0.9101892,1.6355917,198.305,-69.48687,-6.3697023,WAL
6166505637000,2.205023,2.56084248909803,5.12478046424323,-3.1912733789238,1.4834863,1.103528,1.8347337,198.08893,-70.30066,-5.6979365,WAL
6166510532000,2.209918,2.08848231909593,6.01045578727871,-2.97805531727661,1.5561792,1.2928963,2.0387628,197.8324,-71.20382,-5.011337,WAL
6166516143000,2.215529,1.76711224952701,6.91328258861764,-2.45617780500458,1.566564,1.409877,2.2079725,197.54213,-72.11511,-4.288126,WAL
6166520515000,2.219901,1.62656670266504,7.56064397488557,-1.91103134169464,1.4975362,1.4608842,2.2910502,197.22304,-73.01124,-3.541198,WAL
6166525576000,2.224962,1.63936165700314,8.21636160967516,-1.39648945607754,1.3875804,1.3377949,2.3301454,197.02936,-73.72396,-2.9178846,WAL
6166530585000,2.229971,1.76921468957387,8.8027945273664,-0.965042267822215,1.2589933,1.01312,2.349693,196.89545,-74.3813,-2.27538,WAL
6166535454000,2.23484,1.92582744011464,9.45623049640438,-0.582215976027098,1.0867293,0.56016344,2.3628268,196.8563,-74.86382,-1.6538814,WAL
6166540526000,2.239912,2.16375937399687,10.3421474064617,-0.273410604762897,0.82772243,0.04337143,2.357329,196.942,-75.25043,-1.0172248,WAL
6166545444000,2.24483,2.39321864770687,11.2217896631264,-0.0384745913343632,0.52290064,-0.4251622,2.35794,197.13911,-75.501465,-0.33108672,WAL
6166550515000,2.249901,2.6276687460365,12.1642793482669,0.0928174470831322,0.19853121,-0.84757555,2.3478606,197.47884,-75.63782,0.3682454,WAL
6166555577000,2.254963,2.79717745529971,13.1302206294957,0.224741505128449,-0.11026118,-1.0567969,2.300213,197.91023,-75.63394,1.0945609,WAL
6166560542000,2.259928,2.82884659678402,14.1300582517602,0.355941937193149,-0.39278635,-1.4957036,2.2540927,198.52861,-75.517525,1.8477285,WAL
6166565481000,2.264867,2.82986606294978,15.0122504530682,0.461188131923702,-0.50610185,-1.9602666,2.0937407,199.2228,-75.36521,2.6051903,WAL
6166570509000,2.269895,2.71063130136191,15.466832543914,0.468640302577575,-0.6908886,-2.4000895,1.8551978,200.04318,-75.103615,3.3411477,WAL
6166575527000,2.274913,2.59163368130465,15.9205105335448,0.476077651889654,-0.8002335,-2.781575,1.5650368,200.96236,-74.86455,4.05096,WAL
6166580666000,2.280052,2.23248794472338,16.0769218953365,0.236576817968524,-0.83260936,-2.9773571,1.3203852,201.96564,-74.6035,4.7120414,WAL
6166585779000,2.285165,1.74079289582891,16.0580106574298,-0.141650186390847,-0.6976081,-2.8118126,1.2009611,202.98442,-74.36928,5.318578,WAL
6166590505000,2.289891,1.32333680546128,15.6433960657205,-0.537134477599506,-0.26633725,-2.3765712,1.1817188,203.95316,-74.24554,5.8622637,WAL
6166595507000,2.294893,0.909486357698241,14.9043774457472,-0.990399275768796,0.2919936,-1.9004018,1.1340714,204.87265,-74.20157,6.3417993,WAL
6166600613000,2.299999,0.539184783846488,13.9403214662589,-1.30789743287293,0.7696902,-1.4492778,1.0076222,205.64694,-74.31902,6.7109823,WAL
6166605568000,2.304954,0.211470173553473,12.8775898240923,-1.52793433687845,1.1633929,-1.029308,0.82711154,206.3048,-74.5575,7.0121017,WAL
6166610519000,2.309905,-0.117242184582721,11.8448553310824,-1.54647642981132,1.4483615,-0.77488256,0.6075055,206.86742,-74.93667,7.218916,WAL
6166615522000,2.314908,-0.450300138851043,10.8218918714002,-1.42276923113208,1.5589281,-0.5216789,0.42455134,207.3238,-75.37074,7.352273,WAL
6166620493000,2.319879,-0.831412630059061,9.62532759885629,-1.76893871542139,1.5564847,-0.10170906,0.21685717,207.64806,-75.87329,7.369974,WAL
6166625533000,2.324919,-1.25675317476704,8.27238219340021,-2.48387294472673,1.5289958,0.35888332,0.03268129,207.89978,-76.40286,7.325002,WAL
6166630550000,2.329936,-1.4939818,7.517793,-2.882619,1.4291192,0.73945236,-0.071776666,208.0045,-76.897865,7.200953,WAL
6166635561000,2.334947,-1.4939818,7.517793,-2.882619,1.2837334,1.0760391,-0.10140363,207.99783,-77.38108,7.026102,WAL
6166640522000,2.339908,-1.19388741920625,7.51047373160954,-2.75331002289036,1.1355985,1.3756685,-0.05375614,207.91168,-77.899086,6.8060226,WAL
6166645512000,2.344898,-0.604795774768491,7.49610585227501,-2.49947375389858,0.9783007,1.6679676,0.02565634,207.73175,-78.371994,6.5736637,WAL
6166650514000,2.3499,-0.143716820300357,7.56947791721419,-2.23030120506852,0.8555168,1.87444,0.084910266,207.47925,-78.801926,6.348404,WAL
6166655549000,2.354935,0.195727671674488,7.72788523653088,-1.94516774674301,0.75625116,1.9294178,0.10476339,207.1847,-79.187645,6.1306615,WAL
6166660459000,2.359845,0.533800572851421,7.95076521581156,-1.75315380751478,0.7104363,1.9825631,0.09407325,206.83456,-79.47881,5.999533,WAL
6166665602000,2.364988,0.900172335349991,8.3030460019073,-1.70148603082205,0.6414085,1.9614882,0.05100725,206.49144,-79.73863,5.8669395,WAL
6166670530000,2.369916,1.23037215267684,8.68960600721221,-1.7120142825705,0.6227771,1.9257526,0.0027488936,206.13164,-79.93595,5.7787085,WAL
6166675554000,2.37494,1.51509595983356,9.20566766380028,-1.87217141248266,0.6844745,1.9181169,-0.032986723,205.7726,-80.13717,5.682252,WAL
6166680515000,2.379901,1.78364266195201,9.68617525184431,-1.97641967165268,0.8054258,1.9120082,-0.01985312,205.44034,-80.30615,5.643104,WAL
6166685492000,2.384878,1.96147750204359,9.95696912465022,-1.68945901054863,0.95539325,1.8442022,0.02565634,205.1297,-80.49174,5.6064177,WAL
6166690451000,2.389837,2.13866917815653,10.2267836344442,-1.40353618185364,1.1355985,1.6471981,0.059864793,204.89218,-80.702126,5.620458,WAL
6166695490000,2.394876,2.33329879579477,10.3015796009525,-1.0446275213047,1.3161092,1.4025466,0.090713486,204.68762,-80.92891,5.650478,WAL
6166700558000,2.399944,2.53391176648396,10.3103020802408,-0.660846151424207,1.4691309,1.1487321,0.108123146,204.5427,-81.172806,5.6934996,WAL
6166705525000,2.404911,2.81210514643618,10.2515341542127,-0.391775197602149,1.568702,0.9392053,0.13347405,204.4373,-81.36926,5.7787485,WAL
6166710518000,2.409904,3.16116976050897,10.1351789791139,-0.212394800456251,1.5858061,0.84879726,0.1853976,204.37048,-81.554955,5.879489,WAL
6166715523000,2.414909,3.41927745691541,9.98924530435632,-0.0627263102803282,1.5457945,0.88178396,0.24953845,204.3068,-81.64899,6.0221796,WAL
6166720519000,2.419905,3.60621125371166,9.82100532154718,0.0634540623354171,1.4349225,1.03786,0.30634892,204.2344,-81.708824,6.1735597,WAL
6166725510000,2.424896,3.68362996475973,9.64632124485126,0.259012080366133,1.289842,1.1850786,0.3222314,204.17274,-81.66272,6.3773,WAL
6166730571000,2.429957,3.65803507752156,9.46289095238514,0.523492764454321,1.0830641,1.3539828,0.310625,204.06274,-81.57313,6.578121,WAL
6166735558000,2.434944,3.59957287101952,9.29589888564654,0.712758599580522,0.8707884,1.5558738,0.28527406,203.92479,-81.400665,6.7934184,WAL
6166740521000,2.439907,3.44353879409083,9.17020455188765,0.691087225150465,0.6936375,1.7858646,0.24984388,203.7358,-81.208244,6.9889855,WAL
6166745699000,2.445085,3.28108183794894,9.04611617784509,0.654152700848118,0.54244834,1.9953914,0.21105394,203.48238,-80.95989,7.158634,WAL
6166750593000,2.449979,3.13100409845954,9.0014983993942,0.471625636366941,0.44043383,2.1609359,0.19120082,203.1819,-80.703674,7.3088174,WAL
6166756947000,2.456333,2.92924774633549,8.94937927400312,0.229407449717086,0.36865717,2.2385156,0.19608775,202.82199,-80.47792,7.4256015,WAL
6166760510000,2.459896,2.6277301611272,9.07860132301181,-0.0493062846424593,0.33505958,2.2440135,0.21227567,202.44165,-80.25119,7.528928,WAL
6166765559000,2.464945,2.20046036384495,9.26171727177545,-0.444261559630207,0.33322698,2.2067506,0.24495697,202.02043,-80.08055,7.6217375,WAL
6166770600000,2.469986,1.78696695227001,9.44191227523895,-0.824806758652927,0.34391713,2.0983222,0.30024028,201.6225,-79.90333,7.7213774,WAL
6166775537000,2.474923,1.57513588366189,9.57960230025388,-0.994271620912485,0.38423425,1.9465221,0.3753767,201.25151,-79.72553,7.832462,WAL
6166780561000,2.479947,1.35957191998208,9.71971870407706,-1.16672279935932,0.44012842,1.7721201,0.4813618,200.8814,-79.68456,7.901331,WAL
6166785598000,2.484984,1.10841044918882,9.87805451501553,-1.30703742357611,0.5039638,1.6267341,0.5879578,200.54736,-79.63629,7.9928923,WAL
6166790637000,2.490023,0.800241872502589,10.0654541770797,-1.39449064269071,0.5870415,1.5192219,0.6942484,200.25238,-79.57815,8.115783,WAL
6166795749000,2.495135,0.455216159992124,10.249575955108,-1.47066474326058,0.6435465,1.4450017,0.7779369,199.96756,-79.56593,8.229424,WAL
6166800799000,2.500185,-0.192306550235149,10.3747276596535,-1.42713377735148,0.6814202,1.4217888,0.82253003,199.69986,-79.54656,8.360916,WAL
6166805423000,2.504809,-0.762560528976271,10.4437485691041,-1.36761059432446,0.68966687,1.4373659,0.8454375,199.41287,-79.57294,8.458244,WAL
6166810397000,2.509783,-1.31157449612203,10.3883861425666,-1.24765799571913,0.6976081,1.4584408,0.84482664,199.13312,-79.59589,8.559494,WAL
6166815360000,2.514746,-1.80839841027702,10.3214142695471,-1.07902008435473,0.6786713,1.4874569,0.8374963,198.79306,-79.675545,8.57977,WAL
6166820417000,2.519803,-2.0739684601872,10.1977862299329,-0.676086155843812,0.66339964,1.4969252,0.82833326,198.45485,-79.7542,8.597767,WAL
6166825402000,2.524788,-2.311683479709,10.0876567909532,-0.287435019115114,0.66339964,1.5338826,0.8170323,198.04521,-79.890305,8.526776,WAL
6166830568000,2.529954,-2.22353867501732,10.1366261553004,-0.00341250648124317,0.65484756,1.5906931,0.8216137,197.6284,-80.01936,8.456336,WAL
6166835428000,2.534814,-2.13531088562383,10.1814820143243,0.254345030926925,0.6398814,1.6050484,0.8191703,197.15652,-80.14833,8.334464,WAL
6166840412000,2.539798,-1.95199761703342,10.2062540566743,0.353433267580444,0.61544675,1.59558,0.82344633,196.67598,-80.27173,8.214116,WAL
6166845372000,2.544758,-1.77617624162937,10.2254968202576,0.436481610296831,0.5702427,1.5861117,0.82344633,196.166,-80.361786,8.101337,WAL
6166850507000,2.549893,-1.64592409873961,10.2030395785003,0.400550004725546,0.5439755,1.5784758,0.82436264,195.65956,-80.45023,7.9889092,WAL
6166855401000,2.554787,-1.52178505544799,10.1816363182939,0.366304770516029,0.5030475,1.5647314,0.82558435,195.1534,-80.500374,7.9048424,WAL
6166860351000,2.559737,-1.46067919385264,10.1229204009291,0.368687401486603,0.45845437,1.5265522,0.82986045,194.65807,-80.546005,7.820747,WAL
6166865390000,2.564776,-1.4077905,10.0558265909366,0.37122711689426,0.43004912,1.4718798,0.83108217,194.17313,-80.589355,7.7349167,WAL
6166870361000,2.569747,-1.4077905,9.93665689589987,0.34246198021407,0.38362336,1.3839152,0.8164214,193.7141,-80.613266,7.673419,WAL
6166875458000,2.574844,-1.4077905,9.81446660509279,0.312967733249892,0.35124752,1.2699889,0.81092364,193.27075,-80.62409,7.629907,WAL
6166880372000,2.579758,-1.42752862607702,9.67301577806789,0.369619736883159,0.3417791,1.1685852,0.8060367,192.85118,-80.6363,7.581909,WAL
6166885347000,2.584733,-1.45344500961706,9.52270063446475,0.452552050552654,0.35124752,1.0797043,0.79320854,192.46268,-80.65122,7.5305567,WAL
6166890363000,2.589749,-1.55706751269188,9.48331906722183,0.486137035636601,0.3680463,0.9923506,0.8008443,192.09888,-80.66007,7.4911065,WAL
6166895359000,2.594745,-1.66747705754991,9.45451700441457,0.514939504459717,0.39370266,0.9007208,0.8197812,191.76314,-80.67415,7.451687,WAL
6166900682000,2.600068,-1.82708951290541,9.53017294617097,0.347678221498693,0.41233405,0.8686504,0.84238315,191.41962,-80.679016,7.414828,WAL
6166905447000,2.604833,-1.97288338152774,9.60527855416788,0.18421237075806,0.41874814,0.9459248,0.86559606,191.07156,-80.6834,7.380842,WAL
6166910426000,2.609812,-2.33991832583174,9.84148601578048,0.0286591920976983,0.39706242,1.0613784,0.87781334,190.69864,-80.68821,7.3354278,WAL
6166915377000,2.614763,-2.73547824440647,10.0988379905518,-0.123845850300533,0.31245756,1.1737776,0.9016371,190.3045,-80.67687,7.295378,WAL
6166920434000,2.61982,-3.22498692401152,10.3269885071977,-0.338379285255278,0.1872302,1.258077,0.9095783,189.87822,-80.6912,7.2329226,WAL
6166925440000,2.624826,-3.72188541458733,10.5478326170825,-0.559223030019194,0.04184427,1.3191634,0.87017757,189.42805,-80.69341,7.1585774,WAL
6166930431000,2.629817,-4.11146052757815,10.6924419110916,-0.871321590857922,-0.038789943,1.378112,0.795652,188.92966,-80.75181,7.0097294,WAL
6166935429000,2.634815,-4.47502655334502,10.8182915900282,-1.20692113703379,-0.049480084,1.4110987,0.6960809,188.42317,-80.80975,6.8400397,WAL
6166940423000,2.639809,-4.77490842610109,10.8925774052616,-1.40852099852202,-0.014660766,1.3771957,0.600786,187.88899,-80.9489,6.57109,WAL
6166945416000,2.644802,-5.05288667823431,10.9491155416297,-1.56400038156469,0.00030543262,1.3283265,0.53878313,187.34991,-81.08971,6.2845554,WAL
6166950541000,2.649927,-5.26525804878049,10.8333541280488,-1.61229041707317,0.009162978,1.2006557,0.49205196,186.82661,-81.31117,5.934343,WAL
6166955472000,2.654858,-5.44210736470136,10.6565050488765,-1.61682500520453,0.0021380284,1.0002918,0.39767328,186.33769,-81.542435,5.561613,WAL
6166960497000,2.659883,-5.42993060015528,10.4129037445652,-1.47140794751553,0.03268129,0.7556403,0.27366763,185.87643,-81.82194,5.138729,WAL
6166965443000,2.664829,-5.3122489270911,10.1383129351449,-1.24585140320911,0.11636983,0.52442783,0.13103059,185.46654,-82.11474,4.6968646,WAL
6166970445000,2.669831,-4.95785738069061,10.0497943426111,-0.984813486753066,0.2098322,0.32650748,-0.009468411,185.0776,-82.4138,4.2128696,WAL
6166975520000,2.674906,-4.49707205604071,10.041339393494,-0.705805771914412,0.30176744,0.18112154,-0.099571034,184.73523,-82.721725,3.7177145,WAL
6166980439000,2.679825,-4.05382433279756,10.0316078549192,-0.479113371719821,0.34208453,0.07941248,-0.1414153,184.401,-82.9695,3.2335925,WAL
6166985501000,2.684887,-3.60271534504695,10.019305066661,-0.310972800399289,0.33475417,0.071776666,-0.18753563,184.07774,-83.21052,2.733876,WAL
6166990649000,2.690035,-3.12141312781786,10.0184702593345,-0.132082112644483,0.29046643,0.122478485,-0.24740042,183.77321,-83.36668,2.3154929,WAL
6166995433000,2.694819,-2.42495418516287,10.1468500304028,0.12146745765324,0.23151793,0.25534168,-0.3203988,183.44574,-83.49756,1.885281,WAL
6167000677000,2.700063,-1.66152803648336,10.2875740102277,0.399396794325744,0.18448131,0.43249258,-0.3894266,183.12488,-83.57187,1.5293661,WAL
6167005538000,2.704924,-0.950423605390946,10.4339528651029,0.664021905488066,0.1255328,0.63621616,-0.47067168,182.75998,-83.61303,1.1496696,WAL
6167010558000,2.709944,-0.202581397160494,10.647621831358,0.964741539002469,0.069027774,0.86926126,-0.5348125,182.33693,-83.623146,0.7542359,WAL
6167015466000,2.714852,0.528575885308642,10.8565236812346,1.25875188985679,0.032986723,1.1142182,-0.56077427,181.93097,-83.562325,0.5123745,WAL
6167020490000,2.719876,1.15674751986116,11.062973811801,1.5650711575781,-0.015577064,1.3170254,-0.55771995,181.47485,-83.477234,0.2575953,WAL
6167026395000,2.725781,1.85027749529503,11.3028743999229,1.92710254014655,-0.081855945,1.5042557,-0.5564982,180.95781,-83.37165,-0.009568401,WAL
6167030678000,2.730064,2.33837399854305,11.5153529524834,2.20258159953642,-0.17623462,1.6258179,-0.5723807,180.45963,-83.19876,-0.13099495,WAL
6167035498000,2.734884,2.8351311786755,11.889831440894,2.55795397503311,-0.29718593,1.6960673,-0.5705481,179.93007,-83.00413,-0.25205728,WAL
6167040451000,2.739837,3.34559555900662,12.2746430494205,2.92313226877483,-0.4297437,1.7550159,-0.5714644,179.41084,-82.72361,-0.25488883,WAL
6167045509000,2.744895,3.43127829344548,12.5686793311236,3.04676245282565,-0.59742624,1.7864754,-0.5876524,178.89345,-82.40871,-0.26775637,WAL
6167050564000,2.74995,3.37110590742459,12.8294265187272,3.08687753042758,-0.6963864,1.8319849,-0.591623,178.36841,-82.08662,-0.28472328,WAL
6167055560000,2.754946,3.26629669283617,12.9658324339401,3.05101250317087,-0.8906415,1.7989981,-0.5751296,177.89137,-81.63386,-0.1985349,WAL
6167060695000,2.760081,3.07378575390487,12.8792023003523,2.87293986958309,-1.0616838,1.7137824,-0.5580254,177.43478,-81.17507,-0.12204755,WAL
6167065533000,2.764919,2.84168762564602,12.7378687970673,2.69813761986259,-1.2061534,1.6426166,-0.59040123,176.98781,-80.68956,-0.07062641,WAL
6167070509000,2.769895,2.48985192244668,12.4593327068294,2.50267343101928,-1.3075571,1.6691893,-0.6554584,176.5548,-80.18521,-0.032894716,WAL
6167075594000,2.77498,2.18028554515893,12.1950505816611,2.39178899967775,-1.3866642,1.7626517,-0.74372846,176.12115,-79.68629,-0.045206465,WAL
6167080528000,2.779914,1.96572411934964,11.9735676796543,2.43677761929105,-1.4340062,1.9208658,-0.8454375,175.68,-79.18419,-0.09012096,WAL
6167085508000,2.784894,1.74916232353889,11.7500198782774,2.48218567070456,-1.4782939,2.0754147,-0.9483683,175.20361,-78.697334,-0.22404823,WAL
6167090522000,2.789908,1.54204623906873,11.512606398386,2.54374853969947,-1.5296066,2.225993,-1.0403035,174.70103,-78.208405,-0.39412934,WAL
6167096330000,2.795716,1.3098790755032,11.2288461906131,2.62629691480382,-1.5839735,2.3499987,-1.1145236,174.1794,-77.71858,-0.5969656,WAL
6167100550000,2.799936,1.22628789086869,11.053463970303,2.57753375085859,-1.6667458,2.4306328,-1.208597,173.61089,-77.18763,-0.88473916,WAL
6167105645000,2.805031,1.20657322581818,10.8711031127273,2.41488771272727,-1.7944167,2.579684,-1.2864822,173.00476,-76.63968,-1.2004639,WAL
6167110546000,2.809932,1.30606148117914,10.6842090521542,2.23988709387755,-1.9477439,2.7852402,-1.3594806,172.35092,-76.03929,-1.5833743,WAL
6167115500000,2.814886,1.52611477068646,10.4837165565863,2.04428405640074,-2.1255057,2.9929342,-1.4495832,171.67503,-75.40592,-2.0019882,WAL
6167120503000,2.819889,1.80904805229529,10.324472466036,1.91545938356079,-2.270586,3.2088752,-1.5234979,170.96039,-74.762695,-2.4587202,WAL
6167125525000,2.824911,2.14469670902605,10.2014009492091,1.84460019413772,-2.3386977,3.3362405,-1.5534303,170.22937,-74.10277,-2.935333,WAL
6167130796000,2.830182,2.50410582436702,10.0808045501474,1.77079719274431,-2.3588562,3.3414328,-1.5519031,169.51286,-73.441925,-3.3982723,WAL
6167135665000,2.835051,3.15961810572897,10.3592209326959,1.72850611343058,-2.2739458,3.2232304,-1.5482379,168.80972,-72.80449,-3.8665442,WAL
6167140525000,2.839911,3.81391871928804,10.6371226823747,1.68629320616733,-2.0696115,3.0179799,-1.5241088,168.1879,-72.21692,-4.248275,WAL
6167145467000,2.844853,4.30602641770607,11.0038829457701,1.62469180295553,-1.8005253,2.8985555,-1.4953982,167.58478,-71.68592,-4.622278,WAL
6167150577000,2.849963,4.4210276050705,11.5744663586406,1.51853677195409,-1.6487253,2.6548204,-1.4266758,167.07487,-71.196785,-4.9472775,WAL
6167155550000,2.854936,4.51365315919817,12.0911118570447,1.43890597981672,-1.3133603,2.4135287,-1.3151928,166.69814,-70.88623,-5.0771585,WAL
6167160542000,2.859928,4.45524020231386,12.3065100810997,1.54477957138603,-0.98746365,2.175902,-1.1795808,166.38225,-70.62993,-5.160886,WAL
6167166240000,2.865626,4.38856611811378,12.5523712751432,1.66562647137839,-0.70066243,1.815186,-0.9627236,166.15768,-70.505806,-5.141103,WAL
6167170487000,2.869873,3.76678180289808,12.7293473653533,1.8209685009606,-0.4025602,1.7174476,-0.9068295,165.92656,-70.473305,-5.1346426,WAL
6167175521000,2.874907,2.51091346532074,12.9334259876262,2.06429293962879,-0.32620203,1.6267341,-0.79717916,165.76411,-70.477066,-5.028119,WAL
6167180668000,2.880054,1.24807480467916,13.117885062885,2.27335829792094,-0.24678956,1.5170839,-0.7067711,165.62923,-70.54707,-4.921008,WAL
6167185541000,2.884927,0.373652823826147,12.9262308234086,1.87008615359343,-0.2648101,1.4178182,-0.61758476,165.50269,-70.61427,-4.784413,WAL
6167190513000,2.889899,-0.518533937676249,12.7306829312115,1.45862112145791,-0.31887165,1.4101825,-0.5467244,165.21579,-70.62471,-4.900555,WAL
6167195503000,2.894889,-1.23826742974037,12.3658262709411,1.19786865390755,-0.34605515,1.3869696,-0.6078109,164.96408,-70.63313,-5.0173416,WAL
6167200523000,2.899909,-1.883435588551,11.9230641202526,1.00389651437593,-0.1563815,1.4001031,-0.7877107,164.70892,-70.68155,-5.149818,WAL
6167205729000,2.905115,-2.31656437424529,11.4887248019328,1.02739663512205,0.122783914,1.5118915,-0.9593639,164.29546,-70.75236,-5.50311,WAL
6167210543000,2.909929,-2.43598960853841,11.1166688381987,1.31677321122646,0.2556471,1.5873333,-1.0372492,163.89687,-70.82123,-5.8696404,WAL
6167215528000,2.914914,-2.43940812046458,10.759650784423,1.7769434954383,0.24587326,1.5460999,-1.0906999,163.42502,-70.86921,-6.4067745,WAL
6167220509000,2.919895,-2.26893619642632,10.4437761198234,2.46885915816691,0.20830505,1.4245378,-1.1475104,162.96214,-70.9216,-6.9522886,WAL
6167225529000,2.924915,-1.99287880910944,10.1141344434205,2.94409780163048,0.054061573,1.269378,-1.1676689,162.54001,-70.8492,-7.504834,WAL
6167230775000,2.930161,-1.59665784262295,9.75798101639344,3.21121315081967,-0.16126843,1.1362094,-1.1242975,162.14523,-70.74069,-8.034173,WAL
6167235935000,2.935321,-1.27920473478351,9.37252666350516,3.30963383468041,-0.34697145,0.9450085,-1.0543534,161.89458,-70.48528,-8.496577,WAL
6167240530000,2.939916,-1.13403216173196,8.96241429195876,3.0846163625567,-0.44868052,0.84604836,-0.9987647,161.65349,-70.20089,-8.937607,WAL
6167245471000,2.944857,-0.977928204507217,8.52142077121649,2.84265524617732,-0.46914452,0.75655663,-0.97341377,161.54315,-69.85616,-9.27513,WAL
6167250586000,2.949972,-0.61456823791332,8.04963031828231,2.30088891783698,-0.4428773,0.7504479,-0.89369583,161.42725,-69.520065,-9.574748,WAL
6167255533000,2.954919,-0.218979488694235,7.58999378880318,1.71315711108549,-0.37415496,0.75411314,-0.7828238,161.32768,-69.20553,-9.845721,WAL
6167260454000,2.95984,0.12026729103865,7.21037177310137,1.24548179487447,-0.26206118,0.74189585,-0.6600399,161.2338,-68.941475,-10.07781,WAL
6167265526000,2.964912,0.337859039445776,7.00796077062194,1.04813108859256,-0.14752395,0.71776664,-0.54367006,161.13206,-68.71552,-10.276438,WAL
6167270442000,2.969828,0.520232849395883,6.84664755635232,0.896669668329344,-0.030848695,0.7049385,-0.44073927,161.01616,-68.63032,-10.395496,WAL
6167275560000,2.974946,0.661010522276687,6.73871812376257,0.807510457865007,0.05681047,0.68019843,-0.35796702,160.9011,-68.58171,-10.482773,WAL
6167280556000,2.979942,0.779728561679025,6.63200309738701,0.725116763831215,0.1386664,0.61483586,-0.30176744,160.80586,-68.591156,-10.52027,WAL
6167285574000,2.98496,0.856089405243644,6.52170401991525,0.652998225529661,0.18875736,0.5354234,-0.24740042,160.71404,-68.6262,-10.530911,WAL
6167290675000,2.990061,0.926103357323308,6.40910602310249,0.585371444105263,0.21624629,0.4654793,-0.19028452,160.64864,-68.694115,-10.504209,WAL
6167295508000,2.994894,0.882144787654135,6.29554632072022,0.603687496631579,0.23090707,0.40408736,-0.1777618,160.60245,-68.771866,-10.467698,WAL
6167300579000,2.999965,0.836021488090226,6.17639439628809,0.622905519052632,0.25259277,0.31245756,-0.19211712,160.59325,-68.86071,-10.409063,WAL
6167305754000,3.00514,0.752143836099052,6.0980542184653,0.656284998000611,0.27855456,0.2171626,-0.20891592,160.60188,-68.95453,-10.341605,WAL
6167310539000,3.009925,0.644737813659431,6.06069567107918,0.698313452800367,0.33017266,0.09590584,-0.23365596,160.6458,-69.05569,-10.269395,WAL
6167315693000,3.015079,0.500303442490512,6.02597248148528,0.755077524874346,0.39064834,-0.009468411,-0.27305678,160.72043,-69.137634,-10.21665,WAL
6167320511000,3.019897,0.344117690565186,5.99757499476869,0.816605248025438,0.46761733,-0.13164146,-0.3100141,160.8358,-69.232155,-10.157139,WAL
6167325559000,3.024945,0.200901246064712,6.0290388961583,0.870928582850522,0.52473325,-0.24220806,-0.3436117,160.97821,-69.31145,-10.122025,WAL
6167330698000,3.030084,0.0692980443735627,6.10361417327748,0.919183078273465,0.58032197,-0.310625,-0.36102137,161.14488,-69.40513,-10.084562,WAL
6167335504000,3.03489,-0.00613063398175753,6.15520237698322,0.970503985234025,0.64934975,-0.33169982,-0.37232238,161.32648,-69.484795,-10.080733,WAL
6167340519000,3.039905,0.0038824353615136,6.17522860558741,1.03558896680913,0.68630713,-0.38789943,-0.3820962,161.53813,-69.566414,-10.070717,WAL
6167345465000,3.044851,0.0324736675330162,6.25530789214082,1.12602840917222,0.6969972,-0.41233405,-0.3585779,161.73894,-69.64845,-10.081983,WAL
6167350594000,3.04998,0.0885567609780209,6.42355695335871,1.25688896363463,0.7128797,-0.4728097,-0.32498032,161.9652,-69.738884,-10.083448,WAL
6167355514000,3.0549,0.156877218911565,6.55913527210884,1.3438366861678,0.7180721,-0.54244834,-0.27305678,162.21301,-69.818726,-10.069997,WAL
6167360558000,3.059944,0.256888430564922,6.64485940224785,1.35336155636399,0.7086037,-0.6010914,-0.21563543,162.47101,-69.9027,-10.040223,WAL
6167365454000,3.06484,0.357412175258427,6.76326313318352,1.35580328194757,0.689056,-0.63804877,-0.15851954,162.76625,-69.980576,-9.977065,WAL
6167370511000,3.069897,0.469871139035955,6.97367016780524,1.3412924571985,0.6603453,-0.68569624,-0.06352998,163.0721,-70.066154,-9.881295,WAL
6167375548000,3.074934,0.581885337285393,7.18324506070412,1.32683902151311,0.6606508,-0.72387534,0.029932396,163.39821,-70.172066,-9.74897,WAL
6167380627000,3.080013,0.763081340776386,7.53178984214404,1.23839372379812,0.6728681,-0.7498371,0.12583824,163.72545,-70.28587,-9.587573,WAL
6167385751000,3.085137,0.98453156482133,7.96113196349235,1.1073313552588,0.6719518,-0.782213,0.21624629,164.05725,-70.406586,-9.399507,WAL
6167390501000,3.089887,1.091756,8.26103825409047,1.00204373842156,0.68294734,-0.8258898,0.28955013,164.4115,-70.56994,-9.156521,WAL
6167395508000,3.094894,1.091756,8.46410366891241,0.90974135599615,0.68477994,-0.8323039,0.3707952,164.7563,-70.74014,-8.890167,WAL
6167400577000,3.099963,1.0810051090535,8.63519130098574,0.757369694554503,0.7049385,-0.8344419,0.45020768,165.12044,-70.98787,-8.5534725,WAL
6167405726000,3.105112,1.05268984691358,8.75317135457939,0.507251803537181,0.7535023,-0.7761043,0.52870387,165.46455,-71.24658,-8.204898,WAL
6167410474000,3.10986,0.99621207448037,8.78468052089019,0.272830413984884,0.83016586,-0.6814202,0.5665775,165.79185,-71.54198,-7.8547177,WAL
6167415471000,3.114857,0.860573529561201,8.62392357925677,0.0166241943145077,0.9126327,-0.573297,0.57940567,166.09763,-71.84936,-7.5024633,WAL
6167421136000,3.120522,0.720619313935274,8.44070483853835,-0.219417453055733,1.0531317,-0.473726,0.5720753,166.35915,-72.23125,-7.1695795,WAL
6167425529000,3.124915,0.625281202835493,8.29769761589123,-0.35050732937469,1.196685,-0.43249258,0.5552765,166.61107,-72.62602,-6.846228,WAL
6167430678000,3.130064,0.513536168905885,8.13007999936265,-0.504156720033992,1.3524556,-0.43371433,0.5152648,166.82376,-73.07654,-6.5756106,WAL
6167435495000,3.134881,0.353376203182002,7.97473439501419,-0.62701784492197,1.5137241,-0.45753807,0.4654793,167.03874,-73.55281,-6.31885,WAL
6167440481000,3.139867,0.14530484500608,7.81505203546818,-0.73831183742501,1.5787812,-0.53023106,0.4447099,167.27371,-74.03246,-6.06622,WAL
6167445476000,3.144862,-0.0293083810746321,7.76450873090656,-0.838323800906557,1.7342464,-0.6197228,0.42149702,167.49678,-74.58683,-5.8650336,WAL
6167450589000,3.149975,-0.182820847287294,7.79435826728207,-0.932136967282069,1.8820758,-0.71959925,0.41416663,167.7488,-75.14417,-5.662991,WAL
6167455779000,3.155165,-0.328876634094903,7.86584043163445,-0.991191084534271,2.021353,-0.77518797,0.42119157,167.99074,-75.73512,-5.5070353,WAL
6167460560000,3.159946,-0.445109270005858,8.00889586861941,-0.97777963731693,2.1398609,-0.7684685,0.41325033,168.2504,-76.34357,-5.3575892,WAL
6167465492000,3.164878,-0.535201734577622,8.19149787887625,-0.9672575,2.2311852,-0.73945236,0.35246924,168.50758,-76.97096,-5.257132,WAL
6167470480000,3.169866,-0.530558099076504,8.48869093885487,-0.9672575,2.313652,-0.6075055,0.28710666,168.74045,-77.60869,-5.1689034,WAL
6167475548000,3.174934,-0.666368628155728,8.90569399088656,-0.966530186865457,2.3273966,-0.3820962,0.21930063,168.93552,-78.22957,-5.126739,WAL
6167480729000,3.180115,-1.42794415033976,9.84179702118475,-0.962563650707491,2.284636,-0.029932396,0.10842858,169.0681,-78.82236,-5.1287675,WAL
6167485468000,3.184854,-2.12454835795028,10.6980394957231,-0.95893550655528,2.1697934,0.48624873,-0.047647487,169.10538,-79.378265,-5.176849,WAL
6167491316000,3.190702,-2.99385652544101,11.3296278218953,-0.733257434711833,1.9978348,1.2113458,-0.29443705,168.99559,-79.85383,-5.3046713,WAL
6167504393000,3.203779,-4.96793896289299,12.3929780850967,0.0365275019431681,1.7715092,3.3600643,-1.131017,168.36613,-80.13717,-5.720043,WAL
6167505264000,3.20465,-5.18290396145707,12.5449034712817,0.366224569496977,1.104139,3.7155879,-1.2861768,167.95317,-80.25212,-6.107686,WAL
6167506094000,3.20548,-5.38775005652963,12.6896773754534,0.6804020276711,1.104139,3.7155879,-1.2861768,167.01233,-80.08615,-6.958389,WAL
6167510477000,3.209863,-6.46948552002721,13.4541882453144,2.3394861230653,0.9618073,4.2730026,-1.4856243,165.81966,-79.62017,-7.9127755,WAL
6167515727000,3.215113,-7.76519877199214,14.3699267957981,4.32675317778114,0.75991637,4.5668287,-1.459968,164.6899,-79.15501,-8.762539,WAL
6167520555000,3.219941,-8.06890455013715,14.3733193027652,5.13539216969382,0.59956425,4.4785585,-1.2382239,163.50577,-78.64941,-9.589248,WAL
6167525553000,3.224939,-7.89503113674846,13.9155708274149,5.41217036066424,0.4279111,4.044844,-0.9477574,162.32988,-78.12178,-10.361073,WAL
6167530913000,3.230299,-7.70618398490169,13.4214329247187,5.70476429765535,0.2443461,3.3997705,-0.6743952,161.39346,-77.16831,-11.295141,WAL
6167540878000,3.240264,-6.27017814350282,11.1034897223816,4.3565954224598,0.049785517,1.8732183,-0.2507602,160.81741,-76.3556,-12.023585,WAL
6167541835000,3.241221,-6.11085602655367,10.9959472944807,4.25861233904389,0.049785517,1.8732183,-0.2507602,159.985,-75.59792,-12.749663,WAL
6167545602000,3.244988,-5.48372288700565,10.5726324293785,3.87292553107345,-0.23548855,1.4947872,-0.19333886,159.67612,-75.01079,-13.205122,WAL
6167550844000,3.25023,-4.61103058079096,9.98356512837896,3.33621986412864,-0.25534168,0.6966918,-0.03268129,159.48097,-74.50335,-13.603451,WAL
6167555412000,3.254798,-3.93842089834711,10.4855113878788,3.21998628369146,-0.17654006,-0.1695151,0.16065755,159.40594,-74.01051,-13.947587,WAL
6167560405000,3.259791,-3.23236283157025,11.3707188448485,3.20944811015978,-0.027794369,-0.92149025,0.29993483,159.51743,-73.56676,-14.223291,WAL
6167565366000,3.264752,-3.06426790014984,13.1283404017606,2.60271922421802,0.08582657,-1.2983941,0.36071593,159.79543,-73.26663,-14.348835,WAL
6167570342000,3.269728,-2.96608542732722,15.0071951460948,1.9154420542611,0.1414153,-1.2479976,0.30085114,160.15616,-72.99228,-14.448701,WAL
6167575408000,3.274794,-3.04715100770608,16.2579184931888,0.866124400127274,0.05955936,-0.8384125,0.11301007,160.53716,-72.84766,-14.427729,WAL
6167580398000,3.279784,-3.18970325569255,17.2605363643234,-0.288548818486626,-0.20952678,-0.23671028,-0.1704314,160.84874,-72.6477,-14.460318,WAL
6167585372000,3.284758,-3.4977326216061,17.792439316566,-1.58850677485494,-0.5002986,0.38820487,-0.43585235,160.98303,-72.57963,-14.464624,WAL
6167590371000,3.289757,-3.86749274727201,18.1574583864739,-2.94903452575503,-0.6053675,0.8335256,-0.6123924,161.00299,-72.45396,-14.543873,WAL
6167595366000,3.294752,-3.02741944459873,16.6781545235143,-2.5555178414993,-0.52320606,0.98563105,-0.6603453,160.84418,-72.40516,-14.66436,WAL
6167600574000,3.29996,-1.63819592602694,14.3531632554757,-1.40126680852137,-0.4279111,0.93492925,-0.57451874,160.61676,-72.33102,-14.805635,WAL
6167605445000,3.304831,-0.528347645395197,12.5359636801119,-0.257676187059921,-0.45234573,0.8268061,-0.43982297,160.24185,-72.3149,-14.994789,WAL
6167610557000,3.309943,0.202178052343204,11.4477848701329,1.08923060911634,-0.59528816,0.514654,-0.35002577,159.94092,-72.297195,-15.155537,WAL
6167615421000,3.314807,0.897263536263309,10.4123972074299,2.37079450907749,-0.86834496,0.040927973,-0.2959642,159.90198,-72.27248,-15.142848,WAL
6167620447000,3.319833,1.5453683380329,9.56597835091474,2.65280607880161,-1.1777482,-0.38453966,-0.25045475,159.93764,-72.24126,-15.0947,WAL
6167625483000,3.324869,2.16866758341725,8.80102005165324,2.5475737112286,-1.3716979,-0.53786683,-0.1600467,160.02875,-72.21059,-15.0090275,WAL
6167630496000,3.329882,2.80714375388766,8.02399640620484,2.07724808875422,-1.4150693,-0.50823987,-0.03390302,160.40485,-72.08571,-14.805458,WAL
6167635559000,3.334945,3.48453754361692,7.21112417072936,0.942029687398593,-1.2834278,-0.33169982,0.04795292,160.78233,-71.96128,-14.585734,WAL
6167640458000,3.339844,4.20263092298436,6.42059688615031,-0.0782655788753966,-1.1609493,-0.12522738,0.23487769,161.14937,-71.94895,-14.214676,WAL
6167645439000,3.344825,5.09498996004814,5.60651496429275,-0.913221443530248,-0.8863655,0.03970624,0.4615087,161.47182,-72.001045,-13.814846,WAL
6167650664000,3.35005,5.83852980403376,5.12034093348641,-1.24532001045675,-0.6264423,0.15699236,0.6924158,161.71033,-72.235016,-13.311378,WAL
6167655549000,3.354935,6.32917633621075,5.05646972522031,-0.978222570792479,-0.3622431,0.17440203,0.90408057,161.92328,-72.55615,-12.753154,WAL
6167660532000,3.359918,6.82966593085516,4.99131717029912,-0.70576677921683,-0.14782938,0.15607607,1.0751228,162.08638,-73.08308,-12.042287,WAL
6167665516000,3.364902,7.21430440291923,5.08561413196753,-0.331746908135882,0.044898596,0.08827003,1.2189816,162.25206,-73.6853,-11.277064,WAL
6167670491000,3.369877,7.22677847135096,5.69060536004058,0.366799572669852,0.13836098,-0.106595986,1.3219124,162.45593,-74.3236,-10.4674015,WAL
6167678495000,3.377881,7.24684730426103,6.66394200114544,1.49065204148776,0.13775012,-0.68752885,1.3942999,162.84842,-75.02957,-9.458862,WAL
6167680543000,3.379929,7.16002473060345,7.12838007940981,1.49760008977951,-0.025045475,-0.85062987,1.4141531,163.1699,-75.69702,-8.451731,WAL
6167685538000,3.384924,6.68023560344828,8.88892794827586,0.696630102586207,-0.11148291,-1.0491611,1.4581354,163.65703,-76.35655,-7.385009,WAL
6167690501000,3.389887,6.20352020043103,10.638197031996,-0.099208545349801,-0.31581733,-1.0387764,1.4691309,164.17613,-76.79274,-6.3017764,WAL
6167695488000,3.394874,5.75592061513306,11.2999035331196,-0.462965985636422,-0.5717699,-0.86620694,1.4514158,164.69301,-77.120186,-5.221765,WAL
6167700676000,3.400062,5.30033370881693,11.6376112284065,-0.701910228919526,-0.8249735,-0.65179324,1.4043792,165.18588,-77.31081,-4.1592846,WAL
6167705572000,3.404958,4.8703889336967,11.9563114743828,-0.927405798525168,-1.0671816,-0.46578476,1.3521502,165.67726,-77.50493,-3.2646441,WAL
6167710550000,3.409936,4.23500210901968,12.2228931025225,-1.15867921415058,-1.2492194,-0.3051272,1.3017539,166.12138,-77.58031,-2.4125712,WAL
6167715537000,3.414923,3.4957467831072,12.4601853884961,-1.39140767561628,-1.3603969,-0.15485434,1.2382239,166.52357,-77.54789,-1.6065043,WAL
6167720490000,3.419876,2.7860654743083,12.5736462657472,-1.4451675371962,-1.3500122,-0.09315695,1.1585059,166.87605,-77.50622,-0.95885116,WAL
6167725545000,3.424931,2.08174613043478,12.5899310092507,-1.35560089528215,-1.2794572,-0.15118915,1.1212431,167.2263,-77.418106,-0.3317676,WAL
6167730587000,3.429973,1.27942799555608,12.5215689460773,-1.21116009168744,-1.1859949,-0.23335053,1.1652255,167.47227,-77.35718,0.18002954,WAL
6167735546000,3.434932,0.073439422572302,12.1009618717768,-0.838941430582334,-1.0830641,-0.43463063,1.2104294,167.77437,-77.2996,0.68382454,WAL
6167740447000,3.439833,-1.11844402090289,11.6852741784623,-0.47107620411004,-1.0082331,-0.6310238,1.3414601,168.01161,-77.23542,1.0939736,WAL
6167746193000,3.445579,-1.98588350981758,11.4241331731343,-0.334683201140962,-0.8536842,-0.7611381,1.4804319,168.28711,-77.20928,1.5209106,WAL
6167750542000,3.449928,-2.43829555527363,11.3136198902985,-0.345043781288557,-0.70280045,-0.87995136,1.5931365,168.612,-77.185326,1.9814624,WAL
6167755609000,3.454995,-2.93424601823628,11.2126591794872,-0.382835903115265,-0.59589905,-0.8894198,1.6530013,168.80093,-77.12717,2.203604,WAL
6167760555000,3.459941,-3.31638960758048,11.2050922222222,-0.503911106936656,-0.5519168,-0.79168135,1.6371188,168.99341,-77.08932,2.4327517,WAL
6167765450000,3.464836,-3.69459277576484,11.1976032905983,-0.623737860415369,-0.52106804,-0.63529986,1.5512923,169.12108,-77.0834,2.5447495,WAL
6167770515000,3.469901,-3.87339028491159,11.1109855205751,-0.908084186357627,-0.5207626,-0.37568212,1.3805555,169.20108,-77.085945,2.613873,WAL
6167775538000,3.474924,-3.96083813326723,10.9917384546356,-1.25787578730788,-0.4999932,-0.035124753,1.1578951,169.22536,-77.1101,2.6281374,WAL
6167780764000,3.48015,-3.88790962187798,10.7374629551954,-1.6585768948999,-0.45051312,0.28771752,0.93554014,169.15793,-77.17987,2.4948776,WAL
6167785536000,3.484922,-3.51033937570702,10.2582393663807,-2.09423490624404,-0.37507126,0.60231316,0.70952,169.01208,-77.27182,2.2806451,WAL
6167790445000,3.489831,-3.12192941375119,9.76525768207817,-2.54240028295996,-0.24709499,0.8872818,0.50793445,168.7907,-77.44745,1.9858645,WAL
6167795495000,3.494881,-2.78137124241896,9.5418032350004,-2.39621393076801,-0.050701816,1.0574077,0.37751472,168.52147,-77.66144,1.6411171,WAL
6167800564000,3.49995,-2.4581751048823,9.40713785963383,-2.05762747035745,0.16157386,1.0714576,0.3032946,168.22319,-77.90976,1.2547154,WAL
6167805709000,3.505095,-2.14649379622671,9.26171404883076,-1.70521594457233,0.35033122,0.9462303,0.26816985,167.96555,-78.25604,0.9455451,WAL
6167810542000,3.509928,-1.8933312952279,9.10394600293301,-1.35298987754736,0.5311473,0.7293731,0.2733622,167.72858,-78.64931,0.63561416,WAL
6167815460000,3.514846,-1.63571631904082,8.94340322417757,-0.994569062809354,0.66798115,0.5458081,0.28160888,167.53284,-79.002365,0.39590603,WAL
6167820526000,3.519912,-1.32045060811699,8.93122007854091,-0.584204115668748,0.7870999,0.33322698,0.30848694,167.40334,-79.39138,0.17936486,WAL
6167825543000,3.524929,-0.988875297518896,8.97858810959579,-0.161840328935261,0.84665924,0.13133603,0.34300083,167.32027,-79.79121,-0.0208483,WAL
6167830522000,3.529908,-0.535302889521029,9.1035999033378,0.21373063084826,0.86101454,0.047647487,0.37904188,167.27977,-80.12626,-0.15394282,WAL
6167835533000,3.534919,0.222045447439438,9.41789948709856,0.486376028990768,0.8503244,-0.0852157,0.44501534,167.30643,-80.46264,-0.25515407,WAL
6167840457000,3.539843,0.966244850990294,9.72674226307899,0.754287811160735,0.7965683,-0.1554652,0.5186246,167.36221,-80.70027,-0.28098533,WAL
6167845488000,3.544874,1.15059457889859,9.83398007033802,0.938391752448158,0.7119634,-0.15118915,0.61636305,167.43042,-80.92058,-0.27864295,WAL
6167850620000,3.550006,1.13939485137866,9.87131249540448,1.09518807026662,0.6178902,-0.1337795,0.71685034,167.51157,-81.11772,-0.25250268,WAL
6167855592000,3.554978,1.08583894889878,9.88462047075006,1.25387594393559,0.55833083,-0.21105394,0.7696902,167.6948,-81.244415,-0.05173442,WAL
6167860532000,3.559918,0.771948431025164,9.75829892693584,1.45292844543248,0.50671273,-0.34300083,0.752586,167.88799,-81.33864,0.15478934,WAL
6167865525000,3.564911,0.454690261846428,9.6306221114977,1.65411653044745,0.4633413,-0.41233405,0.70402217,168.07852,-81.36908,0.3546227,WAL
6167870479000,3.569865,-0.00529873377389051,9.36384340524781,1.41876963070943,0.40011674,-0.3820962,0.63132924,168.28079,-81.37435,0.5403164,WAL
6167875539000,3.574925,-0.554716443232912,9.01457063556851,0.93999134888241,0.34269542,-0.24587326,0.5626069,168.47527,-81.36552,0.7085246,WAL
6167880487000,3.579873,-1.00224107366255,8.73494132784636,0.525082265130316,0.30115658,-0.033292156,0.4886922,168.59605,-81.29013,0.7758691,WAL
6167886067000,3.585453,-1.04171246397594,8.74058020723858,0.333364228283212,0.29352075,0.19150625,0.408058,168.67908,-81.211975,0.8150145,WAL
6167890469000,3.589855,-1.03612532374187,8.76380010963455,0.241372047961866,0.29901853,0.40103304,0.34574974,168.64154,-81.23521,0.7413533,WAL
6167895490000,3.594876,-0.938885376231403,8.83672971760797,0.283046304446049,0.3042109,0.5873469,0.30634892,168.54941,-81.25649,0.64338654,WAL
6167903233000,3.602619,-0.779363186046063,8.95666916426542,0.352520932755682,0.3408628,0.7324274,0.2770274,168.4089,-81.31683,0.5235764,WAL
6167905559000,3.604945,-0.6618374222778,9.04707377039367,0.411283820539773,0.37018433,0.74464476,0.27152961,168.2539,-81.37454,0.39822152,WAL
6167910527000,3.609913,-0.410819367935268,9.24016494977679,0.5367928603125,0.3915646,0.7318166,0.29016098,168.07634,-81.43115,0.29048705,WAL
6167915524000,3.61491,-0.131580077255828,9.42079176748303,0.640252912953674,0.41508293,0.70463306,0.30940324,167.90001,-81.494675,0.18262503,WAL
6167920508000,3.619894,0.168879404376906,9.58980020261631,0.724757110911773,0.408058,0.6365216,0.33933565,167.73811,-81.553185,0.0864032,WAL
6167925522000,3.624908,0.416666641722666,9.70002017412289,0.756996140467793,0.39400807,0.6001751,0.35735616,167.58206,-81.598236,0.042616963,WAL
6167930655000,3.630041,0.617422245104882,9.7547718565064,0.738745643196584,0.3885103,0.50335294,0.3717115,167.46236,-81.64254,0.011695417,WAL
6167935519000,3.634905,0.749938768403204,9.7731829939665,0.711734150639759,0.37415496,0.42638394,0.37659842,167.36824,-81.66595,0.038493242,WAL
6167940526000,3.639912,0.784855814447103,9.73327752168938,0.666840793820868,0.35918877,0.34605515,0.38362336,167.30327,-81.68679,0.07299254,WAL
6167945489000,3.644875,0.799031800035487,9.71765693934415,0.621321174893211,0.35155296,0.29901853,0.38881573,167.26524,-81.71409,0.15135503,WAL
6167950543000,3.649929,0.786308865683118,9.73356058237497,0.573610229194322,0.3268129,0.25961772,0.40042216,167.24867,-81.73047,0.23453353,WAL
6167955771000,3.655157,0.773147903911415,9.75001175882237,0.524256682673983,0.30573806,0.24801129,0.42546764,167.24318,-81.7542,0.32918707,WAL
6167960710000,3.660096,0.720786854109159,9.77604522992472,0.485034617769762,0.26175576,0.25442538,0.4654793,167.24388,-81.76196,0.43016592,WAL
6167965521000,3.664907,0.619620588749477,9.81458504224174,0.456129959744877,0.23579398,0.2837469,0.5015204,167.24182,-81.76661,0.5344726,WAL
6167970479000,3.669865,0.491543239189356,9.86512615857054,0.451031439085705,0.20066923,0.32650748,0.5558874,167.22261,-81.774994,0.658475,WAL
6167975504000,3.67489,0.335201574043936,9.92840703148205,0.473365966564821,0.16584991,0.3585779,0.61422503,167.1979,-81.77256,0.790222,WAL
6167980567000,3.679953,0.177677623669554,9.99216644631807,0.495869391963181,0.12950343,0.37690386,0.6597345,167.15222,-81.76845,0.9161762,WAL
6167985541000,3.684927,-0.0255648433599067,10.0274882407155,0.443575788320047,0.093767814,0.39370266,0.6976081,167.0975,-81.75087,1.0519695,WAL
6167990448000,3.689834,-0.231155224678203,10.0594691337741,0.384183012660898,0.06566802,0.4092797,0.7296785,167.03812,-81.72167,1.1947947,WAL
6167995510000,3.694896,-0.448244328988242,10.0477955256931,0.286353331113369,0.03023783,0.45540005,0.75228053,166.93565,-81.68276,1.3112433,WAL
6168000549000,3.699935,-0.665399701175788,10.0267804306866,0.181278148663086,-0.002443461,0.4886922,0.75625116,166.83366,-81.63548,1.4279877,WAL
6168005527000,3.704913,-0.888894050561678,10.0030519472558,0.073342949782818,-0.03573562,0.5204572,0.7602218,166.69823,-81.59458,1.5100489,WAL
6168010517000,3.709903,-1.2109931852573,9.94681234631433,-0.0800375956328234,-0.058643065,0.52564955,0.75411314,166.56276,-81.54832,1.5873173,WAL
6168015553000,3.714939,-1.5144349225979,9.8610414457903,-0.236244027919299,-0.06536258,0.5009095,0.75533485,166.39413,-81.52926,1.6184851,WAL
6168020542000,3.719928,-1.73811458918035,9.6728667612395,-0.396015219924203,-0.07269296,0.45937067,0.76174897,166.22997,-81.5046,1.6480228,WAL
6168025519000,3.724905,-1.96125624093037,9.48514469168462,-0.555402115616408,-0.06780604,0.43860126,0.75961095,166.04102,-81.515564,1.6232125,WAL
6168030565000,3.729951,-2.07120528171334,9.36608177347611,-0.676525657355848,-0.069027774,0.40103304,0.7535023,165.86891,-81.522934,1.6006527,WAL
6168035601000,3.734987,-2.07617117594728,9.31145631466227,-0.760945931927512,-0.030848695,0.42577308,0.7504479,165.6854,-81.54303,1.5758555,WAL
6168040522000,3.739908,-2.078167,9.31773917264989,-0.663958567006847,0.003970624,0.44409904,0.7611381,165.48671,-81.597046,1.5034119,WAL
6168045508000,3.744894,-2.078167,9.36633791025167,-0.438639552397298,0.042760566,0.408058,0.75533485,165.29675,-81.66288,1.4265974,WAL
6168050567000,3.749953,-2.0762711844898,9.38916053367347,-0.243895863226531,0.02687807,0.30757064,0.7486154,165.11336,-81.73903,1.3612915,WAL
6168055704000,3.75509,-2.07170754612245,9.37546957091837,-0.0932956889316327,-0.017104227,0.16035213,0.74067414,164.95335,-81.816574,1.2970333,WAL
6168060455000,3.759841,-2.05039564727718,9.35156174383031,0.0107897780681216,-0.08857546,-0.03023783,0.75228053,164.82991,-81.84501,1.2398422,WAL
6168065482000,3.764868,-1.97675312188456,9.29264726213543,0.0156992833494799,-0.18020524,-0.2657264,0.7464773,164.7613,-81.85546,1.1833652,WAL
6168071238000,3.770624,-1.86730648466315,9.25422830902084,-0.030894976696974,-0.2770274,-0.5537493,0.72784597,164.75774,-81.82301,1.1384416,WAL
6168076661000,3.776047,-1.72646070175564,9.26164139366258,-0.153208409481873,-0.3594942,-0.88300574,0.6899723,164.83215,-81.77012,1.0982668,WAL
6168080497000,3.779883,-1.62683237366543,9.26688509506138,-0.23972773977191,-0.4120286,-1.1890492,0.6426302,164.97667,-81.69394,1.0795507,WAL
6168085487000,3.784873,-1.48737174765682,9.34645167571235,-0.412262490126292,-0.41325033,-1.4850134,0.58459806,165.21092,-81.61227,1.0614341,WAL
6168090492000,3.789878,-1.33728746407473,9.50153876526459,-0.647394516991963,-0.38789943,-1.7159204,0.5112942,165.5125,-81.52704,1.0375574,WAL
6168095467000,3.794853,-1.28614905220555,9.69654085675307,-0.786778865511596,-0.35094208,-1.9385809,0.43860126,165.90366,-81.47351,1.0560745,WAL
6168100578000,3.799964,-1.30840786394725,9.92803220136426,-0.858006988709413,-0.32559118,-2.1450534,0.37293324,166.3539,-81.426605,1.0666502,WAL
6168105943000,3.805329,-1.40126811500643,10.1183363996439,-0.875876634850134,-0.33628133,-2.300824,0.3032946,166.86456,-81.41997,1.0981555,WAL
6168110514000,3.8099,-1.55716096444752,10.2222648152142,-0.828242695569295,-0.38087448,-2.4318545,0.20341812,167.4254,-81.41309,1.1116654,WAL
6168115454000,3.81484,-1.77975990797788,10.278632878357,-0.766936939182464,-0.4175264,-2.5357015,0.058948494,168.01733,-81.42829,1.0987527,WAL
6168120473000,3.819859,-2.10722369079779,10.2311743878357,-0.686257435918247,-0.43585235,-2.581211,-0.07269296,168.62692,-81.43717,1.0670408,WAL
6168125543000,3.824929,-2.35694758722191,10.2187729083357,-0.66070728046677,-0.4373795,-2.658791,-0.12064589,169.24686,-81.43433,0.9946901,WAL
6168130638000,3.830024,-2.44626328874965,10.2771717093776,-0.746587720212616,-0.39920044,-2.631913,-0.19425514,169.84885,-81.43902,0.881038,WAL
6168135560000,3.834946,-2.53254628834131,10.3335875874402,-0.829552101847367,-0.34513888,-2.5024095,-0.23457226,170.38084,-81.42877,0.71060926,WAL
6168141358000,3.840744,-2.3059687571609,10.378783526781,-0.674682651625802,-0.2742785,-2.137723,-0.2556471,170.83214,-81.42931,0.521691,WAL
6168145510000,3.844896,-1.96704470656635,10.39970474829,-0.427812071792066,-0.17898351,-2.0073032,-0.24923302,171.30534,-81.4462,0.34132788,WAL
6168150612000,3.849998,-1.54815776256384,10.3988997502364,-0.142890419111973,-0.1572978,-1.749518,-0.26267207,171.61803,-81.4707,0.11255348,WAL
6168155793000,3.855179,-1.12114936078116,10.3801302621524,0.1339611666446,-0.13683382,-1.4834863,-0.3359759,171.88643,-81.51265,-0.13001318,WAL
6168160510000,3.859896,-0.670733170687393,10.4639023209852,0.422264955303321,-0.12095132,-1.2513574,-0.4016439,172.13397,-81.5166,-0.3051632,WAL
6168165468000,3.864854,-0.133944793650954,10.6556123215908,0.762550446596346,-0.12522738,-1.0363328,-0.44593164,172.30835,-81.514946,-0.4996869,WAL
6168170457000,3.869843,0.246601891697451,10.8233872332841,0.957830132863871,-0.15668693,-0.8405506,-0.4792238,172.48228,-81.47587,-0.6339382,WAL
6168175539000,3.874925,0.462350692277429,10.9672198483561,0.998283026519209,-0.23793201,-0.6026186,-0.54183745,172.58347,-81.41787,-0.7952787,WAL
6168180632000,3.880018,0.670202910598897,11.0678983676123,0.964540642395587,-0.3539964,-0.33078352,-0.5861252,172.6848,-81.303955,-0.8653855,WAL
6168185533000,3.884919,0.855135647622143,11.0863915322104,0.798101195488574,-0.4905248,-0.09468412,-0.61086524,172.73024,-81.16257,-0.95336556,WAL
6168190464000,3.88985,1.07566903808883,11.1095964121545,0.643962190112848,-0.5888741,0.090713486,-0.6249151,172.74762,-81.0064,-1.0150313,WAL
6168195478000,3.894864,1.38389169757739,11.1443954097733,0.519678839579667,-0.6093381,0.23060162,-0.6001751,172.71182,-80.83903,-1.0791281,WAL
6168200569000,3.899955,1.67400604265814,11.1501726083251,0.449469571099639,-0.6044512,0.34666604,-0.537256,172.66348,-80.69274,-1.1090664,WAL
6168205637000,3.905023,1.92455680840708,11.1064260176991,0.473331549778761,-0.5662721,0.4352415,-0.45265114,172.58272,-80.55613,-1.1303738,WAL
6168211195000,3.910581,2.19036080866426,11.0604217369778,0.5185403746175,-0.52198434,0.4792238,-0.3933972,172.52612,-80.45284,-1.0923194,WAL
6168215479000,3.914865,2.28204923465704,11.0498420907684,0.793605634184287,-0.5222898,0.45937067,-0.32406402,172.45966,-80.35297,-1.0305372,WAL
6168220447000,3.919833,2.38837698916968,11.0375732573492,1.11258887637098,-0.54825157,0.40744713,-0.28955013,172.44148,-80.26067,-0.9136463,WAL
6168226223000,3.925609,2.47408489964098,10.993874873925,1.52413800249645,-0.5580254,0.38637227,-0.18478674,172.41504,-80.176254,-0.7616653,WAL
6168230810000,3.930196,2.52543348651582,10.9461941253235,1.86890786818068,-0.5720753,0.4089743,-0.16035213,172.3946,-80.081795,-0.6261398,WAL
6168235559000,3.934945,2.52248865857402,10.9190067955108,2.2198276997937,-0.58062744,0.49632803,-0.106595986,172.36978,-79.92784,-0.43213925,WAL
6168240470000,3.939856,2.32066925340815,10.9694614644331,2.56136829707873,-0.6059783,0.6010914,-0.105068825,172.33772,-79.76522,-0.25389776,WAL
6168245470000,3.944856,2.11519235953128,11.0208305022281,2.90909849183033,-0.68111473,0.68539083,-0.13744467,172.301,-79.514015,-0.06520441,WAL
6168251863000,3.951249,1.88351193056959,11.0054906782269,3.18460935372072,-0.77732605,0.81061816,-0.2302962,172.23117,-79.25471,0.09194675,WAL
6168255544000,3.95493,1.75396769977033,10.9865989926504,3.322250093661,-0.9837985,0.8567385,-0.25625798,172.16306,-78.948555,0.25165913,WAL
6168260554000,3.95994,1.58253088733833,10.9133419550715,3.41205734023145,-1.0677924,1.0204504,-0.33567044,172.02573,-78.60736,0.30100656,WAL
6168265537000,3.964923,1.434541327774,10.6209720340368,3.05110711497617,-1.2281445,1.2281445,-0.4269948,171.86977,-78.19853,0.3300758,WAL
6168270493000,3.969879,1.28735363818924,10.3301862968005,2.69211267059224,-1.3625349,1.4220943,-0.49877146,171.67418,-77.76287,0.28010464,WAL
6168276933000,3.976319,1.11270812488942,10.0933170646885,2.4115832193697,-1.4566082,1.5467108,-0.56505036,171.44936,-77.30757,0.19614077,WAL
6168281096000,3.980482,1.006167452723,9.99412434454478,2.3013687917711,-1.4984524,1.6145169,-0.6398814,171.19633,-76.84367,0.08010107,WAL
6168285494000,3.98488,0.901459918383743,9.94703486483932,2.17491275708885,-1.5302174,1.6297885,-0.73456544,170.91386,-76.423164,-0.10970357,WAL
6168290473000,3.989859,0.796299093131695,9.99210365175383,2.01466770497795,-1.5748106,1.629483,-0.8344419,170.6278,-76.00019,-0.32384488,WAL
6168295470000,3.994856,0.705306098506925,10.0454344483969,1.86674240721874,-1.6438384,1.6218473,-0.9221011,170.3424,-75.58973,-0.5935848,WAL
6168301729000,4.001115,0.614331005095807,10.1250375052172,1.70184993686208,-1.7107282,1.5906931,-1.0112875,170.0744,-75.177536,-0.8858552,WAL
6168305808000,4.005194,0.552508305456878,10.2006902960315,1.62433291679956,-1.7687603,1.5662584,-1.1047498,169.79501,-74.764305,-1.2200692,WAL
6168310520000,4.009906,0.478063559538081,10.3164933857575,1.5705672736871,-1.7913623,1.5436565,-1.1731668,169.53114,-74.35067,-1.5644096,WAL
6168315539000,4.014925,0.420413549860299,10.4375705439909,1.5555900807094,-1.777007,1.5332718,-1.2275337,169.26291,-73.94842,-1.9416782,WAL
6168320508000,4.019894,0.472277079964332,10.5460124580402,1.75361455252155,-1.7342464,1.5238034,-1.2611313,169.00584,-73.55478,-2.3237178,WAL
6168325516000,4.024902,0.517660456886237,10.6665040056277,1.98648788357758,-1.7058412,1.4840971,-1.3322971,168.75572,-73.16724,-2.7415318,WAL
6168330575000,4.029961,0.521320325049101,10.8568159195498,2.42566961731379,-1.6291776,1.42973,-1.4001031,168.51535,-72.81033,-3.1578867,WAL
6168335570000,4.034956,0.52493389323916,11.0447202504532,2.85929538525457,-1.5604553,1.2910637,-1.4514158,168.33414,-72.44788,-3.558049,WAL
6168340499000,4.039885,0.524381267952144,11.3182461351944,3.19834031836491,-1.5149459,1.0772609,-1.5180001,168.19489,-72.10221,-3.9608355,WAL
6168345466000,4.044852,0.519638669385842,11.683424134995,3.44969666568295,-1.4514158,0.84207773,-1.5460999,168.09924,-71.78583,-4.343946,WAL
6168350614000,4.05,0.411921174555683,11.9262090215025,3.54062176092366,-1.3405437,0.5757405,-1.5149459,168.10443,-71.44728,-4.6847997,WAL
6168355753000,4.055139,0.19894035847914,12.0293716057881,3.45742614973291,-1.1691961,0.24220806,-1.4676038,168.18973,-71.1511,-4.9918485,WAL
6168360496000,4.059882,0.00237137411427409,12.1245847089729,3.38064140875651,-0.9868528,-0.10995574,-1.4135422,168.35739,-70.87669,-5.245001,WAL
6168365475000,4.064861,-0.293837367815301,12.0368542002512,3.15389829070711,-0.78038037,-0.44593164,-1.3497068,168.60074,-70.667984,-5.4456334,WAL
6168370468000,4.069854,-0.672604136850077,11.7781842917311,2.79360790595054,-0.6087272,-0.7501425,-1.3100005,168.92183,-70.50782,-5.601834,WAL
6168375492000,4.074878,-1.00641656749838,11.5468615657175,2.49422569871997,-0.45448375,-0.91996306,-1.2767084,169.23257,-70.40662,-5.7793427,WAL
6168380718000,4.080104,-1.29423775403024,11.3426011186346,2.26211184955941,-0.35613444,-0.9682214,-1.255328,169.58307,-70.34025,-5.9256415,WAL
6168385456000,4.084842,-1.5565732324697,11.1429131804221,2.02013202070623,-0.31612277,-0.9294315,-1.212873,169.8678,-70.298294,-6.131103,WAL
6168390476000,4.089862,-1.83783441341412,10.8968099355412,1.68864556145006,-0.33322698,-0.8313876,-1.1679744,170.14113,-70.26709,-6.3225894,WAL
6168396325000,4.095711,-2.10978859119497,10.6621779685535,1.42176426289308,-0.35246924,-0.67256266,-1.1520919,170.33008,-70.233864,-6.579716,WAL
6168400560000,4.099946,-2.26139297243978,10.5346377297377,1.3255075424113,-0.35735616,-0.45540005,-1.1545353,170.4692,-70.19879,-6.834715,WAL
6168405605000,4.104991,-2.44199370523318,10.3827037262371,1.21084044563902,-0.32253686,-0.30268374,-1.1734722,170.52583,-70.15788,-7.1529546,WAL
6168410727000,4.110113,-2.62723572752483,10.2169528211015,1.09832869733007,-0.2602286,-0.258396,-1.2165382,170.55188,-70.115265,-7.4784665,WAL
6168415520000,4.114906,-2.82853270162518,9.89132556300787,1.05096467069521,-0.15088372,-0.2602286,-1.2611313,170.54768,-70.08667,-7.809521,WAL
6168420519000,4.119905,-2.82507196277708,9.62873351600879,1.2263552299341,-0.08368854,-0.3286455,-1.2819008,170.50401,-70.037285,-8.206518,WAL
6168425518000,4.124904,-2.57969267196299,9.45346238008387,1.65656564937096,0.02076942,-0.47342056,-1.3075571,170.48306,-70.0117,-8.598454,WAL
6168430655000,4.130041,-2.3275395579578,9.27335279311722,2.09865225162085,0.06169739,-0.7122689,-1.3170254,170.4879,-69.946396,-9.005086,WAL
6168435515000,4.134901,-2.09742050926684,9.14701179047265,2.3485415561965,0.082161374,-0.9957104,-1.323745,170.54332,-69.89108,-9.38923,WAL
6168440539000,4.139925,-1.86911682366952,9.06643427205061,2.41568973751396,0.11362094,-1.2498302,-1.3151928,170.65208,-69.84208,-9.741832,WAL
6168445507000,4.144893,-1.64950869869999,9.01478621031946,2.36939924034062,0.11881329,-1.4419475,-1.2938126,170.93198,-69.73641,-9.984758,WAL
6168450949000,4.150335,-1.42366674070342,9.02529070170311,2.04901872452887,0.13500121,-1.5650368,-1.2608259,171.2557,-69.64496,-10.196305,WAL
6168455527000,4.154913,-1.25727852331857,9.01420039194603,1.75158945225596,0.14172074,-1.5968018,-1.205848,171.64764,-69.55182,-10.335255,WAL
