timestamp,rel_time,acc_x,acc_y,acc_z,gyro_x,gyro_y,gyro_z,azimuth,pitch,roll,label
45778318286000,0,-1.52786740945482,9.72341295272592,-0.42869580581838,-0.031154128,-0.0070249503,-0.005497787,58.026363,-45.76488,-4.3391857,STD
45778323260000,0.004974,-1.52762743704547,9.72461281477265,-0.420776710546695,-0.042760566,-0.0061086523,-0.012217305,57.898933,-46.483673,-4.409048,STD
45778328284000,0.009998,-1.52738505236824,9.72582473815881,-0.412778010376822,-0.03726278,-0.007330383,-0.004886922,57.769382,-47.19892,-4.47607,STD
45778333269000,0.014983,-1.52714454925996,9.72702725370021,-0.404841402027536,-0.04337143,-0.011301007,-0.013133603,57.648056,-47.896748,-4.545678,STD
45778338247000,0.019961,-1.52690438386918,9.7282280806541,-0.396915938363996,-0.043676864,-0.014966198,-0.016798794,57.52794,-48.58808,-4.61091,STD
45778343356000,0.02507,-1.52665789833654,9.7294605083173,-0.388781909867205,-0.04337143,-0.018936822,-0.02076942,57.413513,-49.26752,-4.6755104,STD
45778348268000,0.029982,-1.52642091713937,9.73064541430313,-0.380961524669273,-0.04062254,-0.016493361,-0.014049901,57.30015,-49.937828,-4.7374487,STD
45778353246000,0.03496,-1.5261807517486,9.73184624125702,-0.373036061005733,-0.03726278,-0.018020526,-0.009773844,57.19257,-50.598213,-4.797708,STD
45778358239000,0.039953,-1.52593986267745,9.73305068661273,-0.365086715872737,-0.051923547,-0.019547688,-0.01038471,57.08682,-51.244396,-4.8564525,STD
45778363273000,0.044987,-1.52569699554664,9.73426502226678,-0.357072094723227,-0.042455133,-0.022602014,-0.011911872,56.983765,-51.888626,-4.912396,STD
45778368276000,0.04999,-1.52545562402192,9.73547187989038,-0.349106828610593,-0.04795292,-0.023823744,-0.0143553335,56.883423,-52.514614,-4.9672666,STD
45778373263000,0.054977,-1.52521502442293,9.73667487788536,-0.34116703606538,-0.04337143,-0.032375857,-0.009162978,56.7868,-53.13665,-5.0174985,STD
45778378279000,0.059993,-1.52497302570856,9.73788487145722,-0.333181072679217,-0.0421497,-0.03268129,-0.007330383,56.69187,-53.74627,-5.068843,STD
45778383273000,0.064987,-1.52473208839206,9.73908955803972,-0.325230135448257,-0.045814894,-0.0421497,-0.010995574,56.603333,-54.34616,-5.115952,STD
45778388255000,0.069969,-1.52449173001985,9.74029134990076,-0.317298303392863,-0.036957346,-0.034513887,-0.0061086523,56.511265,-54.94085,-5.1621103,STD
45778393335000,0.075049,-1.52424664360258,9.74151678198708,-0.30921044573702,-0.041233405,-0.040927973,0.00061086525,56.427155,-55.521248,-5.203565,STD
45778398271000,0.079985,-1.52400850451683,9.74270747741584,-0.301351850187958,-0.035124753,-0.030848695,0.0067195175,56.33861,-56.097862,-5.2466164,STD
45778403271000,0.084985,-1.52376727772818,9.74391361135908,-0.293391360369215,-0.027488936,-0.03390302,0.0012217305,56.25745,-56.664135,-5.286539,STD
45778408309000,0.090023,-1.52352421761594,9.74512891192028,-0.285370370827851,-0.03390302,-0.01863139,0.0018325958,56.1694,-57.219475,-5.3267603,STD
45778413285000,0.094999,-1.52328414871588,9.74632925642059,-0.277448091360238,-0.025350908,-0.0076358155,0.009773844,56.08462,-57.77207,-5.3641443,STD
45778418269000,0.099983,-1.52304369385296,9.74753153073521,-0.269513075108916,-0.024129177,-0.004581489,0.006414085,56.0014,-58.311146,-5.4039874,STD
45778423257000,0.104971,-1.5228030460086,9.74873476995698,-0.261571690465738,-0.022907447,0.0018325958,0.011911872,55.913773,-58.844433,-5.4406133,STD
45778428275000,0.109989,-1.52346174514747,9.74963873554128,-0.258723679186027,-0.031154128,0.0027488936,0.008552114,55.830128,-59.365795,-5.4786124,STD
45778433910000,0.115624,-1.52480901369803,9.75044711186507,-0.258993133177499,-0.029321533,0.0009162979,0.0036651916,55.746525,-59.881645,-5.5149384,STD
45778438258000,0.119972,-1.52584857424068,9.75107085991402,-0.259201045503128,-0.04062254,0.008552114,0.0061086523,55.69742,-60.373486,-5.546695,STD
45778443343000,0.125057,-1.52706434364256,9.75180033526566,-0.259444199637402,-0.040317107,0.009162978,0.006414085,55.652584,-60.85998,-5.577888,STD
45778448273000,0.129987,-1.52824305419344,9.75250757488878,-0.259679941993739,-0.038179077,0.008857546,0.0036651916,55.60715,-61.33523,-5.609123,STD
45778453272000,0.134986,-1.52943826191025,9.7532247129975,-0.259918983786705,-0.03756821,0.014660766,0.004276057,55.560482,-61.80188,-5.6392837,STD
45778458275000,0.139989,-1.53063442598451,9.75394242493147,-0.260158216851361,-0.039095376,0.01038471,0.0027488936,55.51805,-62.25987,-5.66827,STD
45778463244000,0.144958,-1.53182246102049,9.7546552593508,-0.260395824106662,-0.038789943,0.013439035,-0.0009162979,55.47335,-62.71017,-5.6983485,STD
45778468232000,0.149946,-1.53301503875433,9.75537081944008,-0.260634339902485,-0.040011674,0.015882496,-0.0009162979,55.430477,-63.15159,-5.7262397,STD
45778473220000,0.154934,-1.53420761648816,9.75608637952935,-0.260872855698308,-0.043066,0.017104227,0.002443461,55.38799,-63.584515,-5.753426,STD
45778478244000,0.159958,-1.53540880143901,9.7568071040459,-0.261113092939329,-0.032986723,0.027794369,-0.0012217305,55.34407,-64.01236,-5.782901,STD
45778483242000,0.164956,-1.53660377006646,9.7575240986983,-0.261352086914374,-0.045814894,0.022296581,-0.004276057,55.30431,-64.4254,-5.8085504,STD
45778488220000,0.169934,-1.53779395690668,9.75823822422445,-0.261590124530975,-0.04734206,0.0106901415,-0.002443461,55.263966,-64.83671,-5.8334746,STD
45778493277000,0.174991,-1.53900303180645,9.75896368279932,-0.261831939763428,-0.04062254,0.011301007,0.0018325958,55.222652,-65.23911,-5.858398,STD
45778498227000,0.179941,-1.54018652414456,9.75967379154871,-0.262068638478208,-0.04520403,0.010079277,0.003970624,55.18557,-65.63045,-5.88092,STD
45778504027000,0.185741,-1.54157324243972,9.76050583816414,-0.262345982426839,-0.03573562,0.008857546,0.0027488936,55.148907,-66.02019,-5.9024234,STD
45778508240000,0.189954,-1.5425805259186,9.76111021961084,-0.262547439332974,-0.037873644,0.0012217305,0.003970624,55.11439,-66.39851,-5.921075,STD
45778513241000,0.194955,-1.54377621181414,9.76182764463218,-0.262786576761785,-0.03573562,0.008246681,0.0033597588,55.077282,-66.77319,-5.9412184,STD
45778518231000,0.199945,-1.5449692677267,9.76254349163409,-0.263025188193452,-0.04337143,0.00580322,0.01160644,55.04425,-67.13824,-5.9560637,STD
45778523221000,0.204935,-1.54616232363926,9.76325933863599,-0.263263799625119,-0.04184427,0.010079277,0.0061086523,55.009693,-67.4983,-5.9754558,STD
45778528230000,0.209944,-1.54735992224968,9.76397791130784,-0.263503319597308,-0.038789943,0.0070249503,0.005497787,54.976933,-67.85083,-5.9896407,STD
45778533237000,0.214951,-1.54855704268139,9.76469619706706,-0.263742743933652,-0.04184427,0.005192355,0.0036651916,54.943954,-68.19481,-6.0054994,STD
45778538222000,0.219936,-1.54974890314714,9.7654113267874,-0.263981116275708,-0.043982297,0.009162978,0.009468411,54.91007,-68.53377,-6.019057,STD
45778543303000,0.225017,-1.55096371619157,9.76614022831379,-0.264224079138293,-0.044593163,0.008552114,-0.0015271631,54.880287,-68.86421,-6.036302,STD
45778548236000,0.22995,-1.55214314401055,9.76684789830585,-0.264459964948397,-0.044593163,0.008857546,-0.0036651916,54.848213,-69.188995,-6.0494757,STD
45778553262000,0.234976,-1.55334480714011,9.76756890973502,-0.264700297825262,-0.03848451,0.004276057,0.005497787,54.818085,-69.508995,-6.0613627,STD
45778558256000,0.23997,-1.55453881941012,9.76828533056217,-0.264939100528618,-0.03573562,0.01038471,0.004581489,54.786587,-69.82076,-6.076923,STD
45778563242000,0.244956,-1.55573091896523,9.76900060373882,-0.265177520688596,-0.03970624,0.01038471,-0.00061086525,54.757957,-70.12661,-6.089565,STD
45778568230000,0.249944,-1.55692349669907,9.7697161638281,-0.265416036484419,-0.044593163,0.004886922,-0.0021380284,54.72933,-70.427124,-6.1009326,STD
45778573475000,0.255189,-1.55817752039875,9.77046859218982,-0.265666841486242,-0.049785517,0.00061086525,-0.00061086525,54.700962,-70.72034,-6.1124,STD
45778578244000,0.259958,-1.55931773756248,9.77115273534655,-0.265894885157107,-0.04886922,-0.009773844,-0.004276057,54.67676,-71.00738,-6.1240864,STD
45778583238000,0.264952,-1.56051174983248,9.7718691561737,-0.266133687860463,-0.046120327,-0.004581489,-0.010079277,54.649876,-71.28776,-6.136408,STD
45778588213000,0.269927,-1.56170121940462,9.77258285133091,-0.266371582023298,-0.046731193,-0.00580322,-0.005497787,54.627316,-71.562485,-6.1449094,STD
45778593252000,0.274966,-1.56290599069589,9.77330572769215,-0.266612536533152,-0.04642576,-0.008857546,-0.015271631,54.605877,-71.83065,-6.1586857,STD
45778598237000,0.279951,-1.56409785116164,9.77402085741248,-0.266850908875208,-0.044898596,-0.018020526,-0.009162978,54.585003,-72.09553,-6.165767,STD
45778603243000,0.284957,-1.56529473250398,9.77473899971539,-0.26709028539363,-0.04062254,-0.0143553335,-0.0125227375,54.56329,-72.35393,-6.1784177,STD
45778608256000,0.28997,-1.56649328747185,9.7754581462125,-0.267329996637507,-0.0421497,-0.017104227,-0.00580322,54.544804,-72.60753,-6.184898,STD
45778613244000,0.294958,-1.56768586520569,9.77617370630177,-0.26756851243333,-0.040927973,-0.008246681,-0.0027488936,54.52291,-72.857056,-6.194063,STD
45778618229000,0.299943,-1.56887772567145,9.77688883602211,-0.267806884775386,-0.044898596,-0.009773844,-0.004276057,54.504692,-73.09988,-6.2011795,STD
45778623221000,0.304935,-1.57007125976273,9.77760496993664,-0.268045591842898,-0.04734206,-0.008246681,-0.009773844,54.483467,-73.33828,-6.209091,STD
45778628236000,0.30995,-1.57005729109191,9.77657248124744,-0.266129320323391,-0.048258353,-0.0018325958,-0.00030543262,54.460518,-73.57255,-6.213134,STD
45778633231000,0.314945,-1.56910221854991,9.7741848061254,-0.262547804897827,-0.047036625,-0.002443461,0.0015271631,54.440292,-73.80048,-6.21996,STD
45778638217000,0.319931,-1.56814886685933,9.7718014331207,-0.25897274265321,-0.045814894,-0.004276057,0.004581489,54.466568,-74.04539,-6.227981,STD
45778643388000,0.325102,-1.56716014211165,9.76932962770407,-0.255265031689128,-0.03604105,-0.0015271631,0.004276057,54.49171,-74.2873,-6.236426,STD
45778648276000,0.32999,-1.56622552858105,9.76699309997704,-0.251760237414822,-0.040927973,0.0018325958,0.0076358155,54.51656,-74.52115,-6.242658,STD
45778653264000,0.334978,-1.56527179447905,9.76460877094626,-0.248183741129995,-0.03634648,0.0009162979,0.008857546,54.54186,-74.75451,-6.2492027,STD
45778658226000,0.33994,-1.56432303172561,9.76223687025446,-0.244625887367904,-0.03573562,0.0061086523,0.014049901,54.563854,-74.98129,-6.254124,STD
45778663243000,0.344957,-1.5633637526579,9.7598386788456,-0.241028597500025,-0.040011674,0.0018325958,0.00580322,54.58943,-75.20143,-6.2615056,STD
45778668238000,0.349952,-1.5624086801159,9.75745100372356,-0.237447082074461,-0.041233405,0.004886922,0.011301007,54.610077,-75.41985,-6.264239,STD
45778673214000,0.354928,-1.56145724048247,9.75507241084923,-0.233879190030897,-0.03634648,0.009468411,0.014660766,54.632015,-75.63261,-6.2694306,STD
45778678246000,0.35996,-1.56049509332904,9.75266704924481,-0.23027114486144,-0.039095376,0.01985312,0.013439035,54.651234,-75.83841,-6.2747064,STD
45778683271000,0.364985,-1.55953428461562,9.75026503373164,-0.226668118832719,-0.03604105,0.0143553335,0.008857546,54.67347,-76.04223,-6.2790666,STD
45778688257000,0.369971,-1.55858093292504,9.74788166072694,-0.223093056588103,-0.038179077,0.004581489,0.008246681,54.69366,-76.239746,-6.282824,STD
45778693332000,0.375046,-1.55761056392591,9.74545574456191,-0.219454179554121,-0.038179077,-0.004276057,0.009773844,54.715134,-76.433716,-6.2867584,STD
45778698284000,0.379998,-1.55666371322961,9.74308862400048,-0.215903495993082,-0.044593163,-0.008857546,0.0030543262,54.7385,-76.619865,-6.292638,STD
45778703258000,0.384972,-1.55571265600761,9.74071098715223,-0.212337037989728,-0.036651913,-0.0033597588,0.005192355,54.76066,-76.80667,-6.2954946,STD
45778708272000,0.389986,-1.55475395055704,9.73831422978248,-0.208741899182165,-0.048258353,-0.017104227,0.0076358155,54.789692,-76.98182,-6.298583,STD
45778713252000,0.394966,-1.55380174610075,9.735933724856,-0.205171139058179,-0.04428773,-0.02565634,-0.0033597588,54.8161,-77.157036,-6.305294,STD
45778718267000,0.399981,-1.55284284944446,9.73353648947321,-0.201575283230511,-0.048258353,-0.027488936,0.00030543262,54.843277,-77.32571,-6.306666,STD
45778723272000,0.404986,-1.55188586484532,9.7311440342208,-0.197986597603895,-0.04062254,-0.029321533,0.0015271631,54.873314,-77.49231,-6.3111587,STD
45778728273000,0.409987,-1.55092964506903,9.72875349102053,-0.1944007800577,-0.03848451,-0.03359759,0.0009162979,54.904152,-77.652885,-6.314765,STD
45778733267000,0.414981,-1.54997476373274,9.72636629391153,-0.190819981652242,-0.04153884,-0.040011674,-0.0027488936,54.935898,-77.8099,-6.318547,STD
45778738246000,0.41996,-1.54902275048217,9.72398626699809,-0.187249938548361,-0.032375857,-0.03726278,0.00061086525,54.96561,-77.96752,-6.320654,STD
45778743311000,0.425025,-1.54805429354018,9.72156513096343,-0.183618231715432,-0.032070424,-0.03573562,0.0027488936,54.99738,-78.11776,-6.323615,STD
45778748273000,0.429987,-1.54710553078674,9.71919323027163,-0.180060377953341,-0.03268129,-0.03726278,0.0027488936,55.028828,-78.26645,-6.3261046,STD
45778753269000,0.434983,-1.54615026703902,9.71680507713655,-0.176478145507672,-0.022296581,-0.04153884,0.005497787,55.06003,-78.414955,-6.3270493,STD
45778759124000,0.440838,-1.54503075758288,9.71400631080231,-0.17227999279162,-0.032375857,-0.034513887,0.0036651916,55.08834,-78.55409,-6.3296585,STD
45778763290000,0.445004,-1.54423419457788,9.71201490848832,-0.169292887033282,-0.034208454,-0.029321533,0.002443461,55.117874,-78.69464,-6.3309507,STD
45778768275000,0.449989,-1.54328103409302,9.70963201349665,-0.165718541808771,-0.040317107,-0.026572637,0.013133603,55.145283,-78.82998,-6.329493,STD
45778773219000,0.454933,-1.54233571304244,9.70726871703952,-0.162173594408573,-0.033292156,-0.02107485,0.008857546,55.170853,-78.962,-6.3328657,STD
45778778249000,0.459963,-1.54137394830044,9.70486431146117,-0.158566983279327,-0.03145956,-0.0125227375,0.012217305,55.19362,-79.0911,-6.331246,STD
45778783217000,0.464931,-1.54042403831272,9.70248954269115,-0.155004827396604,-0.02565634,-0.010995574,0.011911872,55.216877,-79.21823,-6.331712,STD
45778788213000,0.469927,-1.539468774565,9.70010138955607,-0.151422594950935,-0.025961773,-0.008552114,0.008857546,55.237118,-79.34129,-6.3323245,STD
45778793243000,0.474957,-1.53850700982301,9.69769698397772,-0.147815983821688,-0.036651913,-0.0015271631,0.004886922,55.25538,-79.45995,-6.3334446,STD
45778798237000,0.479951,-1.53755212848672,9.69530978686872,-0.14423518541623,-0.03604105,0.0015271631,0.007941248,55.273632,-79.57875,-6.3332467,STD
45778803253000,0.484967,-1.53659304062472,9.69291207347289,-0.140638612568457,-0.039095376,-0.0009162979,0.013439035,55.29125,-79.69111,-6.3334036,STD
45778808275000,0.489989,-1.53563280552844,9.69051149199884,-0.137037737600052,-0.04337143,0.009468411,0.0125227375,55.304222,-79.799866,-6.3350153,STD
45778813236000,0.49495,-1.53468423398071,9.68814006932008,-0.133480600858066,-0.046731193,-0.0012217305,0.006414085,55.323627,-79.90539,-6.335506,STD
45778818232000,0.499946,-1.533728970233,9.685751916185,-0.129898368412397,-0.04917465,0.011911872,0.011301007,55.332653,-80.00929,-6.334371,STD
45778823223000,0.504937,-1.53277466251385,9.68336615311511,-0.126319721067254,-0.038179077,0.008552114,0.011911872,55.349586,-80.110916,-6.33499,STD
45778828944000,0.510658,-1.53505572754518,9.6710853787122,-0.157698553199528,-0.042455133,0.0012217305,0.013439035,55.36346,-80.20717,-6.334198,STD
45778833234000,0.514948,-1.53878702624648,9.65616057351739,-0.202473237615112,-0.04337143,-0.012217305,0.010079277,55.37998,-80.30321,-6.334174,STD
45778838225000,0.519939,-1.54259345218825,9.64166257507067,-0.261243990240813,-0.035124753,-0.01160644,0.01038471,55.479443,-80.41228,-6.3318386,STD
45778843285000,0.524999,-1.54513025995707,9.63405191335986,-0.337349076263219,-0.04428773,-0.014660766,0.003970624,55.58253,-80.51218,-6.332051,STD
45778848228000,0.529942,-1.54760841031306,9.62661722940006,-0.411694420177992,-0.03176499,-0.023823744,0.0033597588,55.812893,-80.65746,-6.3412614,STD
45778853262000,0.534976,-1.55013218310125,9.61904567385614,-0.487408452398702,-0.0421497,-0.027794369,-0.0018325958,56.03839,-80.78734,-6.3545246,STD
45778858232000,0.539946,-1.54709780136723,9.62163145002889,-0.557138554323127,-0.042455133,-0.022296581,-0.004276057,56.378063,-80.941895,-6.3928986,STD
45778863233000,0.544947,-1.53787503478721,9.63546581658001,-0.621697631475063,-0.04153884,-0.02321288,-0.00580322,56.714203,-81.08319,-6.433366,STD
45778868218000,0.549932,-1.53898627196997,9.65389074186629,-0.692611676296031,-0.0421497,-0.031154128,-0.011911872,57.05243,-81.227394,-6.5017877,STD
45778873213000,0.554927,-1.55608896802824,9.67954436181623,-0.773849315150161,-0.04520403,-0.04153884,-0.003970624,57.386597,-81.361244,-6.567089,STD
45778878170000,0.559884,-1.57286051716287,9.70583345008757,-0.848796916374781,-0.041233405,-0.041233405,-0.005192355,57.73295,-81.48858,-6.6532445,STD
45778883231000,0.564945,-1.58877607697023,9.73766468049475,-0.891238436892513,-0.032986723,-0.04184427,-0.0061086523,58.078514,-81.60318,-6.737044,STD
45778888181000,0.569895,-1.5887672360952,9.76932551115939,-0.938983877340509,-0.03940081,-0.036651913,-0.010079277,58.446896,-81.70672,-6.843245,STD
45778893302000,0.575016,-1.55486440558957,9.80322849338337,-1.00194625878926,-0.04428773,-0.048258353,-0.011911872,58.81662,-81.79435,-6.948702,STD
45778898524000,0.580238,-1.52891191299017,9.82749257876812,-1.04893763051474,-0.04520403,-0.053145275,-0.003970624,59.25218,-81.86944,-7.073586,STD
45778903287000,0.585001,-1.52003494531478,9.83193115529824,-1.06225308202783,-0.036957346,-0.056199603,0.00030543262,59.686306,-81.92227,-7.199781,STD
45778908264000,0.589978,-1.50758419978178,9.83982193698854,-1.06816142823241,-0.030543262,-0.049480084,-0.011911872,60.217045,-81.96086,-7.34554,STD
45778913248000,0.594962,-1.48588444928169,9.85718164675395,-1.050801582515,-0.032070424,-0.050701816,-0.006414085,60.7443,-81.97851,-7.4852004,STD
45778918363000,0.600077,-1.4648835131181,9.87405589456477,-1.03208777870862,-0.040927973,-0.058948494,-0.007330383,61.39423,-81.95268,-7.6649165,STD
45778923213000,0.604927,-1.46013816371067,9.87880134307315,-1.003615682264,-0.03970624,-0.0720821,-0.008552114,62.03673,-81.89744,-7.8435097,STD
45778928212000,0.609926,-1.45290067412177,9.88167986639523,-0.972078994356595,-0.030543262,-0.07422013,-0.009773844,62.764072,-81.79651,-8.047994,STD
45778933227000,0.614941,-1.42106717691506,9.86348891667456,-0.917507237373355,-0.028710667,-0.054061573,-0.005497787,63.477917,-81.66659,-8.251376,STD
45778938711000,0.620425,-1.38729596191187,9.84361596891337,-0.857218963190814,-0.024740042,-0.060170226,-0.009468411,64.180176,-81.55079,-8.412056,STD
45778943237000,0.624951,-1.37111052621359,9.82743061771845,-0.800569895995146,-0.026572637,-0.062002823,-0.008857546,64.86625,-81.41857,-8.570574,STD
45778948224000,0.629938,-1.35327650769231,9.80959669230769,-0.738150784615385,-0.034208454,-0.05375614,-0.005192355,65.511086,-81.307106,-8.69203,STD
45778953250000,0.634964,-1.32570709129105,9.79433881705079,-0.690903194085254,-0.03145956,-0.049480084,-0.0061086523,66.1504,-98.81666,-8.814877,STD
45778958227000,0.639941,-1.29654306910055,9.7797570089741,-0.647157110044871,-0.028405234,-0.051923547,-0.006414085,66.78231,-98.948654,-8.936616,STD
45778963239000,0.644953,-1.28448435644405,9.7695352251173,-0.599723001098133,-0.0290161,-0.053450707,-0.017104227,67.38272,-99.06026,-9.032561,STD
45778968418000,0.650132,-1.27458149008685,9.75963220365379,-0.550208927822701,-0.01985312,-0.048258353,-0.006414085,67.97618,-99.171646,-9.122647,STD
45778973216000,0.65493,-1.28597795277505,9.74650332588409,-0.511133847725933,-0.025045475,-0.04886922,-0.0143553335,68.56886,-99.28913,-9.215909,STD
45778978177000,0.659891,-1.299979108222,9.73250214607073,-0.471463942218075,-0.032375857,-0.044593163,-0.011301007,69.15324,-99.40418,-9.3030405,STD
45778983231000,0.664945,-1.3142427324165,9.71823849705305,-0.431050375913556,-0.03604105,-0.043066,-0.009162978,69.74153,-99.52259,-9.392129,STD
45778988183000,0.669897,-1.32821848766208,9.70426271748526,-0.391452437579568,-0.026572637,-0.044898596,-0.006414085,70.324356,-99.642136,-9.480101,STD
45778993267000,0.674981,-1.35062662475845,9.69352505756844,-0.363621786497585,-0.03940081,-0.03970624,-0.016187929,70.8995,-99.76453,-9.570822,STD
45778998171000,0.679885,-1.37426014384058,9.6840719263285,-0.339988208188406,-0.02565634,-0.0421497,-0.013744468,71.47252,-99.88559,-9.657145,STD
45779003280000,0.684994,-1.39545111243296,9.68579432887923,-0.326082124939893,-0.027488936,-0.040927973,-0.009773844,72.04326,-100.01443,-9.755465,STD
45779008285000,0.689999,-1.41539689828925,9.69022658174588,-0.315001136397263,-0.043676864,-0.034513887,-0.016187929,72.608475,-100.14483,-9.855449,STD
45779013231000,0.694945,-1.4351075589976,9.69460658627705,-0.304050772894396,-0.031154128,-0.034513887,-0.013439035,73.18465,-100.278366,-9.957395,STD
45779018235000,0.699949,-1.45504935968189,9.69903795357869,-0.292971998335491,-0.030848695,-0.03573562,-0.0106901415,73.754524,-100.410385,-10.060232,STD
45779023217000,0.704931,-1.48048788539523,9.70892340179549,-0.282225371534924,-0.022602014,-0.03145956,-0.003970624,74.309586,-100.54092,-10.1609335,STD
45779028251000,0.709965,-1.51215612134881,9.72475785044887,-0.271669292883731,-0.029626964,-0.032986723,-0.009773844,74.86221,-100.671326,-10.263586,STD
45779033230000,0.714944,-1.53167283685752,9.74198341184807,-0.259189988093348,-0.03023783,-0.034208454,-0.006414085,75.419106,-100.80509,-10.370073,STD
45779038246000,0.71996,-1.54528887880763,9.76013797647392,-0.245573984057067,-0.028405234,-0.04520403,-0.0036651916,75.97484,-100.93802,-10.477331,STD
45779043247000,0.724961,-1.54640410872703,9.76960267083614,-0.24949734150101,-0.020158553,-0.04337143,-0.0106901415,76.531624,-101.0767,-10.591051,STD
45779048244000,0.729958,-1.53719494976908,9.77190500264601,-0.267915620952564,-0.018325957,-0.04734206,-0.010995574,77.08905,-101.20981,-10.700913,STD
45779053237000,0.734951,-1.52799316256134,9.77420549148465,-0.286319156934475,-0.027183503,-0.05009095,-0.009162978,77.64563,-101.34332,-10.813362,STD
45779058234000,0.739948,-1.51878400360339,9.77650782329452,-0.304737436386029,-0.021991149,-0.047036625,-0.004581489,78.19732,-101.47472,-10.923529,STD
45779063201000,0.744915,-1.50646601381944,9.77887279077309,-0.322704020108798,-0.017104227,-0.05681047,-0.0033597588,78.74919,-101.60288,-11.032816,STD
45779068214000,0.749928,-1.48888786822366,9.78138401061827,-0.340282202414478,-0.016493361,-0.06414085,-0.014049901,79.29505,-101.73027,-11.142531,STD
45779073219000,0.754933,-1.47133777472539,9.78389122293127,-0.357832332564076,-0.01863139,-0.071776666,-0.016187929,79.82963,-101.849045,-11.2428055,STD
45779078209000,0.759923,-1.45384027890993,9.78639092112146,-0.375329864921017,-0.030848695,-0.07544186,-0.014049901,80.36101,-101.965935,-11.343447,STD
45779083189000,0.764903,-1.4473738727181,9.79260091751983,-0.390728181580389,-0.03390302,-0.079107046,-0.018936822,80.88519,-102.081535,-11.443965,STD
45779088216000,0.76993,-1.4496878391156,9.80185683143475,-0.404612134605143,-0.032986723,-0.082161374,-0.017715093,81.406586,-102.191376,-11.540606,STD
45779093216000,0.77493,-1.4519893772074,9.81106303186734,-0.418421516965153,-0.03726278,-0.08552113,-0.021685716,81.917656,-102.29523,-11.631414,STD
45779098202000,0.779916,-1.45428447099255,9.82024345493872,-0.432192233054554,-0.03573562,-0.101098195,-0.021991149,82.42964,-102.3958,-11.719695,STD
45779103129000,0.784843,-1.45176724920839,9.82189656760804,-0.43076471894095,-0.039095376,-0.1001819,-0.027794369,82.93403,-102.495476,-11.808923,WAL
45779108141000,0.789855,-1.44149790355156,9.81162700748823,-0.405091344075738,-0.038179077,-0.089491755,-0.018020526,83.43682,-102.58898,-11.892419,WAL
45779113135000,0.794849,-1.43892504110393,9.80785204565473,-0.393851100551967,-0.046120327,-0.086132,-0.025045475,83.93496,-102.68601,-11.980431,WAL
45779118153000,0.799867,-1.4436281515365,9.81020364998043,-0.396202655768252,-0.034513887,-0.09773844,-0.021380283,84.431274,-102.7769,-12.061223,WAL
45779123154000,0.804868,-1.44831532875318,9.81254728753181,-0.39854624437659,-0.042455133,-0.10598512,-0.026572637,84.92591,-102.86468,-12.143898,WAL
45779128174000,0.809888,-1.45302031368174,9.81489982912507,-0.400898736840869,-0.042760566,-0.111177474,-0.0290161,85.419655,-102.95008,-12.223472,WAL
45779133154000,0.814868,-1.45767333361834,9.8182257753595,-0.392232207734162,-0.03970624,-0.10751228,-0.03268129,85.89991,-103.036064,-12.305498,WAL
45779138139000,0.819853,-1.46231192164788,9.8228644602604,-0.369039257899339,-0.04795292,-0.10903945,-0.031154128,86.38007,-103.11776,-12.3854,WAL
45779143146000,0.82486,-1.4688903280148,9.82762350200473,-0.332508276712244,-0.047647487,-0.11484267,-0.035430185,86.866264,-103.2039,-12.469067,WAL
45779148153000,0.829867,-1.47874969628868,9.83255328909222,-0.273352025888763,-0.053450707,-0.11301007,-0.03481932,87.34748,-103.284485,-12.549126,WAL
45779153574000,0.835288,-1.48561377757861,9.84505117014112,-0.235793843477593,-0.067500606,-0.10873401,-0.033292156,87.83019,-103.36325,-12.630512,WAL
45779158216000,0.83993,-1.4878150900619,9.86266157806388,-0.229189899131963,-0.069027774,-0.116980694,-0.040317107,88.312546,-103.44237,-12.7127075,WAL
45779163144000,0.844858,-1.49015202843278,9.88135698742263,-0.222179076698688,-0.07941248,-0.1133155,-0.038789943,88.80704,-103.513405,-12.792135,WAL
45779168185000,0.849899,-1.49254255325576,9.90048108615994,-0.215007494741273,-0.089491755,-0.119729586,-0.03268129,89.30319,-103.58263,-12.870826,WAL
45779173144000,0.854858,-1.49946946897647,9.92845796872829,-0.207031300195572,-0.098043874,-0.11178834,-0.03848451,89.79017,-103.65155,-12.950245,WAL
45779178204000,0.859918,-1.51390169611834,9.97175454968728,-0.19740980538767,-0.099571034,-0.10934488,-0.03573562,90.27736,-103.71402,-13.023938,WAL
45779183128000,0.864842,-1.51768643412774,9.99986129027645,-0.184835105338418,-0.1020145,-0.112399206,-0.03970624,90.762505,-103.77522,-13.098635,WAL
45779188172000,0.869886,-1.50387174036225,10.0044662843661,-0.166415504034318,-0.11728613,-0.116675265,-0.04153884,91.243805,-103.83179,-13.170101,WAL
45779193205000,0.874919,-1.49142558984514,10.0090411317691,-0.146838380609104,-0.12308934,-0.12156218,-0.03481932,91.72555,-103.886665,-13.240214,WAL
45779198191000,0.879905,-1.48246267575786,10.0135226824026,-0.124431081352417,-0.14049901,-0.11575896,-0.030848695,92.20169,-103.9385,-13.309584,WAL
45779203264000,0.884978,-1.47708295633254,10.0158367977197,-0.0985806058227078,-0.14538592,-0.116675265,-0.029932396,92.68086,-103.98436,-13.373628,WAL
45779208246000,0.88996,-1.49068246728741,10.0067702677435,-0.0577820417170546,-0.15363261,-0.12156218,-0.03268129,93.155876,-104.026726,-13.435756,WAL
45779213324000,0.895038,-1.50242272502464,9.99780736710108,-0.0183963634629285,-0.16218472,-0.12675454,-0.029626964,93.63229,-104.06239,-13.4926195,WAL
45779218227000,0.899941,-1.48699559204906,9.99266488205016,-0.00811160062840872,-0.18387043,-0.13103059,-0.035430185,94.10598,-104.09807,-13.551097,WAL
45779223500000,0.905214,-1.47744886578435,9.98336769579603,0.00917233708641495,-0.18845193,-0.13561209,-0.03726278,94.58786,-104.133316,-13.610267,WAL
45779228246000,0.90996,-1.48629501074348,9.96567549824834,0.0401338675360062,-0.20463985,-0.14477506,-0.03848451,95.06839,-104.166084,-13.669135,WAL
45779233226000,0.91494,-1.4932299895818,9.94879842626559,0.0707967044460748,-0.2144137,-0.1432479,-0.04520403,95.54726,-104.19893,-13.727624,WAL
45779238206000,0.91992,-1.48885613925165,9.94005099963316,0.0926659697982392,-0.24587326,-0.1518,-0.040011674,96.02813,-104.22491,-13.781452,WAL
45779243249000,0.924963,-1.48442695707997,9.9311929127843,0.114811894531365,-0.24709499,-0.15607607,-0.036957346,96.51111,-104.25581,-13.839318,WAL
45779248239000,0.929953,-1.46390766715163,9.94652182573553,0.140543434348529,-0.2593123,-0.16584991,-0.040011674,96.99416,-104.28306,-13.895586,WAL
45779253267000,0.934981,-1.4470999239449,9.959879,0.164141757274326,-0.28588495,-0.17348573,-0.04153884,97.48018,-104.30746,-13.949782,WAL
45779258253000,0.939967,-1.45409725082063,9.959879,0.173471563786635,-0.30451632,-0.18142697,-0.048258353,97.964935,-104.33313,-14.004364,WAL
45779263396000,0.94511,-1.46131491069265,9.959879,0.183095148803243,-0.3222314,-0.1872302,-0.044898596,98.4516,-104.349236,-14.050423,WAL
45779268228000,0.949942,-1.46809611475674,9.959879,0.192136790413247,-0.3359759,-0.18417588,-0.04886922,98.93364,-104.368,-14.098352,WAL
45779273398000,0.955112,-1.47498959458727,9.9600403979578,0.202242703122035,-0.3549127,-0.19303341,-0.051618114,99.420044,-104.38555,-14.144753,WAL
45779278244000,0.959958,-1.47708642614196,9.96213727330231,0.216920537141824,-0.37201694,-0.20250183,-0.050701816,99.90159,-104.40226,-14.189011,WAL
45779283580000,0.965294,-1.47939527739574,9.96444617277369,0.23308251038359,-0.3921755,-0.19639318,-0.051923547,100.38051,-104.42216,-14.236095,WAL
45779288209000,0.969923,-1.48139821451227,9.96644915171915,0.247103082747933,-0.4098906,-0.19730948,-0.053450707,100.86013,-104.44109,-14.280922,WAL
45779293589000,0.975303,-1.48372610426964,9.96877709009172,0.263398325634121,-0.43066,-0.1966986,-0.04337143,101.33344,-104.456055,-14.320401,WAL
45779298237000,0.979951,-1.49055196001668,9.97867631165312,0.271224080008339,-0.44959682,-0.18234327,-0.050701816,101.79864,-104.47582,-14.362916,WAL
45779303244000,0.984958,-1.50054800704607,9.99367017344173,0.276222103523035,-0.47403142,-0.17989981,-0.045814894,102.26323,-104.48855,-14.396969,WAL
45779308234000,0.989948,-1.50038032916508,9.97911647455204,0.290440493295844,-0.48838675,-0.1704314,-0.043066,102.719925,-104.50418,-14.432278,WAL
45779313249000,0.994963,-1.49580277941289,9.95165131943385,0.30875070664411,-0.5109888,-0.15088372,-0.03481932,103.16885,-104.51644,-14.462346,WAL
45779318243000,0.999957,-1.49124439786504,9.92430117294129,0.326984247114945,-0.53878313,-0.13439035,-0.041233405,103.60509,-104.53359,-14.495109,WAL
45779323225000,1.004939,-1.48669696957682,9.89701674566336,0.345173974512962,-0.5534439,-0.106595986,-0.03940081,104.02835,-104.54663,-14.520979,WAL
45779328227000,1.009941,-1.46010201629992,9.88569509535452,0.376214555480848,-0.5879578,-0.07666359,-0.022602014,104.44226,-104.55729,-14.542304,WAL
45779333235000,1.014949,-1.41124238467808,9.89058065036675,0.420188244348003,-0.63163465,-0.076052725,-0.02565634,104.85274,-104.573906,-14.566878,WAL
45779338213000,1.019927,-1.36620402042254,9.89782621068075,0.477921435733568,-0.64751714,-0.076052725,-0.026267206,105.252655,-104.58967,-14.5877,WAL
45779343321000,1.025035,-1.3231421415493,9.90739571694053,0.549691303800861,-0.6627888,-0.069027774,-0.016187929,105.64665,-104.60441,-14.604399,WAL
45779348230000,1.029944,-1.2887556011068,9.88005130582524,0.600157125207767,-0.6979135,-0.100792766,-0.007330383,106.05393,-75.38732,-14.61098,WAL
45779353287000,1.035001,-1.26054397282524,9.81422438592233,0.633070663714563,-0.72784597,-0.10995574,-0.010995574,106.448906,-75.37613,-14.61658,WAL
45779358239000,1.039953,-1.22981379056687,9.77488571685953,0.649200079424345,-0.752586,-0.0870483,-0.005497787,106.854294,-75.37508,-14.607196,WAL
45779363215000,1.044929,-1.19491252355842,9.76790532254284,0.644546563388995,-0.7965683,-0.056199603,0.009162978,107.25618,-75.37186,-14.594713,WAL
45779368234000,1.049948,-1.15970965798057,9.76086460729457,0.639852834092085,-0.82924956,-0.013439035,0.025961773,107.638145,-75.36866,-14.576778,WAL
45779373219000,1.054933,-1.12474526569015,9.75387158766662,0.635190901327572,-0.8527679,0.014049901,0.04520403,108.01182,-75.3659,-14.552739,WAL
45779378208000,1.059922,-1.10269337970915,9.74238610145426,0.648396196454694,-0.895223,0.037873644,0.06505715,108.367004,-75.361786,-14.523677,WAL
45779383233000,1.064947,-1.10683445362705,9.72168073186473,0.69808911373806,-0.93462384,0.062002823,0.071776666,108.710625,-75.3545,-14.492171,WAL
45779388459000,1.070173,-1.11120499855104,9.70160040472009,0.750240287145993,-0.9630291,0.0870483,0.08246681,109.03417,-75.359764,-14.441635,WAL
45779393278000,1.074992,-1.11627092601537,9.70666643798024,0.805965542151482,-1.0112875,0.10720685,0.096516706,109.34906,-75.36023,-14.387974,WAL
45779398230000,1.079944,-1.12136575915781,9.71791692835559,0.854973877473438,-1.0564915,0.129198,0.118202426,109.657936,-75.35491,-14.331206,WAL
45779403286000,1.085,-1.12608554673945,9.75567552471001,0.869133240218345,-1.0928379,0.1441642,0.13194689,109.959984,-75.34343,-14.272515,WAL
45779408236000,1.08995,-1.13351994115402,9.79391663194133,0.884522938575812,-1.1264355,0.1600467,0.1518,110.25287,-75.32771,-14.206811,WAL
45779413237000,1.094951,-1.15861016250561,9.8405125380931,0.90961314121389,-1.1545353,0.2180789,0.16676621,110.52593,-75.30592,-14.13954,WAL
45779418225000,1.099939,-1.183635162326,9.8869873191139,0.934638122369406,-1.1933253,0.24801129,0.1853976,110.80193,-75.28078,-14.064561,WAL
45779423216000,1.10493,-1.20905764726702,9.95025664119493,1.00549629930728,-1.2116512,0.2782491,0.20922135,111.057556,-75.253944,-13.98525,WAL
45779428247000,1.109961,-1.23513237440199,10.0336958769347,1.13065512569001,-1.2382239,0.28863382,0.22235495,111.307396,-75.21847,-13.904276,WAL
45779433236000,1.11495,-1.2627893610877,10.1364416584387,1.23432802630945,-1.2504412,0.2843578,0.21991149,111.54478,-75.1717,-13.826521,WAL
45779438213000,1.119927,-1.29148521692755,10.2512247821593,1.3251981282661,-1.2880094,0.2733622,0.22357668,111.77807,-75.11814,-13.743929,WAL
45779443242000,1.124956,-1.34395695763635,10.3602989429872,1.3895574268831,-1.3011429,0.27885997,0.23762658,112.01364,-75.05083,-13.662245,WAL
45779448238000,1.129952,-1.41025802654657,10.4644865347916,1.43691533324755,-1.3130548,0.27977628,0.24678956,112.25102,-74.9723,-13.581022,WAL
45779453256000,1.13497,-1.45527523606738,10.5727364145264,1.48246639378625,-1.3387111,0.28191432,0.26358834,112.48885,-74.882355,-13.494707,WAL
45779458249000,1.139963,-1.48608797074473,10.6827818955169,1.52648463214582,-1.3497068,0.28527406,0.27305678,112.723,-74.78642,-13.408693,WAL
45779463237000,1.144951,-1.5354277498409,10.7870052461672,1.58530364830778,-1.35551,0.28771752,0.2968805,112.950035,-74.67818,-13.323847,WAL
45779468231000,1.149945,-1.6092128839649,10.883848204609,1.66370029914184,-1.3542882,0.28893927,0.30665436,113.17357,-74.56237,-13.241149,WAL
45779473200000,1.154914,-1.69898785287545,10.9664727587907,1.7454398962537,-1.3579534,0.29046643,0.31612277,113.389694,-74.4399,-13.154962,WAL
45779478873000,1.160587,-1.83586723227079,11.0319369043707,1.84661162767006,-1.3671165,0.29352075,0.30848694,113.602394,-74.30978,-13.071989,WAL
45779483233000,1.164947,-1.92639338277503,11.0368331713759,1.91405856852122,-1.3796391,0.26939157,0.2929099,113.82216,-74.15673,-13.001418,WAL
45779488222000,1.169936,-2.01917652705117,11.0089981457423,1.98364593883872,-1.4065173,0.24220806,0.25900686,114.04021,-73.989944,-12.938788,WAL
45779493297000,1.175011,-2.06170856481426,11.0262882496285,1.97941636493313,-1.4391985,0.27275133,0.27214047,114.24243,-73.80028,-12.890186,WAL
45779498237000,1.179951,-2.04764931013373,11.0918980069341,1.89506078791481,-1.4584408,0.36651915,0.28985557,114.43259,-73.59963,-12.851627,WAL
45779503265000,1.184979,-2.06984191238653,11.1261073790142,1.87402263750122,-1.4776831,0.46211955,0.29932398,114.61045,-73.36814,-12.835244,WAL
45779508249000,1.189963,-2.13506707525622,11.1214483484627,1.9299298852123,-1.4966198,0.5531385,0.31337386,114.758835,-73.13793,-12.81685,WAL
45779513226000,1.19494,-2.19018409520947,11.082563343979,2.03365735464963,-1.5146403,0.6414085,0.31948254,114.84432,-72.916176,-12.799961,WAL
45779518229000,1.199943,-2.23068893962051,10.9925525786211,2.20917853507421,-1.5289958,0.71929383,0.32589662,114.904625,-72.69501,-12.783703,WAL
45779523198000,1.204912,-2.26949830569481,10.8802765414263,2.39431129181961,-1.5570955,0.78893244,0.32620203,114.937965,-72.45099,-12.786997,WAL
45779528250000,1.209964,-2.30501733613005,10.7026816541689,2.61249967461982,-1.6166549,0.8405506,0.32467487,114.95337,-72.20046,-12.79247,WAL
45779533199000,1.214913,-2.34572758654129,10.5160066111274,2.73504273541973,-1.6820174,0.8735373,0.3191771,114.96896,-71.909744,-12.814714,WAL
45779538217000,1.219931,-2.39750750719953,10.3041798193751,2.69738468279949,-1.7189748,0.9682214,0.3155119,114.95192,-71.615456,-12.843679,WAL
45779543233000,1.224947,-2.47553396811475,10.0478522795082,2.63527818213115,-1.7754798,1.0732902,0.2929099,114.94884,-71.26209,-12.896326,WAL
45779548667000,1.230381,-2.61949805477459,9.66928008668033,2.51264204438525,-1.8032742,1.2027937,0.25045475,114.9136,-70.90639,-12.962875,WAL
45779553162000,1.234876,-2.72508513424753,9.37563154792079,2.39895879171287,-1.8118263,1.3322971,0.22999077,114.83762,-70.53162,-13.058397,WAL
45779558255000,1.239969,-2.82166873582178,9.07622265029703,2.24925439332673,-1.8203784,1.475545,0.2049453,114.72575,-70.14812,-13.17579,WAL
45779563165000,1.244879,-2.86709100417174,8.76869968451243,1.99667855199027,-1.8228219,1.5824465,0.18051068,114.57433,-69.74235,-13.350564,WAL
45779568234000,1.249948,-2.82068097418738,8.41429613957935,1.52414060956023,-1.8249599,1.6698002,0.17623462,114.390785,-69.34246,-13.533242,WAL
45779573339000,1.255053,-2.76772761055975,8.06449594726695,1.10012639763391,-1.8078557,1.7437148,0.17256944,114.16015,-68.935875,-13.765944,WAL
45779578246000,1.25996,-2.63903493752875,7.81740621715412,1.34206842727571,-1.7941113,1.7693712,0.16554448,113.92237,-68.5363,-14.000333,WAL
45779583254000,1.264968,-2.51055660276454,7.5895419557674,1.60998074165872,-1.7718146,1.7076738,0.13836098,113.602455,-68.18581,-14.257048,WAL
45779588213000,1.269927,-2.39284677216397,7.44466824537655,1.94500104329838,-1.7376062,1.5745052,0.08857546,113.30122,-67.84357,-14.515038,WAL
45779593285000,1.274999,-2.27896694580054,7.32525154004184,2.27393868404902,-1.702176,1.3747523,0.028710667,113.078186,-67.47554,-14.754968,WAL
45779598242000,1.279956,-2.20802119823653,7.38673799617415,2.51042477266115,-1.6536123,1.1435398,-0.03634648,112.90951,-67.11528,-14.992813,WAL
45779603211000,1.284925,-2.14679151034089,7.46445076271186,2.74890271167397,-1.5503759,0.89461213,-0.09315695,112.859924,-66.7285,-15.2017565,WAL
45779608329000,1.290043,-2.16079286124548,7.66980400677966,3.00559433985907,-1.4101825,0.6627888,-0.13347405,112.87724,-66.358696,-15.40138,WAL
45779613516000,1.29523,-2.18110260250122,7.8790434010552,3.25262969324866,-1.2315043,0.46089783,-0.17256944,112.98136,-65.993835,-15.57349,WAL
45779618643000,1.300357,-2.2770484840254,8.09971859794822,3.33418370757206,-1.065349,0.30268374,-0.20250183,113.1419,-65.65745,-15.732939,WAL
45779623569000,1.305283,-2.37145622707745,8.30871312945167,3.40825505220464,-0.93218035,0.19853121,-0.20586158,113.38325,-65.33916,-15.863322,WAL
45779628245000,1.309959,-2.51068533859054,8.43950455888449,3.38294072836819,-0.8194757,0.160963,-0.19639318,113.649956,-65.05486,-15.985857,WAL
45779633196000,1.31491,-2.65810264635387,8.57798795647258,3.35613764511023,-0.7156286,0.15027285,-0.18875736,113.89335,-64.78669,-16.113134,WAL
45779638218000,1.319932,-2.73679627453271,8.67500983060748,3.37952763726636,-0.6731735,0.12095132,-0.17837265,114.14961,-64.536865,-16.227993,WAL
45779643214000,1.324928,-2.80200642834891,8.76350935981308,3.41213271417445,-0.5861252,0.086437434,-0.14721853,114.40554,-64.32898,-16.330189,WAL
45779648236000,1.32995,-2.81920605836502,8.76018202832699,3.40079508669201,-0.50854534,0.015577064,-0.12522738,114.647766,-64.127815,-16.450752,WAL
45779653167000,1.334881,-2.82369504952471,8.73324855009506,3.37835059961977,-0.45020768,-0.06994407,-0.10629055,114.899055,-63.950462,-16.555288,WAL
45779658366000,1.34008,-2.79882314028708,8.62900732688995,3.30519890227751,-0.38148534,-0.14202617,-0.1001819,115.13929,-63.78761,-16.660229,WAL
45779663181000,1.344895,-2.76352181803828,8.50104029291866,3.21694566577033,-0.3145956,-0.20708331,-0.09865474,115.39809,-63.64279,-16.750341,WAL
45779668232000,1.349946,-2.71078859916994,8.32404020270861,3.1134287003495,-0.25503623,-0.23762658,-0.09010262,115.64046,-63.510765,-16.837431,WAL
45779673214000,1.354928,-2.64825704467016,8.12081203844474,3.00399827592835,-0.19975294,-0.2761111,-0.083383106,115.90128,-63.394592,-16.914572,WAL
45779678251000,1.359965,-2.5927120386236,7.8984512241573,2.92260073377809,-0.14385876,-0.31642818,-0.0729984,116.148674,-63.29621,-16.988132,WAL
45779683231000,1.364945,-2.54008181189807,7.67357704598716,2.85083242900281,-0.08674286,-0.355829,-0.063224554,116.40392,-63.212715,-17.054049,WAL
45779688315000,1.370029,-2.48015880506625,7.49358925904131,2.80512368716875,-0.04337143,-0.39920044,-0.04642576,116.646645,-63.14128,-17.113272,WAL
45779693271000,1.374985,-2.42004441784879,7.33174263877631,2.76813007325604,0.013439035,-0.4382958,-0.027183503,116.89591,-63.088173,-17.164007,WAL
45779698234000,1.379948,-2.36602101969225,7.21758363128989,2.77356660403246,0.08093964,-0.46670106,-0.018325957,117.14614,-63.040928,-17.215267,WAL
45779703225000,1.384939,-2.31399228327149,7.1206210287962,2.79485111629806,0.13927728,-0.5131268,-0.01038471,117.40812,-63.00759,-17.254602,WAL
45779708239000,1.389953,-2.26172378308842,7.02321159403295,2.81623371387363,0.19822577,-0.54702985,-0.0012217305,117.67515,-62.988106,-17.286442,WAL
45779713250000,1.394964,-2.20948655643956,6.92586044173965,2.83760351771313,0.25289822,-0.5830709,0.0036651916,117.95278,-62.980488,-17.311651,WAL
45779718229000,1.399943,-2.15780119291896,6.90171689506294,2.90526302132179,0.30573806,-0.6072,0.022296581,118.20556,-62.98093,-17.332706,WAL
45779723218000,1.404932,-2.10611303328088,6.91111469320417,2.99454256978757,0.35827246,-0.63071835,0.04520403,118.46507,-62.993988,-17.347136,WAL
45779728245000,1.409959,-2.04315330470285,6.95904510217495,3.07680701305924,0.39553526,-0.64934975,0.06780604,118.74381,-63.006836,-17.342146,WAL
45779733235000,1.414949,-1.97477359679481,7.02742466728036,3.15430400266145,0.45204028,-0.68508536,0.07269296,119.03077,-63.03475,-17.331774,WAL
45779738209000,1.419923,-1.88840438562772,7.09708766565324,3.24476411437228,0.48838675,-0.7067711,0.08827003,119.32697,-63.0662,-17.297497,WAL
45779743241000,1.424955,-1.78594768759434,7.16880749335601,3.34722081240566,0.539394,-0.74220127,0.10323623,119.63363,-63.11203,-17.257704,WAL
45779748232000,1.429946,-1.70614875655066,7.23549495912465,3.44248868049745,0.6084218,-0.77732605,0.121256754,119.925026,-63.165997,-17.194561,WAL
45779753229000,1.434943,-1.63694702670394,7.30008309900704,3.53475763756869,0.66614854,-0.80664754,0.13194689,120.22135,-63.227955,-17.127571,WAL
45779758276000,1.43999,-1.60308034313883,7.36119606277666,3.59835320587525,0.73792523,-0.8378017,0.1441642,120.53323,-63.31306,-17.025187,WAL
45779763245000,1.444959,-1.59350547006036,7.41864550120724,3.64144013472837,0.79412484,-0.86406887,0.1469131,120.84898,-63.40488,-16.92208,WAL
45779768230000,1.449944,-1.58693472137878,7.47777620449264,3.68086162896979,0.8405506,-0.8891144,0.1518,121.18401,-63.511272,-16.792322,WAL
45779773218000,1.454932,-1.58230952013943,7.5379036274206,3.71786323888459,0.86590147,-0.91599244,0.15149458,121.52392,-63.62159,-16.66313,WAL
45779778242000,1.459956,-1.56974000577751,7.58393507149294,3.76103745811555,0.8848383,-0.93615097,0.15515977,121.86916,-63.73989,-16.525316,WAL
45779783239000,1.464953,-1.55057303084009,7.61747756533494,3.8089551206168,0.8881981,-0.95172805,0.15882497,122.21718,-63.856777,-16.38829,WAL
45779788210000,1.469924,-1.55442761751165,7.62769039496892,3.87845704623155,0.8729264,-0.977079,0.16157386,122.572685,-63.972725,-16.243628,WAL
45779793258000,1.474972,-1.57790449466783,7.61829972255245,3.96766936573427,0.8720101,-0.9850202,0.15485434,122.92469,-64.08802,-16.103794,WAL
45779798233000,1.479947,-1.57587332697434,7.60893598710961,4.05199898508056,0.8491027,-0.9896017,0.1441642,123.288216,-64.18954,-15.958594,WAL
45779803964000,1.485678,-1.54311935662423,7.59801778798488,4.14480196757509,0.82344633,-0.9828822,0.14385876,123.64659,-64.28765,-15.81569,WAL
45779808244000,1.489958,-1.52586435942994,7.60832769929211,4.21510660566781,0.8051204,-0.9816604,0.14874569,124.02027,-64.36107,-15.680374,WAL
45779813246000,1.49496,-1.51239012373541,7.63752197042802,4.29819770233463,0.7861836,-0.9483683,0.13530666,124.38103,-64.42277,-15.556295,WAL
45779818230000,1.499944,-1.49896437589424,7.66661118421077,4.38098979065679,0.7651087,-0.89980453,0.12370021,124.74386,-64.46859,-15.427222,WAL
45779823217000,1.504931,-1.48553054674418,7.69571790755239,4.46383171370306,0.7263188,-0.8509353,0.12217305,125.0936,-64.50356,-15.3044615,WAL
45779828187000,1.509901,-1.46958777757409,7.73672387345774,4.55498361300768,0.68477994,-0.83108217,0.12644911,125.445526,-64.53203,-15.187061,WAL
45779833236000,1.51495,-1.44304926922064,7.82695499029638,4.68236888540066,0.66156703,-0.7703011,0.13591751,125.76824,-64.55495,-15.07935,WAL
45779838185000,1.519899,-1.41638225255973,7.92572045441248,4.81248314529498,0.6188065,-0.6966918,0.13958271,126.09842,-64.54322,-14.964511,WAL
45779843304000,1.525018,-1.38769942982935,8.04523200780107,4.95589700936129,0.5702427,-0.63407815,0.14294247,126.40983,-64.5256,-14.853762,WAL
45779848247000,1.529961,-1.35897013471128,8.17670217925665,5.09653963045695,0.50915617,-0.5647449,0.14874569,126.71759,-64.49104,-14.738395,WAL
45779853233000,1.534947,-1.32798955508388,8.34045685642784,5.2425912116971,0.4615087,-0.49327368,0.15607607,127.00292,-64.44898,-14.629785,WAL
45779858221000,1.539935,-1.29621848690817,8.4994936375384,5.39414851901282,0.39736784,-0.4260785,0.15241088,127.2809,-64.379684,-14.515832,WAL
45779863275000,1.544989,-1.26033155376549,8.63791467302192,5.57358291706387,0.33628133,-0.38331795,0.14630222,127.54161,-64.30131,-14.406946,WAL
45779868213000,1.549927,-1.22391485353441,8.75575736035111,5.75822027080026,0.25625798,-0.36865717,0.14049901,127.81443,-64.202934,-14.28407,WAL
45779874005000,1.555719,-1.17729798831824,8.84381101241946,6.00166383415818,0.19486602,-0.37048978,0.1301143,128.07712,-64.094086,-14.168399,WAL
45779878208000,1.559922,-1.15196596194592,8.88998011307669,6.15105916912252,0.12889257,-0.3662137,0.12950343,128.34534,-63.956127,-14.039414,WAL
45779883271000,1.564985,-1.17146036941401,8.84124422163032,6.17055362748015,0.06780604,-0.36713,0.12675454,128.61241,-63.804867,-13.914635,WAL
45779888234000,1.569948,-1.18683273842293,8.79831956812996,6.18523469128411,0.009162978,-0.35796702,0.11575896,128.91432,-63.61954,-13.778464,WAL
45779893298000,1.575012,-1.18240662587387,8.7806152103678,6.17638255862006,-0.04734206,-0.35124752,0.106901415,129.21167,-63.42325,-13.643623,WAL
45779898617000,1.580331,-1.17909229482094,8.75865602820937,6.16815098732782,-0.10751228,-0.32742378,0.09712757,129.51363,-63.20685,-13.521805,WAL
45779903248000,1.584962,-1.20352764512397,8.67068897123967,6.18281199338843,-0.1255328,-0.29901853,0.081855945,129.8086,-62.989185,-13.405786,WAL
45779908249000,1.589963,-1.2324666755918,8.58670968450368,6.20577842798886,-0.15699236,-0.26419923,0.05467244,130.0988,-62.760136,-13.296406,WAL
45779913283000,1.594997,-1.27562233544858,8.56273434573304,6.26811435886214,-0.18234327,-0.23090707,0.04337143,130.3764,-62.532936,-13.190397,WAL
45779918225000,1.599939,-1.31781360353316,8.53543408514335,6.33034418375326,-0.183565,-0.21227567,0.022602014,130.65398,-62.290924,-13.105259,WAL
45779923224000,1.604938,-1.35940732000193,8.48459716507385,6.3996671249638,-0.1863139,-0.19547687,-0.005192355,130.92052,-62.04532,-13.028153,WAL
45779928256000,1.60997,-1.4018606353904,8.43285696876764,6.4679914319285,-0.17592919,-0.19333886,-0.028405234,131.20988,-61.794216,-12.964182,WAL
45779933234000,1.614948,-1.45119336466604,8.37455442671684,6.51732411437441,-0.18570304,-0.20097467,-0.045814894,131.49461,-61.540806,-12.905411,WAL
45779938899000,1.620613,-1.51004224270931,8.31114244684854,6.56854513314519,-0.19272798,-0.22449298,-0.079107046,131.80215,-61.277393,-12.860884,WAL
45779943876000,1.62559,-1.59473801636877,8.29121415804327,6.55359889052995,-0.22143865,-0.23823744,-0.106901415,132.10457,-61.01141,-12.817777,WAL
45779948446000,1.63016,-1.67551050417611,8.27240111517385,6.53540600890968,-0.24648413,-0.23793201,-0.11362094,132.40266,-60.739708,-12.778787,WAL
45779953227000,1.634941,-1.79663937970522,8.24644485657596,6.46186348701814,-0.258396,-0.24129178,-0.12492194,132.7036,-60.466854,-12.743919,WAL
45779958247000,1.639961,-1.92382343223734,8.21919105650038,6.38464460814437,-0.30665436,-0.22235495,-0.14813483,132.99406,-60.18339,-12.727296,WAL
45779963238000,1.644952,-2.07992910749245,8.23452584924471,6.28561715435045,-0.36774087,-0.18295415,-0.15974127,133.27435,-59.900536,-12.710837,WAL
45779968219000,1.649933,-2.23845562739174,8.25374107250755,6.18473675568983,-0.41538838,-0.12950343,-0.17195857,133.54382,-59.612823,-12.702704,WAL
45779973236000,1.65495,-2.40515338102601,8.46892422184108,6.05881409821831,-0.47403142,-0.04886922,-0.183565,133.77966,-59.31694,-12.729072,WAL
45779978574000,1.660288,-2.58548292057118,8.72044347095782,5.92540515149385,-0.54183745,0.048258353,-0.20861048,133.99652,-59.01065,-12.768754,WAL
45779983234000,1.664948,-2.79332829789982,9.05770196217047,5.86658104604569,-0.63255095,0.16187929,-0.22785273,134.17197,-58.70091,-12.84938,WAL
45779988194000,1.669908,-3.01455427891916,9.41667237341828,5.80396998101933,-0.71929383,0.2883284,-0.267559,134.30318,-58.402157,-12.983896,WAL
45779993280000,1.674994,-3.24876606564836,10.0130230790814,5.7550520105514,-0.8173377,0.39064834,-0.31673363,134.4128,-58.0818,-13.133573,WAL
45779998170000,1.679884,-3.47705929931752,10.6826834430723,5.714466546788,-0.91446525,0.47952923,-0.39828414,134.50171,-57.739178,-13.312213,WAL
45780003232000,1.684946,-3.7201885065449,11.3979308295282,5.72328637899543,-1.0152581,0.5186246,-0.505491,134.56128,-57.40148,-13.550919,WAL
45780008269000,1.689983,-3.96339951487823,12.1137976836948,5.74164181649543,-1.1313224,0.5045747,-0.6227771,134.62369,-57.033173,-13.810117,WAL
45780013388000,1.695102,-4.19610069820905,12.8388026461601,5.85945904806233,-1.269378,0.45448375,-0.73456544,134.66046,-56.678566,-14.110007,WAL
45780018197000,1.699911,-4.41046113115451,13.5191634998482,5.99925920348073,-1.4639386,0.3494149,-0.8472701,134.73137,-56.274326,-14.419662,WAL
45780023220000,1.704934,-4.5017347343738,13.9507762651748,5.98736487264695,-1.6930131,0.28038713,-0.93431836,134.77231,-55.874855,-14.760187,WAL
45780028237000,1.709951,-4.55249485345755,14.2968687965809,5.927375776796,-1.9208658,0.08368854,-0.9691377,134.88078,-55.42812,-15.070078,WAL
45780033231000,1.714945,-4.39423926621622,14.2197770127186,5.46594352281399,-2.0265455,-0.14080444,-0.9773844,134.99423,-54.991066,-15.379974,WAL
45780038219000,1.719933,-4.142673025,13.9539707352941,4.82516132205882,-2.1157317,-0.3481932,-0.88422745,135.14192,-54.52041,-15.634624,WAL
45780043247000,1.724961,-3.9192332625037,13.1926733739765,4.06996231980862,-2.0363193,-0.4718934,-0.74464476,135.28955,-54.106766,-15.855555,WAL
45780048242000,1.729956,-3.71159884374075,12.201690898392,3.26773831714511,-1.81091,-0.50579643,-0.571159,135.44524,-53.73444,-16.018677,WAL
45780053232000,1.734946,-3.66166569405601,10.8641962119241,2.58895948710027,-1.4831808,-0.42913285,-0.39950588,135.54323,-53.47919,-16.139713,WAL
45780058235000,1.739949,-3.69629097347787,9.33635458238482,1.97436032542005,-1.1527027,-0.31215215,-0.2941316,135.62206,-53.300835,-16.231745,WAL
45780063191000,1.744905,-3.77969414821832,7.62944062322101,1.35926525150285,-0.8045095,-0.20372356,-0.22999077,135.64146,-53.23242,-16.332142,WAL
45780068188000,1.749902,-3.92909707832921,5.65113983531058,0.730742618400258,-0.4447099,-0.13255776,-0.2171626,135.6324,-53.259144,-16.429691,WAL
45780073200000,1.754914,-4.03490906931841,4.11106022142569,0.343820691713047,-0.058948494,-0.09285152,-0.21074851,135.60236,-53.316826,-16.606167,WAL
45780078190000,1.759904,-4.10718402203065,2.91129431590038,0.141450537337165,0.31764993,-0.09193522,-0.19242255,135.55853,-53.46554,-16.780268,WAL
45780083192000,1.764906,-4.16981635029551,2.40519642292414,0.188004558409069,0.64599,-0.129198,-0.16798794,135.5201,-53.598156,-17.052797,WAL
45780088203000,1.769917,-4.22561275016956,2.391247383645,0.411189332529794,0.93554014,-0.13561209,-0.13958271,135.46587,-53.81383,-17.325298,WAL
45780093222000,1.774936,-4.24961980455617,2.77687533935585,0.914363085797329,1.1630874,-0.11575896,-0.092240654,135.38737,-54.01359,-17.636398,WAL
45780098242000,1.779956,-4.24489911170463,3.52274530282797,1.66967446454831,1.325883,-0.16218472,-0.05955936,135.32454,-54.263412,-17.935282,WAL
45780103132000,1.784846,-3.99245551486231,4.55508727487913,2.45669348921589,1.4144585,-0.35033122,-0.053145275,135.30423,-54.51349,-18.213629,WAL
45780108178000,1.789892,-3.45912768324574,5.95697713567374,3.32525573054446,1.4630222,-0.6960809,-0.05100725,135.3332,-54.78818,-18.45757,WAL
45780113178000,1.794892,-2.86498605096905,7.31969723141452,3.75129643870408,1.4676038,-1.1972959,-0.071776666,135.50673,-55.040527,-18.597313,WAL
45780118177000,1.799891,-2.22333637167101,8.66300724481728,3.86208490236236,1.4370605,-1.4908166,-0.1020145,135.71803,-55.28606,-18.721409,WAL
45780123163000,1.804877,-1.66798544035463,9.852439139305,3.41434878601855,1.4031575,-2.1029036,-0.1151481,136.22032,-55.55643,-18.578962,WAL
45780128243000,1.809957,-1.18708586591256,10.913392971976,2.3980146749414,1.416902,-2.6691756,-0.14966199,136.78873,-55.814598,-18.418419,WAL
45780133149000,1.814863,-0.943383995177476,11.6042312914886,1.27749461138264,1.4764613,-3.084564,-0.1740966,137.46097,-56.23409,-18.019602,WAL
45780138141000,1.819855,-0.881192590457164,12.0262445440439,0.0203398437186396,1.5806139,-3.2763758,-0.18906279,138.2219,-56.656128,-17.589006,WAL
45780143144000,1.824858,-0.884539710959471,12.3914954799421,-1.1211992907775,1.6698002,-3.2088752,-0.19822577,138.9271,-57.313694,-17.080826,WAL
45780148153000,1.829867,-0.993653152667494,12.6642783073821,-2.07346187586849,1.6991217,-2.9318478,-0.20097467,139.63002,-57.969242,-16.590961,WAL
45780153206000,1.83492,-0.955540806894379,12.9334324493553,-2.59966616262427,1.7015651,-2.5240953,-0.16249016,140.15729,-58.82848,-16.166271,WAL
45780158299000,1.840013,-0.739489936492765,13.1974948989074,-2.60926841528694,1.6756034,-2.0589213,-0.09560041,140.60028,-59.67453,-15.790526,WAL
45780163740000,1.845454,-0.36672900889661,13.4080522528876,-2.32009908381069,1.6129897,-1.6212363,-0.016798794,140.85802,-60.61793,-15.507148,WAL
45780168209000,1.849923,0.0592891532021786,13.5205855254014,-1.82977630067612,1.5283848,-1.2562444,0.07360926,141.011,-61.538216,-15.259064,WAL
45780173172000,1.854886,0.5520038273979,13.5550283304339,-1.20781043754535,1.4300356,-1.0619892,0.15241088,141.09947,-62.4617,-14.987073,WAL
45780178220000,1.859934,1.10072331229872,13.3704124696086,-0.387295355368622,1.3402383,-1.0186177,0.22052236,141.13078,-63.355785,-14.725331,WAL
45780183153000,1.864867,1.51195119686511,13.0932564565238,0.251249096813345,1.280679,-1.0891727,0.27183503,141.22263,-64.203606,-14.354421,WAL
45780188189000,1.869903,1.74775490845557,12.6678851233822,0.66274972364107,1.289842,-1.183246,0.29749137,141.31262,-65.03408,-13.983803,WAL
45780193214000,1.874928,1.87570715960729,12.1865170440793,0.97018750356642,1.3161092,-1.2739595,0.31398472,141.51915,-65.78631,-13.500872,WAL
45780198261000,1.879975,1.78370664950912,11.586092412242,1.06703011517231,1.3918564,-1.3423764,0.312763,141.74905,-66.53842,-13.021035,WAL
45780203179000,1.884893,1.54095798422884,10.8582672354078,1.16331179329339,1.475545,-1.4315627,0.2959642,142.06668,-67.22774,-12.501964,WAL
45780208247000,1.889961,0.973431315809818,9.81232959489756,1.26649848699266,1.5723672,-1.5317446,0.27305678,142.40845,-67.92417,-11.990068,WAL
45780213168000,1.894882,0.519035154492025,8.98771586901885,1.28414198180764,1.629483,-1.5986344,0.25503623,142.78687,-68.569046,-11.514735,WAL
45780218232000,1.899946,0.33620469919188,8.7017503939101,1.0591198498405,1.649947,-1.613906,0.2434298,143.18054,-69.21498,-11.049965,WAL
45780223194000,1.904908,0.190574017229118,8.45045904786451,0.800248672393225,1.6676621,-1.647809,0.23793201,143.58955,-69.74674,-10.710509,WAL
45780228246000,1.90996,0.185484390298759,8.31812864138439,0.372719720069219,1.6811012,-1.640784,0.226631,143.99228,-70.272026,-10.384701,WAL
45780233864000,1.915578,0.166228887662419,8.30119656799574,0.0186084480469939,1.6893479,-1.5372424,0.19456059,144.36334,-70.794205,-10.119124,WAL
45780238212000,1.919926,0.133951415607771,8.45451449232111,-0.100414729812218,1.7040086,-1.4856243,0.19333886,144.74475,-71.316444,-9.850165,WAL
45780243277000,1.924991,0.0963512785431907,8.63311506424107,-0.239065234839107,1.7101172,-1.4052955,0.18570304,145.07086,-71.87754,-9.617786,WAL
45780248236000,1.92995,0.0595380347715711,8.80797789467565,-0.374814070856548,1.7174476,-1.3454307,0.17715092,145.38858,-72.43361,-9.3935795,WAL
45780253219000,1.934933,0.0115711941738365,9.00345179693,-0.475937712961478,1.7119498,-1.3429873,0.16065755,145.70787,-72.98036,-9.179551,WAL
45780258229000,1.939943,-0.0916313525117325,9.29898644593273,-0.400881314926672,1.6963727,-1.3646729,0.13744467,146.01831,-73.51494,-8.977496,WAL
45780263201000,1.944915,-0.197047083776342,9.58726971739563,-0.303336313545726,1.6627752,-1.3988814,0.115453534,146.31317,-74.083916,-8.7937155,WAL
45780268234000,1.949948,-0.326411078250497,9.8412065805169,-0.0302345318687873,1.6108516,-1.423316,0.11209377,146.61227,-74.63283,-8.615584,WAL
45780273217000,1.954931,-0.455618855474453,10.0803097554745,0.242321174326221,1.5650368,-1.4511104,0.09590584,146.92831,-75.152504,-8.460122,WAL
45780278250000,1.959964,-0.595446861557178,10.2201377615572,0.535508943449373,1.5344934,-1.5106697,0.10048734,147.25941,-75.65456,-8.301424,WAL
45780283579000,1.965293,-0.73915799190133,10.3642364259978,0.837445047949002,1.4697418,-1.6218473,0.07880162,147.63289,-76.078865,-8.168827,WAL
45780288215000,1.969929,-0.776074351967849,10.4093564758869,0.92768506206578,1.4242324,-1.713477,0.061391957,148.01654,-76.49106,-8.036298,WAL
45780293276000,1.97499,-0.81637497713969,10.4586128547672,1.0261977263119,1.3967434,-1.7754798,0.042455133,148.44514,-76.82372,-7.930667,WAL
45780298235000,1.979949,-0.791964146202084,10.4779972841867,0.96652679113729,1.382388,-1.8060231,0.030543262,148.88924,-77.13854,-7.8282123,WAL
45780303527000,1.985241,-0.750629832842773,10.4917756667875,0.865487332904395,1.3716979,-1.7993035,0.026267206,149.33852,-77.4378,-7.7308383,WAL
45780308235000,1.989949,-0.709850463142827,10.4379908441311,0.71067706095642,1.35551,-1.7263051,0.03573562,149.78645,-77.708824,-7.6431375,WAL
45780313217000,1.994931,-0.664319283161913,10.3418690415651,0.508316118411621,1.3674219,-1.6249015,0.046731193,150.22148,-77.97602,-7.560364,WAL
45780318218000,1.999932,-0.610312930370149,10.1778545532276,0.422836615726828,1.3726143,-1.5726726,0.04917465,150.65143,-78.254944,-7.4734135,WAL
45780323215000,2.004929,-0.553018334450763,9.98687273301407,0.384640216785394,1.3616186,-1.5167783,0.04184427,151.04881,-78.52522,-7.3936787,WAL
45780328244000,2.009958,-0.438156215513794,9.86782970209221,0.351333692508795,1.3472633,-1.4682146,0.043676864,151.42784,-78.82299,-7.3100634,WAL
45780333233000,2.014947,-0.301039069727828,9.77936709294575,0.320371760833179,1.3390167,-1.4248432,0.05497787,151.7902,-79.11119,-7.230708,WAL
45780338202000,2.019916,-0.120036001071719,9.74226575822836,0.303804840154409,1.3396275,-1.3912456,0.077579886,152.14981,-79.40049,-7.145903,WAL
45780343255000,2.024969,0.101177147488826,9.74718119179195,0.298888995944738,1.3478742,-1.3704761,0.11942416,152.49747,-79.68708,-7.0561748,WAL
45780348232000,2.029946,0.239875589943204,9.547774735464,0.235113932325953,1.3500122,-1.3710871,0.13469578,152.85207,-79.98738,-6.945783,WAL
45780353229000,2.034943,0.322797759986523,9.2022659541779,0.129157826212938,1.3548992,-1.3839152,0.10720685,153.20236,-80.28124,-6.8390975,WAL
45780358233000,2.039947,0.270479085375076,8.80224781673104,-0.0463323526359016,1.3811663,-1.3891076,0.060170226,153.56554,-80.60259,-6.698263,WAL
45780363241000,2.044955,0.0852275455011181,8.3488688120553,-0.29008437465989,1.3845261,-1.3423764,-0.0061086523,153.91708,-80.90236,-6.575418,WAL
45780368232000,2.049946,0.067533798599339,8.17530308053071,-0.559804749492613,1.351234,-1.1820242,-0.10751228,154.24129,-81.19349,-6.4735947,WAL
45780373246000,2.05496,0.193553324530521,8.24064664166991,-0.853850321370529,1.3170254,-0.9776898,-0.12950343,154.53683,-81.47883,-6.373068,WAL
45780378234000,2.059948,0.326031894373293,8.31623167101669,-0.954389581969651,1.2782356,-0.81092364,-0.11942416,154.78557,-81.73055,-6.3385816,WAL
45780383237000,2.064951,0.466595408009105,8.40347822124431,-0.847755214828528,1.1905763,-0.6899723,-0.12339478,154.98804,-81.947174,-6.31977,WAL
45780388217000,2.069931,0.584428582111517,8.47737045566728,-0.731434307516453,1.103528,-0.61727935,-0.1423316,155.15079,-82.20185,-6.283353,WAL
45780393264000,2.074978,0.681627020493601,8.5392238857404,-0.603309047990859,1.0467176,-0.57848936,-0.15088372,155.28754,-82.43407,-6.2483683,WAL
45780398244000,2.079958,0.758264543172516,8.60980835902873,-0.475274022150355,1.0164797,-0.57787853,-0.16340645,155.43396,-82.64979,-6.1952076,WAL
45780403227000,2.084941,0.793684823077086,8.70088905010073,-0.343713026283533,1.0140363,-0.571159,-0.16920967,155.56691,-82.84956,-6.1445217,WAL
45780408265000,2.089979,0.809874447387621,8.79058855471943,-0.23076353747274,1.0192287,-0.571159,-0.16920967,155.72202,-83.03876,-6.0761757,WAL
45780413243000,2.094957,0.800371151163161,8.87611831501047,-0.145233759319845,1.0183123,-0.56230146,-0.17715092,155.87222,-83.21465,-6.0130277,WAL
45780418200000,2.099914,0.798617791141621,8.97424073932669,-0.0920252389501599,1.0204504,-0.5519168,-0.17562376,156.03886,-83.38106,-5.9410377,WAL
45780423223000,2.104937,0.807665043593192,9.09185517707354,-0.0829779770515328,1.0137309,-0.52656585,-0.17867808,156.1981,-83.535736,-5.8739247,WAL
45780428165000,2.109879,0.823965024839049,9.19303436440143,-0.0695169783103303,1.0195341,-0.5009095,-0.16890424,156.36447,-83.68226,-5.804021,WAL
45780433238000,2.114952,0.859740529543446,9.25947433431517,-0.0439630434815906,1.0375546,-0.49602258,-0.15210545,156.52867,-83.82391,-5.733941,WAL
45780438189000,2.119903,0.877540312800917,9.33081209524264,-0.018152751039358,1.0424415,-0.5039638,-0.1432479,156.69937,-83.96193,-5.6613545,WAL
45780443277000,2.124991,0.868230653190676,9.41459932336645,0.00977624723347344,1.0430524,-0.5186246,-0.13347405,156.86961,-84.09933,-5.5848536,WAL
45780448184000,2.129898,0.859128780087965,9.48955691663335,0.0342980641843263,1.042747,-0.54641896,-0.13408493,157.05663,-84.2346,-5.5035524,WAL
45780453342000,2.135056,0.84925330339864,9.55374782447021,0.0540490330307877,1.0531317,-0.5720753,-0.118507855,157.2461,-84.37138,-5.4160295,WAL
45780458244000,2.139958,0.837299449985842,9.60824494620104,0.0520238921642284,1.044885,-0.60231316,-0.106901415,157.45369,-84.497604,-5.3315406,WAL
45780463241000,2.144955,0.81923231659462,9.6488958595564,0.00233929090240679,1.0369438,-0.6356053,-0.09621128,157.6682,-84.62258,-5.243994,WAL
45780468231000,2.149945,0.778193173207443,9.66066768275608,-0.0446729451840457,1.0381655,-0.6630942,-0.08674286,157.90086,-84.74188,-5.1567807,WAL
45780473217000,2.154931,0.633043157966102,9.54190847457627,-0.0798608286271186,1.0283916,-0.68783426,-0.09010262,158.14066,-84.853966,-5.071269,WAL
45780478391000,2.160105,0.482487902843352,9.4208828708561,-0.11312493850674,0.98837996,-0.7144069,-0.1133155,158.39265,-84.9547,-4.99368,WAL
45780483236000,2.16495,0.343035463649362,9.35749500336976,-0.0708666252307832,0.9550878,-0.71929383,-0.124005646,158.64357,-85.052376,-4.914642,WAL
45780489585000,2.171299,0.161011029159935,9.27586375605816,-0.0154984917382876,0.90316427,-0.69974613,-0.14630222,158.89655,-85.101616,-4.8793135,WAL
45780493295000,2.175009,0.0605628600726979,9.23998943457189,0.0167884215735057,0.8527679,-0.6640105,-0.172264,159.14381,-85.142166,-4.8482237,WAL
45780498226000,2.17994,-0.0729438573852989,9.19230849676898,0.05970129746042,0.7910705,-0.6282749,-0.204029,159.39133,-85.13787,-4.8575516,WAL
45780503232000,2.184946,-0.217017245525185,9.19173522676297,0.0632486117914845,0.75441855,-0.6062838,-0.23335053,159.62952,-85.12568,-4.8727045,WAL
45780508222000,2.189936,-0.362353160925299,9.20081890477096,0.0587068628939365,0.7504479,-0.6044512,-0.26328292,159.86041,-85.10373,-4.896016,WAL
45780513242000,2.194956,-0.469876961808554,9.221113900611,-0.0386748902219959,0.7797695,-0.59406644,-0.29016098,160.09149,-94.95322,-4.953197,WAL
45780518168000,2.199882,-0.561153113270876,9.24513391934827,-0.168383081696538,0.81489426,-0.57910025,-0.29840767,160.31717,-95.01222,-5.011587,WAL
45780523328000,2.205042,-0.616265358340935,9.3438712795515,-0.31161112663721,0.83169305,-0.5363397,-0.3203988,160.53128,-95.11218,-5.11011,WAL
45780528243000,2.209957,-0.656519068232611,9.46016025427594,-0.450262795598632,0.8885035,-0.45814893,-0.34513888,160.7269,-95.214386,-5.2091866,WAL
45780533231000,2.214945,-0.631689754703299,9.7065220613829,-0.417396573503217,0.9611965,-0.33322698,-0.3652974,160.88786,-95.339905,-5.327598,WAL
45780538228000,2.219942,-0.573037550137882,10.0193334447962,-0.295204495118987,1.0317514,-0.18387043,-0.376293,161.0159,-95.47122,-5.447654,WAL
45780543277000,2.224991,-0.375288486808477,10.2966738284686,0.088161385214914,1.07665,-0.07452556,-0.3857614,161.11578,-95.620995,-5.577247,WAL
45780548229000,2.229943,-0.124039941912835,10.5526631223511,0.571696301752299,1.104139,-0.046120327,-0.3885103,161.19382,-95.776794,-5.7054515,WAL
45780553227000,2.234941,0.20299062645026,10.6904657337195,1.06614001321414,1.1160508,-0.070249505,-0.38087448,161.2802,-95.917046,-5.8164477,WAL
45780558744000,2.240458,0.598780014688774,10.7854548961247,1.61496794412705,1.103528,-0.18692477,-0.37751472,161.38313,-96.06057,-5.927572,WAL
45780563232000,2.244946,0.915030915869608,10.7145625056607,1.85451697036892,1.073901,-0.34574974,-0.3622431,161.56622,-96.12553,-5.982449,WAL
45780568253000,2.249967,1.26701080758345,10.5878498818563,2.05631883048995,0.99204516,-0.5119051,-0.35735616,161.78111,-96.18674,-6.0382147,WAL
45780573219000,2.254933,1.49125058583057,10.4445601875188,2.02032808106723,0.8949176,-0.6780604,-0.33353242,162.11554,-96.148,-6.0229373,WAL
45780578247000,2.259961,1.65093523750377,10.2897141079289,1.85580445309014,0.8054258,-0.7800749,-0.29077184,162.47124,-96.099396,-5.998937,WAL
45780583239000,2.264953,1.65747584024641,10.178611338809,1.60280743100616,0.7128797,-0.8231409,-0.25167647,162.90675,-95.97679,-5.9104753,WAL
45780588234000,2.269948,1.58603862207392,10.08931487437,1.30366404202912,0.63346726,-0.7974846,-0.20280726,163.34065,-95.84193,-5.804375,WAL
45780593252000,2.274966,1.46276341851709,10.0676405738084,0.974244804053924,0.5626069,-0.7293731,-0.16615535,163.77344,-95.68138,-5.6622715,WAL
45780598240000,2.279954,1.29257016879153,10.1090388124218,0.620058811680308,0.48441613,-0.63529986,-0.14844026,164.18156,-95.51613,-5.5102243,WAL
45780603229000,2.284943,1.13560510990905,10.2107213853461,0.313231751071248,0.42241332,-0.5155703,-0.13744467,164.5278,-95.36346,-5.3620605,WAL
45780608235000,2.289949,0.99509943889338,10.389987788378,0.066135616366852,0.35185838,-0.41905355,-0.129198,164.84738,-84.79029,-5.2096295,WAL
45780613229000,2.294943,0.877799296591701,10.5434947170863,-0.0692257624474077,0.28008172,-0.37904188,-0.12858713,165.11493,-84.911224,-5.0877724,WAL
45780618236000,2.29995,0.787136497760971,10.6675590988158,-0.0739974867610707,0.24556783,-0.34208453,-0.12614368,165.35202,-85.03303,-4.9637504,WAL
45780623201000,2.304915,0.708562955513964,10.729417700737,-0.0869184373091544,0.20280726,-0.3472769,-0.11484267,165.56978,-85.133255,-4.8616138,WAL
45780628667000,2.310381,0.637494746518619,10.7141890176493,-0.112299948245539,0.16523905,-0.37110063,-0.10903945,165.77972,-85.23095,-4.761147,WAL
45780633252000,2.314966,0.578703363151086,10.6291735126832,-0.15671411204952,0.12736541,-0.4007276,-0.11209377,165.99545,-85.31146,-4.676648,WAL
45780638254000,2.319968,0.515768401354219,10.4306863678626,-0.239013673587671,0.11759156,-0.4260785,-0.116980694,166.21382,-85.39156,-4.591551,WAL
45780643288000,2.325002,0.42320828747417,10.2196465273985,-0.380024291300738,0.089186326,-0.40317106,-0.12186762,166.42339,-85.45622,-4.520427,WAL
45780648273000,2.329987,0.29108545198524,9.99503778708487,-0.600228986457565,0.04337143,-0.35216382,-0.14721853,166.62897,-85.51158,-4.456803,WAL
45780653175000,2.334889,0.123126544901666,9.81400925222998,-0.777939260085975,0.025961773,-0.2855795,-0.15882497,166.81732,-85.555565,-4.4059477,WAL
45780658243000,2.339957,-0.179403801763568,9.76184888425578,-0.830099682525524,-0.017104227,-0.24923302,-0.1826487,166.99709,-85.58564,-4.3656654,WAL
45780663174000,2.344888,-0.454302251398698,9.76827507674098,-0.877555912290393,-0.036651913,-0.2434298,-0.20738874,167.14099,-85.58971,-4.3592463,WAL
45780668235000,2.349949,-0.702906249262182,9.87345331988558,-0.92058352288913,-0.05681047,-0.24801129,-0.21166481,167.27582,-85.59155,-4.3532014,WAL
45780673183000,2.354897,-0.909084415200077,9.98160724421841,-0.916655970463487,-0.064751714,-0.25717425,-0.23060162,167.38902,-85.533066,-4.409758,WAL
45780678246000,2.35996,-1.04866997940697,10.1025814128203,-0.823598919561462,-0.04550946,-0.28344148,-0.2415972,167.50665,-85.47737,-4.463785,WAL
45780683171000,2.364885,-1.14186227797697,10.2436552638958,-0.701408751549324,-0.056505036,-0.3222314,-0.25289822,167.62479,-85.37154,-4.568474,WAL
45780688259000,2.369973,-1.11258230297446,10.4583754882323,-0.481808806543816,-0.0580322,-0.38026363,-0.25289822,167.7537,-85.26931,-4.67068,WAL
45780693241000,2.374955,-1.05852298826968,10.6504892941066,-0.267761384876002,-0.03940081,-0.453262,-0.2510656,167.90308,-85.14005,-4.798165,WAL
45780698383000,2.380097,-0.933149439981141,10.7990802451674,-0.0495185503583215,-0.017715093,-0.54519725,-0.2489276,168.07135,-85.0139,-4.9223623,WAL
45780703195000,2.384909,-0.808479300171078,10.9333423681192,0.134791365346684,-0.010079277,-0.6310238,-0.25503623,168.27469,-84.891884,-5.0354095,WAL
45780708272000,2.389986,-0.63233235855389,11.0458804059575,0.208185927334206,-0.014660766,-0.72021013,-0.25534168,168.50084,-84.77556,-5.142612,WAL
45780713235000,2.394949,-0.46185325455956,11.169859008008,0.253306069259259,-0.044898596,-0.75533485,-0.2565634,168.7735,-84.67616,-5.222824,WAL
45780718268000,2.399982,-0.297808977563564,11.3676775715716,0.16163426162963,-0.06658431,-0.8155051,-0.24770586,169.07228,-84.58191,-5.2963905,WAL
45780723239000,2.404953,-0.152825132948748,11.5604177227541,0.0631591372072333,-0.10140363,-0.8536842,-0.22296582,169.39264,-84.520996,-5.3289037,WAL
45780728276000,2.40999,-0.0921831341825742,11.7423434857364,-0.0767839297495407,-0.12950343,-0.8686504,-0.17684549,169.71602,-84.46834,-5.349841,WAL
45780733222000,2.414936,-0.0218733568231118,11.9037603051053,-0.185943213605026,-0.160963,-0.86009824,-0.12736541,170.04852,-84.456055,-5.3283606,WAL
45780738254000,2.419968,0.153700389949928,11.9015093142136,-0.0238751388289971,-0.15790866,-0.82894415,-0.10842858,170.37201,-84.448166,-5.3011746,WAL
45780743320000,2.425034,0.330460445822785,11.8992431139241,0.139287990506329,-0.17379116,-0.7635816,-0.10629055,170.67787,-84.46408,-5.251414,WAL
45780748273000,2.429987,0.503277768510953,11.8970274625158,0.298811673806343,-0.18967366,-0.6951646,-0.13194689,170.9685,-84.47681,-5.204337,WAL
45780753167000,2.434881,0.674036495996497,11.8948382038862,0.456435115371106,-0.25625798,-0.61941737,-0.16126843,171.24092,-84.47871,-5.1596603,WAL
45780758245000,2.439959,0.92602401765873,11.9370858973214,0.534990076949405,-0.3210097,-0.5381723,-0.18081611,171.48755,-84.47344,-5.1200867,WAL
45780763176000,2.44489,1.18837532888889,11.98861925,0.591208217166667,-0.44409904,-0.4615087,-0.18112154,171.70956,-84.45029,-5.083824,WAL
45780768266000,2.44998,1.39348700183185,12.050446933302,0.545386788176609,-0.5693264,-0.39461896,-0.1685988,171.95952,-84.447044,-4.9814954,WAL
45780773192000,2.454906,1.57518629483326,12.1124904701738,0.474479732219822,-0.71593404,-0.33108896,-0.13408493,172.1831,-84.420906,-4.874658,WAL
45780778239000,2.459953,1.69922976471538,12.0981532077109,0.330160129983448,-0.8762862,-0.28710666,-0.087659165,172.41255,-84.404305,-4.713383,WAL
45780783242000,2.464956,1.79110934467097,12.0449597241623,0.15123679978583,-1.0195341,-0.23060162,-0.028405234,172.61487,-84.359856,-4.541847,WAL
45780788214000,2.469928,1.80965129126037,11.9224211144042,-0.0599901850394498,-1.1588113,-0.14935656,0.025350908,172.80898,-84.30799,-4.3278317,WAL
45780793306000,2.47502,1.79485307187943,11.7645737500506,-0.291829122224155,-1.3014483,-0.052839845,0.06780604,172.97789,-84.21218,-4.105049,WAL
45780798235000,2.479949,1.70559393077812,11.5842697372881,-0.521600271964561,-1.4413365,0.049785517,0.10354166,173.11868,-84.1003,-3.8603494,WAL
45780803235000,2.484949,1.5856994296225,11.3905938898305,-0.756778016571649,-1.5671748,0.17928895,0.14172074,173.22101,-83.94054,-3.6099162,WAL
45780808232000,2.489946,1.36139678924678,11.2686529758176,-0.875845008885035,-1.6875153,0.23854288,0.18081611,173.3063,-83.75114,-3.3608024,WAL
45780813944000,2.495658,1.03610801303271,11.1764876763132,-0.935481260936571,-1.8038851,0.35460728,0.19303341,173.33762,-83.51071,-3.1175094,WAL
45780818235000,2.499949,0.736827502211991,11.1185748435592,-0.883110775282754,-1.8637499,0.4456262,0.20525073,173.33621,-83.26033,-2.894391,WAL
45780823224000,2.504938,0.363818008712842,11.0564063408067,-0.777902971984786,-1.9990565,0.5161811,0.21410827,173.30815,-82.946976,-2.6754832,WAL
45780828229000,2.509943,-0.107903810418595,11.0264039656485,-0.667525964897665,-2.137723,0.54367006,0.20830505,173.25201,-82.59092,-2.5182786,WAL
45780833227000,2.514941,-0.639571707135658,11.0165585790394,-0.554300389778875,-2.2849414,0.5546656,0.20341812,173.18144,-82.19303,-2.36336,WAL
45780838206000,2.51992,-1.17964023039578,11.0539513579595,-0.435900517361478,-2.4184155,0.5519168,0.1994475,173.09058,-81.72391,-2.2849088,WAL
45780843295000,2.525009,-1.73687227311639,11.1158657840321,-0.312071197742598,-2.5231788,0.52656585,0.21899518,173.00304,-81.2285,-2.2032337,WAL
45780848319000,2.530033,-2.3141217285005,11.1990531701092,-0.213046391123734,-2.6035078,0.47494772,0.23976462,172.8901,-80.671715,-2.2230175,WAL
45780853231000,2.534945,-2.8933787183714,11.292482141708,-0.12896068935293,-2.6462681,0.3943135,0.26145032,172.79185,-80.10906,-2.236021,WAL
45780858229000,2.539943,-3.4057446604203,11.3946151493318,-0.0645604366138873,-2.6762006,0.3118467,0.27183503,172.6722,-79.49935,-2.354765,WAL
45780863250000,2.544964,-3.8714151805152,11.5017191185357,-0.0133366716234747,-2.6933048,0.22418754,0.27977628,172.57544,-78.89691,-2.4637134,WAL
45780868228000,2.549942,-4.21295062498683,11.5771941364355,0.0670040137880597,-2.6972754,0.113926366,0.28893927,172.46281,-78.266655,-2.680789,WAL
45780873214000,2.554928,-4.45610230477612,11.627501519403,0.171810768197015,-2.6871963,-0.007330383,0.2968805,172.377,-77.65071,-2.887686,WAL
45780878177000,2.559891,-4.66713167555831,11.6760556092845,0.279676023306452,-2.6682594,-0.1469131,0.3200934,172.29367,-77.02508,-3.172345,WAL
45780883891000,2.565605,-4.80857586141439,11.7269753129653,0.415462321209677,-2.6456573,-0.29626966,0.3381139,172.2462,-76.41719,-3.4423761,WAL
45780888239000,2.569953,-4.87152125882971,11.7691826149294,0.544919039911226,-2.5937338,-0.46975538,0.35613444,172.22424,-75.79913,-3.745161,WAL
45780893250000,2.574964,-4.86235944222986,11.8241534188622,0.741897216678121,-2.5372288,-0.6637051,0.36651915,172.24791,-75.20297,-4.025775,WAL
45780898225000,2.579939,-4.83793613853029,11.8903767392796,0.934920126294123,-2.4685066,-0.870483,0.37598756,172.31529,-74.60771,-4.3049192,WAL
45780903229000,2.584943,-4.76438926464747,11.994207593482,1.12095072220998,-2.3961189,-1.0900891,0.3817908,172.43765,-74.0429,-4.5581827,WAL
45780908495000,2.590209,-4.67160621622588,12.1048951000715,1.30094370634126,-2.324953,-1.303281,0.37873647,172.61798,-73.475494,-4.783952,WAL
45780913246000,2.59496,-4.41142359328092,12.2210483902788,1.28235920901664,-2.2516494,-1.4095715,0.3848451,172.82477,-72.94352,-4.9875307,WAL
45780918329000,2.600043,-4.1339683906388,12.3377236751055,1.24097411083309,-2.2256875,-1.5674802,0.4034765,173.11557,-72.418465,-5.138121,WAL
45780923218000,2.604932,-3.87668494554018,12.3698838059072,0.974501878745952,-2.1111503,-1.5855007,0.4202753,173.3917,-71.95143,-5.2811995,WAL
45780928466000,2.61018,-3.59736532942946,12.409412946728,0.690549564219832,-1.9633209,-1.5968018,0.42852196,173.72142,-71.534164,-5.3446016,WAL
45780933231000,2.614945,-3.30622934487787,12.5050718851622,0.457640785264309,-1.8338175,-1.6175711,0.41783184,174.05356,-71.153984,-5.3996634,WAL
45780938230000,2.619944,-3.00079623117937,12.6054284503737,0.213294303417791,-1.7263051,-1.4819591,0.4615087,174.33101,-70.82736,-5.3956895,WAL
45780943278000,2.624992,-2.61677042197504,12.6993637180894,-0.335065794175559,-1.6166549,-1.1355985,0.56138515,174.54852,-70.54819,-5.3932014,WAL
45780948169000,2.629883,-2.23012928979263,12.7889513881619,-0.924457792426012,-1.4556919,-0.8155051,0.569021,174.7376,-70.31534,-5.4112225,WAL
45780953799000,2.635513,-2.10222842422252,12.5911739799111,-1.09128612457021,-1.3377949,-0.50243664,0.50793445,174.85132,-70.16116,-5.38274,WAL
45780958256000,2.63997,-2.04451410533127,12.3932963520379,-1.15312288866139,-1.2861768,-0.22571471,0.45540005,174.88585,-70.03756,-5.3757505,WAL
45780963271000,2.644985,-1.75376487608807,12.1870423016897,-1.34119430739375,-1.3029755,0.096516706,0.49480084,174.83752,-70.005615,-5.318433,WAL
45780968169000,2.649883,-1.40790538402458,11.9900945493088,-1.55735646485407,-1.3200798,0.46914452,0.5503896,174.7041,-69.98591,-5.3019247,WAL
45780973225000,2.654939,-1.00795445552712,11.7390188921154,-1.52193167086327,-1.3359623,0.8381071,0.6010914,174.48029,-69.95964,-5.298074,WAL
45780978186000,2.6599,-0.605758699344424,11.481800882075,-1.42839775136332,-1.3805555,1.110553,0.6407976,174.17867,-69.925705,-5.308516,WAL
45780983234000,2.664948,-0.147490088582289,11.2150097404972,-1.2093428492141,-1.4367551,1.3093897,0.68691796,173.8188,-69.925476,-5.26694,WAL
45780988192000,2.669906,0.315913614105198,10.9516010920485,-0.960568272072118,-1.4776831,1.4902058,0.74097955,173.38766,-69.922005,-5.237637,WAL
45780993242000,2.674956,0.664894703889459,10.7189236815423,-0.688720919602278,-1.4993688,1.6444492,0.8185594,172.93736,-69.89833,-5.130396,WAL
45780998170000,2.679884,0.982139072422743,10.4986152584259,-0.419944454764261,-1.5021176,1.7470746,0.86651236,172.45253,-69.8712,-5.0316086,WAL
45781003229000,2.684943,1.15975749068179,9.9143052996113,-0.222347116026894,-1.5048665,1.8295414,0.90102625,171.96657,-69.814644,-4.8429537,WAL
45781008248000,2.689962,1.27084606156109,9.17708121451833,-0.060763777590083,-1.4963144,1.858863,0.9104946,171.46857,-69.76084,-4.657445,WAL
45781013240000,2.694954,1.13405311125481,8.73653834163125,-0.156557820945153,-1.4828753,1.9147571,0.90408057,170.97261,-69.66616,-4.414852,WAL
45781018193000,2.699907,0.937251735984618,8.37173550678,-0.314958900975511,-1.4639386,1.9715676,0.88453287,170.47276,-69.57237,-4.182087,WAL
45781023396000,2.70511,0.635918370892643,8.08032284704145,-0.37874665833841,-1.4352279,2.0320432,0.8542951,169.96783,-69.42356,-3.9546764,WAL
45781028246000,2.70996,0.335786733765347,7.82735503110865,-0.417335009764608,-1.412015,2.0769417,0.8216137,169.4583,-69.276,-3.7424102,WAL
45781033220000,2.714934,-0.0210766680300148,7.59279047398013,-0.457368929811879,-1.3884968,2.11451,0.77732605,168.91524,-69.12623,-3.5992396,WAL
45781038255000,2.719969,-0.408379654274995,7.36856237357853,-0.498137657924329,-1.3756685,2.1184807,0.7257079,168.37738,-68.979485,-3.4717667,WAL
45781043284000,2.724998,-0.732288651340782,7.23743357363129,-0.476561154212291,-1.3707817,2.1178699,0.66828656,167.79941,-68.81315,-3.4429069,WAL
45781048283000,2.729997,-1.03540438943669,7.13490901746741,-0.436442903862197,-1.3775011,2.1062634,0.6062838,167.23285,-68.648506,-3.4313574,WAL
45781053230000,2.734944,-1.31253864582399,7.09927889344118,-0.344016523233603,-1.3762794,2.068695,0.5311473,166.64232,-68.464806,-3.5254,WAL
45781058278000,2.739992,-1.58108870371309,7.1039902945132,-0.216808605736283,-1.3716979,2.0289888,0.47861293,166.06273,-68.28367,-3.6308987,WAL
45781063199000,2.744913,-1.81495729808282,7.13914396060199,-0.0225411180406442,-1.3839152,1.9813415,0.42424592,165.47021,-68.06891,-3.8335822,WAL
45781068200000,2.749914,-2.03073568286043,7.19882753028183,0.229965460216641,-1.3949108,1.8958203,0.38728857,164.90477,-67.859566,-4.039221,WAL
45781073201000,2.754915,-2.25838698115768,7.29446175339753,0.541073356216216,-1.4004086,1.7916678,0.3640757,164.33522,-67.61196,-4.318197,WAL
45781078206000,2.75992,-2.49964627276507,7.43082552224532,0.918696548108108,-1.3991868,1.6823229,0.34391713,163.79591,-67.36671,-4.5975423,WAL
45781083188000,2.764902,-2.68549565550617,7.59133558340741,1.29830858022716,-1.3997977,1.5586227,0.3399465,163.27063,-67.0662,-4.923983,WAL
45781088203000,2.769917,-2.84203027451852,7.76684423822222,1.68253004388148,-1.3610078,1.4223998,0.36468655,162.77951,-66.78341,-5.2348723,WAL
45781093197000,2.774911,-2.94527344975912,7.88602901858224,1.97707338974535,-1.2962561,1.2996159,0.3924809,162.30386,-66.44165,-5.590336,WAL
45781098199000,2.779913,-3.01592012206273,7.97080482863042,2.2172721739357,-1.2244794,1.1911873,0.4392121,161.85895,-66.12245,-5.919197,WAL
45781103146000,2.78486,-3.01199151475977,8.01178228542345,2.34266194802524,-1.1414018,1.1472049,0.49541172,161.42021,-65.75564,-6.2720065,WAL
45781108134000,2.789848,-2.95364171406759,8.02150746376221,2.38642448894544,-1.0855075,1.0952814,0.52290064,161.0143,-65.41082,-6.6035147,WAL
45781113153000,2.794867,-2.84552771802998,7.99020185233927,2.35982585423081,-0.9776898,1.0754282,0.5656612,160.60002,-65.06527,-6.9313235,WAL
45781118154000,2.799868,-2.70578375711842,7.93237682752792,2.28754447258275,-0.8417723,1.0680978,0.6053675,160.19792,-64.754,-7.2437677,WAL
45781123144000,2.804858,-2.56161570413978,7.83692646035938,2.18366976136206,-0.69058317,1.0680978,0.62858033,159.79066,-64.47873,-7.5285335,WAL
45781128159000,2.809873,-2.41380892229723,7.71772748289487,2.05970272522585,-0.52534413,1.0732902,0.63713247,159.3856,-64.254005,-7.802448,WAL
45781133149000,2.814863,-2.30478636075664,7.60287810077428,1.88903754784867,-0.37720928,1.0494665,0.63316184,158.9893,-64.08813,-8.032085,WAL
45781138137000,2.819851,-2.22051267568362,7.49051321993531,1.68771716486328,-0.23426682,0.98807454,0.6044512,158.60751,-63.96859,-8.258815,WAL
45781143191000,2.824905,-2.13853941018519,7.40149735185185,1.49086347314815,-0.12186762,0.9392053,0.57910025,158.22774,-63.905613,-8.446232,WAL
45781148152000,2.829866,-2.06063821672454,7.33276108912037,1.30298425931713,-0.03023783,0.9104946,0.5510005,157.86586,-63.874466,-8.634442,WAL
45781153202000,2.834916,-2.02541523944297,7.24572746778464,1.15016917751299,0.05589417,0.88025683,0.5335908,157.50705,-63.90221,-8.799427,WAL
45781158231000,2.839945,-2.03486149367461,7.14181847396293,1.0368140280965,0.10842858,0.8246681,0.5311473,157.16649,-63.94414,-8.959354,WAL
45781163212000,2.844926,-2.03572503197171,6.98140030734158,0.989238604084861,0.15485434,0.7620544,0.52595496,156.82944,-64.038124,-9.099733,WAL
45781168209000,2.849923,-2.02681924066251,6.75430239647343,1.01595597801247,0.17195857,0.66920286,0.49174652,156.52063,-64.133545,-9.23669,WAL
45781173199000,2.854913,-2.01111710629012,6.53289424300385,1.08224061861361,0.160963,0.5879578,0.4654793,156.2084,-64.23816,-9.372992,WAL
45781178215000,2.859929,-1.98028448189987,6.32220469666239,1.23640390154044,0.15790866,0.5170974,0.43890667,155.92345,-64.34382,-9.507351,WAL
45781183183000,2.864897,-1.91274431852848,6.1370895021996,1.42866166656421,0.17134771,0.42943826,0.4120286,155.6714,-64.419914,-9.643989,WAL
45781188189000,2.869903,-1.79762209000096,5.98052320985496,1.67272073141869,0.19211712,0.3368922,0.3885103,155.44337,-64.49307,-9.776958,WAL
45781193195000,2.874909,-1.66097333793308,5.82919838856974,1.93109206964762,0.23182335,0.22571471,0.36346483,155.25862,-64.52735,-9.905818,WAL
45781198211000,2.879925,-1.48553374965946,5.68694995599645,2.21558878625999,0.2932153,0.09865474,0.33933565,155.10652,-64.569214,-10.027255,WAL
45781203191000,2.884905,-1.31501820809179,5.53678792512077,2.48067063858696,0.37934732,0.031154128,0.32711834,154.96553,-64.559875,-10.12467,WAL
45781208999000,2.890713,-1.12468497427536,5.34085677536232,2.74937639076087,0.42180246,-0.15821409,0.29840767,154.89694,-64.55049,-10.203365,WAL
45781213165000,2.894879,-0.998241696530395,5.19315522847202,2.93899128724268,0.5717699,-0.22021692,0.29168814,154.8341,-64.530945,-10.249585,WAL
45781218231000,2.899945,-0.862263392190973,5.00091014931864,3.16405872922586,0.6374379,-0.34147367,0.27550024,154.84328,-64.49695,-10.276301,WAL
45781223180000,2.904894,-0.750358611780517,4.82737469493002,3.38629555287793,0.7535023,-0.4569272,0.24984388,154.8871,-64.44915,-10.273319,WAL
45781228243000,2.909957,-0.691934670219668,4.68805594232088,3.61999131912133,0.88697636,-0.57879484,0.21868975,154.96877,-64.422104,-10.2598295,WAL
45781233180000,2.914894,-0.635773960182146,4.56637508805464,3.84933182791486,1.0064005,-0.68936145,0.1853976,155.0891,-64.32486,-10.231951,WAL
45781238231000,2.919945,-0.584548272582866,4.55100738177486,4.09521544932754,1.1191051,-0.75625116,0.14752395,155.23592,-64.26051,-10.201068,WAL
45781243506000,2.92522,-0.5250406749241,4.56996774260343,4.33362078807421,1.2299771,-0.8008443,0.124311075,155.41371,-64.08924,-10.189205,WAL
45781248266000,2.92998,-0.45719822118861,4.66947011387042,4.50548800506003,1.3252722,-0.81031275,0.0983493,155.60715,-63.949585,-10.176243,WAL
45781253223000,2.934937,-0.393352491691375,4.79712525636792,4.6802445680593,1.4101825,-0.8005389,0.07666359,155.82222,-63.86376,-10.112745,WAL
45781258322000,2.940036,-0.352220303522574,5.0151258459316,4.84477338945418,1.4831808,-0.752586,0.062308256,156.03249,-63.802856,-10.052813,WAL
45781263230000,2.944944,-0.312628858232817,5.22496049852594,5.00313923675876,1.5164729,-0.677755,0.04337143,156.25656,-63.754272,-9.967117,WAL
45781268225000,2.949939,-0.217002385286519,5.66468902384896,5.25593477860219,1.5082263,-0.58459806,0.03726278,156.46298,-63.716965,-9.886573,WAL
45781273422000,2.955136,-0.106168341985748,6.17022937482185,5.5411539567696,1.4844025,-0.48197266,0.023823744,156.65015,-63.684124,-9.819971,WAL
45781278817000,2.960531,0.0214647893301663,6.76912358337292,5.90441763182898,1.3979651,-0.38728857,0.022907447,156.81302,-63.63157,-9.730941,WAL
45781283189000,2.964903,0.12489612392019,7.25445546099762,6.19879924209026,1.2956452,-0.321926,0.0076358155,156.97212,-63.531506,-9.629042,WAL
45781288234000,2.969948,0.302491195165458,8.03323859197058,6.5706202398887,1.1716396,-0.2602286,0.00061086525,157.10791,-63.411385,-9.533771,WAL
45781293252000,2.974966,0.483962305738845,8.82598086564643,6.94311341595946,1.031446,-0.20219639,-0.009468411,157.23143,-63.265865,-9.44827,WAL
45781298237000,2.979951,0.656011710843487,9.72310773448569,7.25884225021252,0.86926126,-0.18234327,-0.03481932,157.38133,-63.104073,-9.306776,WAL
45781303166000,2.98488,0.825441674558421,10.6193030119014,7.56649146285067,0.7089091,-0.13164146,-0.05375614,157.50874,-62.913914,-9.177598,WAL
45781308266000,2.98998,0.91870692575372,12.30779905648,7.87125084397024,0.61911196,-0.105374254,-0.08460484,157.67842,-62.771023,-8.967691,WAL
45781313183000,2.994897,0.987847232693814,14.1284939823806,8.16163973844949,0.41905355,-0.09865474,-0.11362094,157.8387,-62.560337,-8.772146,WAL
45781318234000,2.999948,0.837638374625347,14.8738117358927,8.0714855146531,0.21471913,-0.124311075,-0.12858713,158.03018,-62.39917,-8.506168,WAL
45781323189000,3.004903,0.618151447104533,15.2381600823312,7.85638873546716,-0.0009162979,-0.15821409,-0.105068825,158.21371,-62.18633,-8.249325,WAL
45781328240000,3.009954,0.351173175759413,15.3155426335552,7.58231288852715,-0.2144137,-0.17470746,-0.07941248,158.39722,-62.06877,-7.942786,WAL
45781333269000,3.014983,0.0556100332398585,15.1903035853963,7.27172118943208,-0.40653083,-0.18753563,-0.015271631,158.57028,-61.90511,-7.636596,WAL
45781338222000,3.019936,-0.166446836859393,14.8942290911136,6.97260490326209,-0.5830709,-0.1695151,0.0290161,158.69635,-61.749756,-7.392879,WAL
45781343381000,3.025095,-0.363487745134983,14.5001477525309,6.66441255286839,-0.7333437,-0.1337795,0.07727446,158.8056,-61.55678,-7.1468267,WAL
45781348588000,3.030302,-0.486477345485115,13.921866108199,6.47683109534171,-0.8344419,-0.06963864,0.115453534,158.86095,-61.35752,-6.9687405,WAL
45781353230000,3.034944,-0.574412352380576,13.3546849611314,6.34492869518346,-0.8866709,0.03023783,0.15515977,158.88791,-61.13825,-6.7960825,WAL
45781358296000,3.04001,-0.599954348767725,12.6265900494308,6.24400264905133,-0.9117164,0.14263703,0.18509217,158.87567,-60.917023,-6.674714,WAL
45781363242000,3.044956,-0.595224285576193,11.8697794448772,6.16359157479529,-0.9166033,0.25228736,0.20463985,158.83362,-60.693897,-6.5640473,WAL
45781368230000,3.049944,-0.561231172543455,11.1153262701561,6.05090000453697,-0.9095783,0.3378085,0.21166481,158.76132,-60.445988,-6.4903827,WAL
45781373215000,3.054929,-0.514348728406167,10.3652073793578,5.9243173285083,-0.9126327,0.42363504,0.21166481,158.65997,-60.20065,-6.4315658,WAL
45781378236000,3.05995,-0.476095117781427,9.62488525679307,5.73312436267543,-0.8958339,0.50243664,0.21471913,158.5501,-59.92333,-6.3932486,WAL
45781383270000,3.064984,-0.442506232532099,8.89072844042998,5.50759895807704,-0.88789266,0.59498274,0.19547687,158.41998,-59.648212,-6.3761244,WAL
45781388259000,3.069973,-0.462279991174592,8.26239564643607,5.2705833980104,-0.8753699,0.6814202,0.17806722,158.28569,-59.34305,-6.373761,WAL
45781393281000,3.074995,-0.510563470940951,7.68299379757233,5.02477668776125,-0.8784242,0.77121735,0.1591304,158.13326,-59.042107,-6.3909483,WAL
45781398273000,3.079987,-0.609052286588335,7.1112984436329,4.73651211300942,-0.8775079,0.81214535,0.13041973,157.98767,-58.721092,-6.429061,WAL
45781403248000,3.084962,-0.765396414353763,6.54644240997142,4.39860713232772,-0.85062987,0.8888089,0.11911872,157.8151,-58.41463,-6.4854527,WAL
45781408247000,3.089961,-0.926958811147142,6.03675791252533,4.053516584394,-0.8353582,0.94806284,0.09621128,157.64554,-58.089424,-6.578485,WAL
45781413204000,3.094918,-1.09052343516417,5.57492826769355,3.70714435077017,-0.80573124,0.98532563,0.05955936,157.47078,-57.782757,-6.684512,WAL
45781418218000,3.099932,-1.19178038425926,5.26396277314815,3.44986733703704,-0.766025,1.0491611,0.013744468,157.27322,-57.479656,-6.8514495,WAL
45781423225000,3.104939,-1.24786351797271,5.0629982391423,3.25824993504873,-0.698219,1.133155,-0.03726278,157.07239,-57.198612,-7.035388,WAL
45781428212000,3.109926,-1.43188258626827,5.05199747995426,3.21074038997713,-0.6056729,1.2137892,-0.03940081,156.8452,-56.9429,-7.270834,WAL
45781433240000,3.114954,-1.72873406643134,5.20521124389977,3.28734727194989,-0.46761733,1.235475,-0.028710667,156.6214,-56.72414,-7.516909,WAL
45781438219000,3.119933,-2.05139928521224,5.50796593550839,3.41759839678184,-0.2950479,1.1563679,-0.043982297,156.39333,-56.54888,-7.78256,WAL
45781443246000,3.12496,-2.40308274647581,5.94994657411649,3.59819255297137,-0.11453723,0.9465357,-0.101098195,156.20006,-56.417046,-8.036462,WAL
45781448233000,3.129947,-2.70468087045095,6.48162329529272,3.67041064264241,0.061086524,0.6133087,-0.17928895,156.03296,-56.3299,-8.315905,WAL
45781453268000,3.134982,-2.96218068908228,7.11106700870253,3.63703106234177,0.25350907,0.21197024,-0.27855456,155.94707,-56.293343,-8.568223,WAL
45781458235000,3.139949,-3.19807914326009,7.78235533372922,3.5084296557304,0.45570546,-0.15241088,-0.35613444,155.9104,-56.309948,-8.841079,WAL
45781463258000,3.144972,-3.41708119756532,8.51553635550277,3.27514476256928,0.6600399,-0.4361578,-0.4120286,155.96162,-56.372265,-9.079416,WAL
45781468265000,3.149979,-3.59267562856335,9.29095217842676,3.1129476370325,0.8472701,-0.61422503,-0.42638394,156.04059,-56.526577,-9.325228,WAL
45781473261000,3.154975,-3.71888207197362,10.1158009561941,3.03181495030617,0.98563105,-0.7538077,-0.41783184,156.18036,-56.713966,-9.537653,WAL
45781478273000,3.159987,-3.82626718649984,11.0317775451582,2.94544251068237,1.0366384,-0.88178396,-0.40530908,156.30595,-56.995552,-9.763328,WAL
45781483272000,3.164986,-3.896737371002,12.113998761329,2.84980429802334,1.0467176,-1.03786,-0.37690386,156.46724,-57.294796,-9.953979,WAL
45781488192000,3.169906,-3.91506959915778,13.0549214073554,2.73343352737226,1.0170907,-1.1517864,-0.35002577,156.61302,-57.660313,-10.138299,WAL
45781493331000,3.175045,-3.86440822529478,13.8678060324256,2.58144947791971,0.9755518,-1.1578951,-0.3231477,156.76643,-58.01502,-10.303979,WAL
45781498274000,3.179988,-3.81567906183792,14.6496874688377,2.43526205693431,0.9242391,-1.1108584,-0.27977628,156.89989,-58.437027,-10.440525,WAL
45781503250000,3.184964,-3.76662457724125,15.4367888298709,2.2880986729927,0.8918633,-0.9465357,-0.27214047,157.00832,-58.837082,-10.58973,WAL
45781508209000,3.189923,-3.63051816370444,16.1556760664004,2.19326093195207,0.81489426,-0.7284568,-0.2556471,157.08295,-59.204147,-10.734078,WAL
45781513273000,3.194987,-3.01068694021967,16.5285437209186,2.38211566976535,0.70249504,-0.4810564,-0.23884831,157.10844,-59.54054,-10.898046,WAL
45781518190000,3.199904,-2.4010770610438,16.7625422747748,2.55475517567568,0.52106804,-0.2501493,-0.1872302,157.04982,-59.988956,-11.023652,WAL
45781523260000,3.204974,-1.7273387945014,16.2597520495496,2.67039685135135,0.30573806,-0.1826487,-0.14080444,156.97275,-60.381493,-11.150529,WAL
45781528203000,3.209917,-1.11566200085979,15.6135204288227,2.61133738059599,0.15363261,-0.376293,-0.098043874,156.9544,-60.76385,-11.139253,WAL
45781533768000,3.215482,-0.60536368024426,14.2700823968246,1.86671846857841,0.14049901,-0.72173727,-0.019242255,156.95073,-61.122124,-11.095358,WAL
45781538246000,3.21996,-0.270857679768156,13.123295261072,1.20057842143069,0.27672195,-1.0571023,0.067500606,157.05113,-61.462135,-10.919177,WAL
45781543399000,3.225113,-0.231742024127613,11.5048846426236,0.129787421024472,0.5299256,-1.3252722,0.13897185,157.21683,-61.8283,-10.696304,WAL
45781548236000,3.22995,-0.257247171216113,10.0398307689301,-0.806592251219512,0.8539896,-1.4770721,0.1777618,157.44965,-62.268787,-10.405346,WAL
45781553271000,3.234985,-0.609660954474378,8.79818701776153,-1.42126750731707,1.1728612,-1.5033394,0.18142697,157.71594,-62.7718,-10.0937805,WAL
45781558224000,3.239938,-0.956335327558426,7.57676467425852,-2.02593216341463,1.4083499,-1.4391985,0.14110987,157.9692,-63.3584,-9.832927,WAL
45781563249000,3.244963,-1.36768367986577,6.51981293512304,-2.20039459149888,1.5561792,-1.3353515,0.09865474,158.2204,-64.0009,-9.578368,WAL
45781568228000,3.249942,-1.7895277081147,5.51611508877364,-2.26827748968883,1.641395,-1.260215,0.052839845,158.46915,-64.67763,-9.344646,WAL
45781573214000,3.254928,-2.00183390188811,4.97361078328671,-1.96342617020979,1.6927075,-1.2431108,0.005497787,158.66211,-65.35399,-9.246554,WAL
45781578180000,3.259894,-2.17287321123876,4.52225709575425,-1.58808993696304,1.7263051,-1.276403,-0.054367006,158.85571,-66.03505,-9.170769,WAL
45781583235000,3.264949,-2.02489569708738,4.52684970946366,-1.18608418765199,1.738828,-1.3793337,-0.1282817,159.04526,-66.63152,-9.204561,WAL
45781588256000,3.26997,-1.8118688038835,4.62656438414554,-0.782692958535206,1.7146988,-1.5045611,-0.21166481,159.25577,-67.20936,-9.255603,WAL
45781593301000,3.275015,-1.35780593229646,5.08051799581916,-0.565575683508702,1.6505579,-1.6496416,-0.29077184,159.5086,-67.6646,-9.351786,WAL
45781598234000,3.279948,-0.823860193118624,5.65699050730146,-0.423820150810162,1.5738943,-1.7293595,-0.32925636,159.77841,-68.0935,-9.457826,WAL
45781603804000,3.285518,0.240832924921226,7.12496862280149,-1.09305630725294,1.5467108,-1.9630154,-0.46211955,160.18848,-68.4646,-9.530647,WAL
45781608276000,3.28999,1.22227043654158,8.52760627741812,-1.85775974157739,1.5097535,-2.0289888,-0.49754974,160.56456,-68.81143,-9.599838,WAL
45781613267000,3.294981,1.92772460804928,9.59257199158111,-2.53847913696099,1.5060883,-2.111761,-0.5360342,161.0744,-69.206726,-9.566569,WAL
45781618259000,3.299973,2.40383542924025,10.3631845714579,-3.11766543018481,1.5216653,-2.1105394,-0.56077427,161.57742,-69.58765,-9.543969,WAL
45781623263000,3.304977,2.75308217052548,10.9743224901225,-3.52900212007112,1.5528195,-2.008525,-0.5552765,162.10051,-70.26006,-9.301821,WAL
45781628298000,3.310012,3.04361688891742,11.5125258944093,-3.86240257256025,1.5656476,-1.8161024,-0.5296202,162.59674,-70.92254,-9.075048,WAL
45781633264000,3.314978,3.13794119471283,11.9013776099938,-3.9646202841385,1.5241088,-1.5357152,-0.4813618,163.03456,-71.71469,-8.776602,WAL
45781638254000,3.319968,3.13298699276384,12.2184469485797,-3.94975767829152,1.4743233,-1.1847731,-0.42332962,163.3959,-72.499016,-8.497652,WAL
45781643278000,3.324992,2.90187760490214,12.2423805292665,-3.53403001292299,1.3845261,-0.75655663,-0.35643986,163.65395,-73.34352,-8.182714,WAL
45781648259000,3.329973,2.5877610943662,12.1551255633803,-2.97123801126761,1.2819008,-0.35063666,-0.29443705,163.81714,-74.16198,-7.88518,WAL
45781653260000,3.334974,2.18912018114754,11.932107701275,-2.36599460455373,1.1917981,-0.06688975,-0.23915374,163.8961,-74.96336,-7.5948334,WAL
45781658269000,3.339983,1.71825274007286,11.5923067111921,-1.72522661774944,1.1285735,0.09132435,-0.20005837,163.89534,-75.73392,-7.317411,WAL
45781663239000,3.344953,1.16040690976115,11.2128941433101,-0.966387103419996,1.10139,0.21471913,-0.16798794,163.84117,-76.37511,-7.097454,WAL
45781668233000,3.349947,0.528582634204185,10.7984174774889,-0.107105999359543,1.108415,0.28496864,-0.1554652,163.75795,-76.99775,-6.882539,WAL
45781673550000,3.355264,-0.0446952000527601,10.3935432772838,0.549495386012702,1.0986412,0.24740042,-0.14569137,163.68176,-77.47197,-6.7393527,WAL
45781678250000,3.359964,-0.510856914170982,10.0505185874939,1.02445262089301,1.1004738,0.08582657,-0.1459968,163.62204,-77.94044,-6.595275,WAL
45781683227000,3.364941,-0.97210737755102,9.72999483489298,1.30725462853161,1.108415,-0.089186326,-0.14752395,163.59001,-78.22046,-6.5478477,WAL
45781688244000,3.369958,-1.41694121836735,9.43343919074166,1.45553252552514,1.1505647,-0.23335053,-0.13713925,163.59505,-78.50388,-6.4916673,WAL
45781693280000,3.374994,-1.76720595602672,9.18371020505373,1.47306468152774,1.187522,-0.29443705,-0.13225232,163.62518,-78.634766,-6.5250974,WAL
45781698301000,3.380015,-2.05583791498693,8.96490830549908,1.4078897293252,1.2278391,-0.41508293,-0.13775012,163.71257,-78.77165,-6.5485263,WAL
45781703221000,3.384935,-2.26682083483743,8.82646862095933,1.29575126516257,1.2370021,-0.51923543,-0.13713925,163.79686,-78.81603,-6.6526823,WAL
45781708269000,3.389983,-2.42263520988719,8.74856150521376,1.13993689011281,1.2223413,-0.60139686,-0.12583824,163.90733,-78.861,-6.7490873,WAL
45781713230000,3.394944,-2.50126531949644,8.75246544456057,0.951294971401425,1.2006557,-0.6740898,-0.11942416,164.02855,-78.86117,-6.901975,WAL
45781718229000,3.399943,-2.48307076436105,8.86163291786223,0.714765564655582,1.1636983,-0.7333437,-0.11178834,164.16592,-78.85269,-7.0456424,WAL
45781723203000,3.404917,-2.42146833506841,8.97134924529714,0.617961990097264,1.1239921,-0.7791586,-0.094989546,164.30542,-78.84514,-7.2124677,WAL
45781728250000,3.409964,-2.26648503101753,9.08500330504489,0.814274241759299,1.1163563,-0.79290307,-0.074830994,164.44887,-78.83366,-7.372227,WAL
45781733229000,3.414943,-2.01826198623825,9.21415355804789,0.859883460230373,1.110553,-0.9059132,-0.07452556,164.62935,-78.86329,-7.519743,WAL
45781738244000,3.419958,-1.65430554398303,9.36458936991007,0.728859174461958,1.0760391,-1.0983357,-0.10720685,164.83424,-78.876144,-7.665039,WAL
45781743387000,3.425101,-1.31190827389163,9.48474378532538,0.599882558636246,1.0464121,-1.1997393,-0.118507855,165.07251,-78.884155,-7.7716055,WAL
45781748319000,3.430033,-1.0139223408867,9.5663837085818,0.481504567617319,1.0140363,-1.2528846,-0.13622294,165.34926,-78.87405,-7.8809233,WAL
45781753219000,3.434933,-0.71892046300864,9.64371275200576,0.36969211576116,0.9728029,-1.2690725,-0.16187929,165.67033,-78.92976,-7.9231935,WAL
45781758245000,3.439959,-0.421864130194404,9.7031236701296,0.285526152126106,0.93492925,-1.2550226,-0.16493362,165.99368,-78.978165,-7.9617677,WAL
45781763236000,3.44495,-0.143709767276612,9.75122420551671,0.205002817188811,0.8943067,-1.2250903,-0.160963,166.33875,-79.08425,-7.940565,WAL
45781768233000,3.449947,0.0747439205924631,9.76052029506604,0.135283554979021,0.8588765,-1.1976013,-0.18203785,166.67796,-79.17557,-7.9273033,WAL
45781773202000,3.454916,0.291905480479854,9.76315804029156,0.073651635471148,0.816116,-1.1655309,-0.19058995,167.03201,-79.311226,-7.858998,WAL
45781778246000,3.45996,0.511964574276169,9.72892644766147,0.054090828325167,0.77763146,-1.1404854,-0.18600847,167.37727,-79.43695,-7.7938433,WAL
45781783230000,3.464944,0.716510823370073,9.70048747113768,0.0325840428641883,0.7498371,-1.1200215,-0.18967366,167.72902,-79.59222,-7.6947346,WAL
45781788233000,3.469947,0.864196336521577,9.69601252923594,0.00125681066345974,0.7324274,-1.094976,-0.18692477,168.06902,-79.74228,-7.5941744,WAL
45781793229000,3.474943,1.01100420981707,9.69031874939024,-0.0333640760823171,0.7162395,-1.0845913,-0.1872302,168.42407,-79.914955,-7.4584894,WAL
45781798235000,3.479949,1.14255100278455,9.65621384817073,-0.145422444913618,0.70707655,-1.0671816,-0.18020524,168.7669,-80.085655,-7.322056,WAL
45781803244000,3.484958,1.27028639608813,9.62503255671739,-0.258901916154421,0.6737844,-1.0299188,-0.17592919,169.11404,-80.27018,-7.160899,WAL
45781808238000,3.489952,1.35065967636075,9.62949782961442,-0.388392233157502,0.659429,-0.9560041,-0.183565,169.44334,-80.45322,-7.004254,WAL
45781813178000,3.494892,1.43016388231724,9.63391481962469,-0.516482374526188,0.63224554,-0.870483,-0.18325958,169.76373,-80.65876,-6.8258166,WAL
45781818229000,3.499943,1.49444213392509,9.62944114223858,-0.584645483524572,0.6044512,-0.7516697,-0.17531833,170.0515,-80.85865,-6.652357,WAL
45781823331000,3.505045,1.55190504667162,9.62977682304336,-0.640721308105097,0.57726765,-0.6603453,-0.16768251,170.32103,-81.05068,-6.482228,WAL
45781828248000,3.509962,1.55627689010305,9.67786719208987,-0.631977634937332,0.5537493,-0.5867361,-0.16371189,170.5682,-81.266136,-6.3023376,WAL
45781833202000,3.514916,1.56068163127843,9.72631943700678,-0.623168166384737,0.5311473,-0.52595496,-0.16493362,170.79639,-81.48969,-6.116388,WAL
45781838238000,3.519952,1.54380007648195,9.76877951187488,-0.64832152931647,0.5412266,-0.44593164,-0.15241088,170.99698,-81.7154,-5.9300885,WAL
45781843258000,3.524972,1.5252344609191,9.81055194091523,-0.676169913888782,0.5497787,-0.3585779,-0.14049901,171.17786,-81.93268,-5.748155,WAL
45781848223000,3.529937,1.41795340191551,9.82059204107694,-0.675588350079813,0.57543504,-0.27091873,-0.119729586,171.346,-82.15699,-5.5634503,WAL
45781853562000,3.535276,1.28682619103568,9.82642910879025,-0.669751380330722,0.589485,-0.17898351,-0.1133155,171.48805,-82.376595,-5.384082,WAL
45781858853000,3.540567,1.14472618112368,9.8411288892757,-0.655051344018954,0.6337727,-0.082161374,-0.11728613,171.61072,-82.608505,-5.2106705,WAL
45781863173000,3.544887,1.0287042490088,9.85313097804855,-0.643049046368823,0.6933321,0.0021380284,-0.10842858,171.71094,-82.83132,-5.0582185,WAL
45781868233000,3.549947,0.881660801648406,9.8588399160004,-0.538306120165828,0.7431176,0.07849618,-0.121256754,171.787,-83.051994,-4.9172206,WAL
45781873193000,3.554907,0.73631189630836,9.86352868512486,-0.425777952442997,0.7724391,0.1282817,-0.13530666,171.84717,-83.2778,-4.7774014,WAL
45781878245000,3.559959,0.680494352852627,9.85991467720269,-0.222971968800474,0.7861836,0.16920967,-0.15485434,171.88751,-83.485535,-4.672461,WAL
45781883170000,3.564884,0.638565075417819,9.8552557750889,-0.013325608868629,0.79779,0.19822577,-0.1704314,171.91817,-83.69177,-4.572639,WAL
45781888240000,3.569954,0.66644994575411,9.77049235364668,0.219707774805835,0.79076505,0.20097467,-0.1740966,171.95189,-83.855804,-4.5042057,WAL
45781893378000,3.575092,0.707464136036119,9.67023556726094,0.458957200907617,0.7834347,0.19456059,-0.18081611,171.98091,-84.01378,-4.442319,WAL
45781898233000,3.579947,0.746219273019217,9.57550090437601,0.685028817047002,0.79412484,0.16584991,-0.18173242,172.035,-84.13319,-4.3874235,WAL
45781903164000,3.584878,0.78558108155962,9.47928326839546,0.914639350349433,0.7892379,0.10567969,-0.18325958,172.09993,-84.24406,-4.3345532,WAL
45781908241000,3.589955,0.850559794694921,9.38840303199541,1.01658159399238,0.79076505,0.037873644,-0.1777618,172.18314,-84.356865,-4.280599,WAL
45781913243000,3.594957,0.93556989036171,9.30589313742888,1.00157982346156,0.77549344,-0.035124753,-0.17470746,172.28445,-84.46244,-4.227109,WAL
45781918232000,3.599946,1.02035904815491,9.22359768281225,0.986617041938515,0.7669413,-0.10629055,-0.172264,172.46454,-84.4915,-4.157662,WAL
45781923219000,3.604933,1.10511421550603,9.14133521895715,0.971660258724359,0.7486154,-0.16310102,-0.17348573,172.65747,-84.51613,-4.08743,WAL
45781928813000,3.610527,0.977348659022892,8.98789986225349,0.728396306833812,0.7449502,-0.2003638,-0.1740966,172.8729,-84.54296,-4.0164146,WAL
45781933233000,3.614947,0.813752374214647,8.84947208502626,0.472514951091071,0.7452556,-0.2284636,-0.19120082,173.09746,-84.56398,-3.9494503,WAL
45781938234000,3.619948,0.63412779046729,8.8268620093458,0.244521825607477,0.74220127,-0.2443461,-0.20922135,173.33534,-84.60517,-3.8536184,WAL
45781943244000,3.624958,0.456632435502336,8.86422972254673,0.0436718035280374,0.7431176,-0.2687807,-0.23151793,173.57948,-84.64271,-3.763177,WAL
45781948231000,3.629945,0.294160261509396,8.93309979207921,-0.0964414855243484,0.75716746,-0.26419923,-0.2565634,173.79512,-84.70749,-3.7185147,WAL
45781953233000,3.634947,0.139290387227723,9.02021383168317,-0.202914528514851,0.75625116,-0.22999077,-0.28924468,174.00613,-84.76318,-3.6818929,WAL
45781958237000,3.639951,0.00545870211159306,9.0966584420347,-0.242525272893336,0.7623598,-0.20005837,-0.310625,174.18584,-84.83429,-3.6840396,WAL
45781963245000,3.644959,-0.117468829024054,9.16757812026814,-0.247253246505323,0.7715228,-0.18081611,-0.33383787,174.35666,-84.89661,-3.695485,WAL
45781968230000,3.649944,-0.198749802274358,9.2158535942589,-0.177108802564173,0.7877107,-0.16371189,-0.35063666,174.50302,-84.954,-3.7402427,WAL
45781973210000,3.654924,-0.25579299211703,9.2509573480541,-0.0630224182969914,0.8038987,-0.15943582,-0.3652974,174.64558,-85.004265,-3.789715,WAL
45781978239000,3.659953,-0.30120267032491,9.28656396750903,0.0694923516245487,0.81153446,-0.16493362,-0.37598756,174.78256,-85.033005,-3.8655324,WAL
45781983232000,3.664946,-0.331665823236356,9.32210449989382,0.22180811618178,0.8136725,-0.1826487,-0.3943135,174.91963,-85.0532,-3.9457493,WAL
45781988215000,3.669929,-0.376951284602015,9.38834845802884,0.303397320900652,0.8038987,-0.18448131,-0.39614612,175.06076,-85.04353,-4.033938,WAL
45781993262000,3.674976,-0.434230542890579,9.47904044627691,0.332036947552834,0.7974846,-0.19914207,-0.40194935,175.20776,-85.02618,-4.12581,WAL
45781998708000,3.680422,-0.498966549496651,9.59488404767533,0.302463704906422,0.77824235,-0.19181168,-0.4092797,175.36385,-84.97842,-4.221933,WAL
45782003225000,3.684939,-0.55436053784082,9.70141085421592,0.24280865319937,0.7626653,-0.18570304,-0.41630468,175.52037,-84.9283,-4.3169246,WAL
45782008251000,3.689965,-0.593997509266318,9.8421702593068,0.205783608963168,0.7464773,-0.1518,-0.419359,175.6653,-84.86271,-4.421031,WAL
45782013284000,3.694998,-0.61303573255752,10.0039951001284,0.196264484892861,0.7101309,-0.12614368,-0.41599923,175.80655,-84.79224,-4.5226073,WAL
45782018263000,3.699977,-0.581151981368869,10.1509812093451,0.154789061166006,0.6753115,-0.08307768,-0.4166101,175.92609,-84.718155,-4.635577,WAL
45782023254000,3.704968,-0.497920767525394,10.2850762512334,0.0808057531585566,0.6246097,-0.055588737,-0.40561453,176.03886,-84.64108,-4.741724,WAL
45782028271000,3.709985,-0.385242633963415,10.4060473729675,0.0320297470203252,0.56046885,-0.048563786,-0.38881573,176.14682,-84.56158,-4.8459287,WAL
45782033271000,3.714985,-0.234388457134146,10.5082389380081,0.0174309563699187,0.49877146,-0.03145956,-0.36102137,176.24042,-84.482704,-4.9418283,WAL
45782038309000,3.720023,-0.0669896199931163,10.5521616884649,0.00515427915340741,0.44226643,-0.06963864,-0.34116822,176.35213,-84.4252,-5.0143557,WAL
45782043309000,3.725023,0.116654523973842,10.5286175838332,-0.00426336958294818,0.36377025,-0.12858713,-0.32375857,176.46187,-84.36514,-5.077821,WAL
45782048262000,3.729976,0.30529931646586,10.4738063568039,-0.0689019965511864,0.29810223,-0.21991149,-0.30543262,176.60025,-84.33491,-5.102707,WAL
45782053266000,3.73498,0.504879036632446,10.3763371604843,-0.208143670338305,0.22388211,-0.30940324,-0.29260445,176.75195,-84.2983,-5.122418,WAL
45782058224000,3.739938,0.664867890563481,10.2952322792949,-0.384919530123293,0.16187929,-0.38087448,-0.28252518,176.94695,-84.29226,-5.1014214,WAL
45782063260000,3.744974,0.758239317696148,10.2411750732627,-0.63554809823008,0.087964594,-0.42577308,-0.28405234,177.15576,-84.27621,-5.07865,WAL
45782068262000,3.749976,0.784424060205516,10.2135016997722,-0.844507158962726,0.02443461,-0.44715336,-0.2660318,177.38881,-84.307106,-5.0100446,WAL
45782073251000,3.754965,0.71031625816102,10.2250810355291,-0.992722736451456,-0.037873644,-0.44073927,-0.24923302,177.62263,-84.32707,-4.941792,WAL
45782078225000,3.759939,0.636431269712568,10.2366255566865,-1.14049268682807,-0.074830994,-0.4166101,-0.23823744,177.84554,-84.382385,-4.855062,WAL
45782083245000,3.764959,0.561862986236246,10.2482768426155,-1.28962922701517,-0.119729586,-0.3811799,-0.22693644,178.06015,-84.43103,-4.763943,WAL
45782088208000,3.769922,0.469541131252571,10.2751615399079,-1.37367848425228,-0.12980886,-0.36987892,-0.22021692,178.28323,-84.480064,-4.6724496,WAL
45782093275000,3.774989,0.322220009292919,10.3464464043678,-1.27863265994516,-0.13591751,-0.35521814,-0.20830505,178.492,-84.52586,-4.5771594,WAL
45782098240000,3.779954,0.175719339604038,10.3982935384691,-1.16322960835441,-0.1142318,-0.35277468,-0.20005837,178.66856,-84.58236,-4.513462,WAL
45782103210000,3.784924,0.0217751946368715,10.3889634022346,-0.97196564424581,-0.09010262,-0.35979962,-0.20158553,178.84187,-84.6386,-4.449443,WAL
45782108140000,3.789854,-0.117795732711438,10.3970300528856,-0.784146511412382,-0.06291912,-0.35613444,-0.21685717,179.00206,-84.66545,-4.41465,WAL
45782113144000,3.794858,-0.19322438521511,10.4925728478489,-0.603117732801679,-0.055283304,-0.3567453,-0.24373524,179.16373,-84.69006,-4.383376,WAL
45782118168000,3.799882,-0.237767171239913,10.6231101731943,-0.423096565054123,-0.0421497,-0.34422258,-0.27030787,179.33835,-84.67046,-4.388047,WAL
45782123164000,3.804878,-0.195392492534934,10.8491081318638,-0.248889535666207,-0.046731193,-0.3390302,-0.29535335,179.51245,-84.64447,-4.3989334,WAL
45782128167000,3.809881,-0.141556464525561,11.0919641407549,-0.0872976481051123,-0.042760566,-0.35002577,-0.31490102,179.69856,-84.58976,-4.4270453,WAL
45782133176000,3.81489,-0.049879013473483,11.3899161175346,0.0318830373053034,-0.050396383,-0.3744604,-0.3182608,179.883,-84.53237,-4.456157,WAL
45782138135000,3.819849,0.0457874709357268,11.6841033431342,0.156380673931703,-0.042760566,-0.40530908,-0.31673363,180.09077,-84.466896,-4.4750557,WAL
45782143191000,3.824905,0.175667666012586,11.9788311607346,0.326224003146601,-0.029932396,-0.44929138,-0.2968805,180.30359,-84.406845,-4.4877825,WAL
45782148163000,3.829877,0.306510796642081,12.2410684759802,0.489398619773874,-0.014049901,-0.49754974,-0.28008172,180.54694,-84.35295,-4.475459,WAL
45782153172000,3.834886,0.450831150776398,12.394700251941,0.638374451482919,-0.01160644,-0.5375614,-0.2556471,180.79318,-84.30692,-4.454101,WAL
45782158176000,3.83989,0.604047583540557,12.5257944490823,0.780864095263469,-0.024740042,-0.5564982,-0.25686884,181.0631,-84.26153,-4.4050064,WAL
45782163270000,3.844984,0.815860014268798,12.5209806844287,0.886770335760805,-0.05589417,-0.5580254,-0.258396,181.33073,-84.21898,-4.349189,WAL
45782168228000,3.849942,1.02642269484674,12.5157384938697,0.983150957796935,-0.11484267,-0.5222898,-0.26633725,181.63496,-84.167984,-4.2674665,WAL
45782173260000,3.854974,1.27106788281609,12.5065064126437,1.03392639235632,-0.2049453,-0.48991394,-0.27763826,181.92989,-84.10298,-4.1883945,WAL
45782178416000,3.86013,1.52116515737831,12.4956616347952,1.07527466830265,-0.30818152,-0.43982297,-0.27916542,182.24316,-84.028175,-4.0721097,WAL
45782183894000,3.865608,1.77904943897831,12.4653222267952,0.974143586382651,-0.44959682,-0.4025602,-0.2602286,182.539,-83.925095,-3.9557328,WAL
45782188633000,3.870347,1.99939313953488,12.4415435475873,0.88216609850835,-0.5885687,-0.28160888,-0.22388211,182.82504,-83.81381,-3.7935734,WAL
45782193313000,3.875027,2.1601021627907,12.469093745313,0.69849859952259,-0.7098254,-0.22785273,-0.1994475,183.1077,-83.66962,-3.6321123,WAL
45782198544000,3.880258,2.32950074617143,12.5044093977143,0.495887036331429,-0.77640975,-0.11148291,-0.15882497,183.3595,-83.539276,-3.42111,WAL
45782203243000,3.884957,2.35950175780952,12.5901263180952,0.345882327209524,-0.9101892,0.007330383,-0.10934488,183.5847,-83.3588,-3.207012,WAL
45782208221000,3.889935,2.3912840595619,12.680932623619,0.186971188241905,-1.0372492,0.15118915,-0.07544186,183.7914,-83.20153,-2.968327,WAL
45782213282000,3.894996,2.37642472623727,12.8314857757283,0.0346101008849914,-1.1679744,0.29565877,-0.028710667,183.95515,-83.00621,-2.7215576,WAL
45782218200000,3.899914,2.35743522824312,12.9834019579679,-0.112558612670094,-1.3142766,0.45234573,0.03390302,184.0672,-82.76905,-2.471964,WAL
45782223261000,3.904975,2.22196668151185,12.9064418453155,-0.182533877837216,-1.4737124,0.600786,0.09010262,184.13516,-82.511154,-2.2158756,WAL
45782228203000,3.909917,2.07999504419558,12.8117942188781,-0.244054874553545,-1.6148223,0.72509706,0.13408493,184.1613,-82.21444,-1.9574369,WAL
45782233258000,3.914972,1.80574394762439,12.691542506547,-0.223963992753461,-1.7345519,0.81214535,0.1826487,184.14183,-81.90109,-1.696269,WAL
45782238270000,3.919984,1.52292183150019,12.5703329210625,-0.197028552229704,-1.8606955,0.8781188,0.22937989,184.09135,-81.54416,-1.4351071,WAL
45782243356000,3.92507,1.14386295573906,12.3447489339389,-0.211622915631709,-2.0066924,0.91813046,0.2742785,184.00581,-81.15133,-1.1971769,WAL
45782248174000,3.929888,0.762846832597027,12.1066135150702,-0.235436432652766,-2.1294763,0.93126404,0.31215215,183.90874,-80.7315,-0.957114,WAL
45782253985000,3.935699,-0.464947710882863,11.506629541952,-0.401337555084452,-2.2592852,0.926988,0.35216382,183.79839,-80.25093,-0.76850176,WAL
45782258209000,3.939923,-1.44735863523236,11.0338905531818,-0.537988702408473,-2.4049764,0.90377516,0.37568212,183.68976,-79.73896,-0.58013296,WAL
45782263274000,3.944988,-2.34902009305401,10.6858908933872,-0.680980104831903,-2.5497515,0.8900307,0.39675698,183.54059,-79.19364,-0.45794532,WAL
45782268254000,3.949968,-3.09534395938415,10.4547716324079,-0.810984882701666,-2.6703975,0.8894198,0.41386122,183.39458,-78.626114,-0.33521706,WAL
45782273265000,3.954979,-3.71239133471426,10.3163591286336,-0.871805680088986,-2.7663033,0.8949176,0.40011674,183.13287,-78.029945,-0.4589879,WAL
45782278272000,3.959986,-4.26709510203678,10.2215375190825,-0.900252044140795,-2.8295279,0.8872818,0.3998113,182.87509,-77.42289,-0.5769048,WAL
45782283259000,3.964973,-4.70433833324184,10.2283567830639,-0.790674109321948,-2.8805351,0.8918633,0.40133846,182.54425,-76.797806,-0.84524894,WAL
45782288293000,3.970007,-5.08660469536444,10.2871676382027,-0.609342715274982,-2.8884764,0.8729264,0.40439278,182.224,-76.17829,-1.1137774,WAL
45782293279000,3.974993,-5.32494177815401,10.3837453131258,-0.348576245898416,-2.9040534,0.816116,0.41691554,181.87021,-75.542786,-1.4908935,WAL
45782298256000,3.97997,-5.50282386261606,10.4965482525032,-0.0535520155936647,-2.9006937,0.68203104,0.4474588,181.54411,-74.9199,-1.8558077,WAL
45782303231000,3.984945,-5.64805660734694,10.6328432408163,0.30217365869551,-2.855795,0.50915617,0.46609017,181.22511,-74.26417,-2.2890046,WAL
45782308329000,3.990043,-5.76264039979592,10.7972459377551,0.730616542147347,-2.796541,0.28160888,0.4877759,180.95801,-73.62377,-2.6964588,WAL
45782313269000,3.994983,-5.80490017756533,11.0039650605481,1.15232362141491,-2.7229319,0.019547688,0.4886922,180.75475,-72.970894,-3.1268225,WAL
45782318275000,3.999989,-5.78962235903973,11.2535014514553,1.58519242546208,-2.6303856,-0.2764165,0.48472157,180.62354,-72.35148,-3.5255606,WAL
45782323307000,4.005021,-5.6744837894456,11.5053711947821,1.88413238861548,-2.5259278,-0.6026186,0.46609017,180.57814,-71.693565,-3.918817,WAL
45782328250000,4.009964,-5.51074861193794,11.7533125437296,2.1086834166222,-2.4107797,-0.93187493,0.43249258,180.61526,-71.07679,-4.282023,WAL
45782333259000,4.014973,-5.19887431621568,12.0431968452005,2.18414849875568,-2.3054054,-1.2278391,0.40133846,180.75093,-70.44533,-4.6084514,WAL
45782338272000,4.019986,-4.80062052636777,12.3561105725854,2.16992516326289,-2.2061398,-1.4963144,0.35827246,180.96822,-69.85711,-4.907194,WAL
45782343336000,4.02505,-4.3274035747181,12.587300304451,1.99686939246291,-2.0949624,-1.6875153,0.32467487,181.25436,-69.297554,-5.137882,WAL
45782348293000,4.030007,-3.82028197990109,12.7610362901583,1.72922174244313,-2.0018053,-1.8399261,0.30970868,181.59743,-68.775246,-5.3403153,WAL
45782353265000,4.034979,-3.10331209549662,13.0109611610415,0.957574445650916,-1.8979583,-1.8909334,0.31673363,181.97449,-68.3153,-5.4326935,WAL
45782358262000,4.039976,-2.23573281093539,13.3155372256509,-0.173047448968177,-1.7809776,-1.7024814,0.3866777,182.31558,-67.90234,-5.5123544,WAL
45782363259000,4.044973,-1.69342172737275,13.2574522399541,-1.06363030263108,-1.6239853,-1.2657127,0.53969944,182.60844,-67.594505,-5.47003,WAL
45782368255000,4.049969,-1.46453862951588,12.8500401986223,-1.72281373726559,-1.425454,-0.75869465,0.57971114,182.83148,-67.33656,-5.4637933,WAL
45782373253000,4.054967,-1.13334897423422,12.5772542788081,-2.13813345371952,-1.2614367,-0.23762658,0.52442783,182.97433,-67.300606,-5.2973905,WAL
45782378261000,4.059975,-0.658639464586372,12.4923061179412,-2.21308752915191,-1.1911873,0.20158553,0.4978552,182.99606,-67.29906,-5.1615973,WAL
45782383267000,4.064981,-0.191948618110668,12.3016748937188,-2.12149472035892,-1.2244794,0.3979787,0.52595496,182.95348,-67.37469,-5.0165834,WAL
45782388269000,4.069983,0.266546496236291,12.0055634755733,-1.86359120139581,-1.2654073,0.8020661,0.6383542,182.73329,-67.471306,-4.92738,WAL
45782393632000,4.075346,0.680554266902834,11.6310125526316,-1.45080867226721,-1.3478742,1.1230757,0.7678576,182.51216,-67.57092,-4.7493134,WAL
