timestamp,rel_time,acc_x,acc_y,acc_z,gyro_x,gyro_y,gyro_z,azimuth,pitch,roll,label
6562818997000,0,-1.38499570006053,9.54567802731538,-1.6436390277164,-0.044593163,0.01740966,0.003970624,293.7109,-101.415985,-2.6405342,STD
6562823998000,0.005001,-1.39055236,9.5461612,-1.64146468,-0.05131268,0.025350908,0.0030543262,293.70773,-101.44263,-2.592425,STD
6562829007000,0.01001,-1.3961179088176,9.54664514560634,-1.6392868540229,-0.03970624,0.022907447,0.0021380284,293.7055,-101.4732,-2.546248,STD
6562834029000,0.015032,-1.40169790206215,9.54713034721045,-1.63710337587218,-0.03176499,0.027794369,0.008857546,293.69952,-101.50006,-2.498631,STD
6562839027000,0.02003,-1.40725122867232,9.54761323004944,-1.63493033250353,-0.036651913,0.020463986,0.0076358155,293.6974,-101.52666,-2.455622,STD
6562843996000,0.024999,-1.41277233309927,9.54809331104722,-1.6327698978299,-0.041233405,0.006414085,0.008552114,293.69647,-101.55447,-2.4115653,STD
6562848981000,0.029984,-1.41831121528249,9.54857493788842,-1.63060250663489,-0.04428773,0.0021380284,0.011911872,293.69507,-101.58077,-2.3683422,STD
6562854009000,0.035012,-1.42389787518563,9.54906071918382,-1.62841641978864,-0.042760566,-0.0076358155,0.009773844,293.69904,-101.60692,-2.3287911,STD
6562858992000,0.039995,-1.42943453514931,9.54954215279459,-1.6262498981588,-0.044898596,-0.00030543262,0.013439035,293.7,-101.63023,-2.2872386,STD
6562863962000,0.044965,-1.43495675068604,9.55002233040759,-1.62408902870258,-0.0421497,0.0033597588,0.014049901,293.70456,-101.65525,-2.2491426,STD
6562868994000,0.049997,-1.44054785502825,9.55050849816384,-1.62190120272599,-0.049785517,-0.0033597588,0.011911872,293.71002,-101.67629,-2.2122383,STD
6562874562000,0.055565,-1.446734514205,9.55104645167474,-1.61948033328289,-0.03481932,-0.009162978,0.0125227375,293.7145,-101.70384,-2.175371,STD
6562879035000,0.060038,-1.45170450818805,9.55147861152643,-1.6175355507723,-0.040317107,-0.009162978,0.014966198,293.71927,-101.72313,-2.1398404,STD
6562883996000,0.064999,-1.45721672373688,9.5519579196025,-1.61537859435936,-0.0421497,-0.015271631,0.01038471,293.72705,-101.74753,-2.1079695,STD
6562889015000,0.070018,-1.46279338365214,9.55244283136098,-1.6131964205564,-0.0290161,-0.017104227,0.021380283,293.7347,-101.773254,-2.071971,STD
6562893990000,0.074993,-1.46832115473769,9.55292349205004,-1.61103337718725,-0.034208454,-0.004886922,0.017104227,293.739,-101.7939,-2.042196,STD
6562898975000,0.079978,-1.4738600369209,9.55340511889124,-1.60886598599223,-0.03023783,-0.008552114,0.017715093,293.7492,-101.819565,-2.0101578,STD
6562904015000,0.085018,-1.47946003014124,9.55389205956921,-1.60667468175494,-0.023823744,-0.021991149,0.023823744,293.75882,-101.84394,-1.9787643,STD
6562908989000,0.089992,-1.48498669011703,9.55437262364306,-1.60451207316838,-0.041233405,-0.028099801,0.02565634,293.7672,-101.8624,-1.9492899,STD
6562913960000,0.094963,-1.49051001676352,9.55485289787127,-1.60235076892958,-0.043982297,-0.03390302,0.023823744,293.77948,-101.886215,-1.9210055,STD
6562919010000,0.100013,-1.49612112108152,9.55534080470137,-1.60015511686642,-0.041233405,-0.02443461,0.024129177,293.78928,-101.906136,-1.892178,STD
6562923998000,0.105001,-1.50166333659403,9.55582272138822,-1.59798642132365,-0.044898596,-0.015882496,0.021991149,293.80063,-101.923355,-1.8659722,STD
6562928992000,0.109995,-1.50721221876513,9.55630521776634,-1.59581511708535,-0.040317107,-0.019547688,0.022907447,293.8129,-101.94318,-1.8400227,STD
6562934062000,0.115065,-1.51284554527845,9.55679505690073,-1.59361076937046,-0.036957346,-0.010995574,0.022907447,293.8191,-101.9614,-1.81469,STD
6562939039000,0.120042,-1.51837553858354,9.55727591082022,-1.59144685643614,-0.036651913,-0.018325957,0.016798794,293.83044,-101.97991,-1.7929254,STD
6562944015000,0.125018,-1.52317441757094,9.55857743728697,-1.59334492406215,-0.042760566,-0.024740042,0.02107485,293.83975,-101.99669,-1.7686474,STD
6562948975000,0.129978,-1.52531104306198,9.56285069818478,-1.60996311543986,-0.02443461,-0.022907447,0.016187929,293.84787,-102.02073,-1.7494574,STD
6562954003000,0.135006,-1.52747696099927,9.56718254411103,-1.62680913686065,-0.027183503,-0.013439035,0.016493361,293.84448,-102.04287,-1.727707,STD
6562958992000,0.139995,-1.52962607885709,9.57148078980039,-1.64352449105085,-0.024740042,-0.024740042,0.017104227,293.84595,-102.07146,-1.7086694,STD
6562963956000,0.144959,-1.5317644274332,9.57575749687634,-1.6601560841958,-0.018325957,-0.015271631,0.016187929,293.8387,-102.100006,-1.6885083,STD
6562968985000,0.149988,-1.53393077614176,9.58009020434713,-1.67700545605839,-0.016798794,-0.012217305,0.014660766,293.8363,-102.12745,-1.6697292,STD
6562973995000,0.154998,-1.53608894019622,9.58440654247174,-1.6937911695266,-0.0036651916,-0.008857546,0.018325957,293.83124,-102.159325,-1.6495323,STD
6562979012000,0.160015,-1.53825011964955,9.5887289114081,-1.71060033608748,-0.008246681,-0.003970624,0.007330383,293.82385,-102.18671,-1.6339463,STD
6562984118000,0.165121,-1.54044963774577,9.59312795780814,-1.72770769196945,-0.015882496,0.015882496,0.011911872,293.81244,-102.21561,-1.6122637,STD
6562989043000,0.170046,-1.54257118624242,9.5973710646472,-1.74420861788381,-0.0015271631,0.018325957,0.009162978,293.80334,-102.24954,-1.5967836,STD
6562993995000,0.174998,-1.54470436556331,9.60163743318873,-1.76080000572704,-0.016187929,0.018325957,0.008552114,293.78983,-102.27222,-1.5787588,STD
6562998990000,0.179993,-1.54685606804874,9.6059408481453,-1.7775354625681,0.00030543262,0.021380283,0.0061086523,293.77448,-102.30729,-1.562056,STD
6563004011000,0.185014,-1.54901897058715,9.6102666632598,-1.79435803089621,-0.012217305,0.028405234,0.009468411,293.75842,-102.32917,-1.5440265,STD
6563008992000,0.189995,-1.55116464227482,9.61455801659286,-1.81104658155193,-0.007941248,0.04153884,0.008246681,293.7394,-102.36006,-1.5277581,STD
6563013949000,0.194952,-1.55329997545206,9.61882869285707,-1.82765472160421,-0.022907447,0.038789943,0.004276057,293.723,-102.381256,-1.5122547,STD
6563018994000,0.199997,-1.5554732165009,9.62317518504043,-1.84455770053577,-0.01985312,0.044593163,0.0015271631,293.70062,-102.40811,-1.4958206,STD
6563023998000,0.205001,-1.55762879592775,9.62748635389782,-1.86132331135312,-0.022296581,0.04153884,0.0070249503,293.68192,-102.42841,-1.4792571,STD
6563028999000,0.210002,-1.55978308304079,9.63179493812161,-1.87807887084504,-0.02076942,0.03970624,0.013439035,293.66125,-102.45018,-1.4631242,STD
6563034067000,0.21507,-1.56196623182881,9.63616124582929,-1.89505890993823,-0.030543262,0.03573562,0.020158553,293.64258,-102.46725,-1.4460721,STD
6563039037000,0.22004,-1.56410716503254,9.64044312217247,-1.91171060573403,-0.029321533,0.03573562,0.019242255,293.62335,-102.487366,-1.4296591,STD
6563043990000,0.224993,-1.5662407751247,9.64471035225853,-1.92830534401907,-0.032070424,0.030543262,0.016493361,293.6071,-102.50293,-1.4129114,STD
6563048990000,0.229993,-1.56839463146647,9.64901807493778,-1.94505755306918,-0.03604105,0.029321533,0.016493361,293.58997,-102.51795,-1.3958769,STD
6563054008000,0.235011,-1.57055624169107,9.65334130541867,-1.96187007007187,-0.045814894,0.030848695,0.015577064,293.5734,-102.530205,-1.3804413,STD
6563058996000,0.239999,-1.57270492877763,9.65763868956349,-1.97858207382026,-0.04917465,0.030543262,0.00580322,293.55725,-102.543015,-1.3681073,STD
6563063997000,0.245,-1.57485921589067,9.66194727378727,-1.99533763331218,-0.03604105,0.048563786,0.011301007,293.53656,-102.55693,-1.3509367,STD
6563068987000,0.24999,-1.57700876451976,9.66624638102116,-2.01205633794418,-0.03573562,0.043066,0.02687807,293.52267,-102.56589,-1.3354998,STD
6563074046000,0.255049,-1.57918803636636,9.67060493482802,-2.02900622306108,-0.04153884,0.029626964,0.013439035,293.50467,-102.57712,-1.3264046,STD
6563079096000,0.260099,-1.58136343127155,9.67495573473406,-2.04592595420169,-0.043066,0.026267206,0.009773844,293.48712,-102.58847,-1.3104364,STD
6563084025000,0.265028,-1.58348670285327,9.67920228775127,-2.06244028188329,-0.03726278,0.004886922,0.029932396,293.47913,-102.59959,-1.2938981,STD
6563089013000,0.270016,-1.58563538993983,9.68349967189608,-2.07915228563168,-0.070554934,-0.045814894,0.010079277,293.4777,-102.600075,-1.2919493,STD
6563093993000,0.274996,-1.58778063085623,9.68779016368462,-2.09583748584559,-0.076052725,-0.065973446,0.043676864,293.4783,-102.60767,-1.2693255,STD
6563098988000,0.279991,-1.58993233334166,9.69209357864118,-2.11257294268664,-0.082161374,-0.07880162,0.03573562,293.48712,-102.60738,-1.26683,STD
6563104004000,0.285007,-1.59209308202373,9.69641508603301,-2.12937875880571,-0.09896017,-0.0870483,0.035124753,293.5026,-102.60139,-1.2543516,STD
6563109000000,0.290003,-1.59424521528043,9.70071936253411,-2.14611756608858,-0.10598512,-0.065973446,0.023518313,293.51205,-102.59713,-1.2465498,STD
6563113972000,0.294975,-1.59638701002669,9.70500296196635,-2.16277596276801,-0.087659165,-0.049785517,0.034513887,293.52625,-102.59495,-1.2337948,STD
6563118966000,0.299969,-1.59853828174085,9.70930551537839,-2.17950806916726,-0.10598512,-0.052839845,0.02565634,293.53775,-102.58146,-1.2300168,STD
6563123995000,0.304998,-1.60070463044941,9.71363822284918,-2.19635744102986,-0.09712757,-0.0290161,0.032070424,293.53867,-102.580284,-1.2166232,STD
6563129074000,0.310077,-1.60289251772138,9.71801400754676,-2.21337433498296,-0.09865474,-0.03573562,0.040317107,293.54834,-102.57135,-1.2075899,STD
6563134024000,0.315027,-1.60502483549974,9.72227865299921,-2.22995902194256,-0.10170906,-0.04428773,0.056199603,293.55264,-102.56422,-1.1936345,STD
6563138986000,0.319989,-1.60716232253331,9.7265536369861,-2.24658391420389,-0.110872045,-0.0571159,0.058643065,293.55957,-102.55519,-1.1822393,STD
6563143993000,0.324996,-1.60978081366602,9.73128270463062,-2.25892586586492,-0.11942416,-0.061391957,0.059864793,293.5672,-102.54525,-1.1672696,STD
6563148988000,0.329991,-1.6143219346627,9.73773585450621,-2.25271170212945,-0.10995574,-0.07360926,0.05589417,293.58023,-102.538185,-1.154872,STD
6563153964000,0.334967,-1.61884578212605,9.74416445786576,-2.24652117585363,-0.103847094,-0.08368854,0.06078109,293.61816,-102.598274,-1.1370535,STD
6563158988000,0.339991,-1.62341326798937,9.75065507347636,-2.24027093389026,-0.09865474,-0.09285152,0.06352998,293.65842,-102.66003,-1.1218758,STD
6563163979000,0.344982,-1.62795075245271,9.75710305566436,-2.23406174646208,-0.109650314,-0.10781772,0.06963864,293.70313,-102.717735,-1.1056575,STD
6563168991000,0.349994,-1.63250732871604,9.76357816821221,-2.2278264334206,-0.11148291,-0.11301007,0.05955936,293.74637,-102.778915,-1.0934479,STD
6563173993000,0.354996,-1.63705481364604,9.77004036154108,-2.22160356114736,-0.09560041,-0.12522738,0.061391957,293.7964,-102.8407,-1.0779271,STD
6563179020000,0.360023,-1.64162502690936,9.77653485291737,-2.21534958695352,-0.0852157,-0.13958271,0.06841691,293.84766,-102.89966,-1.0645257,STD
6563184006000,0.365009,-1.64615796570603,9.78297637549589,-2.20914661990947,-0.08277224,-0.15302174,0.07360926,293.9016,-102.95996,-1.0521525,STD
6563188996000,0.369999,-1.65069454103604,9.78942306576199,-2.20293867655811,-0.06994407,-0.16157386,0.0729984,293.9578,-103.025215,-1.0403786,STD
6563193990000,0.374993,-1.65523475289938,9.79587492371569,-2.19672575689946,-0.062308256,-0.15302174,0.07574729,294.01297,-103.08857,-1.0263591,STD
6563199014000,0.380017,-1.6598022387627,9.80236553932629,-2.1904755149361,-0.056199603,-0.1423316,0.07574729,294.0692,-103.154236,-1.014061,STD
6563204016000,0.385019,-1.6643497236927,9.80882773265516,-2.18425264266286,-0.058337633,-0.12492194,0.06780604,294.12036,-103.21881,-1.0026203,STD
6563208992000,0.389995,-1.66887357115606,9.81525633601471,-2.17806211638704,-0.06078109,-0.10323623,0.06169739,294.16702,-103.28391,-0.99008673,STD
6563213963000,0.394966,-1.67339287295274,9.82167847976477,-2.17187781049534,-0.053450707,-0.08124508,0.05467244,294.20776,-103.350296,-0.9792133,STD
6563219065000,0.400068,-1.67803127121601,9.82826986528334,-2.16553053053971,-0.04734206,-0.058643065,0.05375614,294.24194,-103.41454,-0.9671886,STD
6563224001000,0.405004,-1.68251875334606,9.83464679176701,-2.15938976733684,-0.042760566,-0.047036625,0.043982297,294.27176,-103.4796,-0.95915705,STD
6563229028000,0.410031,-1.68708896660938,9.8411412831433,-2.15313579314301,-0.049480084,-0.029626964,0.04062254,294.29382,-103.54182,-0.9479966,STD
6563234031000,0.415034,-1.69163736067271,9.84760476839407,-2.14691167679294,-0.04153884,-0.028710667,0.03359759,294.31616,-103.60855,-0.9411502,STD
6563238999000,0.420002,-1.6961539350694,9.85402303637844,-2.14073110313171,-0.043676864,-0.018020526,0.027183503,294.3306,-103.66929,-0.933472,STD
6563243991000,0.424994,-1.70069232866607,9.86047231048834,-2.13452067162671,-0.029321533,-0.0125227375,0.027794369,294.34616,-103.73572,-0.9262635,STD
6563248975000,0.429978,-1.70522344919609,9.86691124922307,-2.1283201927363,-0.026572637,-0.009162978,0.032375857,294.35907,-103.79702,-0.9192974,STD
6563253993000,0.434996,-1.70978548025941,9.87339411330229,-2.12207741523388,-0.02565634,-0.0015271631,0.027794369,294.36868,-103.860725,-0.9142016,STD
6563258993000,0.439996,-1.71433114692275,9.87985372278737,-2.11585703111429,-0.013744468,-0.009162978,0.040927973,294.38312,-103.9266,-0.90391386,STD
6563263982000,0.444985,-1.71886681311942,9.88629912113158,-2.10965033183976,-0.016798794,-0.0067195175,0.05009095,294.39203,-103.987305,-0.894955,STD
6563269817000,0.45082,-1.72417160611554,9.89383748540066,-2.10239114357219,-0.01863139,0.0021380284,0.044593163,294.4012,-104.050446,-0.8867595,STD
6563273998000,0.455001,-1.72797269257942,9.89923901085208,-2.09718965837139,-0.027183503,-0.004886922,0.04734206,294.41534,-104.109184,-0.87497264,STD
6563278992000,0.459995,-1.73251290444276,9.90569086880577,-2.09097673871274,-0.018936822,0.0009162979,0.051618114,294.42322,-104.171,-0.863068,STD
6563284034000,0.465037,-1.73709675470606,9.91220473901052,-2.08470410336654,-0.023823744,-0.01038471,0.049480084,294.43756,-104.2255,-0.8541571,STD
6563289075000,0.470078,-1.74167969583604,9.91871731729338,-2.07843271209717,-0.032375857,0.0067195175,0.042760566,294.4424,-104.28011,-0.8432514,STD
6563293994000,0.474997,-1.74615172269943,9.92507228110479,-2.07231309820031,-0.037873644,0.002443461,0.0421497,294.45667,-104.332985,-0.83383334,STD
6563299024000,0.480027,-1.75072466336275,9.93157064824678,-2.066055391776,-0.040317107,0.016493361,0.031154128,294.4599,-104.38347,-0.8269102,STD
6563304002000,0.485005,-1.75525032909276,9.93800183545012,-2.05986237734654,-0.038179077,0.009468411,0.040927973,294.47162,-104.43233,-0.81642985,STD
6563308954000,0.489957,-1.75975235735613,9.94439943268414,-2.05370170891449,-0.05467244,0.036957346,0.044593163,294.46875,-104.47442,-0.8074012,STD
6563313986000,0.494989,-1.76432711628611,9.95090038366992,-2.04744151433653,-0.064751714,0.04886922,0.04886922,294.47296,-104.517784,-0.7973238,STD
6563319028000,0.500031,-1.76891096654942,9.95741425387467,-2.04116887899034,-0.06872234,0.07452556,0.046120327,294.4656,-104.55732,-0.785498,STD
6563323976000,0.504979,-1.77340935827946,9.9638066834211,-2.03501318686559,-0.07086037,0.100792766,0.048258353,294.45557,-104.59351,-0.77051634,STD
6563328992000,0.509995,-1.77796957107611,9.97028696365653,-2.02877289751681,-0.06963864,0.13347405,0.050396383,294.43665,-104.628746,-0.7542812,STD
6563334037000,0.51504,-1.78255614873942,9.97680470962697,-2.02249652994014,-0.063224554,0.15149458,0.04734206,294.41452,-104.66403,-0.7383793,STD
6563338968000,0.519971,-1.7870390852028,9.98317517650115,-2.0163619871214,-0.0421497,0.16615535,0.04428773,294.38477,-104.702965,-0.7201275,STD
6563343976000,0.524979,-1.79239581612829,9.98680782736082,-2.00764201613827,-0.00580322,0.16676621,0.044898596,294.35434,-104.74716,-0.70178354,STD
6563349004000,0.530007,-1.80200616811464,9.97551568767276,-1.98577846743905,0.02107485,0.15943582,0.03940081,294.32184,-104.79373,-0.6858458,STD
6563353933000,0.534936,-1.81142729479338,9.96444588725065,-1.96434540627389,0.05375614,0.1853976,0.040317107,294.25842,-104.8308,-0.66689765,STD
6563358973000,0.539976,-1.82106058318065,9.95312679734854,-1.94242967726751,0.053145275,0.22540927,0.03848451,294.19263,-104.8652,-0.6498227,STD
6563363903000,0.544906,-1.83048362122614,9.94205475107525,-1.92099226774342,0.03176499,0.2489276,0.03145956,294.12405,-104.90186,-0.63334894,STD
6563368918000,0.549921,-1.84006912544482,9.93079180745242,-1.89918524771029,0.0076358155,0.29901853,0.028710667,294.03748,-104.93634,-0.6114211,STD
6563373907000,0.55491,-1.84960493412817,9.91958725596004,-1.87749128500933,-0.035124753,0.3387248,0.016798794,293.94638,-104.95846,-0.5931425,STD
6563378889000,0.559892,-1.85912736324432,9.90839842542586,-1.85582776082088,-0.06352998,0.35430184,0.0030543262,293.8481,-104.97683,-0.57437044,STD
6563383943000,0.564946,-1.868787410766,9.89704789360736,-1.83385115478949,-0.115453534,0.3323107,-0.0125227375,293.7487,-104.97559,-0.5594167,STD
6563388912000,0.569915,-1.87828499211448,9.8858882591384,-1.81224415926713,-0.14294247,0.27305678,-0.022296581,293.65512,-104.972694,-0.54834443,STD
6563393905000,0.574908,-1.88782844626481,9.87467472424134,-1.79053280313046,-0.15607607,0.18325958,-0.030543262,293.57547,-104.95891,-0.54504365,STD
6563398907000,0.57991,-1.89738910271582,9.86344097668373,-1.76878231176341,-0.19486602,0.062002823,-0.027488936,293.52136,-104.92986,-0.5478954,STD
6563403981000,0.584984,-1.90708737757237,9.85204552784181,-1.74671873855342,-0.2452624,-0.055283304,-0.03176499,293.49002,-104.8941,-0.5610987,STD
6563408974000,0.589977,-1.9166308317227,9.84083199294474,-1.72500738241675,-0.3210097,-0.13347405,-0.01985312,293.48285,-104.84035,-0.57462144,STD
6563414005000,0.595008,-1.92624691780928,9.82953311570318,-1.70313078864074,-0.3820962,-0.13103059,-0.00580322,293.4854,-104.77745,-0.59085083,STD
6563418988000,0.599991,-1.93577125829217,9.81834203931783,-1.68146291609337,-0.42394048,-0.106595986,-0.009773844,293.50275,-104.70005,-0.6123211,STD
6563423989000,0.604992,-1.94533000337644,9.80711053761139,-1.65971677308525,-0.453262,-0.055588737,-0.013744468,293.51257,-104.61053,-0.62728506,STD
6563428973000,0.609976,-1.95485625522608,9.79591721537487,-1.63804455217895,-0.47678033,0.01740966,-0.007941248,293.50952,-104.51272,-0.6367917,STD
6563434006000,0.615009,-1.96447616404614,9.78461384643096,-1.61615926168508,-0.5036584,0.06352998,0.015882496,293.50037,-104.40755,-0.6402445,STD
6563439002000,0.620005,-1.9740253522967,9.77339357398038,-1.59443486047161,-0.50885075,0.074830994,0.03390302,293.48035,-104.304,-0.64062536,STD
6563443989000,0.624992,-1.98355733824656,9.76219351419034,-1.57274959448852,-0.5314528,0.04153884,0.06627888,293.46234,-104.18951,-0.6301744,STD
6563448994000,0.629997,-1.99312372879781,9.75095302907923,-1.55098605804469,-0.58123827,-0.028099801,0.10476339,293.45273,-104.067635,-0.6147612,STD
6563453998000,0.635001,-2.00268820798232,9.73971478981928,-1.52922686995978,-0.6236934,-0.122478485,0.1337795,293.46045,-103.94345,-0.5971504,STD
6563459014000,0.640017,-2.01227562356774,9.72844960034528,-1.50741550156772,-0.6713409,-0.22204952,0.16310102,293.49112,-103.80579,-0.57416904,STD
6563463982000,0.644985,-2.02177129354948,9.71729221172749,-1.4858128544043,-0.6942484,-0.2593123,0.16768251,293.53018,-103.666084,-0.55250937,STD
6563468997000,0.65,-2.03135679776816,9.70602926810466,-1.46400583437116,-0.698219,-0.29993483,0.16768251,293.59857,-103.52132,-0.5312956,STD
6563473985000,0.654988,-2.04089069508477,9.69482696246345,-1.44231622002914,-0.70005155,-0.2657264,0.16829337,293.6557,-103.37412,-0.50639844,STD
6563478998000,0.660001,-2.05047237656997,9.68356851054297,-1.42051789671387,-0.700357,-0.19333886,0.1554652,293.71146,-103.229935,-0.48572448,STD
6563484011000,0.665014,-2.06005405805516,9.67231005862248,-1.3987195733986,-0.70707655,-0.058643065,0.16035213,293.74036,-103.08666,-0.4539391,STD
6563489013000,0.670016,-2.06961471450618,9.66107631106487,-1.37696908203155,-0.7171558,0.073303826,0.15790866,293.74744,-102.945816,-0.4236583,STD
6563493993000,0.674996,-2.07913332088884,9.64989197223303,-1.35531425456097,-0.7339546,0.18753563,0.17501289,293.7227,-102.803986,-0.37959397,STD
6563498980000,0.679983,-2.08866530683871,9.638691912443,-1.33362898857787,-0.7324274,0.24098633,0.18478674,293.67685,-102.66753,-0.3344148,STD
6563504013000,0.685016,-2.09828521565877,9.62738854349909,-1.311743698084,-0.72387534,0.22021692,0.1853976,293.62,-102.53105,-0.2853921,STD
6563508995000,0.689998,-2.10780764477492,9.6161997129649,-1.29008017389556,-0.6969972,0.11759156,0.18570304,293.57135,-102.402916,-0.23644644,STD
6563513981000,0.694984,-2.11733771935804,9.60500189902604,-1.26839925627139,-0.6750061,-0.050701816,0.18936823,293.54694,-102.27843,-0.19262706,STD
6563518993000,0.699996,-2.12691748947649,9.59374569295672,-1.24660528131505,-0.6301075,-0.22204952,0.17806722,293.55075,-102.17078,-0.16012545,STD
6563524687000,0.70569,-2.13780081171402,9.58095781638875,-1.22184572556856,-0.5830709,-0.35246924,0.17837265,293.59045,-102.07252,-0.13167077,STD
6563529011000,0.710014,-2.14606556151294,9.57124675592512,-1.20304342155595,-0.54153204,-0.4260785,0.18173242,293.66083,-101.98796,-0.112809174,STD
6563534010000,0.715013,-2.15562048386372,9.56001974592103,-1.18130597526569,-0.50762904,-0.4465425,0.18875736,293.75195,-101.916885,-0.09771615,STD
6563538976000,0.719979,-2.16511233111198,9.54886684900558,-1.15971202482013,-0.48502702,-0.42241332,0.18661933,293.8496,-101.85649,-0.08622091,STD
6563544026000,0.725029,-2.17009251211954,9.53914390981509,-1.14061625035782,-0.45540005,-0.3659083,0.19547687,293.9438,-101.80955,-0.069287166,STD
6563548987000,0.72999,-2.12616722508046,9.5465043627936,-1.15177564672914,-0.42760566,-0.28588495,0.20463985,294.02335,-101.77014,-0.05035386,STD
6563553960000,0.734963,-2.0821356886069,9.55388261973014,-1.1629620361979,-0.40133846,-0.20677789,0.22388211,294.04892,-101.67054,-0.041467786,STD
6563558950000,0.739953,-2.03795363210115,9.56128609894053,-1.17418666588806,-0.37995818,-0.17104226,0.23304509,294.06326,-101.5796,-0.030802444,STD
6563563970000,0.744973,-1.9935059520092,9.56873408804598,-1.18547877832184,-0.35094208,-0.10293079,0.23365596,294.04617,-101.50018,-0.010976112,STD
6563568989000,0.749992,-1.94906712603678,9.57618059348826,-1.19676864133083,-0.3484986,-0.049785517,0.25228736,294.02402,-101.42094,0.017302576,STD
6563574017000,0.75502,-1.90454861298851,9.58364045189905,-1.20807874916292,-0.32742378,-0.016798794,0.26847526,293.9876,-101.35675,0.04737078,STD
6563579019000,0.760022,-1.86026030704828,9.59106173506747,-1.21933037195052,-0.3005457,0.0070249503,0.2855795,293.93933,-101.296265,0.084803656,STD
6563584020000,0.765023,-1.81598085522759,9.59848153457271,-1.23057974531334,-0.2828306,-0.011301007,0.29016098,293.89325,-101.24035,0.12202484,STD
6563589013000,0.770016,-1.77177223636322,9.60588946477261,-1.24181112327786,-0.25442538,-0.06811147,0.2751948,293.8506,-101.19613,0.1569323,STD
6563594739000,0.775742,-1.72107354787586,9.61438492007496,-1.25469132961169,-0.21471913,-0.11636983,0.26847526,293.8109,-101.16111,0.19407679,STD
6563598982000,0.779985,-1.68350551866667,9.62068010289855,-1.26423563898551,-0.172264,-0.16615535,0.2507602,293.78558,-101.135605,0.22002138,STD
6563603908000,0.784911,-1.63989012581149,9.62798862766617,-1.27531630548926,-0.099265605,-0.17989981,0.24495697,293.76352,-101.13077,0.2461454,STD
6563608927000,0.78993,-1.59545129983908,9.63543513310845,-1.28660616849825,-0.032070424,-0.16187929,0.24404067,293.74527,-101.13666,0.26722533,STD
6563613912000,0.794915,-1.55131351393103,9.642831194003,-1.29781955106447,0.01282817,-0.14630222,0.2565634,293.7316,-101.15702,0.28914872,STD
6563618933000,0.799936,-1.50685697971954,9.65028066677161,-1.30911391292304,0.061391957,-0.1328632,0.24587326,293.7118,-101.19698,0.30475086,STD
6563623918000,0.804921,-1.46271919381149,9.65767672766617,-1.32032729548926,0.09254608,-0.129198,0.2510656,293.6917,-101.24427,0.32817358,STD
6563628910000,0.809913,-1.41851942906667,9.6650831742029,-1.33155642402899,0.12980886,-0.1255328,0.26297748,293.66745,-101.306114,0.35080245,STD
6563633956000,0.814959,-1.37384154186667,9.67256973855073,-1.34290702150725,0.16554448,-0.13652839,0.2773328,293.6466,-101.37529,0.37451905,STD
6563638919000,0.819922,-1.32989854658851,9.67993315885557,-1.35407091672814,0.20005837,-0.15424347,0.28680122,293.62692,-101.453415,0.39950952,STD
6563643931000,0.824934,-1.28552169945287,9.68736927865567,-1.36534503376362,0.22510384,-0.18203785,0.3032946,293.61432,-101.5377,0.4287025,STD
6563648931000,0.829934,-1.24125110175172,9.69478759449775,-1.37659215770165,0.25411993,-0.1994475,0.32253686,293.6045,-101.6314,0.46026403,STD
6563653932000,0.834935,-1.19697164993103,9.702207394003,-1.38784153106447,0.26816985,-0.23426682,0.32589662,293.60736,-101.72618,0.4886633,STD
6563658929000,0.839932,-1.15272761458851,9.70962125885557,-1.39908190672814,0.2941316,-0.26297748,0.3313944,293.6146,-101.83101,0.52155864,STD
6563663912000,0.844915,-1.10860753691954,9.71701435242379,-1.41029079044478,0.29932398,-0.31581733,0.33261612,293.63828,-101.93198,0.549907,STD
6563668918000,0.849921,-1.06428381450115,9.72444157024488,-1.42155141093153,0.32162055,-0.37843102,0.31673363,293.672,-102.04306,0.5718464,STD
6563674017000,0.85502,-1.01913665896552,9.73200676874063,-1.43302122792354,0.35246924,-0.4147775,0.28405234,293.7121,-102.155876,0.58699834,STD
6563679029000,0.860032,-0.974759811829885,9.73944288854073,-1.44429534495902,0.35308012,-0.45540005,0.25167647,293.76984,-102.26419,0.59308106,STD
6563684054000,0.865057,-0.93026786114023,9.74689829596202,-1.45559870451674,0.32528573,-0.46761733,0.23335053,293.8285,-102.37081,0.5929735,STD
6563689033000,0.870036,-0.886183199949425,9.75428545487756,-1.46679859053423,0.29077184,-0.4474588,0.23518312,293.88852,-102.4735,0.5887299,STD
6563694027000,0.87503,-0.841965726965517,9.76169486874063,-1.47803221792354,0.26511553,-0.43310347,0.23762658,293.9523,-102.5687,0.57833046,STD
6563698968000,0.879971,-0.798217522317241,9.76902564845577,-1.4891466257991,0.25900686,-0.45142943,0.23548855,294.01913,-102.657974,0.5662813,STD
6563704048000,0.885051,-0.753238595052873,9.77656265735132,-1.50057370372014,0.2648101,-0.48380527,0.22571471,294.08527,-102.741806,0.5526921,STD
6563709029000,0.890032,-0.709136225622988,9.7839527835932,-1.51177808858721,0.2910773,-0.52015173,0.23487769,294.1584,-102.82859,0.5422977,STD
6563714006000,0.895009,-0.665069272671264,9.79133697518241,-1.52297347575512,0.31948254,-0.537256,0.24617869,294.2344,-102.91622,0.52894074,STD
6563718997000,0.9,-0.620878362045977,9.79874193805597,-1.53420035487006,0.3313944,-0.5696318,0.23976462,294.32388,-103.00513,0.509853,STD
6563724076000,0.905079,-0.575908288901149,9.80627746328836,-1.54562518336632,0.33841935,-0.62125,0.23609942,294.42407,-103.099396,0.4922032,STD
6563728996000,0.909999,-0.532346020763218,9.81357708607696,-1.55669235332134,0.33567044,-0.66645396,0.24220806,294.53134,-103.19275,0.4737166,STD
6563733980000,0.914983,-0.488217088974713,9.82097166330835,-1.56790348646277,0.30543262,-0.7199047,0.226631,294.65323,-103.278496,0.44423315,STD
6563738995000,0.919998,-0.44381367948046,9.82841223409795,-1.57918435177261,0.2602286,-0.7696902,0.21197024,294.78662,-103.35785,0.4139489,STD
6563744131000,0.925134,-0.402288789144496,9.8339760270188,-1.58788359536535,0.21135938,-0.84421575,0.20922135,294.94095,-103.42635,0.37758923,STD
6563748971000,0.929974,-0.40298236604509,9.81848611989127,-1.56730748048681,0.16432275,-0.9483683,0.21594086,295.11636,-103.48158,0.33478704,STD
6563753999000,0.935002,-0.403702883536037,9.80239453868522,-1.54593212808818,0.15515977,-1.0256428,0.22571471,295.27673,-103.582855,0.46874234,STD
6563759005000,0.940008,-0.404420248404708,9.78637336614794,-1.52465030348446,0.14019357,-1.0564915,0.23915374,295.45248,-103.66974,0.59833544,STD
6563764011000,0.945014,-0.40513761327338,9.77035219361065,-1.50336847888074,0.14813483,-1.1145236,0.25595254,295.65668,-103.7614,0.7211469,STD
6563769062000,0.950065,-0.405861426687615,9.75418700334181,-1.48189534742381,0.14110987,-1.1554517,0.27030787,295.864,-103.845406,0.84270847,STD
6563774087000,0.95509,-0.406581514275525,9.73810502331787,-1.4605327488154,0.1414153,-1.1633929,0.2910773,296.0783,-103.93489,0.96564156,STD
6563779016000,0.960019,-0.407287844966233,9.72233028112125,-1.43957827149384,0.16890424,-1.2608259,0.301462,296.3275,-104.030914,1.0772439,STD
6563784024000,0.965027,-0.40800549643693,9.7063027077959,-1.41828794436331,0.20555615,-1.4349225,0.3155119,296.60028,-104.13083,1.1861811,STD
6563789007000,0.97001,-0.408719565382313,9.69035514432141,-1.3971038988179,0.24617869,-1.5778649,0.31337386,296.88928,-104.24001,1.285293,STD
6563793992000,0.974995,-0.409433920929722,9.67440118005885,-1.37591135074567,0.2932153,-1.7040086,0.31948254,297.22153,-104.36223,1.376031,STD
6563798979000,0.979982,-0.410148563079156,9.65844081500823,-1.35471030014664,0.35827246,-1.8677205,0.31398472,297.60065,-104.50058,1.4466664,STD
6563803996000,0.984999,-0.410867504258966,9.64238443813657,-1.33338171164547,0.41447207,-1.9941696,0.2919936,298.00122,-104.648964,1.5045305,STD
6563808994000,0.989997,-0.411583722719537,9.62638886875156,-1.31213389714899,0.45265114,-2.11451,0.27458394,298.4427,-104.80974,1.547335,STD
6563813998000,0.995001,-0.412300800986184,9.61037409700234,-1.29086057507207,0.48349985,-2.2015584,0.26511553,298.90594,-104.98259,1.5760856,STD
6563818980000,0.999983,-0.413014726630555,9.59442973392189,-1.26968078079006,0.49571714,-2.2094996,0.22449298,299.3739,-105.157814,1.5852159,STD
6563824002000,1.005005,-0.413734384315427,9.57835735508005,-1.24833093597187,0.52473325,-2.1062634,0.1777618,299.8307,-105.34433,1.588851,STD
6563829029000,1.010032,-0.414454758505362,9.56226897426804,-1.22695983483665,0.5381723,-2.0387628,0.13958271,300.2938,-105.52695,1.5777494,STD
6563834012000,1.015015,-0.415168827450746,9.54632141079356,-1.20577578929124,0.59437186,-2.0570886,0.1414153,300.74832,-105.72757,1.5635353,STD
6563839004000,1.020007,-0.415884186105242,9.53034504377275,-1.18455348237518,0.6414085,-2.0873265,0.1414153,301.18124,-105.925804,1.5402873,STD
6563843992000,1.024995,-0.416598971555689,9.5143814783281,-1.16334818051274,0.7067711,-2.1163425,0.16523905,301.61765,-106.14335,1.5204334,STD
6563849796000,1.030799,-0.417430690632351,9.49580639135119,-1.13867384771211,0.7635816,-2.1044307,0.21135938,302.04962,-106.36953,1.5052651,STD
6563854005000,1.035008,-0.418033844594045,9.48233593285949,-1.1207802800419,0.81092364,-2.0821342,0.25778514,302.4854,-106.609024,1.4927734,STD
6563858994000,1.039997,-0.418748773345504,9.4663691670208,-1.09957072691606,0.84879726,-2.0360138,0.31856623,302.91302,-106.86008,1.4969467,STD
6563863965000,1.044968,-0.419461122678737,9.45046000827473,-1.0784376965315,0.8570439,-1.9236146,0.34972036,303.31454,-107.11283,1.5100137,STD
6563868995000,1.049998,-0.420181926771709,9.43436202628061,-1.05705384160607,0.86162543,-1.8451185,0.36743546,303.71356,-107.37264,1.5337073,STD
6563873980000,1.054983,-0.420896282319118,9.41840806201806,-1.03586129353384,0.8597928,-1.8121318,0.37904188,304.0935,-107.62968,1.5663111,STD
6563879014000,1.060017,-0.421617659616141,9.4022972784478,-1.01446043355479,0.83077675,-1.777007,0.37965274,304.44922,-107.87648,1.6040865,STD
6563884009000,1.065012,-0.422333448173675,9.3863113102449,-0.993225372848521,0.80939645,-1.7895297,0.36957347,304.8063,-108.12101,1.6372672,STD
6563889007000,1.07001,-0.423049666634246,9.37031574085989,-0.971977558352037,0.8063421,-1.7623463,0.36957347,305.14136,-108.35909,1.6765417,WAL
6563893992000,1.074995,-0.423764022181655,9.35436177659734,-0.950785010279814,0.81092364,-1.707063,0.35124752,305.46716,-108.588936,1.7064145,WAL
6563898978000,1.079981,-0.424478521030076,9.33840461194075,-0.929588210944187,0.81336707,-1.6740762,0.33964106,305.78976,-108.813995,1.7355415,WAL
6563904012000,1.085015,-0.425199898327099,9.32229382837049,-0.908187350965135,0.77854776,-1.6896533,0.35216382,306.10873,-109.02637,1.7639564,WAL
6563908995000,1.089998,-0.425913967272482,9.30634626489601,-0.887003305419722,0.75594574,-1.6972891,0.35643986,306.4125,-109.23884,1.7879676,WAL
6563913960000,1.094963,-0.426625456799641,9.29045630851414,-0.865895782615592,0.7467828,-1.7061466,0.34422258,306.7182,-109.44188,1.8067001,WAL
6563919850000,1.100853,-0.42746949976338,9.27160598765026,-0.840855841162153,0.7425067,-1.6917913,0.32284227,307.01697,-109.63669,1.823051,WAL
6563924000000,1.105003,-0.428064198965335,9.2583243524066,-0.82321309803282,0.76052725,-1.6933185,0.32803464,307.3216,-109.832726,1.8385242,WAL
6563929013000,1.110016,-0.428782566941094,9.24228077711108,-0.801901514585266,0.77946407,-1.643533,0.33261612,307.60425,-110.02431,1.8522292,WAL
6563934009000,1.115012,-0.429498498799641,9.22629160851414,-0.780662202615592,0.79351395,-1.6013832,0.33414328,307.88748,-110.21673,1.8635134,WAL
6563938969000,1.119972,-0.430209271821737,9.21041765410245,-0.759575936128485,0.8017606,-1.5613716,0.34208453,308.15695,-110.41016,1.8802547,WAL
6563944326000,1.125329,-0.434118021531101,9.19043481818182,-0.739063693779904,0.80481493,-1.534799,0.3417791,308.41605,-110.60278,1.8958838,WAL
6563948983000,1.129986,-0.536368974102871,9.08373836174242,-0.792412014842504,0.79076505,-1.4862351,0.3145956,308.65472,-110.7892,1.9104931,WAL
6563954326000,1.135329,-0.650035584604905,8.96197302861036,-0.853066455517711,0.75900006,-1.4391985,0.29871312,308.84946,-110.93313,1.9597172,WAL
6563958995000,1.139998,-0.600539374071867,8.8820175963045,-0.883525657412296,0.73945236,-1.3976597,0.28985557,309.02917,-111.07404,2.0063355,WAL
6563963941000,1.144944,-0.54810667814203,8.79731860975818,-0.915791926971219,0.7305948,-1.3658947,0.269697,309.2122,-111.24778,2.0480654,WAL
6563968994000,1.149997,-0.385066973129285,8.76783729563251,-0.979542189394467,0.72143185,-1.3225232,0.23762658,309.37784,-111.413055,2.088079,WAL
6563974003000,1.155006,-0.15135088248521,8.77618446685227,-1.06301222379067,0.7021896,-1.2840388,0.20952678,309.5337,-111.5703,2.1250927,WAL
6563979021000,1.160024,0.024971096188825,8.78548447616045,-1.09561870210813,0.69027776,-1.2165382,0.17287487,309.64972,-111.77306,2.204552,WAL
6563984024000,1.165027,0.074058176374734,8.79681209772244,-1.01632418805264,0.700357,-1.1404854,0.16768251,309.75287,-111.97426,2.2878795,WAL
6563988963000,1.169966,0.122517318696982,8.80799481267239,-0.938044035160375,0.70921457,-1.1032226,0.16462818,309.80054,-112.227,2.4570377,WAL
6563994003000,1.175006,0.210251657055827,8.8347177595664,-0.831169242466125,0.7272351,-1.074512,0.15668693,309.82867,-112.48232,2.627184,WAL
6563998948000,1.179951,0.30778974241084,8.86551934710027,-0.718230400867209,0.7425067,-1.0763446,0.14508049,309.8537,-112.73637,2.7927883,WAL
6564004015000,1.185018,0.347410638157656,8.97569776160274,-0.753506584419611,0.745561,-1.0644327,0.13958271,309.79916,-113.050896,3.0537374,WAL
6564008927000,1.18993,0.380561638628813,9.0893581679251,-0.800865157934159,0.7415904,-1.0439687,0.1328632,309.7416,-113.363914,3.3067088,WAL
6564013975000,1.194978,0.411987318105341,9.14753479180887,-0.89945834066968,0.7507534,-0.9828822,0.12797627,309.57968,-113.78248,3.7033808,WAL
6564019041000,1.200044,0.443314025624942,9.20123784982935,-1.00238890903422,0.7715228,-0.91813046,0.124311075,309.413,-114.1985,4.0921707,WAL
6564024040000,1.205043,0.47312849674028,9.24741594925787,-0.999781526542037,0.7800749,-0.85062987,0.12950343,309.1322,-114.785416,4.6551967,WAL
6564028945000,1.209948,0.502078771063633,9.29084148543988,-0.968418738385291,0.7892379,-0.81183994,0.119729586,308.84662,-115.36799,5.201324,WAL
6564033997000,1.215,0.531896668287196,9.33556845970931,-0.936116025690514,0.8008443,-0.78893244,0.092240654,308.4337,-116.20911,5.980796,WAL
6564038943000,1.219946,0.561088932671152,9.37935698202455,-0.904491081710236,0.78954333,-0.77824235,0.09987647,308.03424,-117.02851,6.7407684,WAL
6564043990000,1.224993,0.545400076852355,9.40882888025466,-0.72353623366726,0.77304995,-0.79168135,0.09193522,307.3919,-118.35072,7.9636984,WAL
6564048948000,1.229951,0.52317283506975,9.43550162980994,-0.523491150461567,0.77366084,-0.84788096,0.06811147,306.80695,-119.622574,9.112549,WAL
6564054012000,1.235015,0.534763115870253,9.53080976898734,-0.356523902120253,0.7632761,-0.88086766,0.03176499,306.15817,-120.855644,10.215192,WAL
6564058958000,1.239961,0.558184255185918,9.64791531882911,-0.206628700498418,0.752586,-0.94897914,0.018936822,305.5725,-122.03352,11.246438,WAL
6564063964000,1.244967,0.509368849469388,9.71694119183674,-0.121058657828571,0.75228053,-1.0231993,0.0070249503,304.9011,-123.175735,12.233084,WAL
6564069058000,1.250061,0.429721082277551,9.76672100734694,-0.0613228334742857,0.7510588,-1.0684034,0.0027488936,304.27362,-124.25814,13.161356,WAL
6564073993000,1.254996,0.332647593043041,9.7870531462371,0.00691564715580166,0.74036866,-1.1172725,-0.007941248,303.61673,-125.2281,13.985219,WAL
6564078980000,1.259983,0.228465376454401,9.79907399614062,0.0790418018008222,0.72784597,-1.183246,-0.021685716,303.00052,-126.149055,14.758165,WAL
6564084019000,1.265022,0.0927794381988743,9.77258326328956,0.115035478507817,0.73884153,-1.2406673,-0.022602014,302.42886,-126.88667,15.341787,WAL
6564089014000,1.270017,-0.0917043580018762,9.68283466103815,0.0901052346241401,0.73914695,-1.2983941,-0.013133603,301.88904,-127.58693,15.891164,WAL
6564093998000,1.275001,-0.252191774446648,9.59744129571599,0.0137925395103134,0.73364913,-1.3359623,-0.017715093,301.3932,-128.12523,16.272896,WAL
6564098980000,1.279983,-0.38467157305831,9.51700699464498,-0.123418673987108,0.74006325,-1.3497068,-0.016798794,300.9184,-128.64915,16.640617,WAL
6564104001000,1.285004,-0.4388242938182,9.45998770056441,-0.276217715918408,0.73639804,-1.3503176,-0.019547688,300.46497,-129.09691,16.896137,WAL
6564108997000,1.29,-0.391447597834439,9.43393060966432,-0.44677383432221,0.72112644,-1.3487904,-0.032986723,300.02148,-129.52731,17.140574,WAL
6564113957000,1.29496,-0.344412287170017,9.40806128002773,-0.616100965483711,0.7153232,-1.3332134,-0.038179077,299.549,-129.98775,17.360743,WAL
6564119034000,1.300037,-0.296267474217744,9.38158172628478,-0.789422305182691,0.69974613,-1.323745,-0.04428773,299.08533,-130.424,17.570518,WAL
6564123930000,1.304933,-0.204091958793547,9.39906193858868,-0.943720226136184,0.6814202,-1.2901474,-0.042455133,298.6129,-130.82863,17.760014,WAL
6564128995000,1.309998,-0.0360665741686461,9.48547497921615,-1.08294127558195,0.6722572,-1.235475,-0.03634648,298.14194,-131.21735,17.949423,WAL
6564133964000,1.314967,0.13632499698027,9.59912638429391,-1.16144175227913,0.63529986,-1.2238685,-0.022296581,297.55063,-131.8132,18.289375,WAL
6564138993000,1.319996,0.323560928180581,9.76295770434445,-1.14271812396734,0.6038403,-1.2583824,0.0015271631,296.9784,-132.3812,18.619383,WAL
6564143930000,1.324933,0.47813745336535,9.90438472961218,-1.12739391431678,0.5861252,-1.2776246,0.032375857,296.3521,-132.99188,19.003916,WAL
6564149003000,1.330006,0.570584544413737,10.0056360360638,-1.11858943689743,0.5552765,-1.314582,0.062308256,295.76218,-133.5624,19.365925,WAL
6564154010000,1.335013,0.638696553076131,10.1122216278678,-1.11508505079127,0.5403103,-1.3289373,0.099571034,295.20343,-134.02347,19.661953,WAL
6564158993000,1.339996,0.531447778640322,10.2686264211068,-1.15083465782377,0.5180137,-1.3713925,0.116675265,294.6743,-134.45471,19.936283,WAL
6564164485000,1.345488,0.40356529986014,10.4360186480186,-1.18096097179487,0.49205196,-1.4474452,0.19058995,294.20123,-134.81029,20.16225,WAL
6564169000000,1.350003,0.190784575967366,10.5181444437969,-1.10256805156695,0.46761733,-1.4715744,0.2180789,293.72867,-135.14142,20.37567,WAL
6564173964000,1.354967,-0.0431564015306915,10.6084373452905,-1.01637924624881,0.4578435,-1.5531249,0.26145032,293.3062,-135.43542,20.530308,WAL
6564179006000,1.360009,-0.330455110845017,10.6670915380544,-0.998526185855985,0.42302418,-1.6667458,0.2959642,292.90796,-135.70724,20.672249,WAL
6564184024000,1.365027,-0.642122880266094,10.708341795279,-1.01685956969957,0.39003745,-1.7846428,0.3295618,292.54514,-135.97134,20.801138,WAL
6564189090000,1.370093,-0.910518065813617,10.7152401890391,-1.07594105721873,0.3567453,-1.8768835,0.34238997,292.24023,-136.12555,20.807661,WAL
6564193993000,1.374996,-1.1372446704394,10.6971019299855,-1.16209720769676,0.34422258,-1.9333885,0.35308012,291.96616,-136.27557,20.804527,WAL
6564199004000,1.380007,-1.30766237391676,10.6523159891142,-1.2572497452508,0.31673363,-1.9376645,0.38056904,291.72852,-136.37967,20.729752,WAL
6564204037000,1.38504,-1.41568811838847,10.5802987008004,-1.36013135549626,0.30787608,-1.892766,0.39675698,291.498,-136.48169,20.655363,WAL
6564209022000,1.390025,-1.38023984259424,10.5358917488869,-1.35384032510141,0.27977628,-1.8298469,0.41813725,291.27917,-136.57692,20.549818,WAL
6564213962000,1.394965,-1.26087799070941,10.5078067711487,-1.28362748973978,0.25442538,-1.7266107,0.4361578,291.04956,-136.66887,20.465912,WAL
6564219013000,1.400016,-1.1388341215049,10.4790907341941,-1.2118369975512,0.22602014,-1.6404786,0.44593164,290.81708,-136.76495,20.37146,WAL
6564224000000,1.405003,-1.01833664066489,10.4507385512021,-1.14095614533492,0.20158553,-1.5778649,0.41538838,290.56747,-136.8486,20.28975,WAL
6564229013000,1.410016,-0.711582303814013,10.5599677231558,-1.11354542485522,0.15363261,-1.4984524,0.355829,290.29175,-136.8959,20.19797,WAL
6564233998000,1.415001,-0.271933855043008,10.7684602722871,-1.11807787980632,0.079107046,-1.4318681,0.28710666,290.00134,-136.92163,20.109768,WAL
6564238992000,1.419995,0.200195755819552,11.0368343990138,-1.16946470238953,0.014660766,-1.3591752,0.23671028,289.69803,-136.89595,20.038414,WAL
6564244607000,1.42561,0.771280723210506,11.4141585655225,-1.28674110661862,-0.019547688,-1.2663237,0.23579398,289.37466,-136.85503,19.982084,WAL
6564248964000,1.429967,1.1723501624593,11.6413174074235,-1.32602711770132,-0.058643065,-1.2263119,0.24556783,289.0119,-136.74318,19.916403,WAL
6564254009000,1.435012,1.56562390052095,11.7933835849794,-1.28407789342305,-0.09743301,-1.1523973,0.26297748,288.62567,-136.62383,19.878532,WAL
6564258996000,1.439999,1.73553320431542,11.9532075460965,-1.1814582289084,-0.102319926,-1.0888673,0.267559,288.20343,-136.47401,19.869658,WAL
6564263964000,1.444967,1.70286914029031,12.1211937712829,-1.02280408183111,-0.1414153,-1.028697,0.26511553,287.77173,-136.30884,19.876823,WAL
6564269076000,1.450079,1.55511263929675,12.3225309629057,-0.904209855850077,-0.19975294,-0.97158116,0.2687807,287.33542,-136.09387,19.895267,WAL
6564274071000,1.455074,1.29171806723338,12.5489580958269,-0.834895506970634,-0.2687807,-0.91599244,0.2770274,286.8912,-135.87021,19.92488,WAL
6564278967000,1.45997,1.0385910623638,12.7882259860153,-0.83230050108284,-0.3313944,-0.83260936,0.27397305,286.4358,-135.56425,19.925472,WAL
6564284018000,1.465021,0.784914032542488,13.0606937610469,-0.926254953120326,-0.42210788,-0.71959925,0.29168814,285.97266,-135.24335,19.947893,WAL
6564288932000,1.469935,0.571709250200861,13.3136296563845,-0.958711179655667,-0.5369505,-0.6169739,0.3136793,285.4947,-134.84714,19.91991,WAL
6564293999000,1.475002,0.418543552556671,13.5503404619799,-0.87516624133142,-0.65026605,-0.50701815,0.3368922,284.9989,-134.43787,19.918022,WAL
6564298939000,1.479942,0.293059978340043,13.7698473669867,-0.770181080978631,-0.7816021,-0.39645153,0.3378085,284.47534,-133.97481,19.88393,WAL
6564304012000,1.485015,0.237891755336017,13.9604281467947,-0.589630544391452,-0.93034774,-0.30024028,0.3491095,283.9415,-133.49158,19.873701,WAL
6564308933000,1.489936,0.20255240777908,14.0817241649575,-0.405926960567243,-1.1154399,-0.21380283,0.3643811,283.38754,-132.91774,19.835125,WAL
6564313979000,1.494982,0.207272066267214,14.0628456492822,-0.198262061998242,-1.3096951,-0.14569137,0.3659083,282.82043,-132.3144,19.808172,WAL
6564319019000,1.500022,0.224851533687682,14.0054022700291,-0.00668611603763337,-1.5198327,-0.12583824,0.36835176,282.24747,-131.61633,19.759096,WAL
6564324049000,1.505052,0.276246751544132,13.8465445270611,0.14282724420097,-1.7241671,-0.10934488,0.3735441,281.6663,-130.88545,19.719326,WAL
6564329017000,1.51002,0.30449484453957,13.7075858979891,0.308283573124191,-1.928807,-0.087659165,0.38912117,281.09222,-130.07788,19.670753,WAL
6564333986000,1.514989,0.251104579862777,13.6336611411064,0.538272410856132,-2.1471913,-0.09712757,0.41905355,280.53195,-129.23553,19.62021,WAL
6564339728000,1.520731,0.16937022620178,13.5455552551929,0.834944101097923,-2.3588562,-0.14630222,0.47891834,280.00415,-128.3505,19.572628,WAL
6564343995000,1.524998,-0.30831619555076,13.4242960628091,1.69845411319306,-2.5662448,-0.20616703,0.55680364,279.49557,-127.438995,19.52869,WAL
6564348952000,1.529955,-0.863247433569823,13.2834285173096,2.70159897608399,-2.7241535,-0.28099802,0.63438356,279.02362,-126.47603,19.475058,WAL
6564354004000,1.535007,-1.2377045751689,13.0508908489588,2.73337836958815,-2.8386908,-0.4999932,0.66523224,278.61578,-125.49942,19.39423,WAL
6564359001000,1.540004,-1.51230228125868,12.7762933278575,2.26833377857473,-2.874121,-0.7089091,0.7122689,278.2458,-124.5414,19.324123,WAL
6564363976000,1.544979,-1.78844774405193,12.4950120951266,1.25663639927644,-2.8777862,-0.8017606,0.7189884,277.88278,-123.40538,19.166948,WAL
6564369002000,1.550005,-2.07013718191104,12.2030794681847,-0.305459161055544,-2.8561006,-0.7266242,0.6957755,277.54407,-122.293205,19.005539,WAL
6564373996000,1.554999,-2.31696870994501,12.0085650574145,-1.67195747255103,-2.8472428,-0.5290093,0.657291,277.23572,-121.26447,18.807476,WAL
6564379017000,1.56002,-2.54554008277565,11.8696295088079,-2.9358228702209,-2.828917,-0.34300083,0.6404922,276.91464,-120.26212,18.615208,WAL
6564383969000,1.564972,-2.65993223594577,11.86154771595,-4.24724397085363,-2.796541,-0.20738874,0.64476824,276.52,-119.53471,18.412867,WAL
6564389009000,1.570012,-2.65482028169879,11.9944586331286,-5.65303256310104,-2.6942213,0.00030543262,0.6597345,276.05017,-118.83743,18.238226,WAL
6564393995000,1.574998,-2.42683473324397,12.2001331340483,-6.52036797319035,-2.5402832,0.1966986,0.68661255,275.4737,-118.41934,18.060598,WAL
6564398966000,1.579969,-2.04866922767352,12.4553950452785,-7.03089130205541,-2.3011293,0.32589662,0.7275405,274.86157,-118.04852,17.90744,WAL
6564404009000,1.585012,-1.45292396929844,12.8722087276395,-7.31277739515891,-1.9929478,0.31764993,0.795652,274.568,-117.727455,17.72389,WAL
6564408996000,1.589999,-0.71042604159205,13.3985362071239,-7.42086226596477,-1.7333301,0.29718593,0.91507614,274.24658,-117.46797,17.581224,WAL
6564413982000,1.594985,-0.0340729852366058,14.103092270003,-7.34098111803047,-1.6328428,0.47800204,1.0784826,273.96686,-117.30161,17.519402,WAL
6564419019000,1.600022,0.59379003546968,14.9645788520835,-7.102490577641,-1.7608191,0.9642508,1.2464706,273.61642,-117.16578,17.523174,WAL
6564423996000,1.604999,0.957919356685465,15.6672603179916,-6.32613669628889,-2.1542163,1.638646,1.3817772,273.15176,-117.06918,17.677774,WAL
6564429036000,1.610039,1.12914159790795,16.2643421589958,-5.12319088075314,-2.8047879,2.2907448,1.450805,272.56467,-116.909355,17.902369,WAL
6564433976000,1.614979,1.11765174148643,16.5676228608358,-3.89996785980181,-3.549127,2.7525587,1.4312572,271.72165,-116.671936,18.23015,WAL
6564439012000,1.620015,0.790377447074537,16.3806095579492,-2.57528630172339,-4.176791,2.9932396,1.2822062,270.7478,-116.3213,18.565327,WAL
6564443994000,1.624997,0.394775192746194,15.8014634413182,-1.55155530171131,-4.5384235,3.0699034,1.0253373,269.42563,-115.753624,18.865343,WAL
6564448980000,1.629983,-0.0699333970996339,14.8444401853922,-0.801580024544228,-4.62089,3.0531044,0.7113526,268.0424,-115.1036,19.089306,WAL
6564453954000,1.634957,-0.551646515767322,13.8430036436371,-0.242002121600159,-4.54667,2.9684997,0.5516113,266.64792,-114.256294,19.229216,WAL
6564458991000,1.639994,-1.06400569576732,12.7656126436371,0.0692440933998412,-4.2568145,2.803566,0.30818152,265.25363,-113.394516,19.220062,WAL
6564463975000,1.644978,-1.55145180695521,11.7584226150066,0.258386443043848,-3.8621955,2.5592198,0.14508049,263.9094,-112.512695,19.13082,WAL
6564469085000,1.650088,-2.02316072625213,10.810379989794,0.281509434491589,-3.520111,2.1621575,0.06505715,262.65698,-111.67659,18.951874,WAL
6564474048000,1.655051,-2.44137315813953,10.0117714930233,0.212694206232558,-3.3258557,1.6655241,0.048258353,261.4952,-110.87584,18.697302,WAL
6564479042000,1.660045,-2.77504684763432,9.47482558380112,-0.0557789406094627,-3.227201,1.2318097,0.04642576,260.4371,-110.12632,18.392836,WAL
6564483973000,1.664976,-3.10451119743384,8.94465332141139,-0.320865261610265,-3.1816916,0.93126404,0.03604105,259.47165,-109.42307,18.045013,WAL
6564489011000,1.670014,-3.08929278180131,8.41926691399563,-0.696016394831878,-3.1499267,0.84879726,-0.036651913,258.57233,-108.736786,17.659798,WAL
6564494318000,1.675321,-2.97476226498929,7.88653628369022,-1.09429203502855,-3.1166344,0.8906415,-0.06719518,257.73096,-108.08839,17.268858,WAL
6564498970000,1.679973,-2.67664053843683,7.77921246877231,-0.935293789168451,-3.0567696,0.9126327,-0.070554934,256.84024,-107.48661,16.846943,WAL
6564503998000,1.685001,-2.35442298875803,7.66321415806567,-0.76344443831192,-2.9733865,0.80848014,-0.047647487,256.12164,-106.95734,16.474005,WAL
6564509003000,1.690006,-1.87322898185734,7.70682226841055,-0.625626356450257,-2.8475482,0.698219,-0.008857546,255.39764,-106.45324,16.099634,WAL
6564513956000,1.694959,-1.34003965056203,7.80648376730749,-0.501049404779914,-2.733622,0.6178902,0.055588737,254.69579,-105.980804,15.732925,WAL
6564519103000,1.700106,-0.930100717467533,7.86982639366883,-0.375260032946429,-2.6212227,0.5448918,0.11636983,254.02414,-105.6063,15.441913,WAL
6564523974000,1.704977,-0.570391324147727,7.92188965411932,-0.256934581640625,-2.5250115,0.505491,0.1600467,253.36667,-105.261284,15.159954,WAL
6564529032000,1.710035,-0.381695216628125,7.91728216021346,-0.321512496675561,-2.4526238,0.49418998,0.19303341,252.7441,-105.04158,14.986398,WAL
6564533971000,1.714974,-0.227441348716276,7.90325909018678,-0.414999688757782,-2.3851233,0.5363397,0.19333886,252.11789,-104.83682,14.812357,WAL
6564539014000,1.720017,-0.128964800089686,7.80065991988042,-0.467030361584454,-2.3200662,0.6065892,0.18203785,251.47975,-104.73186,14.724817,WAL
6564543959000,1.724962,-0.0440189544095665,7.68267966078725,-0.509503274569008,-2.2736404,0.6603453,0.16187929,250.83575,-104.63067,14.630463,WAL
6564548999000,1.730002,-0.00426412547445256,7.51464778978102,-0.510157178686131,-2.2162192,0.68019843,0.15241088,250.27234,-75.41469,14.581901,WAL
6564553969000,1.734972,0.0250364730296368,7.33884414718143,-0.501785589353619,-2.1844542,0.7333437,0.15424347,249.68346,-75.45686,14.526208,WAL
6564558953000,1.739956,0.00707714306115144,7.09265916102217,-0.539634073332008,-2.0928242,0.80481493,0.16493362,249.13654,-75.455185,14.505032,WAL
6564563960000,1.744963,-0.050138016207716,6.78751166085314,-0.615920973267376,-1.9859229,0.8881981,0.14538592,248.57037,-75.45867,14.470563,WAL
6564569673000,1.750676,-0.188376772654492,6.40681327858616,-0.699121027611193,-1.8698585,0.98807454,0.12736541,248.02103,-75.42595,14.46307,WAL
6564574033000,1.755036,-0.331864319572509,6.0993399142268,-0.760615679079038,-1.7275269,1.1029172,0.101098195,247.44258,-75.40319,14.441969,WAL
6564579024000,1.760027,-0.534114649447657,5.73234430201396,-0.780197527433699,-1.602605,1.2095132,0.06414085,246.88882,-75.3758,14.417876,WAL
6564584040000,1.765043,-0.77358258026321,5.34919571672981,-0.7514613635334,-1.4798211,1.2858714,0.017104227,246.31017,-75.36375,14.378272,WAL
6564589023000,1.770026,-1.18475218610634,4.8534430313505,-0.572426045938049,-1.3805555,1.3115277,-0.038789943,245.74948,-75.37385,14.310777,WAL
6564594049000,1.775052,-1.76878713980468,4.24091845670317,-0.244796666358686,-1.2629639,1.328021,-0.089491755,245.1692,-75.402855,14.227166,WAL
6564598963000,1.779966,-2.13384905617638,3.90173747641196,0.0606540693862881,-1.1609493,1.2748758,-0.13255776,244.60403,-75.46218,14.107629,WAL
6564603904000,1.784907,-2.27199987381456,3.84933551760797,0.351246946015101,-1.056186,1.2260065,-0.15332718,244.03256,-75.536674,13.977252,WAL
6564608910000,1.789913,-2.3552100694612,3.78335380836382,0.647624090793871,-0.93401295,1.1756102,-0.183565,243.34491,-75.65575,13.801468,WAL
6564613895000,1.794898,-2.37408909981216,3.70311783080573,0.944969045524469,-0.8362745,1.0848967,-0.19914207,242.68294,-75.78247,13.622805,WAL
6564618887000,1.79989,-2.24742820895371,3.68192087537729,1.26096855523144,-0.7281514,1.0290025,-0.1957823,241.95337,-75.892784,13.461766,WAL
6564623906000,1.804909,-1.93584870928796,3.73547354945812,1.60175855356021,-0.61911196,0.95814216,-0.18967366,241.255,-76.015236,13.296134,WAL
6564628891000,1.809894,-1.62937853641504,3.80371551945244,1.95252766075786,-0.5348125,0.8585711,-0.22876903,240.64029,-76.187225,13.038999,WAL
6564633950000,1.814953,-1.32179595329828,3.8902231648646,2.3225879152961,-0.44409904,0.7476991,-0.24465153,240.04797,-76.35852,12.790606,WAL
6564638885000,1.819888,-1.03501997199541,3.99795446139144,2.64453667220948,-0.32803464,0.6096435,-0.24709499,239.52716,-76.49706,12.555713,WAL
6564643906000,1.824909,-0.75930240934633,4.13581334827982,2.92484963985092,-0.20219639,0.54000485,-0.2874121,239.01971,-76.655655,12.306102,WAL
6564648897000,1.8299,-0.554569255396729,4.26692488108217,3.18302281938219,-0.13836098,0.41538838,-0.29993483,238.59592,-76.76225,12.082699,WAL
6564653982000,1.834985,-0.470996957001817,4.38982521421361,3.40915948367656,-0.0015271631,0.30482176,-0.2996294,238.18971,-76.8925,11.854005,WAL
6564658905000,1.839908,-0.416213992948064,4.49034133378659,3.62090102375826,0.14874569,0.22510384,-0.30573806,237.827,-76.977554,11.656893,WAL
6564663935000,1.844938,-0.402567721692162,4.56312134898961,3.82559514009443,0.28313604,0.16737708,-0.32895094,237.49178,-77.07585,11.459579,WAL
6564668963000,1.849966,-0.387565657440758,4.66304238720379,4.026479907109,0.41172317,0.12095132,-0.35979962,237.17287,-77.16822,11.265031,WAL
6564673909000,1.854912,-0.369240141421801,4.83255351323145,4.21431653958797,0.5314528,0.08460484,-0.3811799,236.86986,-77.27486,11.071086,WAL
6564678936000,1.859939,-0.338079776075535,5.01305066870978,4.40971197932271,0.6401868,0.037873644,-0.38789943,236.57541,-77.382904,10.866519,WAL
6564684027000,1.86503,-0.255783285757991,5.2290789477371,4.62574031205823,0.75716746,-0.020158553,-0.39187005,236.2977,-77.50728,10.662289,WAL
6564689045000,1.870048,-0.176679388356298,5.46169919829373,4.82961526337033,0.8622363,-0.055588737,-0.4092797,236.01523,-77.6312,10.451214,WAL
6564693960000,1.874963,-0.103274188888818,5.72941227324099,5.01096934006055,0.9831876,-0.09987647,-0.410196,235.75446,-77.76551,10.250869,WAL
6564698944000,1.879947,-0.0402262206980615,6.01624444296249,5.1810709608091,1.072374,-0.14049901,-0.4007276,235.49648,-77.884575,10.058855,WAL
6564703988000,1.884991,-0.0554934197722292,6.41319167309313,5.25740689506953,1.1557571,-0.1685988,-0.38515055,235.25058,-78.014046,9.874993,WAL
6564708999000,1.890002,-0.0907177799577022,6.78889256979146,5.32189372282117,1.221425,-0.16676621,-0.3555236,234.99759,-78.12273,9.708856,WAL
6564713966000,1.894969,-0.188979438687783,7.10239396515837,5.3499683638009,1.2629639,-0.13958271,-0.35033122,234.74904,-78.237144,9.546185,WAL
6564718993000,1.899996,-0.291807835870326,7.41680167408847,5.37487800838063,1.2922854,-0.05955936,-0.3494149,234.46925,-78.34857,9.393185,WAL
6564723995000,1.904998,-0.407255146917515,7.71845435564021,5.38605032127809,1.284955,0.05100725,-0.3399465,234.17549,-78.45218,9.247997,WAL
6564728924000,1.909927,-0.521017601166135,8.01570466898857,5.39705958362746,1.2617421,0.16187929,-0.3200934,233.83765,-78.56385,9.095353,WAL
6564734014000,1.915017,-0.652297771194472,8.32329652497532,5.42238323305035,1.2131784,0.26816985,-0.30970868,233.4727,-78.66451,8.945044,WAL
6564738984000,1.919987,-0.78855692005923,8.62400654669299,5.4552733487463,1.1597277,0.3998113,-0.31856623,233.07187,-78.75509,8.795575,WAL
6564743972000,1.924975,-0.743325325138889,9.03363967471264,5.56226617139847,1.0537425,0.4633413,-0.31978795,232.63524,-78.84115,8.633319,WAL
6564748980000,1.929983,-0.57794377625,9.51600217586207,5.71845983913793,0.956615,0.56199604,-0.31887165,232.15483,-78.915245,8.468855,WAL
6564753994000,1.934997,-0.56857707619531,9.78195987676378,5.88219685839001,0.9071349,0.5946773,-0.29352075,231.65636,-79.00078,8.281081,WAL
6564758994000,1.939997,-0.7046802890671,9.84515092335803,6.05232577931174,0.8042041,0.68386364,-0.2648101,231.11806,-79.051186,8.094885,WAL
6564763941000,1.944944,-0.695280359534948,10.0225027652724,6.27324656570354,0.68630713,0.75228053,-0.23273966,230.56969,-79.0462,7.9542146,WAL
6564769004000,1.950007,-0.561853381783159,10.3026995509081,6.54454836345625,0.57757306,0.7476991,-0.16584991,230.0191,-79.0066,7.834844,WAL
6564773993000,1.954996,-0.410304939762305,10.5418577458982,6.80225251459823,0.4831944,0.6640105,-0.09712757,229.47176,-78.95344,7.6768413,WAL
6564779072000,1.960075,-0.221021987833403,10.7209090555322,7.04780881005469,0.40683624,0.5158757,-0.04337143,228.9479,-78.86721,7.540818,WAL
6564783979000,1.964982,-0.0648077984158613,10.7989503654478,7.21061147733386,0.35094208,0.36254853,0.00061086525,228.45143,-78.713776,7.438778,WAL
6564789003000,1.970006,0.0646207879107303,10.7701883783999,7.292103440271,0.28893927,0.24740042,0.059864793,227.98895,-78.52928,7.3640027,WAL
6564793990000,1.974993,0.146310894528302,10.6996939811321,7.32359841185984,0.23060162,0.15363261,0.113926366,227.57277,-78.29986,7.318715,WAL
6564798979000,1.979982,0.172955757514639,10.5797924385166,7.29695356278465,0.20616703,0.030848695,0.1685988,227.1999,-78.05675,7.298872,WAL
6564803983000,1.984986,0.168302547493902,10.395502049422,7.2086724676848,0.19792034,-0.09743301,0.20799962,226.86687,-77.78563,7.307813,WAL
6564808994000,1.989997,0.0919592806492735,10.0646809206703,6.9796427171068,0.21410827,-0.20555615,0.25167647,226.56392,-77.5102,7.338987,WAL
6564813968000,1.994971,-0.0817214481977655,9.54801262777222,6.44530764636485,0.22540927,-0.23945917,0.27458394,226.28319,-77.23127,7.384007,WAL
6564819017000,2.00002,-0.3961751096675,8.75784686401534,5.46969489936635,0.24312437,-0.18081611,0.27214047,226.00842,-76.961,7.4343405,WAL
6564824325000,2.005328,-0.721136443481537,7.96338893726451,4.48737256461944,0.27214047,-0.06719518,0.25992316,225.73764,-76.72902,7.4752636,WAL
6564829078000,2.010081,-0.956961714129616,7.60750739068387,4.03287298384514,0.30451632,0.12522738,0.25167647,225.42969,-76.506584,7.508167,WAL
6564833960000,2.014963,-1.19918746024868,7.24196695087604,3.56603794211567,0.33505958,0.344528,0.23304509,225.07854,-76.43746,7.522678,WAL
6564839012000,2.020015,-1.3618038363664,7.22807616463786,3.07168053271455,0.36285394,0.5751296,0.19883664,224.67223,-76.38029,7.5168176,WAL
6564843927000,2.02493,-1.5098226660986,7.25672486102658,2.58942544927977,0.38545597,0.70157874,0.1826487,224.23495,-76.330086,7.502217,WAL
6564848989000,2.029992,-1.66010828682712,7.56946869993009,2.33912046806152,0.41172317,0.9468411,0.15149458,223.68127,-76.37822,7.436005,WAL
6564853985000,2.034988,-1.80823751638869,7.90395391858584,2.11453761964446,0.47219884,1.1511755,0.13316862,223.10648,-76.4395,7.36208,WAL
6564858994000,2.039997,-1.78532346080062,8.40508948771998,2.08018581330497,0.5766568,1.294118,0.12461651,222.41125,-76.60096,7.3031344,WAL
6564863937000,2.04494,-1.74870525605299,8.91316651102301,2.06187663923806,0.70249504,1.3536774,0.14202617,221.68903,-76.77676,7.236068,WAL
6564869118000,2.050121,-1.57607209651257,9.39490909407948,2.0547337432279,0.82741696,1.2901474,0.18600847,220.89098,-77.02263,7.1931996,WAL
6564873999000,2.055002,-1.3912554858678,9.84036467193836,2.04999485831306,0.99265605,1.1487321,0.24984388,220.10982,-77.292,7.1565704,WAL
6564879078000,2.060081,-1.31931792831944,10.2230970837372,1.95328615262648,1.1658363,0.9407325,0.3491095,219.33453,-77.58233,7.170507,WAL
6564883967000,2.06497,-1.26486433350456,10.581583316728,1.84891680599922,1.3524556,0.68844515,0.47036624,218.62428,-77.88316,7.21134,WAL
6564889012000,2.070015,-1.50347291693122,11.0789818815629,1.399597495116,1.5418239,0.3463606,0.5491679,217.98477,-78.21411,7.307814,WAL
6564893952000,2.074955,-1.80192471587302,11.5940522783883,0.88452743003663,1.7901406,0.034513887,0.59620446,217.42278,-78.55627,7.431155,WAL
6564898988000,2.079991,-2.27358834638809,12.3967319533074,0.59354815009643,2.0638082,-0.2666427,0.57604593,216.93307,-78.92468,7.5944276,WAL
6564904009000,2.085012,-2.77388211150398,13.2468243735409,0.34543497640247,2.3374758,-0.6081163,0.5222898,216.56308,-79.29685,7.7648954,WAL
6564909001000,2.090004,-3.52769469246247,14.407758568402,0.486021162099436,2.5677722,-0.9987647,0.4361578,216.3973,-79.79211,7.8240685,WAL
6564913979000,2.094982,-4.54277709948898,15.8897785413606,1.02401484206324,2.687807,-1.464244,0.31429017,216.36145,-80.275955,7.868137,WAL
6564919009000,2.100012,-5.36986880012692,16.9319582531485,1.67514087395294,2.6755898,-1.983174,0.18661933,216.48749,-80.86308,7.7647696,WAL
6564923995000,2.104998,-6.064464502675,17.6778327971297,2.38838342793127,2.5017986,-2.4049764,0.06841691,216.72218,-81.39825,7.641554,WAL
6564929638000,2.110641,-6.5446570304074,18.26525657469,3.16694683241488,2.164601,-2.5497515,-0.004276057,216.86053,-81.92912,7.4040985,WAL
6564934076000,2.115079,-6.77050830033458,18.5998517280063,3.7650344570557,1.6597209,-2.3542747,0.004581489,217.02164,-82.366936,7.174511,WAL
6564938967000,2.11997,-6.79017152913386,18.30443213673,4.29853651353404,0.9932669,-2.119397,0.101098195,217.13812,-82.78346,6.8570085,WAL
6564944004000,2.125007,-6.60695957795276,17.4107148237147,4.73645795958314,0.32650748,-1.582141,0.14019357,217.11354,-83.13474,6.5449047,WAL
6564948961000,2.129964,-6.41835110458284,15.9640982420682,4.97691236639248,0.027794369,-1.104139,0.13164146,217.0657,-83.4789,6.1830845,WAL
6564954025000,2.135028,-6.21112119965816,13.4928835530392,4.88883971765837,-0.4382958,-0.77366084,0.030848695,216.91246,-83.72932,5.8264065,WAL
6564959034000,2.140037,-5.86539953255496,11.1376474049829,4.2331695015828,-0.76083267,-0.6078109,-0.1441642,216.71223,-83.939064,5.445016,WAL
6564963994000,2.144997,-5.3873732447191,8.89138770786517,3.03578329191011,-0.9334021,-0.44776422,-0.30940324,216.42862,-84.07871,5.0492187,WAL
6564968978000,2.149981,-4.72230818924013,6.87076127162944,1.49952100729956,-0.96852684,-0.36193767,-0.4111123,216.1916,-84.15105,4.630199,WAL
6564973994000,2.154997,-3.8265197668229,5.12708687665537,-0.454926878141205,-0.8032878,-0.41599923,-0.40439278,215.95535,-84.17315,4.2015166,WAL
6564978962000,2.159965,-3.01935631462191,3.68974727238619,-2.59043008010224,-0.40194935,-0.5653558,-0.39064834,215.78232,-84.22997,3.844142,WAL
6564984008000,2.165011,-2.30157235374228,2.5990887813561,-5.01411591314622,0.20372356,-0.68936145,-0.4092797,215.61627,-84.34398,3.4799566,WAL
6564988948000,2.169951,-1.71945313578192,1.94161859483501,-6.86918935007174,0.9230174,-0.65576386,-0.41233405,215.36218,-84.61713,3.3667836,WAL
6564993989000,2.174992,-1.33619494631277,1.98779425126734,-7.85734950669536,1.5705346,-0.643852,-0.43371433,215.1519,-85.01131,3.2448394,WAL
6564998976000,2.179979,-1.00299945590357,2.3451027624414,-8.52973709212666,2.0564778,-0.8142834,-0.4373795,215.08727,-85.61799,3.2752516,WAL
6565003988000,2.184991,-0.787180923470774,3.51144104863676,-8.41493961274275,2.3561072,-0.9425651,-0.40469822,215.01422,-86.17406,3.3097093,WAL
6565008917000,2.18992,-0.587117265402844,4.7645747107109,-8.12831241914692,2.4938574,-0.9822713,-0.35063666,214.99847,-86.50828,3.4203577,WAL
6565013970000,2.194973,-0.439317733838863,6.54836225971564,-7.01726782611901,2.4749205,-0.9633345,-0.29352075,215.01396,-93.582596,3.5434535,WAL
6565019003000,2.200006,-0.165739154373729,8.28338131357164,-5.8641731329846,2.3383923,-0.8866709,-0.21685717,215.22899,-93.96947,3.5645635,WAL
6565024031000,2.205034,0.412665463772159,9.9159750079628,-4.60007908916013,2.1175644,-0.75747293,-0.092240654,215.42227,-94.64691,3.6160705,WAL
6565028974000,2.209977,1.11483922535418,11.4701814473712,-3.29894613618428,1.8930714,-0.6246097,0.102319926,215.60147,-95.353935,3.6644623,WAL
6565034020000,2.215023,2.29645589291636,12.8800070525763,-1.76740877631441,1.6627752,-0.59864795,0.3390302,215.77605,-96.10455,3.7593846,WAL
6565038952000,2.219955,3.42672186942827,13.9628424676911,-0.508763607549871,1.4727961,-0.63132924,0.5635232,215.83878,-96.772354,4.003464,WAL
6565043990000,2.224993,4.52734795998855,14.4233556754796,0.255688048095829,1.3539828,-0.72173727,0.6453791,215.91518,-97.40879,4.266956,WAL
6565048961000,2.229964,5.47874949830375,14.6999942852071,0.891676280078896,1.3179418,-0.83199847,0.75747293,215.7588,-98.0425,4.900257,WAL
6565054010000,2.235013,5.96514366848126,14.3471199739645,1.11579909960552,1.2974777,-0.99173975,0.7840455,215.66296,-98.64025,5.495026,WAL
6565058942000,2.239945,6.26319171844042,13.8841892568132,1.19945178643923,1.3402383,-1.2235631,0.7415904,215.77531,-99.21156,6.0865545,WAL
6565063968000,2.244971,5.80359636200517,12.9027615269544,0.701556860292421,1.4630222,-1.382388,0.66645396,215.9156,-99.78823,6.650673,WAL
6565069004000,2.250007,5.21067377516358,11.8692974981508,0.220876863715505,1.6377298,-1.4450017,0.5708536,216.14183,-100.38269,7.211532,WAL
6565074000000,2.255003,4.05820203837838,10.630617827027,-0.178404697585586,1.7379116,-1.5384641,0.45906523,216.4181,-100.9598,7.7220726,WAL
6565079032000,2.260035,2.7963867793466,9.3447163318794,-0.643385189903554,1.7434094,-1.6563611,0.33628133,216.70525,-101.564285,8.154969,WAL
6565083991000,2.264994,0.4979506025719,7.67762772770875,-1.75752840357112,1.675298,-1.7373008,0.17592919,217.00304,-102.13123,8.531232,WAL
6565088954000,2.269957,-1.80233952554523,6.00919442613607,-2.8725703010166,1.6352862,-1.7510452,-0.016493361,217.23175,-102.66246,8.775193,WAL
6565093995000,2.274998,-2.98666178019948,5.52186214975988,-3.12817713132619,1.6313156,-1.743104,-0.24587326,217.47205,-103.13875,8.95449,WAL
6565098956000,2.279959,-3.81594598559291,5.39461753956409,-3.12378934033062,1.6563611,-1.6957619,-0.4718934,217.69801,-103.56833,9.076948,WAL
6565104005000,2.285008,-4.43550144521739,5.63260264521739,-2.95962029667519,1.6389514,-1.597718,-0.66553766,218.01749,-103.8535,8.75306,WAL
6565108993000,2.289996,-4.90464062852174,6.10174182852174,-2.6957295826087,1.5726726,-1.4740179,-0.77824235,218.30078,-104.13141,8.394016,WAL
6565113969000,2.294972,-5.10956094552231,6.73165767518139,-2.43117060379684,1.4798211,-1.3118331,-0.8206975,218.4517,-104.35728,7.9324656,WAL
6565119017000,2.30002,-5.17683200541696,7.45722190283272,-2.16208711682735,1.393689,-1.1554517,-0.788627,218.55817,-104.58815,7.4737515,WAL
6565123998000,2.305001,-5.03403729619636,8.12475191671811,-1.77010147199044,1.3429873,-0.97158116,-0.6814202,218.51051,-104.77886,7.016689,WAL
6565128994000,2.309997,-4.77677657633177,8.76790341790302,-1.3079850526735,1.3640621,-0.82924956,-0.5345071,218.42918,-104.990005,6.596126,WAL
6565134027000,2.31503,-4.28432772381718,9.15056307594174,-0.883092210298343,1.4404203,-0.7602218,-0.4025602,218.26031,-105.183655,6.211222,WAL
6565138957000,2.31996,-3.67251828946258,9.3782131924661,-0.48944745361326,1.5564847,-0.75777835,-0.3368922,218.07425,-105.40609,5.8610373,WAL
6565144031000,2.325034,-2.97432400430722,9.64347557270822,-0.148289924612159,1.6145169,-0.7516697,-0.33292156,217.8246,-105.59432,5.5790663,WAL
6565148975000,2.329978,-2.25693415136268,9.91870052410902,0.149494554381551,1.6572775,-0.7464773,-0.35796702,217.57927,-105.808685,5.312011,WAL
6565154007000,2.33501,-1.53697671848748,10.2488113246976,0.392429247109249,1.6542231,-0.7800749,-0.38759398,217.40395,-106.00796,5.062728,WAL
6565158990000,2.339993,-0.832453372140204,10.6169818862749,0.583332348328412,1.5803084,-0.88422745,-0.40011674,217.24657,-106.19537,4.811211,WAL
6565163964000,2.344967,-0.176219885410721,10.8868535420363,0.661065598399537,1.4627168,-1.0088439,-0.37873647,217.16957,-106.36526,4.59982,WAL
6565169047000,2.35005,0.433909119928654,11.037038745565,0.595359394205553,1.3454307,-1.1774428,-0.3475823,217.13277,-106.512184,4.3811965,WAL
6565174047000,2.35505,0.94510765320964,11.0657354319684,0.424566666839411,1.2153164,-1.3264939,-0.2779437,217.1779,-106.626,4.2323413,WAL
6565178989000,2.359992,1.30847483786308,10.9042393246961,0.0864332878119002,1.1081096,-1.4422529,-0.21410827,217.26137,-106.7139,4.084407,WAL
6565184019000,2.365022,1.50315343121001,10.6956818314392,-0.265038197883679,1.0033462,-1.4770721,-0.15393804,217.39717,-106.806366,4.018771,WAL
6565188995000,2.369998,1.52135767409034,10.4453730166173,-0.620021190667558,0.9166033,-1.457219,-0.09040806,217.55367,-106.87743,3.9700212,WAL
6565193980000,2.374983,1.46598475139186,10.1936604518201,-0.975541359743041,0.8753699,-1.3793337,-0.042760566,217.71292,-106.99977,3.9927273,WAL
6565198970000,2.379973,1.30030713468951,9.94027102997859,-1.33126104282655,0.8353582,-1.2534955,-0.009162978,217.85617,-107.100494,4.0355983,WAL
6565203953000,2.384956,1.11184556309713,9.72285678463376,-1.59825918687301,0.8219192,-1.1279627,0.015577064,217.96072,-107.26916,4.118835,WAL
6565208999000,2.390002,0.89061441986465,9.54971992714968,-1.75215912351712,0.8414669,-0.9941832,0.03176499,218.03117,-107.43514,4.218487,WAL
6565213957000,2.39496,0.656249701077265,9.4267976006189,-1.7936115237888,0.8854492,-0.904386,0.035124753,218.04088,-107.67252,4.3276725,WAL
6565219139000,2.400142,0.387502722305386,9.36440964800309,-1.68323327011894,0.947452,-0.86345804,0.033292156,218.03313,-107.91528,4.4429073,WAL
6565223942000,2.404945,0.160014741891892,9.29370764172357,-1.55677129819179,0.99387777,-0.86742866,0.0290161,217.98659,-108.19872,4.5364103,WAL
6565228999000,2.410002,-0.0402820940540541,9.1958882283351,-1.37976481938059,1.0219775,-0.8671232,0.015271631,217.9342,-108.484055,4.6262836,WAL
6565233960000,2.414963,-0.226261154580168,9.07702523579459,-1.22636963541983,1.0213667,-0.852157,-0.00580322,217.89104,-108.751724,4.648242,WAL
6565238977000,2.41998,-0.386855268683278,8.89696509054998,-1.12417340131672,1.0283916,-0.8338311,-0.033292156,217.84946,-109.01897,4.663679,WAL
6565243962000,2.424965,-0.52775276597555,8.71000327119804,-1.04352918727628,1.0259482,-0.8060367,-0.053450707,217.82181,-109.25211,4.6184125,WAL
6565248975000,2.429978,-0.626352200533007,8.50341423188264,-1.01066268457702,1.0326678,-0.7831292,-0.10629055,217.78659,-109.47872,4.5590553,WAL
6565254596000,2.435599,-0.715764477424434,8.31599490425339,-1.02472353485973,1.0323622,-0.75991637,-0.15974127,217.75137,-109.69326,4.456052,WAL
6565258985000,2.439988,-0.753803034820814,8.23611351547511,-1.11221223236199,1.0491611,-0.74128497,-0.20372356,217.70778,-109.90573,4.345317,WAL
6565264153000,2.445156,-0.798917392397507,8.15210778943916,-1.22149991498852,1.0638218,-0.72387534,-0.27550024,217.65735,-110.11556,4.19189,WAL
6565268990000,2.449993,-0.844495940501804,8.1774291962392,-1.38862125274954,1.0870347,-0.6973027,-0.32498032,217.59752,-110.32602,4.03848,WAL
6565273983000,2.454986,-0.883167923891849,8.23137363055062,-1.53532251482139,1.1078042,-0.6765333,-0.38087448,217.51694,-110.56048,3.8623848,WAL
6565278979000,2.459982,-0.892610561089402,8.38245604262877,-1.5919782098283,1.1307116,-0.65118235,-0.4260785,217.42503,-110.79371,3.682837,WAL
6565283976000,2.464979,-0.893770482425443,8.55119320330923,-1.62473514677499,1.1319333,-0.64568454,-0.45265114,217.31688,-111.05534,3.4875703,WAL
6565289013000,2.470016,-0.860314751382146,8.79494148350342,-1.55782369466957,1.1511755,-0.63591075,-0.47861293,217.19804,-111.31852,3.2880259,WAL
6565293995000,2.474998,-0.82824188200901,9.03708393070066,-1.46979974319946,1.1429288,-0.6273586,-0.4810564,217.07895,-111.57946,3.077964,WAL
6565299004000,2.480007,-0.800654309191987,9.28537247014282,-1.2812845662609,1.1432343,-0.63163465,-0.47800204,216.96007,-111.83969,2.8673973,WAL
6565303964000,2.484967,-0.770432615916164,9.52246207414336,-1.09504325547998,1.1194105,-0.6411031,-0.46761733,216.86877,-112.06865,2.6368773,WAL
6565308965000,2.489968,-0.709348991890145,9.66906268336026,-0.9117924726979,1.1047498,-0.6609562,-0.45020768,216.7826,-112.29522,2.4131193,WAL
6565313972000,2.494975,-0.648192082172434,9.81583917813111,-0.728321832947879,1.0885619,-0.6789767,-0.43493605,216.72215,-112.474556,2.1711774,WAL
6565319039000,2.500042,-0.527804939449879,9.95532267496368,-0.527032321897337,1.071763,-0.69974613,-0.42424592,216.66884,-112.64684,1.9358319,WAL
6565323943000,2.504946,-0.391345883976755,10.0872329130266,-0.32689234948862,1.0534371,-0.7171558,-0.39584067,216.62274,-112.81175,1.7130975,WAL
6565329000000,2.510003,-0.299043424203594,10.1292129898862,-0.304295388979208,1.026559,-0.7309003,-0.37720928,216.60014,-112.9342,1.4814279,WAL
6565334020000,2.515023,-0.231197573982501,10.1246900780412,-0.372141243923229,1.022283,-0.7464773,-0.36743546,216.58475,-113.05625,1.2581022,WAL
6565338948000,2.519951,-0.196790098852322,10.0967474892249,-0.434647198763782,1.0064005,-0.7458665,-0.3539964,216.58937,-113.13773,1.047355,WAL
6565343993000,2.524996,-0.188718768878216,10.0483195768042,-0.495182192532576,0.9966267,-0.75533485,-0.3387248,216.60255,-113.21841,0.84174526,WAL
6565348966000,2.529969,-0.18997132417997,10.0019361294357,-0.551704903267921,0.98563105,-0.77732605,-0.3387248,216.62523,-113.307884,0.64480734,WAL
6565354043000,2.535046,-0.244352199115404,9.96238663497712,-0.591254619700051,0.9761627,-0.8017606,-0.33108896,216.65376,-113.3934,0.45711857,WAL
6565358982000,2.539985,-0.29268156681374,9.92039423642591,-0.626973572442833,0.95630956,-0.82527894,-0.32162055,216.6897,-113.48976,0.2696142,WAL
6565363999000,2.545002,-0.321721662943487,9.86231388244182,-0.651173671081898,0.95478237,-0.86070913,-0.32650748,216.73418,-113.586555,0.08076531,WAL
6565369014000,2.550017,-0.321812746066714,9.80624774856394,-0.686343308549834,0.9398162,-0.8784242,-0.33108896,216.77881,-113.68434,-0.11291333,WAL
6565374021000,2.555024,-0.210669481343344,9.7579246228963,-0.763660339893178,0.9221011,-0.88147855,-0.3539964,216.82562,-113.778786,-0.3101877,WAL
6565379006000,2.560009,-0.0867562724601307,9.73794926379085,-0.862268123557298,0.88453287,-0.86529064,-0.37904188,216.87279,-113.87195,-0.5136217,WAL
6565384004000,2.565007,0.0842642200732026,9.81720251712418,-1.03745986631285,0.8191703,-0.8396343,-0.40194935,216.91525,-113.95033,-0.71683496,WAL
6565388993000,2.569996,0.254976752535948,9.89631305751634,-1.21233613774292,0.76083267,-0.8194757,-0.41233405,216.95622,-114.03205,-0.898895,WAL
6565393953000,2.574956,0.350785495250149,10.2242593043478,-1.28237097019059,0.70188415,-0.799928,-0.39920044,216.99011,-114.09317,-1.0733689,WAL
6565398947000,2.57995,0.440988482546158,10.5755763478261,-1.34408880908279,0.6417139,-0.82650065,-0.35705075,217.03249,-114.13561,-1.2415966,WAL
6565404018000,2.585021,0.273271589035487,10.8454124458599,-1.11159802954201,0.5833763,-0.8943067,-0.30604348,217.10059,-114.191505,-1.3861204,WAL
6565408926000,2.589929,0.0831878007188353,11.0972730828025,-0.854984904397938,0.5555819,-1.0231993,-0.23976462,217.19754,-114.23662,-1.522196,WAL
6565413960000,2.594963,-0.238623000090909,11.1061107869318,-0.372597647088068,0.5552765,-1.174083,-0.19883664,217.32593,-114.26565,-1.6522316,WAL
6565418986000,2.599989,-0.571360801121212,11.0924368304924,0.128788093205492,0.5546656,-1.2959507,-0.16554448,217.48608,-114.28527,-1.7751102,WAL
6565424007000,2.60501,-0.866526452088817,10.9596880891961,0.525433069041757,0.5381723,-1.3542882,-0.13683382,217.67433,-114.250435,-1.9346362,WAL
6565428925000,2.609928,-1.14748664171669,10.8035992165515,0.891127255359341,0.47586402,-1.3451253,-0.12644911,217.87724,-114.20307,-2.0915904,WAL
6565434002000,2.615005,-1.25477153120297,10.638573547576,1.06365495991047,0.36132678,-1.3096951,-0.12675454,218.09235,-114.067055,-2.3111103,WAL
6565438944000,2.619947,-1.28181903742261,10.4762886985427,1.14479743149824,0.19883664,-1.2220359,-0.122478485,218.29321,-113.902016,-2.5133247,WAL
6565443997000,2.625,-1.06686580416362,10.4206246581259,1.10084032224012,0.109650314,-1.1368202,-0.14080444,218.48494,-113.68726,-2.7697537,WAL
6565449006000,2.630009,-0.693744509521413,10.4381836599561,0.973540107474378,-0.07269296,-1.0277808,-0.1685988,218.64813,-113.40499,-3.0082545,WAL
6565454003000,2.635006,-0.186858040317376,10.6522550885256,0.797167271408555,-0.23793201,-0.94134337,-0.20341812,218.79869,-113.107605,-3.2520235,WAL
6565458995000,2.639998,0.503281964387008,11.1343378432226,0.553588425646959,-0.41172317,-0.8268061,-0.23487769,218.91162,-112.76327,-3.4812453,WAL
6565464001000,2.645004,1.30628766091384,11.9091379095004,0.30173604412678,-0.5635232,-0.7305948,-0.2284636,219.02269,-112.39593,-3.634631,WAL
6565469011000,2.650014,2.2055953320103,12.9358151116563,0.0431368437084708,-0.72112644,-0.6469063,-0.20463985,219.10583,-111.98513,-3.77649,WAL
6565474192000,2.655195,3.04073459314864,13.9201464115793,-0.191126243341904,-0.82772243,-0.5519168,-0.16157386,219.1793,-111.54598,-3.786718,WAL
6565478990000,2.659993,2.88828100857664,14.0764117317518,-0.0844087142427007,-0.90041536,-0.4364632,-0.084910266,219.23083,-111.077354,-3.7693968,WAL
6565484005000,2.665008,2.72893237859987,14.2397444913736,0.0271353475398142,-0.98349303,-0.34513888,0.01863139,219.29478,-110.53899,-3.539312,WAL
6565488998000,2.670001,2.25771747373625,14.2765349652911,0.119586884818888,-1.1026118,-0.30726522,0.13408493,219.34924,-109.98065,-3.2855504,WAL
6565494004000,2.675007,1.60953260312784,14.2426743833115,0.201819291665826,-1.2617421,-0.27763826,0.24037547,219.38855,-109.39869,-3.005184,WAL
6565498970000,2.679973,0.893563340332907,14.1942349980301,0.177568503839259,-1.4926492,-0.23915374,0.33200526,219.42929,-108.752335,-2.7410576,WAL
6565504049000,2.685052,0.122250727618438,14.1367457004826,0.0961255607593815,-1.752267,-0.1908954,0.4089743,219.46495,-108.066345,-2.4554994,WAL
6565509009000,2.690012,-0.54238192708653,14.0459900148587,0.0553337997931436,-1.9898936,-0.11178834,0.44898596,219.47264,-107.3411,-2.2589238,WAL
6565514016000,2.695019,-1.16173639515781,13.9342269866952,0.0367065976362047,-2.20278,-0.008246681,0.48349985,219.46317,-106.56473,-2.0418558,WAL
6565519014000,2.700017,-1.67632568580698,13.8170974249797,0.231006477939984,-2.3875668,0.11942416,0.52015173,219.40216,-105.78324,-1.9304159,WAL
6565523999000,2.705002,-2.11191300474453,13.6961010036496,0.58431627080292,-2.5552492,0.21594086,0.5635232,219.32036,-104.96353,-1.8057158,WAL
6565528993000,2.709996,-2.42185015284604,13.5973591794831,0.975791120136356,-2.7165177,0.24740042,0.600786,219.20728,-104.13911,-1.7780094,WAL
6565533997000,2.715,-2.64599944150943,13.5137780188679,1.39369644716981,-2.87687,0.22999077,0.6585127,219.08095,-103.284836,-1.7317317,WAL
6565539065000,2.720068,-2.86474811603994,13.4366943933503,1.75131356208838,-2.9471195,0.12034045,0.6936375,218.96913,-102.38611,-1.756783,WAL
6565544153000,2.725156,-2.99414794370087,13.4418704902273,1.39417006584874,-3.0473013,-0.0076358155,0.8014552,218.86986,-101.45052,-1.7485744,WAL
6565548976000,2.729979,-3.11069539531388,13.423234175361,0.853600296964338,-3.1068606,-0.018020526,0.91782504,218.77301,-100.444305,-1.7700859,WAL
6565553968000,2.734971,-3.20462871025641,13.3011202136752,-0.58827787008547,-3.1920764,0.12156218,1.0177015,218.66753,-99.42324,-1.7661618,WAL
6565558988000,2.739991,-3.30513801633205,13.1842431337838,-2.03372368330116,-3.3029485,0.3210097,1.1004738,218.53116,-98.4683,-1.7582966,WAL
6565564009000,2.745012,-3.43973939467181,13.1006977648649,-3.45399931679537,-3.414126,0.49357912,1.1520919,218.35866,-97.51083,-1.729576,WAL
6565568993000,2.749996,-3.56956894128948,13.0407827575076,-4.80240530886196,-3.447418,0.5815437,1.1756102,218.0588,-96.95997,-1.7638366,WAL
6565573956000,2.754959,-3.65594910800519,13.2423368234531,-5.44820036105582,-3.4190128,0.53969944,1.1753048,217.74945,-96.408226,-1.7913177,WAL
6565580263000,2.761266,-3.76463923862604,13.5009307817941,-6.26245518245647,-3.3377676,0.4822781,1.1575897,217.35963,-96.23644,-1.8934423,WAL
6565584031000,2.765034,-3.79537061591597,13.7331227288039,-6.54586618669569,-3.1560352,0.47525316,1.151481,216.98065,-96.08754,-1.9858395,WAL
6565589020000,2.770023,-3.83606032963664,14.0405552191522,-6.92111499246783,-3.0918944,0.48075095,1.1447614,216.63351,-96.00194,-2.0798151,WAL
6565594046000,2.775049,-3.98271852055378,14.3920913338174,-6.70870089100591,-2.9404,0.5326745,1.1432343,216.28682,-95.97071,-2.1644223,WAL
6565598982000,2.779985,-4.17950984920128,14.7582150360151,-6.20528117083938,-2.7354546,0.623388,1.1334605,215.93764,-95.95616,-2.244484,WAL
6565603920000,2.784923,-4.27306787073473,14.9295948071716,-5.69042929501912,-2.5531113,0.818254,1.1355985,215.57925,-95.93878,-2.2818675,WAL
6565608941000,2.789944,-4.2929439638731,14.9618932704351,-5.15874482831456,-2.440712,1.1191051,1.1484267,215.17511,-95.94004,-2.3071938,WAL
6565613905000,2.794908,-4.31259441723675,14.9938250711998,-4.6330962139506,-2.366492,1.5360206,1.1456778,214.67941,-95.88137,-2.3397377,WAL
6565618913000,2.799916,-4.33241904867211,15.0260399096828,-4.10278834514829,-2.3182335,1.9538525,1.1420126,214.11034,-95.83298,-2.3565197,WAL
6565623907000,2.80491,-4.2565922999919,15.2017119709957,-2.37970497773637,-2.300824,2.3200662,1.1566733,213.4537,-95.75026,-2.3355706,WAL
6565628909000,2.809912,-4.14016212829944,15.4384533119987,-0.14812976686381,-2.356718,2.4572055,1.1759156,212.75955,-95.65299,-2.3096116,WAL
6565633924000,2.814927,-4.04617265848997,15.5427100329192,1.5309171958267,-2.4926357,2.605951,1.183246,211.94815,-95.40713,-2.2817502,WAL
6565638908000,2.819911,-4.02589846416056,15.2183208066263,1.40420276677286,-2.5579982,2.6090055,1.1658363,211.15549,-95.16964,-2.261348,WAL
6565643891000,2.824894,-3.99359444689655,14.7650802609195,1.10527363439425,-2.7000244,2.6010642,1.138042,210.30176,-94.45307,-2.201072,WAL
6565648938000,2.829941,-3.93803799908046,14.0613650618774,0.475633415817433,-2.7708848,2.568383,1.1261301,209.46129,-93.7849,-2.1539147,WAL
6565653934000,2.834937,-3.82947139185185,13.2350291038025,-0.108572137048691,-2.8087585,2.4969118,1.1386528,208.6399,-93.16558,-2.1151607,WAL
6565658951000,2.839954,-3.57322161333333,12.0486872337778,-0.587854181185778,-2.8985555,2.3854287,1.1273518,207.84535,-92.62914,-2.1007469,WAL
6565663953000,2.844956,-3.30204873298292,10.8703868159377,-0.965808452726675,-2.9956832,2.2336287,1.071763,207.09792,-92.30934,-2.1106198,WAL
6565668985000,2.849988,-2.98089935164258,9.69887024225643,-1.03818015128121,-3.1456506,2.0176878,0.97494096,206.4082,-92.16657,-2.1499412,WAL
6565673934000,2.854937,-2.66155945954845,8.57939546171214,-1.09798137046096,-3.2592716,1.777007,0.8546005,205.78955,-87.79123,-2.1832798,WAL
6565678943000,2.859946,-2.31057002832654,7.70693593611372,-1.06789658450925,-3.2901201,1.5033394,0.7189884,205.24751,-87.549995,-2.2617068,WAL
6565683999000,2.865002,-1.97353490313054,6.91763339492026,-1.05283221925576,-3.2345314,1.2800682,0.59559363,204.76419,-87.209335,-2.3106313,WAL
6565688948000,2.869951,-1.70758193778303,6.48371011259106,-1.09482476196102,-3.1132748,1.1398746,0.46883908,204.33789,-86.76265,-2.4102101,WAL
6565693950000,2.874953,-1.44243907181869,6.10431897913851,-1.1468495776464,-3.0051515,1.0146471,0.35888332,203.97304,-86.28508,-2.476055,WAL
6565698932000,2.879935,-1.19617964402215,6.01477019405968,-1.24535338616742,-2.8909197,0.9034697,0.29352075,203.64551,-85.79565,-2.5730858,WAL
6565704195000,2.885198,-0.939133737818083,5.94507632360585,-1.32599113129399,-2.785851,0.8549059,0.26633725,203.33853,-85.30495,-2.6184845,WAL
6565708996000,2.889999,-0.735837013079769,6.13177738806172,-1.1641835247699,-2.6740627,0.8512407,0.25778514,203.05116,-84.829735,-2.6835153,WAL
6565713957000,2.89496,-0.525765142338928,6.32470052506768,-0.996983454791554,-2.5806003,0.77396625,0.2751948,202.80804,-84.38314,-2.6798506,WAL
6565719024000,2.900027,-0.400183824101059,6.52706318417025,-0.685751182660656,-2.4791965,0.6765333,0.29626966,202.57233,-83.96548,-2.682772,WAL
6565723941000,2.904944,-0.296517572381801,6.7245227186183,-0.355006484367334,-2.4113905,0.5684101,0.30848694,202.36197,-83.567,-2.686393,WAL
6565728992000,2.909995,-0.299797099621148,6.82952232343794,-0.31728283735369,-2.3518312,0.5674938,0.37384954,202.1432,-83.20859,-2.6147926,WAL
6565733962000,2.914965,-0.313253907405523,6.92372000603148,-0.308311629041561,-2.3047945,0.5891795,0.4007276,201.95067,-82.86416,-2.5539513,WAL
6565738984000,2.919987,-0.297172791968054,6.97713619749556,-0.370588047913626,-2.2693644,0.6243043,0.4364632,201.73453,-82.5081,-2.4363823,WAL
6565743996000,2.924999,-0.273509342131729,7.01973029057385,-0.451043793170972,-2.193617,0.70524395,0.46822822,201.50089,-82.17962,-2.322311,WAL
6565748970000,2.929973,-0.257772722470832,6.99132384500376,-0.559205127660896,-2.1096232,0.818254,0.50243664,201.23834,-81.83721,-2.180632,WAL
6565754006000,2.935009,-0.244159023268724,6.9414070300621,-0.67719052390478,-2.0259347,0.95447695,0.54733527,200.94788,-81.520805,-2.0401697,WAL
6565758995000,2.939998,-0.260659048517721,6.8330076320932,-0.842659607851968,-1.9398025,1.0946705,0.57848936,200.62614,-81.19536,-1.8743571,WAL
6565764030000,2.945033,-0.293705310256511,6.69138088057568,-1.03621631614451,-1.8695531,1.2483032,0.6020077,200.26422,-80.89232,-1.7145307,WAL
6565769041000,2.950044,-0.350678735828854,6.57987173878736,-1.25304830513868,-1.7895297,1.421178,0.6160576,199.86171,-80.591415,-1.541289,WAL
6565774039000,2.955042,-0.422717894014191,6.48724980432165,-1.48460281892066,-1.6853772,1.6096299,0.61941737,199.41457,-80.31868,-1.3824303,WAL
6565778995000,2.959998,-0.564786642407441,6.24769741539975,-1.58965579073511,-1.5763378,1.7916678,0.6084218,198.92644,-80.05569,-1.2328775,WAL
6565783991000,2.964994,-0.731660485920229,5.95673805124307,-1.65383799356108,-1.427592,1.9339994,0.5729916,198.40105,-79.83434,-1.1059787,WAL
6565788992000,2.969995,-0.972129057508786,5.69015489921439,-1.62027018162084,-1.2971723,2.039679,0.5476407,197.83641,-79.634926,-0.99243516,WAL
6565793991000,2.974994,-1.28390199125491,5.44766474661981,-1.49160199855282,-1.1395692,2.0662518,0.52106804,197.25923,-79.486275,-0.90076137,WAL
6565798971000,2.979974,-1.60248000542513,5.27410558133754,-1.24336007240087,-0.9954049,2.0409007,0.51159966,196.65282,-79.34426,-0.8519514,WAL
6565804010000,2.985013,-1.93092434163543,5.15034380477412,-0.900635454734662,-0.84299403,1.9321668,0.52106804,196.06569,-79.25137,-0.8094495,WAL
6565808994000,2.989997,-2.28074965077627,5.00915305140326,-0.559991555503583,-0.69913524,1.7825048,0.52595496,195.4622,-79.14459,-0.8275433,WAL
6565813977000,2.99498,-2.65119711823248,4.85242545218949,-0.218040093622611,-0.5928447,1.6142114,0.52931476,194.89633,-79.072395,-0.8431973,WAL
6565818995000,2.999998,-2.89900174950357,4.77628039314932,0.156431312474186,-0.49571714,1.4300356,0.5375614,194.32822,-78.95007,-0.91572726,WAL
6565824000000,3.005003,-3.03701069881851,4.77152151869539,0.556181209088563,-0.40286562,1.2559389,0.5161811,193.80786,-78.85744,-0.9936011,WAL
6565828992000,3.009995,-2.84783988864529,4.90360431937517,1.24797331096191,-0.312763,1.1386528,0.5195409,193.25192,-78.664986,-1.1107829,WAL
6565834063000,3.015066,-2.3509761563442,5.16534490852288,2.22395556451082,-0.21594086,0.94042706,0.50885075,192.77158,-78.50363,-1.2311469,WAL
6565838998000,3.020001,-1.89771956144236,5.48642810936968,2.97138792038614,-0.17989981,0.66950834,0.5149594,192.30725,-78.26253,-1.3617933,WAL
6565843991000,3.024994,-1.49947091600416,5.94350904792731,3.32438106478327,-0.084910266,0.41599923,0.54153204,191.89478,-78.07223,-1.484503,WAL
6565848938000,3.029941,-1.19133788620027,6.23861150778397,3.61994833100135,0.03359759,0.21044308,0.56505036,191.57867,-77.816055,-1.5200962,WAL
6565854007000,3.03501,-1.20999819725159,5.93071627801269,3.71324988625793,0.15974127,-0.02107485,0.6041457,191.3402,-77.59713,-1.5294071,WAL
6565858972000,3.039975,-1.2156434774762,5.65269002978042,3.80260322878145,0.2770274,-0.15515977,0.57787853,191.16234,-77.38752,-1.4517577,WAL
6565863998000,3.045001,-1.13852902566205,5.52567778531712,3.87971772796155,0.37598756,-0.16615535,0.5183192,191.01587,-77.21364,-1.3688431,WAL
6565869335000,3.050338,-1.06786342910342,5.39486857101801,3.95320543962761,0.44593164,-0.14172074,0.4560109,190.89934,-77.05914,-1.3075901,WAL
6565873996000,3.054999,-1.12206804797612,5.32259585590973,3.93062020141672,0.5360342,-0.11728613,0.42302418,190.78864,-76.93959,-1.255042,WAL
6565879270000,3.060273,-1.1935881142871,5.24504903143742,3.90603379918746,0.68019843,-0.08155051,0.41386122,190.67526,-76.84004,-1.201674,WAL
6565884016000,3.065019,-1.35186381707293,5.21427320926678,3.89284416111434,0.799928,-0.058337633,0.3817908,190.56306,-76.758446,-1.1651372,WAL
6565889339000,3.070342,-1.52476270900243,5.17974782214112,3.87804757080292,0.93584555,-0.015882496,0.36377025,190.42639,-76.710236,-1.1377845,WAL
6565894003000,3.075006,-1.57258057893917,5.14931807047202,3.86500634592701,1.0390818,-0.0067195175,0.3463606,190.29562,-76.685684,-1.118754,WAL
6565899017000,3.08002,-1.62398683963017,5.11660478254988,3.8509864699562,1.1200215,-0.0018325958,0.30848694,190.13817,-76.679535,-1.1434777,WAL
6565904005000,3.085008,-1.53609406565737,5.37676649250996,3.96811458701195,1.2006557,-0.03481932,0.2779437,189.99068,-76.701035,-1.168522,WAL
6565908979000,3.089982,-1.43645909880478,5.66143822270916,4.096216687251,1.2568552,-0.10445796,0.29810223,189.85251,-76.73717,-1.1870844,WAL
6565913990000,3.094993,-1.29017796446281,5.99634748760331,4.15973750413223,1.2867876,-0.16920967,0.30085114,189.72292,-76.7858,-1.2279229,WAL
6565919008000,3.100011,-1.13887869820937,6.33677065153483,4.21647487091696,1.2959507,-0.20555615,0.28069258,189.60616,-76.84182,-1.265686,WAL
6565924014000,3.105017,-1.10870918642298,6.63725212167102,4.14485707885118,1.2861768,-0.16340645,0.24465153,189.47327,-76.88686,-1.2635686,WAL
6565928946000,3.109949,-1.09549598866095,6.92794261040656,4.05676890980977,1.2654073,-0.09407325,0.20677789,189.34547,-76.92902,-1.2665409,WAL
6565934024000,3.115027,-1.0119781501869,7.3848313472949,4.07692738721228,1.2495248,0.061391957,0.18051068,189.18594,-76.954544,-1.2370403,WAL
6565938981000,3.119984,-0.904574890674798,7.88915957970687,4.13763352225064,1.2024882,0.20830505,0.17837265,189.01192,-76.96485,-1.2161351,WAL
6565943993000,3.124996,-0.772828390023095,8.42374586374134,4.23957930161663,1.1414018,0.3924809,0.17715092,188.7567,-76.956245,-1.1740043,WAL
6565948961000,3.129964,-0.632183369200924,8.96435031454965,4.35824864406467,1.0577132,0.58459806,0.17348573,188.46193,-76.92989,-1.1472262,WAL
6565954014000,3.135017,-0.488714009237792,9.52500958864119,4.67656830630573,0.9984592,0.7867944,0.17470746,188.09955,-76.88005,-1.085518,WAL
6565959065000,3.140068,-0.344931782106157,10.0950031422505,5.16953593299363,0.9077458,0.93645644,0.17348573,187.70486,-76.802956,-1.0430733,WAL
6565963975000,3.144978,-0.00693839619877942,10.7547786852659,5.68400598186574,0.7965683,1.0323622,0.15393804,187.28038,-76.69801,-0.982594,WAL
6565969003000,3.150006,0.445523277442604,11.4871137285673,6.22975868131357,0.68111473,1.0690142,0.1423316,186.83855,-76.57458,-0.9373251,WAL
6565974675000,3.155678,0.677758023059039,12.0807544272458,6.92219926568777,0.54305923,1.0396926,0.21319197,186.39668,-76.43238,-0.86341435,WAL
6565978991000,3.159994,0.732549029128174,12.4305739949016,7.48275348561232,0.39095375,0.95722586,0.26419923,185.96936,-76.261314,-0.80607355,WAL
6565983979000,3.164982,0.709326458159729,12.6725012937662,8.00602543377813,0.24495697,0.8729264,0.26816985,185.59093,-76.05461,-0.67027384,WAL
6565989038000,3.170041,0.632132193796057,12.8172404827724,8.4595419623581,0.10048734,0.7620544,0.26297748,185.24605,-75.81484,-0.5269588,WAL
6565994018000,3.175021,0.58586328659587,12.7751126448378,8.72190600825959,-0.009773844,0.58551437,0.2611449,184.96425,-75.52342,-0.38733566,WAL
6565998971000,3.179974,0.55787867100885,12.6211975610619,8.87115738230089,-0.06994407,0.3894266,0.27183503,184.72159,-75.21636,-0.24435547,WAL
6566003987000,3.18499,0.452772570555665,12.1444344959462,8.90230017105003,-0.063224554,0.16646078,0.2666427,184.53725,-74.88305,-0.11830281,WAL
6566009017000,3.19002,0.290836087116868,11.4300083875816,8.84514596302155,-0.0067195175,-0.08277224,0.23884831,184.4172,-74.55873,0.016073994,WAL
6566013980000,3.194983,0.153365715633333,10.7767344809524,8.50803516476191,0.051618114,-0.21746802,0.21227567,184.32985,-74.236046,0.14413871,WAL
6566019051000,3.200054,0.0309354987176471,10.1509801831933,7.9366942594958,0.067500606,-0.2510656,0.2284636,184.28247,-73.92685,0.28440508,WAL
6566024019000,3.205022,-0.121988060383122,9.47951504630321,7.16511806004481,0.080634214,-0.14110987,0.26083946,184.23053,-73.63299,0.38792568,WAL
6566028995000,3.209998,-0.320271787485224,8.72705391411501,6.10252041489384,0.06383542,-0.02687807,0.27366763,184.1869,-73.34114,0.49129167,WAL
6566033986000,3.214989,-0.596582759904506,7.91262307770815,5.11669538221426,0.05467244,0.2938262,0.2932153,184.04568,-73.10492,0.56390005,WAL
6566038968000,3.219971,-0.938295587701184,7.04884909149508,4.20071525934547,0.04886922,0.6453791,0.29352075,183.86601,-72.86846,0.6206404,WAL
6566043935000,3.224938,-1.23522713670715,6.30438233981107,3.40982139406208,0.0870483,1.0067059,0.24923302,183.58522,-72.729515,0.62560195,WAL
6566048971000,3.229974,-1.49557149178716,5.65817028594563,2.72176845216888,0.19058995,1.3909402,0.20677789,183.20482,-72.61007,0.5967794,WAL
6566053968000,3.234971,-1.73807580408556,5.30118398646594,2.12796580089213,0.31490102,1.7168368,0.15760323,182.7214,-72.596245,0.4892838,WAL
6566059003000,3.240006,-1.96294240571776,5.29140723540146,1.63912528710462,0.48288897,1.9755383,0.106901415,182.15976,-72.62509,0.34050742,WAL
6566064004000,3.245007,-2.2104207917978,5.47337684439418,1.35899391694532,0.6753115,2.13925,0.074830994,181.51463,-72.75576,0.13544597,WAL
6566069054000,3.250057,-2.48629094817073,5.86339984695122,1.2971609679878,0.89919364,2.207056,0.014660766,180.83762,-72.94013,-0.10714753,WAL
6566074021000,3.255024,-2.64443759004975,6.33343285024876,1.32903208547264,1.1468995,2.132836,-0.01282817,180.11627,-73.25297,-0.361493,WAL
6566079028000,3.260031,-2.66829382766169,6.91075439830846,1.47216961078607,1.3771957,1.9459113,-0.014660766,179.4177,-73.6131,-0.62407786,WAL
6566083961000,3.264964,-2.57279475280119,7.50329305924641,1.66220507977194,1.6029104,1.679574,0.0070249503,178.74606,-74.053986,-0.9145673,WAL
6566088965000,3.269968,-2.32094703012395,8.13528843483391,1.91880459291026,1.7947221,1.3677273,0.08307768,178.13895,-74.533676,-1.1718209,WAL
6566093938000,3.274941,-2.10203445164645,8.85424782842288,2.14616731854419,1.9526308,1.0164797,0.18387043,177.60692,-75.05823,-1.3866096,WAL
6566098972000,3.279975,-1.92564635846332,9.71297862680531,2.33648077602542,2.0766363,0.5748242,0.25961772,177.18636,-75.607414,-1.5567924,WAL
6566103962000,3.284965,-1.95487902139274,10.6945817016819,2.40711486830924,2.2226331,0.016187929,0.27000242,176.91373,-76.18067,-1.6405748,WAL
6566108997000,3.29,-2.38646647418117,11.9419171531425,2.24586249341989,2.417194,-0.59681535,0.21960606,176.78128,-76.78112,-1.6884292,WAL
6566113969000,3.294972,-2.96308970074294,13.3055288172363,2.03547706448737,2.653904,-1.2696834,0.10995574,176.81421,-77.434456,-1.6613649,WAL
6566119002000,3.300005,-3.88937124704309,14.9862048140664,1.70602630734027,2.871983,-1.9181169,-0.018936822,177.01582,-78.11036,-1.6216472,WAL
6566123976000,3.304979,-4.98400092602518,16.4935076327338,1.49345646692446,2.9950724,-2.2375994,-0.14874569,177.28152,-78.840614,-1.6492795,WAL
6566128993000,3.309996,-6.53083257565647,17.6341884534173,1.55826785053058,2.9590313,-2.8359418,-0.19425514,177.80354,-79.55465,-1.638386,WAL
6566134078000,3.315081,-7.97791156855294,18.7122770496046,1.62014840056486,2.8625145,-3.3786957,-0.24312437,178.33809,-80.30499,-1.7705046,WAL
6566139013000,3.320016,-8.09440280866797,18.9258444076204,1.63956367482798,2.5558603,-3.6651914,-0.25595254,178.95944,-80.94563,-1.8827732,WAL
6566143991000,3.324994,-8.10149384418674,18.9643789595599,1.73025819768064,2.0607538,-3.438255,-0.19975294,179.48317,-81.43678,-2.1857216,WAL
6566148987000,3.32999,-7.30003422678164,17.7076514761622,2.34202337436812,1.3909402,-2.6367998,-0.07666359,179.91385,-81.75751,-2.4595616,WAL
6566153962000,3.334965,-6.50764116233616,16.3123066615266,2.90732143695066,0.56077427,-1.5515977,0.056199603,180.1784,-81.9014,-2.720212,WAL
6566159006000,3.340009,-5.75810655408635,13.5376322066307,3.06560819458365,-0.28496864,-0.55741453,0.06841691,180.23613,-81.84404,-2.9880052,WAL
6566164223000,3.345226,-4.96300443945043,10.654337786086,3.12327660172832,-0.95478237,0.087659165,-0.042455133,180.1218,-81.580765,-3.1932719,WAL
6566169111000,3.350114,-3.97214210275755,7.78629094790756,1.86424503019711,-1.3771957,0.364992,-0.17654006,179.83394,-81.16829,-3.4204113,WAL
6566174356000,3.355359,-2.91447814344056,4.74684146931468,0.481752222993007,-1.4327844,0.27763826,-0.2751948,179.58002,-80.68611,-3.6515865,WAL
6566179021000,3.360024,-2.0980252412028,2.89316007057343,-1.45107510903496,-1.0751228,-0.087659165,-0.2837469,179.33188,-80.20808,-3.8944201,WAL
6566184021000,3.365024,-1.2229417446993,0.906363287356644,-3.52270140274126,-0.44776422,-0.4615087,-0.29932398,179.12173,-79.89061,-4.0476456,WAL
6566189008000,3.370011,-0.61780069826265,-0.282903789763089,-5.77875300976894,0.30207285,-0.7883216,-0.30207285,179.00343,-79.7072,-4.186612,WAL
6566193926000,3.374929,-0.0759608801559911,-1.29311363638491,-8.04254154165935,1.0296134,-1.2263119,-0.23915374,179.01974,-79.69123,-4.2890973,WAL
6566198984000,3.379987,-0.270007037865774,-1.15920687326476,-9.32113815909318,1.8026633,-1.5891659,-0.17531833,179.18805,-80.10034,-4.313456,WAL
6566203930000,3.384933,-0.691025006133027,-0.667230777389394,-10.2483237262559,2.5567765,-1.7852536,-0.18753563,179.42851,-80.678856,-4.3311305,WAL
6566209029000,3.390032,-1.21733105668624,0.711102042785235,-10.2173202122483,3.1144965,-1.9453003,-0.28099802,179.8515,-81.605965,-4.3318167,WAL
6566214055000,3.395058,-1.76470519736298,2.33976450605891,-9.88081948648397,3.3771684,-2.0027218,-0.36957347,180.29573,-82.6013,-4.3388906,WAL
6566219088000,3.400091,-1.98165717560391,4.27149498313037,-9.16958873208225,3.3790011,-1.7831156,-0.42394048,180.64014,-83.62218,-4.411554,WAL
6566224016000,3.405019,-2.00992297939708,6.3301892176682,-8.26508232202036,3.3078353,-1.6282613,-0.48747048,181.0122,-84.47983,-4.514793,WAL
6566229009000,3.410012,-1.44100847581036,8.505049430871,-7.16103328114664,3.2174273,-1.3692545,-0.5045747,181.1135,-85.0343,-4.599588,WAL
6566233974000,3.414977,-0.516434367040192,10.7211678997995,-5.95050835531723,3.1490104,-1.0280862,-0.40591997,181.14096,-85.28687,-4.672812,WAL
6566239012000,3.420015,0.82751730870403,12.7895584078525,-4.25116348720605,2.9691105,-0.72021013,-0.18692477,181.23741,-94.81014,-4.776241,WAL
6566243992000,3.424995,2.39865737972858,14.7263094531234,-2.28970900051797,2.720183,-0.55863625,0.12461651,181.27444,-95.11392,-4.8245907,WAL
6566248975000,3.429978,3.92965604509281,15.8605590737744,-0.647913616963351,2.4297166,-0.6087272,0.4886922,181.37782,-95.34969,-4.661906,WAL
6566254005000,3.435008,5.45664831439315,16.6446908253213,0.865322117068063,2.064419,-0.83291477,0.8371908,181.4913,-95.600494,-4.420878,WAL
6566258991000,3.439994,6.42003262315925,16.5840967779209,1.78945537352096,1.7125608,-1.2647965,1.0943651,181.7184,-95.44319,-3.8506844,WAL
6566264029000,3.445032,7.01291216169854,15.9434040681796,2.32495932629075,1.4789047,-1.7989981,1.2003502,182.04987,-95.29039,-3.2542317,WAL
6566268995000,3.449998,6.93033522095445,14.7927335235896,2.4054122797066,1.3695599,-2.288912,1.1585059,182.55696,-94.88175,-2.4407597,WAL
6566274031000,3.455034,6.35384314546772,13.2423195440551,2.1564725799511,1.3454307,-2.7204883,0.9831876,183.20331,-94.57265,-1.6787204,WAL
6566279028000,3.460031,5.40017656206896,11.6345265433364,1.51195731891892,1.3790283,-3.004846,0.7706065,184.01924,-94.396484,-0.93202245,WAL
6566284009000,3.465012,3.80961348888889,9.91553222522523,0.202953510510511,1.4056009,-3.0543263,0.54275376,184.87949,-94.35185,-0.26439545,WAL
6566288999000,3.470002,2.17477452441037,8.46920121692711,-0.88840013223333,1.4251486,-2.977968,0.2611449,185.76717,-94.488266,0.22696774,WAL
6566293999000,3.475002,0.483054782587596,7.37701981345239,-1.69707935187809,1.4450017,-2.8298333,-0.04184427,186.63539,-94.67684,0.64194393,WAL
6566298966000,3.479969,-1.11028236228974,6.48103050914634,-2.34538840888352,1.3903292,-2.6285532,-0.34300083,187.36745,-94.95161,0.81511176,WAL
6566303992000,3.484995,-2.57269264717199,5.89910245426829,-2.73502710385828,1.2797627,-2.3432791,-0.6114761,188.0202,-95.19999,0.9200894,WAL
6566308992000,3.489995,-3.64518370773746,5.69113991128602,-2.98220181979723,1.1273518,-2.021964,-0.8179486,188.57545,-95.536026,0.7129852,WAL
6566313980000,3.494983,-4.28669347529349,5.89931194419246,-3.0714184370153,0.97219205,-1.6771306,-0.9251554,189.02841,-95.8372,0.4708973,WAL
6566319057000,3.50006,-4.82807185736041,6.31296278426396,-3.18552794873096,0.82711154,-1.2730432,-0.9193522,189.28143,-96.127235,0.06192549,WAL
6566324055000,3.505058,-4.99666237614213,7.37905099238579,-3.37395275583756,0.72051555,-1.063211,-0.79534656,189.47906,-96.40061,-0.33217698,WAL
6566328965000,3.509968,-4.97654666097133,8.45449184126055,-3.13623883832651,0.7293731,-0.68539083,-0.6973027,189.449,-96.69071,-0.78575295,WAL
6566334012000,3.515015,-4.49171040081919,9.63022008643317,-1.83526133352838,0.75777835,-0.3912592,-0.42485678,189.38205,-96.95873,-1.1431882,WAL
6566338927000,3.51993,-4.01955462141603,10.7751981575692,-0.568309790813341,0.8668178,-0.33017266,-0.14049901,189.28627,-97.29063,-1.4968191,WAL
6566343992000,3.524995,-3.40672910193571,10.6595274827739,0.0640639241386965,1.003957,-0.53969944,0.099571034,189.18776,-97.62302,-1.7809432,WAL
6566348975000,3.529978,-2.78807341360327,10.3840983743562,0.602209548717812,1.1285735,-0.8793405,0.22204952,189.11307,-97.96436,-2.0184283,WAL
6566353996000,3.534999,-2.13817061889036,10.0082816221929,0.930329236538969,1.2241739,-1.1957687,0.25045475,189.14249,-98.13877,-2.1428497,WAL
6566358992000,3.539995,-1.47695552713139,9.58043699583376,1.139389945723,1.2773192,-1.4737124,0.23060162,189.25768,-98.32452,-2.2555797,WAL
6566363983000,3.544986,-0.960002360487758,9.28282509068034,0.996604269602245,1.2944235,-1.7583756,0.19608775,189.54076,-98.49308,-2.3215866,WAL
6566369008000,3.550011,-0.508248266178264,9.04530448195103,0.684567914961773,1.287704,-2.0421226,0.16584991,189.89716,-98.66455,-2.4002235,WAL
6566373996000,3.554999,-0.154664506944062,8.93006461697437,0.0854312407825848,1.2751812,-2.2611177,0.1255328,190.37181,-98.83819,-2.4414525,WAL
6566378986000,3.559989,0.139430637668779,8.89055941903187,-0.695896148213466,1.2657127,-2.3472497,0.0729984,190.88135,-99.00795,-2.4976165,WAL
6566384003000,3.565006,0.422874846845974,8.8797646941753,-1.51217448104466,1.2370021,-2.2638667,0.031154128,191.40895,-99.190506,-2.497511,WAL
6566389010000,3.570013,0.689892736638824,8.90646646363738,-2.36663171722909,1.1695015,-2.1065688,-0.010995574,191.9299,-99.35794,-2.5083926,WAL
6566393999000,3.575002,0.855910558571429,8.95272530414747,-2.89223978018433,1.1328496,-1.9052887,-0.0421497,192.39192,-99.60448,-2.46333,WAL
6566398976000,3.579979,0.965734889171429,9.00983374156682,-3.23489173495853,1.0809261,-1.7012597,-0.06627888,192.80156,-99.82421,-2.4176385,WAL
6566403995000,3.584998,1.05862253150905,9.05406672092555,-3.47316674209256,1.0509937,-1.5286902,-0.065973446,193.1863,-100.13633,-2.3505611,WAL
6566408994000,3.589997,1.13086773752515,9.08296486368209,-3.58875901136821,1.0238101,-1.4010195,-0.06963864,193.52243,-100.42883,-2.2820287,WAL
6566413987000,3.59499,1.20090721710976,9.13433050387532,-3.71192291085924,1.0024298,-1.2837334,-0.077579886,193.84486,-100.77074,-2.2135906,WAL
6566419008000,3.600011,1.26903351260938,9.2104715272106,-3.84416807517293,0.98807454,-1.2315043,-0.080634214,194.14864,-101.0989,-2.1404517,WAL
6566424056000,3.605059,1.32508107916591,9.28480115267452,-3.92457019655485,0.9966267,-1.1145236,-0.05589417,194.4152,-101.442406,-2.0512543,WAL
6566428990000,3.609993,1.26082183515866,9.33620913834995,-3.50045912348141,1.0030408,-0.979217,-0.03726278,194.66127,-101.77392,-1.959594,WAL
6566433995000,3.614998,1.19563790401632,9.38835688223028,-3.07024511441523,1.0207558,-0.98837996,-0.011911872,194.94125,-102.12868,-1.8639396,WAL
6566438995000,3.619998,1.05406941045702,9.38193299553251,-2.65507495376399,1.0235047,-1.0393872,0.009468411,195.19685,-102.47253,-1.7588873,WAL
6566443977000,3.62498,0.902168276506111,9.3672328465133,-2.24347200920201,1.0128145,-1.0803152,0.01740966,195.45386,-102.80934,-1.6506143,WAL
6566448977000,3.62998,0.744819739792353,9.31309046645702,-1.8852446438255,1.0225884,-1.0903945,0.024740042,195.72098,-103.099915,-1.5546123,WAL
6566453987000,3.63499,0.586755085045423,9.25561200733753,-1.53079662166317,1.028697,-1.1456778,0.00580322,196.01082,-103.3796,-1.4687421,WAL
6566458999000,3.640002,0.38578518057434,9.14857375497916,-1.273686882566,1.0296134,-1.2327261,-0.00580322,196.3205,-103.62977,-1.419402,WAL
6566463981000,3.644984,0.182474767957388,9.03807904075961,-1.02617858426123,1.0567969,-1.3292428,-0.028710667,196.64366,-103.883095,-1.3812057,WAL
6566469072000,3.650075,-0.0276817016193691,8.90919737736048,-0.852844007331997,1.0983357,-1.4132367,-0.06261369,196.9717,-104.10094,-1.3758715,WAL
6566473987000,3.65499,-0.231275981506488,8.78008879470408,-0.708838292488659,1.1343768,-1.4807373,-0.096516706,197.31589,-104.319595,-1.3795446,WAL
6566478988000,3.659991,-0.400663264503673,8.68818135691099,-0.70018680568939,1.1859949,-1.5195273,-0.14782938,197.68839,-104.562195,-1.4657252,WAL
6566484000000,3.665003,-0.564678130107637,8.602073946694,-0.712487913223988,1.2238685,-1.5317446,-0.20250183,198.06303,-104.80533,-1.5602617,WAL
6566489003000,3.670006,-0.723927567942557,8.58720157677693,-0.760819923010729,1.2574661,-1.5158621,-0.2687807,198.41913,-105.05004,-1.6992831,WAL
6566493999000,3.675002,-0.878993095457085,8.63532520619133,-0.841026213980778,1.2666291,-1.4703526,-0.32406402,198.76074,-105.293,-1.8433324,WAL
6566498973000,3.679976,-0.990631594728361,8.7612221495396,-0.936409765911602,1.2599095,-1.432479,-0.38606682,199.10675,-105.56525,-2.055618,WAL
6566504012000,3.685015,-1.08839086270718,8.91674814696133,-1.03861265701657,1.2443326,-1.3842206,-0.4456262,199.4265,-105.83235,-2.2712536,WAL
6566508987000,3.68999,-1.1596254426345,9.0905441023923,-1.1117414426345,1.2156218,-1.3368785,-0.49235737,199.72409,-106.112564,-2.5209448,WAL
6566513978000,3.694981,-1.21181686569387,9.28033116289458,-1.16393286569387,1.1844677,-1.3060299,-0.537256,200.00172,-106.38303,-2.7760081,WAL
6566519032000,3.700035,-1.13639208992114,9.43253056624307,-1.12473345460322,1.1484267,-1.3011429,-0.5543602,200.27211,-106.66108,-3.054119,WAL
6566524059000,3.705062,-0.958495920276238,9.55185096795998,-1.01192124073273,1.119716,-1.2666291,-0.55955255,200.51637,-106.9269,-3.3272946,WAL
6566528987000,3.70999,-0.78410317629174,9.66882151493849,-0.901330711599297,1.1194105,-1.2577715,-0.58032197,200.7657,-107.20119,-3.621617,WAL
6566534047000,3.71505,-0.605039198093371,9.7889252015682,-0.787777936149791,1.0995574,-1.2437216,-0.5870415,200.99829,-107.45471,-3.9008644,WAL
6566538933000,3.719936,-0.432690428107417,9.90777199048594,-0.68057149739335,1.0965031,-1.2186762,-0.6041457,201.22969,-107.726234,-4.1942506,WAL
6566543996000,3.724999,-0.259078345268542,10.0565822362148,-0.591285267083376,1.0693196,-1.1746938,-0.59559363,201.44768,-107.97753,-4.4704814,WAL
6566548968000,3.729971,-0.0891201930052089,10.2028190835548,-0.506201455696822,1.0390818,-1.133155,-0.57726765,201.70338,-108.19131,-4.702598,WAL
6566553983000,3.734986,0.0793621732433294,10.3508796682258,-0.434724095305623,0.9950995,-1.0726794,-0.5513059,201.93936,-108.38696,-4.9180546,WAL
6566558947000,3.73995,0.238148788138528,10.4763909105339,-0.337394716411736,0.956615,-0.9957104,-0.52412236,202.1812,-108.56159,-5.1049776,WAL
6566563997000,3.745,0.377724185974026,10.5461785584416,-0.165251734978355,0.8970556,-0.91415983,-0.5002986,202.40405,-108.71179,-5.274528,WAL
6566569003000,3.750006,0.511878684033284,10.5921403922663,-0.000576578180127265,0.84299403,-0.83658,-0.46761733,202.6197,-108.82896,-5.400699,WAL
6566573963000,3.754966,0.628131639882526,10.5456392390602,0.138926973694567,0.78984874,-0.8051204,-0.43799037,202.82483,-108.92457,-5.513944,WAL
6566578956000,3.759959,0.75065292593594,10.502077062812,0.235758144294613,0.7489208,-0.81183994,-0.42149702,203.05054,-108.99105,-5.614716,WAL
6566583971000,3.764974,0.90548427108985,10.4771042820299,0.0809268007052829,0.6966918,-0.84238315,-0.4111123,203.27396,-109.0351,-5.705306,WAL
6566589110000,3.770113,1.04518320861305,10.4988027418053,-0.13100118299183,0.6383542,-0.8790351,-0.38759398,203.51581,-109.04997,-5.778472,WAL
6566594045000,3.775048,1.1242703848115,10.6569768027365,-0.489219407596122,0.56321776,-0.9282097,-0.37812558,203.7668,-109.04418,-5.853618,WAL
6566598961000,3.779964,1.1599981153688,10.8211028333992,-0.805999976962626,0.46639562,-0.9673051,-0.36743546,204.03930530101,-109.01926730101,-5.90124013616162,WAL
6566603945000,3.784948,1.01841967635752,11.0145933036385,-0.961736228336959,0.3726278,-0.98929626,-0.3371976,204.31558,-108.99401,-5.949521,WAL
6566608940000,3.789943,0.837423531194267,11.1689790097532,-1.0583706098129,0.30543262,-1.0177015,-0.27916542,204.60785,-108.96797,-5.9673944,WAL
6566613887000,3.79489,0.464937393781847,11.1265440100518,-0.860340003990844,0.27550024,-1.0329732,-0.2284636,204.90088,-108.92473,-5.9776006,WAL
6566618925000,3.799928,0.0839574053767841,11.0715177241242,-0.672579752342549,0.28802297,-1.0711522,-0.20830505,205.20874,-108.906296,-6.0158834,WAL
6566624163000,3.805166,-0.321594877938916,10.9463473518315,-0.557422915728117,0.29626966,-1.1032226,-0.18661933,205.51973,-108.87448,-6.0386295,WAL
6566628910000,3.809913,-0.668473875548244,10.8373410056914,-0.483072178769231,0.29077184,-1.0845913,-0.16371189,205.81532,-108.84176,-6.118844,WAL
6566633949000,3.814952,-0.917378908000889,10.7472202047132,-0.577484433230769,0.26053402,-1.0198395,-0.16065755,206.10326,-108.80498,-6.1940393,WAL
6566638886000,3.819889,-1.16124557702623,10.6589236390396,-0.669985584307692,0.22113322,-0.93187493,-0.18112154,206.36797,-108.78007,-6.332789,WAL
6566643910000,3.824913,-1.16945264530561,10.7307306168872,-0.756756829132535,0.1414153,-0.82619524,-0.18753563,206.60786,-108.73543,-6.455586,WAL
6566649204000,3.830207,-1.13007541678738,10.8365516300283,-0.846679524017149,0.050396383,-0.7110472,-0.20616703,206.81473,-108.68157,-6.575017,WAL
6566653985000,3.834988,-0.783427867016328,11.1038462935328,-0.917679619948919,-0.05681047,-0.5928447,-0.22602014,206.97806,-108.64981,-6.7381845,WAL
6566658966000,3.839969,-0.422279269356928,11.3823224949375,-0.991649809833075,-0.1600467,-0.47342056,-0.25992316,207.10318,-108.60774,-6.8920603,WAL
6566663964000,3.844967,0.102606835316329,11.7393400937939,-0.935264907622013,-0.26175576,-0.38515055,-0.26358834,207.20232,-108.538925,-7.0318146,WAL
6566668967000,3.84997,0.665550524719823,12.1146354312111,-0.848658194677646,-0.355829,-0.34300083,-0.25686884,207.27673,-108.450455,-7.1682954,WAL
6566673960000,3.854963,1.16115735536358,12.4611883967154,-0.710206495486994,-0.44898596,-0.35063666,-0.22357668,207.36119,-108.30709,-7.224299,WAL
6566678937000,3.85994,1.64078140541105,12.8005452409341,-0.560889569075375,-0.54428095,-0.37323865,-0.1777618,207.43773,-108.14054,-7.271361,WAL
6566683982000,3.864985,1.9828823126974,13.1015551361502,-0.447505200147247,-0.61911196,-0.39828414,-0.1020145,207.57388,-107.89357,-7.2245665,WAL
6566688936000,3.869939,2.26130652170294,13.3799792394366,-0.351322275243278,-0.691194,-0.38515055,-0.0125227375,207.70782,-107.62124,-7.160716,WAL
6566693917000,3.87492,2.22175584355332,13.4580485174115,-0.346950225104074,-0.7800749,-0.34208453,0.0711658,207.87401,-107.25458,-6.9969616,WAL
6566698978000,3.879981,2.11656697510111,13.4962993327414,-0.361294178504489,-0.8970556,-0.28619036,0.14080444,208.03494,-106.86085,-6.813669,WAL
6566703992000,3.884995,1.84498684421875,13.5109442367188,-0.532141261257813,-1.0567969,-0.19547687,0.20463985,208.19202,-106.39645,-6.566309,WAL
6566708978000,3.889981,1.53722336488281,13.5202701017578,-0.737316870326172,-1.2611313,-0.10995574,0.26816985,208.33525,-105.892075,-6.301513,WAL
6566713984000,3.894987,1.21419366105953,13.5458831791371,-0.922543087094484,-1.4676038,-0.04550946,0.32803464,208.4589,-105.35719,-6.0394726,WAL
6566719026000,3.900029,0.884549619461132,13.5766501185145,-1.10274852250865,-1.6881261,0.063224554,0.35796702,208.5439,-104.77322,-5.765095,WAL
6566723998000,3.905001,0.570970131253525,13.7021421186875,-0.990191786870033,-1.7873917,0.16920967,0.43218717,208.60747,-104.22155,-5.5203743,WAL
6566728990000,3.909993,0.264590885234555,13.8982245344783,-0.663387211714945,-1.9853121,0.226631,0.50946164,208.65184,-103.59584,-5.268613,WAL
6566733974000,3.914977,-0.0838486845650558,14.0689053925651,-0.213338487628253,-2.2061398,0.20647246,0.58001655,208.67964,-103.00151,-5.066445,WAL
6566738970000,3.919973,-0.576789268620287,14.1552971903346,0.655659851626129,-2.415972,0.13622294,0.6395759,208.70554,-102.36532,-4.851132,WAL
6566743958000,3.924961,-1.03418086504283,14.207252868925,1.38028047149456,-2.627637,0.010995574,0.68416905,208.74734,-101.63941,-4.681782,WAL
6566749003000,3.930006,-1.42940499980368,14.1933034997594,1.83595068797998,-2.831055,-0.04550946,0.743423,208.78796,-100.87153,-4.4964113,WAL
6566754016000,3.935019,-1.83755648975506,14.1202557838195,2.10002373960768,-3.0100386,-0.03390302,0.8032878,208.83359,-99.97724,-4.367678,WAL
6566759096000,3.940099,-2.29246215130603,13.8878588207135,1.86268163736152,-3.1676416,0.028099801,0.8671232,208.87613,-99.05732,-4.2247148,WAL
6566763997000,3.945,-2.8030356480608,13.6299505931829,0.94615498282819,-3.2662964,0.16554448,0.93431836,208.88063,-98.09739,-4.123065,WAL
6566769009000,3.950012,-3.48841905272225,13.2894698038692,-1.55660030701059,-3.365562,0.3924809,0.9795224,208.83496,-97.139015,-4.008037,WAL
6566773993000,3.954996,-4.0964472436673,12.9999088922495,-3.83528476748582,-3.4807103,0.6582073,1.0158689,208.724,-96.28482,-3.9561737,WAL
6566778996000,3.959999,-4.22324860967864,13.031608902741,-4.74100793223062,-3.5854735,0.870483,1.0106765,208.55595,-95.490425,-3.9043777,WAL
6566784298000,3.965301,-4.32866280724109,13.0792824574911,-5.67572340341738,-3.676187,0.9596693,0.99296147,208.33995,-95.42292,-4.1590576,WAL
6566789013000,3.970016,-4.09343338293395,13.2815799304022,-6.22145591539904,-3.7302487,0.87964594,0.9505063,208.1066,-95.37654,-4.4072156,WAL
6566793980000,3.974983,-3.83902453352465,13.4940071559089,-6.7496790184889,-3.6990945,0.6979135,0.9095783,207.88101,-95.40654,-4.6444345,WAL
6566798960000,3.979963,-3.52041638203801,13.7004292804855,-6.8304529035096,-3.5631769,0.5329799,0.9101892,207.6699,-95.45755,-4.869311,WAL
6566804340000,3.985343,-3.18454086557912,13.920159192224,-6.89735789431756,-3.338073,0.41905355,0.93187493,207.50562,-95.52462,-5.042394,WAL
6566808996000,3.989999,-3.07947198466558,14.0373512270256,-6.50132905821098,-3.1031954,0.36132678,0.9868528,207.36963,-95.59667,-5.1950836,WAL
6566813976000,3.994979,-2.96709160946166,14.1626983776509,-6.07774151443719,-2.8842003,0.3622431,1.0473285,207.28201,-95.58878,-5.252526,WAL
6566819114000,4.000117,-3.14824460837345,14.0035862819896,-5.35143259583835,-2.7122416,0.46303585,1.119716,207.18156,-95.57658,-5.2828045,WAL
6566824002000,4.005005,-3.40643036633574,13.7688720902527,-4.57687522391697,-2.6367998,0.68630713,1.1398746,207.04584,-95.56706,-5.3027897,WAL
6566828993000,4.009996,-3.47020547003877,13.8840605019383,-3.76988342217094,-2.5360072,1.0543534,1.1374311,206.85007,-95.515785,-5.282721,WAL
6566834023000,4.015026,-3.47465177832749,14.1063759163744,-2.9517621863393,-2.4761422,1.6041322,1.162782,206.54152,-95.45157,-5.2424335,WAL
6566839003000,4.020006,-3.46465600518219,14.3217999878542,-1.86857855659919,-2.4452937,2.1545217,1.2082914,206.10637,-95.39129,-5.2302814,WAL
6566843991000,4.024994,-3.44531629732794,14.5345371781377,-0.606661659878543,-2.485,2.5027149,1.2391402,205.57971,-95.33386,-5.213351,WAL
6566848981000,4.029984,-3.41643137736156,14.7413553369526,0.168916424276149,-2.567161,2.6575692,1.2385293,204.94975,-95.258644,-5.1934705,WAL
6566853997000,4.035,-3.38165963208469,14.9456397886355,0.655721833939558,-2.663067,2.598926,1.2333369,204.29343,-95.19693,-5.1711745,WAL
6566858997000,4.04,-3.265609546103,15.0281070292142,0.849067286368483,-2.7143798,2.470339,1.2406673,203.5901,-95.130424,-5.130412,WAL
6566864015000,4.045018,-3.03503712757224,14.941001739951,0.633866378457192,-2.754086,2.3780985,1.2745703,202.90224,-84.88021,-5.09451,WAL
6566869098000,4.050101,-2.71545352217671,14.4714121538912,-0.119337416500878,-2.7739391,2.3127358,1.3335189,202.22388,-84.8551,-5.01735,WAL
6566874064000,4.055067,-2.33513453824849,13.7107743797542,-1.27884645123854,-2.8124237,2.4602597,1.3833044,201.51688,-84.747894,-4.946527,WAL
6566878993000,4.059996,-1.93278785092538,12.7606217848986,-1.87868042653081,-2.9654453,2.660929,1.3414601,200.84412,-84.57069,-4.8746614,WAL
6566883983000,4.064986,-1.49997422255365,11.5986115181138,-1.92102090566056,-3.2155948,2.6380215,1.2174544,200.20102,-84.29689,-4.825265,WAL
6566888998000,4.070001,-1.10089908956941,10.5287785070527,-1.78901436488493,-3.4651332,2.4281893,1.0809261,199.61493,-84.052864,-4.7478375,WAL
6566893994000,4.074997,-0.74569695781366,9.57861265219005,-1.45157235014848,-3.590055,2.126422,0.9166033,199.07147,-83.71398,-4.7248797,WAL
6566898979000,4.079982,-0.419094971854549,8.76276090463374,-1.18135686789107,-3.5909712,1.8490891,0.77304995,198.59349,-83.32268,-4.6736765,WAL
6566903983000,4.084986,-0.156063335185772,8.25187252274646,-1.06501592780241,-3.4914002,1.6496416,0.6704246,198.18542,-82.875595,-4.6655955,WAL
6566908987000,4.08999,-0.027585000050551,7.72412882939035,-1.02554325572743,-3.336546,1.484708,0.60139686,197.84523,-82.37959,-4.63928,WAL
6566914130000,4.095133,-0.0972998183601254,7.15645113457689,-1.1002377002022,-3.173445,1.4248432,0.5015204,197.53705,-81.87468,-4.658664,WAL
6566918959000,4.099962,-0.183160223361282,6.77392686143097,-1.24158562340227,-3.0925052,1.3552046,0.45448375,197.27516,-81.37072,-4.6361847,WAL
6566923999000,4.105002,-0.300073273333333,6.5760739,-1.48440506666667,-2.9691105,1.349096,0.37659842,197.01796,-80.896286,-4.6586676,WAL
6566928928000,4.109931,-0.405049950261593,6.4202296510107,-1.62601883317479,-2.8597655,1.4046847,0.3323107,196.7469,-80.40606,-4.690382,WAL
6566934009000,4.115012,-0.487706237618481,6.36237037846102,-1.51030002914897,-2.758973,1.398576,0.3191771,196.498,-79.94452,-4.739205,WAL
6566938978000,4.119981,-0.568540540290471,6.30578649235604,-1.39713200372006,-2.6719246,1.3130548,0.3200934,196.20818,-79.484314,-4.7512574,WAL
6566943992000,4.124995,-0.633751403958749,6.28675326187625,-1.23585093646041,-2.604424,1.2159272,0.33964106,195.92514,-79.05097,-4.7671523,WAL
6566949641000,4.130644,-0.660548235508539,6.35250868952332,-1.08451052847311,-2.540894,1.1652255,0.37018433,195.6545,-78.64686,-4.7836337,WAL
