timestamp,rel_time,acc_x,acc_y,acc_z,gyro_x,gyro_y,gyro_z,azimuth,pitch,roll,label
8118945129000,0,0.64546172771875,9.84697802549786,0.0965860721894112,-0.25625798,-0.12156218,0.07238753,262.0657,-73.59036,8.649774,STD
8118950136000,0.005007,0.645702503893469,9.84529259981723,0.114162561228497,-0.24251351,-0.11728613,0.07391469,262.308,-73.67139,8.730366,STD
8118955067000,0.009938,0.645939625386887,9.84363275679123,0.131472261138968,-0.2284636,-0.10842858,0.06841691,262.54816,-73.75142,8.803798,STD
8118960097000,0.014968,0.646181507583579,9.84193958899143,0.149129488993292,-0.22510384,-0.10720685,0.08032878,262.78674,-73.8285,8.879591,STD
8118965071000,0.019942,0.646420696857206,9.84026527156874,0.166590135384426,-0.22327125,-0.111177474,0.06811147,263.02515,-73.91244,8.943895,STD
8118970068000,0.024939,0.646660992152806,9.83858321202687,0.184131520590799,-0.21594086,-0.09987647,0.07666359,263.25552,-73.99243,9.013238,STD
8118975069000,0.02994,0.646901479800054,9.8368998060295,0.201686947330257,-0.21074851,-0.087659165,0.06811147,263.48755,-74.07628,9.071836,STD
8118980082000,0.034953,0.647142544502245,9.83521236066562,0.21928449866897,-0.19333886,-0.07452556,0.06841691,263.7138,-74.16099,9.131769,STD
8118985107000,0.039978,0.647384186259377,9.83352087593521,0.236924174606937,-0.1863139,-0.07849618,0.067500606,263.94095,-74.24513,9.186755,STD
8118990070000,0.044941,0.647622846565974,9.83185026126515,0.254346206782088,-0.17654006,-0.0720821,0.061391957,264.1607,-74.333694,9.23645,STD
8118995185000,0.050056,0.647868816235175,9.83012848128584,0.272301817214467,-0.16310102,-0.055283304,0.06688975,264.37686,-74.421776,9.286393,STD
8119000144000,0.055015,0.648107284190124,9.82845921307129,0.289709807856533,-0.15363261,-0.04520403,0.05955936,264.59326,-74.51324,9.328872,STD
8119005148000,0.060019,0.648347916101108,9.82677479723229,0.307275765745805,-0.14569137,-0.036957346,0.05467244,264.8039,-74.60474,9.37052,STD
8119010114000,0.064985,0.64858672067144,9.82510317272061,0.324708329070769,-0.14905111,-0.018020526,0.053145275,265.00793,-74.69515,9.407825,STD
8119015088000,0.069959,0.648825909945068,9.82342885529791,0.342168975461904,-0.13347405,-0.00030543262,0.0421497,265.20984,-74.79272,9.438863,STD
8119020085000,0.074956,0.649066205240668,9.82174679575605,0.359710360668277,-0.12797627,0.016187929,0.041233405,265.40527,-74.8843,9.469557,STD
8119025075000,0.079946,0.649306163920885,9.82006709251132,0.377227173191751,-0.110872045,0.02687807,0.035430185,265.59738,-74.98321,9.493592,STD
8119030153000,0.085024,0.649550354337347,9.81835776724545,0.395052899443094,-0.1133155,0.046731193,0.03023783,265.78137,-75.077446,9.514666,STD
8119035084000,0.089955,0.649787475830764,9.81669792421945,0.412362599353566,-0.108123146,0.06872234,0.027488936,265.96103,-75.17598,9.532809,STD
8119040095000,0.094966,0.650028444357131,9.81501115208331,0.429953129925736,-0.10751228,0.081855945,0.01740966,266.1375,-75.27357,9.545694,STD
8119045111000,0.099982,0.650269653323057,9.81332269687779,0.447561212414262,-0.10751228,0.087964594,0.010995574,266.3089,-75.3702,9.556991,STD
8119050343000,0.105214,0.650521249277946,9.81156153307491,0.465927537689376,-0.093767814,0.09162979,0.014660766,266.47656,-75.46809,9.566858,STD
8119055090000,0.109961,0.650749522595579,9.80996362700222,0.48259132707794,-0.09254608,0.1142318,0.0012217305,266.63757,-75.56592,9.568036,STD
8119060120000,0.114991,0.650991404792271,9.80827045920243,0.500248554932264,-0.094989546,0.12614368,0.0012217305,266.79895,-75.66083,9.573686,STD
8119065322000,0.120193,0.650796178073088,9.80659434144368,0.517462943186954,-0.09193522,0.13652839,0.0030543262,266.95428,-75.757454,9.574428,STD
8119070085000,0.124956,0.64555783648061,9.80591108962996,0.52133476117526,-0.09407325,0.14202617,0.002443461,267.10706,-75.85107,9.573651,STD
8119075082000,0.129953,0.640062141973447,9.80519427054259,0.525396796549513,-0.08307768,0.1441642,0.00061086525,267.23993,-75.854904,9.612796,STD
8119080092000,0.134963,0.634552150082136,9.80447558660668,0.529469399556319,-0.074830994,0.15027285,-0.0015271631,267.3691,-75.85895,9.649518,STD
8119085084000,0.139955,0.629061954568876,9.80375948476875,0.533527370456513,-0.079107046,0.15974127,-0.0030543262,267.49582,-75.86384,9.684023,STD
8119090085000,0.144956,0.623561860866591,9.80304209188182,0.537592657410013,-0.08002335,0.1600467,-0.004581489,267.62256,-75.87239,9.716585,STD
8119095109000,0.14998,0.61803647179235,9.80232139964749,0.541676640944183,-0.073303826,0.16768251,-0.002443461,267.74353,-75.88199,9.747466,STD
8119100144000,0.155015,0.612498984931521,9.8015991294644,0.545769566321282,-0.07819075,0.16523905,0.0009162979,267.86636,-75.88992,9.777251,STD
8119105129000,0.16,0.607016488009726,9.80088403177567,0.549821846957794,-0.07269296,0.17104226,-0.0070249503,267.98425,-75.90398,9.802197,STD
8119110161000,0.165032,0.601482300545239,9.80016219194224,0.553912333650458,-0.0711658,0.17562376,-0.0018325958,268.10144,-75.91371,9.830543,STD
8119115087000,0.169958,0.596064691751507,9.79945555779687,0.557916653493077,-0.089186326,0.19028452,-0.0018325958,268.21393,-75.923904,9.853094,STD
8119120398000,0.175269,0.590223660427204,9.79869369544485,0.562233937838216,-0.10629055,0.19425514,0.009773844,268.3265,-75.93188,9.879408,STD
8119125094000,0.179965,0.585059005353033,9.79802005477359,0.566051291874136,-0.10048734,0.20005837,0.008246681,268.4342,-75.94423,9.899986,STD
8119130090000,0.184961,0.579564410644651,9.7973033791361,0.570112514353577,-0.09773844,0.19456059,0.011301007,268.54242,-75.950096,9.92424,STD
8119135083000,0.189954,0.574073115332611,9.79658713384828,0.574171298148583,-0.09285152,0.17684549,0.01038471,268.65198,-75.95945,9.946082,STD
8119140075000,0.194946,0.568582919819352,9.79587103201035,0.578229269048777,-0.07971791,0.17470746,0.015577064,268.75742,-75.969894,9.968834,STD
8119145104000,0.199975,0.563052031751207,9.79514962252657,0.582317317057005,-0.082161374,0.16065755,0.016187929,268.87082,-75.980034,9.990343,STD
8119150133000,0.205004,0.557521143683062,9.79442821304281,0.586405365065234,-0.077579886,0.15332718,0.014049901,268.98206,-75.99436,10.011132,STD
8119155080000,0.209951,0.552080439114935,9.7937185664498,0.5904267556989,-0.074830994,0.15027285,0.013744468,269.09515,-76.007996,10.031932,STD
8119160084000,0.214955,0.546577046016307,9.79300074321322,0.594494481336835,-0.06811147,0.14782938,0.0125227375,269.2095,-76.02457,10.051077,STD
8119165084000,0.219955,0.541078052112803,9.79228349377618,0.598558955395523,-0.06994407,0.14905111,0.016493361,269.32266,-76.039536,10.070497,STD
8119170092000,0.224963,0.535570259819052,9.79156509674005,0.602629932612705,-0.07696902,0.1301143,0.016798794,269.44174,-76.05633,10.088589,STD
8119175094000,0.229965,0.530069066317986,9.79084756040324,0.606696032461017,-0.06414085,0.12492194,0.015271631,269.55566,-76.07672,10.105535,STD
8119180097000,0.234968,0.52456677301814,9.79012988061654,0.61076294520414,-0.061391957,0.124005646,0.02321288,269.6725,-76.092285,10.124906,STD
8119185091000,0.239962,0.519074377907319,9.78941349187883,0.614822541893958,-0.0571159,0.118202426,0.021380283,269.7919,-76.11349,10.1405735,STD
8119190121000,0.244992,0.513542390040394,9.78869193894517,0.618911402796998,-0.05100725,0.113926366,0.02321288,269.9098,-76.1336,10.158447,STD
8119195125000,0.249996,0.508038996941766,9.78797411570859,0.622979128434933,-0.04886922,0.09865474,0.011911872,270.0324,-76.15735,10.171893,STD
8119200228000,0.255099,0.502426723763849,9.78724209093315,0.62712733065923,-0.037873644,0.09865474,0.008857546,270.15057,-76.18224,10.186679,STD
8119205133000,0.260004,0.497032210744511,9.78653846923542,0.631114579710803,-0.040317107,0.09743301,0.016798794,270.27264,-76.20531,10.201278,STD
8119210109000,0.26498,0.491559612011744,9.78582466259568,0.63515954429401,-0.055283304,0.09193522,0.016798794,270.39563,-76.23065,10.212137,STD
8119215094000,0.269965,0.48607711508995,9.78510956490696,0.639211824930522,-0.04184427,0.098043874,0.01740966,270.51443,-76.25938,10.224078,STD
8119220086000,0.274957,0.480586919576691,9.78439346306902,0.643269795830716,-0.042455133,0.09468412,0.023823744,270.6364,-76.281654,10.237502,STD
8119225097000,0.279968,0.475075827886598,9.78367463568322,0.647343211732333,-0.05100725,0.09254608,0.018936822,270.75595,-76.30752,10.246762,STD
8119230094000,0.284965,0.469580133379436,9.78295781659585,0.651405247106586,-0.050701816,0.09132435,0.018325957,270.8749,-76.33291,10.25831,STD
8119235085000,0.289956,0.464091037664957,9.7822418582078,0.655462405111969,-0.039095376,0.07880162,0.015882496,270.99716,-76.36054,10.267788,STD
8119240127000,0.294998,0.458545852212663,9.78151858387549,0.65956102075275,-0.032986723,0.07819075,0.013439035,271.11554,-76.387566,10.275881,STD
8119245139000,0.30001,0.45303366072379,9.78079961303981,0.663635249549179,-0.034208454,0.08460484,0.015577064,271.2346,-76.41511,10.284109,STD
8119250069000,0.30494,0.447611652734935,9.78009240509489,0.667642820971045,-0.02321288,0.071776666,0.010079277,271.35895,-76.448364,10.289697,STD
8119255088000,0.309959,0.442091762654597,9.77937243011,0.671722740031157,-0.025961773,0.06841691,0.011911872,271.47748,-76.47688,10.296587,STD
8119260194000,0.315065,0.436476190080338,9.77863997498489,0.675873380939889,-0.022296581,0.06841691,0.009773844,271.59833,-76.5107,10.300616,STD
8119265420000,0.320291,0.431091496055708,9.7780165685392,0.679721535334512,-0.02321288,0.06811147,0.0021380284,271.71957,-76.544014,10.303151,STD
8119270089000,0.32496,0.434140918201126,9.78019472558991,0.674493954546287,-0.018020526,0.071776666,-0.00061086525,271.8387,-76.578514,10.305721,STD
8119275098000,0.329969,0.437412401500848,9.78253149763255,0.668885697495908,-0.0070249503,0.06505715,-0.008552114,271.9912,-76.57347,10.327353,STD
8119280091000,0.334962,0.440673434863896,9.78486080544027,0.663295354622572,-0.0106901415,0.06872234,-0.002443461,272.1383,-76.56553,10.350494,STD
8119285088000,0.339959,0.443937080711112,9.78719197930672,0.657700533204975,-0.013439035,0.073303826,-0.0036651916,272.28693,-76.564316,10.368628,STD
8119290109000,0.34498,0.447216401463339,9.78953434952554,0.652078840521814,-0.0061086523,0.06627888,-0.0061086523,272.4368,-76.564354,10.387528,STD
8119295117000,0.349988,0.450487231642018,9.79187065505349,0.6464717031075,-0.004581489,0.0693332,-0.009773844,272.5817,-76.564575,10.404127,STD
8119300087000,0.354958,0.453733243221099,9.79418923302352,0.640907111863662,-0.0012217305,0.058643065,-0.018936822,272.73206,-76.56934,10.41838,STD
8119305166000,0.360037,0.457050444993765,9.7965586610939,0.635220480288722,-0.006414085,0.06169739,-0.0125227375,272.87622,-76.571236,10.434386,STD
8119310104000,0.364975,0.460275556699499,9.7988623105941,0.629691717398969,-0.0076358155,0.07086037,-0.011301007,273.02145,-76.57861,10.445694,STD
8119315084000,0.369955,0.463528099489001,9.80118555371096,0.62411592979448,-0.005497787,0.065973446,-0.013744468,273.16888,-76.586044,10.457394,STD
8119320072000,0.374943,0.466785867246839,9.80351252894527,0.618531185101469,-0.00061086525,0.055283304,-0.013744468,273.31433,-76.59388,10.469165,STD
8119325072000,0.379943,0.470051472457181,9.80584510235576,0.612933004775677,-0.002443461,0.035430185,-0.004886922,273.4627,-76.60037,10.482549,STD
8119330075000,0.384946,0.47331903703065,9.8081790753103,0.607331465541689,-0.0030543262,0.0290161,-0.007941248,273.60992,-76.611496,10.491663,STD
8119335074000,0.389945,0.476583989119951,9.81051118220612,0.601734404851961,0.00061086525,0.026572637,-0.002443461,273.76,-76.62008,10.505491,STD
8119340074000,0.394945,0.479849594330294,9.81284375561661,0.596136224526169,-0.0067195175,0.03604105,0.004276057,273.90768,-76.62794,10.517738,STD
8119345149000,0.40002,0.483164183618792,9.81521131762826,0.590454071495489,0.007330383,0.041233405,0.0076358155,274.0562,-76.640625,10.529992,STD
8119350135000,0.405006,0.486420645134545,9.81753735983321,0.584871566074609,0.010995574,0.026572637,0.0015271631,274.2069,-76.65173,10.541005,STD
8119355087000,0.409958,0.489654900534869,9.81984754053896,0.579327128279944,0.0061086523,0.01985312,0.004886922,274.3524,-76.66174,10.554229,STD
8119360174000,0.415045,0.492977327275871,9.8222207007268,0.573631539616483,0.016187929,0.01863139,0.00580322,274.4999,-76.677704,10.564563,STD
8119365098000,0.419969,0.496193295287017,9.82451781902145,0.568118451631642,0.025961773,0.035124753,0.009468411,274.64307,-76.692154,10.575329,STD
8119370087000,0.424958,0.499451716165897,9.82684526077044,0.562532587302566,0.015577064,0.025045475,0.0076358155,274.79346,-76.70664,10.585081,STD
8119375791000,0.430662,0.503177118589856,9.82950626051714,0.556146183186902,0.003970624,0.025961773,0.010079277,274.9347,-76.721436,10.595133,STD
8119380097000,0.434968,0.505989457797003,9.83151507273826,0.551325030290329,0.008857546,0.027794369,0.008857546,275.0779,-76.73921,10.6032095,STD
8119385071000,0.439942,0.509238081860252,9.83383551676702,0.545755960502231,0.0125227375,0.02565634,0.01038471,275.22083,-76.75431,10.612088,STD
8119390094000,0.444965,0.512518708854562,9.8361788200152,0.54013202854694,0.014660766,0.030543262,0.012217305,275.36032,-76.770836,10.619607,STD
8119395129000,0.45,0.515807173301378,9.83852772143957,0.534494660958867,0.0061086523,0.03573562,0.0143553335,275.4993,-76.786385,10.626968,STD
8119400099000,0.45497,0.519053184880458,9.8408462994096,0.528930069715029,0.0061086523,0.03145956,0.014660766,275.63873,-76.80434,10.633779,STD
8119405164000,0.460035,0.522361242958535,9.84320919627443,0.523259113045001,0.0009162979,0.03359759,0.013133603,275.77386,-76.82051,10.639508,STD
8119410107000,0.464978,0.52558962026948,9.84551517834804,0.517724751974923,0.00030543262,0.038179077,0.016798794,275.9084,-76.83677,10.646179,STD
8119415096000,0.469967,0.52884804114836,9.84784262009704,0.512138887645847,0.0076358155,0.047036625,0.016187929,276.0404,-76.85542,10.650288,STD
8119420108000,0.474979,0.532121483811208,9.85018079168372,0.506527271687272,0.0015271631,0.05589417,0.018936822,276.1699,-76.87068,10.655551,STD
8119425490000,0.480361,0.535636581259621,9.85269157370277,0.500501390384589,0.0018325958,0.054367006,0.017715093,276.29913,-76.88979,10.658947,STD
8119430095000,0.484966,0.538644203658346,9.85483987381384,0.495345466304534,0.0021380284,0.067500606,0.022602014,276.4204,-76.90633,10.663352,STD
8119435093000,0.489964,0.541908502626605,9.85717151419497,0.489749525250872,0.0076358155,0.06841691,0.025350908,276.54492,-76.925026,10.666751,STD
8119440119000,0.49499,0.545191088984042,9.8595162169872,0.484122234387385,0.016187929,0.06505715,0.021380283,276.66614,-76.94516,10.668714,STD
8119446078000,0.500949,0.549083037273728,9.86229617797783,0.477450323075106,0.01863139,0.064446285,0.028405234,276.78497,-76.962395,10.673846,STD
8119450187000,0.505058,0.551766711635588,9.86421308680657,0.472849738483369,0.024129177,0.06811147,0.028405234,276.9032,-76.98445,10.675277,STD
8119455127000,0.509998,0.554993129583406,9.86651766933614,0.467318736321486,0.035430185,0.07574729,0.02565634,277.01947,-77.0072,10.6772,STD
8119460091000,0.514962,0.558235222436235,9.86883344821808,0.46176086289404,0.032375857,0.08124508,0.025045475,277.1345,-77.02831,10.679109,STD
8119465199000,0.52007,0.561571364719121,9.87121640521424,0.45604176187321,0.03634648,0.07849618,0.032070424,277.24878,-77.05143,10.6819105,STD
8119470947000,0.525818,0.565151476912067,9.87345914406662,0.45004454259859,0.0421497,0.077579886,0.030848695,277.3606,-77.07661,10.681445,STD
8119475186000,0.530057,0.566280717423739,9.87130332117416,0.449428593277313,0.04917465,0.081855945,0.036957346,277.4704,-77.0994,10.68443,STD
8119480198000,0.535069,0.567615879831027,9.86875437464502,0.448700322930947,0.041233405,0.0888809,0.03359759,277.60406,-77.12636,10.694021,STD
8119485151000,0.540022,0.568935325043179,9.8662354336716,0.447980625599433,0.04153884,0.084910266,0.03390302,277.73834,-77.15351,10.705681,STD
8119490178000,0.545049,0.570274483347537,9.86367885861135,0.44725017567302,0.04550946,0.093767814,0.03604105,277.86594,-77.180435,10.715369,STD
8119495175000,0.550046,0.571605649857757,9.86113754061333,0.446524084906701,0.05467244,0.092240654,0.029321533,277.997,-77.21032,10.722337,STD
8119500238000,0.555109,0.57295439831508,9.85856265707841,0.445788403988175,0.04153884,0.08857546,0.029321533,278.1249,-77.23531,10.730761,STD
8119504988000,0.559859,0.574219765720232,9.85614695555938,0.445098203639964,0.040927973,0.09315695,0.026267206,278.25024,-77.26607,10.735339,STD
8119510064000,0.564935,0.575571977288348,9.85356546063083,0.444360633752064,0.027488936,0.10170906,0.032375857,278.3742,-77.29073,10.74171,STD
8119514997000,0.569868,0.576886094637741,9.85105669103222,0.443643842527279,0.030848695,0.10170906,0.023823744,278.49896,-77.322235,10.742444,STD
8119519979000,0.57485,0.578213265250892,9.84852300156531,0.442919931341007,0.038179077,0.12003502,0.022907447,278.6145,-77.34911,10.74545,STD
8119524969000,0.57984,0.579542567009147,9.84598524354847,0.442194857712044,0.027488936,0.11484267,0.025961773,278.73605,-77.374985,10.747302,STD
8119529978000,0.584849,0.580876930237022,9.84343782272556,0.441467023281687,0.022907447,0.119729586,0.025045475,278.84866,-77.404045,10.7462635,STD
8119534974000,0.589845,0.582207830354104,9.84089701329628,0.440741077820705,0.019547688,0.12522738,0.028099801,278.96146,-77.430046,10.7467985,STD
8119539961000,0.594832,0.583536332932945,9.83836078098567,0.440016440107751,0.018020526,0.118202426,0.023823744,279.07587,-77.45771,10.744722,STD
8119545047000,0.599918,0.58489120843244,9.83577420036971,0.439277417166487,0.015271631,0.12156218,0.03604105,279.1841,-77.47999,10.747149,STD
8119549973000,0.604844,0.586203461029867,9.83326899075228,0.438561643079057,0.018936822,0.112704635,0.036957346,279.29758,-77.50687,10.745299,STD
8119555034000,0.609905,0.587551676700915,9.83069512435485,0.437826252771204,0.015577064,0.11209377,0.036651913,279.40643,-77.52976,10.745639,STD
8119560062000,0.614933,0.58889110139841,9.82813804072586,0.437095657539455,0.0070249503,0.10842858,0.04520403,279.5175,-77.55017,10.748569,STD
8119565065000,0.619936,0.590223866267458,9.82559367131539,0.436368694941118,0.010995574,0.11178834,0.045814894,279.62607,-77.57408,10.7484,STD
8119570038000,0.624909,0.591548639342368,9.82306455896715,0.435646091502874,0.01282817,0.10751228,0.045814894,279.73676,-77.594734,10.750239,STD
8119574997000,0.629868,0.592869682913347,9.82054256658128,0.434925522339341,0.01160644,0.1020145,0.04642576,279.84586,-77.61543,10.7517605,STD
8119580044000,0.634915,0.594214169080463,9.81797582014621,0.434192166306199,0.015577064,0.10476339,0.05222898,279.95273,-77.63602,10.754064,STD
8119584997000,0.639868,0.595533614292614,9.81545687917279,0.433472468974684,0.018325957,0.108123146,0.049480084,280.06036,-77.658424,10.753687,STD
8119590000000,0.644871,0.596866379161662,9.81291250976232,0.432745506376347,0.022296581,0.10415252,0.045814894,280.16824,-77.68055,10.754238,STD
8119595094000,0.649965,0.598223385806261,9.81032186059644,0.432005320992391,0.016187929,0.09712757,0.05009095,280.27505,-77.70051,10.755713,STD
8119600052000,0.654923,0.599544162984102,9.80780037677931,0.431284897134194,0.02107485,0.10048734,0.04917465,280.37936,-77.724846,10.753972,STD
8119605077000,0.659948,0.600882788502184,9.80524481885654,0.430554737818454,0.026267206,0.10720685,0.04795292,280.48373,-77.74755,10.752935,STD
8119610089000,0.66496,0.602217950909473,9.8026958723274,0.429826467472089,0.044593163,0.106595986,0.04795292,280.58835,-77.772736,10.751603,STD
8119615075000,0.669946,0.603546187095175,9.80016014858553,0.429101975064471,0.03726278,0.1142318,0.044898596,280.68793,-77.79627,10.748158,STD
8119620071000,0.674942,0.604877087212257,9.79761933915625,0.428376029603489,0.03848451,0.11026118,0.0421497,280.79025,-77.82334,10.74469,STD
8119625084000,0.679955,0.606212516012684,9.79506988405837,0.427647613951786,0.03359759,0.110872045,0.046120327,280.88812,-77.847626,10.741521,STD
8119630088000,0.684959,0.60754554727487,9.79252500607917,0.426920506048112,0.042760566,0.11453723,0.040927973,280.98584,-77.87688,10.734639,STD
8119635076000,0.689947,0.608874316246849,9.78998826519981,0.426195723029822,0.052839845,0.11636983,0.04062254,281.08286,-77.90331,10.729941,STD
8119640069000,0.69494,0.610204417184517,9.78744898147675,0.425470213484849,0.057421334,0.12308934,0.043066,281.1767,-77.93074,10.723989,STD
8119645201000,0.700072,0.611571546768357,9.78483900669871,0.424724506498107,0.041233405,0.11636983,0.047647487,281.27313,-77.95612,10.71859,STD
8119650156000,0.705027,0.612891524766784,9.78231904858781,0.42400451855592,0.05009095,0.11759156,0.046731193,281.36472,-77.98596,10.711612,STD
8119655094000,0.709965,0.614206974081866,9.7798077361455,0.423287000804453,0.045814894,0.11728613,0.032375857,281.4582,-78.014206,10.701996,STD
8119660125000,0.714996,0.615547197958776,9.77724912681028,0.422555969656694,0.054061573,0.116675265,0.040317107,281.55005,-78.0396,10.698139,STD
8119664999000,0.71987,0.616845598113031,9.77477036276738,0.421847751446761,0.048563786,0.11209377,0.036651913,281.64316,-78.06914,10.68683,STD
8119670090000,0.724961,0.618201805578216,9.77218123930772,0.421108001978814,0.049480084,0.1255328,0.036957346,281.7302,-78.09729,10.6782255,STD
8119675095000,0.729966,0.61953510323354,9.76963585275977,0.420380748769803,0.052839845,0.129198,0.042760566,281.82062,-78.12439,10.670343,STD
8119680205000,0.735076,0.620896372168345,9.76703706649404,0.419638238500464,0.051618114,0.12797627,0.035430185,282.01572,-78.069786,10.728522,STD
8119685067000,0.739938,0.622191575604945,9.76456440527603,0.418931763954568,0.048258353,0.13103059,0.032375857,282.20657,-78.015724,10.786748,STD
8119690071000,0.744942,0.623524606867131,9.76201952729682,0.418204656050894,0.052534413,0.13194689,0.040317107,282.39667,-77.96437,10.84361,STD
8119695063000,0.749934,0.624854441411661,9.7594807521425,0.417479291811258,0.050396383,0.13347405,0.036957346,282.5845,-77.91828,10.893889,STD
8119700575000,0.755446,0.626322800387913,9.75667752124294,0.416678368796659,0.050396383,0.13255776,0.038789943,282.7708,-77.87232,10.945547,STD
8119705148000,0.760019,0.627541016207653,9.75435183639104,0.416013887493002,0.04917465,0.13225232,0.03390302,282.95514,-77.831184,10.991978,STD
8119710065000,0.764936,0.628850871266838,9.75185120389228,0.4152994211536,0.056199603,0.13072516,0.04642576,283.13806,-77.788635,11.041685,STD
8119715074000,0.769945,0.630185234494714,9.74930378306937,0.414571586723244,0.04917465,0.1255328,0.03726278,283.32126,-77.753586,11.081761,STD
8119720065000,0.774936,0.631514802646106,9.74676551648379,0.413846367788944,0.05222898,0.11942416,0.03634648,283.50305,-77.71768,11.125626,STD
8119725075000,0.779946,0.632849432267119,9.74421758709214,0.413118388053251,0.059253927,0.13041973,0.04550946,283.67978,-77.683495,11.1673765,STD
8119730097000,0.784968,0.634187258605787,9.7416635548756,0.41238866465352,0.05955936,0.12736541,0.04337143,283.86118,-77.65431,11.204161,STD
8119735087000,0.789958,0.635516560364042,9.73912579685876,0.411663591024557,0.058337633,0.12217305,0.047647487,284.03802,-77.623955,11.243134,STD
8119740122000,0.794993,0.636857849813503,9.73656515324859,0.410931978655452,0.04795292,0.11056661,0.04062254,284.2165,-77.598175,11.276572,STD
8119745124000,0.799995,0.638190348289413,9.73402129240686,0.410205161362451,0.058337633,0.11362094,0.046120327,284.39026,-77.57245,11.312626,STD
8119750075000,0.804946,0.639509260715288,9.73150336857092,0.40948575464161,0.065973446,0.11209377,0.04642576,284.5675,-77.55039,11.343782,STD
8119755091000,0.809962,0.640845488695129,9.72895238776682,0.408756903073898,0.06719518,0.10598512,0.04795292,284.7435,-77.529015,11.375086,STD
8119760093000,0.814964,0.642177987171039,9.72640852692509,0.408030085780897,0.0571159,0.109650314,0.04520403,284.9157,-77.51014,11.403271,STD
8119765098000,0.819969,0.643511284826362,9.72386314037714,0.407302832571887,0.060170226,0.1133155,0.053145275,285.08786,-77.49158,11.433343,STD
8119770461000,0.825332,0.644939951225063,9.72113568621997,0.406523560052421,0.06963864,0.11453723,0.047647487,285.2586,-77.47861,11.457115,STD
8119775092000,0.829963,0.646173617846802,9.7187805043811,0.405850651039249,0.07238753,0.11484267,0.052534413,285.42657,-77.46216,11.4843855,STD
8119780100000,0.834971,0.647507714681539,9.71623359212692,0.405122961914229,0.06719518,0.11911872,0.048563786,285.59198,-77.45129,11.505857,STD
8119785088000,0.839959,0.648836483653518,9.71369685124757,0.404398178895939,0.07147124,0.121256754,0.0571159,285.75607,-77.43882,11.530779,STD
8119790095000,0.844966,0.650170314095117,9.71115044756214,0.403670635076255,0.07941248,0.116675265,0.04917465,285.91998,-77.43307,11.548457,STD
8119795140000,0.850011,0.651514267475958,9.70858471826455,0.402937569653786,0.077579886,0.112704635,0.046731193,286.08136,-77.42451,11.56857,STD
8119800092000,0.854963,0.652833446294971,9.70606628585987,0.402218017627608,0.07819075,0.12217305,0.049785517,286.23883,-77.41911,11.586396,STD
8119805176000,0.860047,0.654187789008191,9.70348072238139,0.401479285297017,0.06780604,0.115453534,0.040927973,286.40115,-77.41741,11.599285,STD
8119810107000,0.864978,0.655501373571308,9.70097296992027,0.400762784682905,0.07544186,0.12034045,0.047647487,286.55557,-77.41411,11.615676,STD
8119815094000,0.869965,0.656829876150148,9.69843673760965,0.400038146969951,0.070554934,0.12217305,0.0421497,286.71204,-77.41505,11.625133,STD
8119820093000,0.874964,0.658161575446644,9.69589440247415,0.399311765592959,0.06658431,0.12614368,0.051923547,286.86456,-77.41228,11.639508,STD
8119825100000,0.879971,0.659495405888244,9.69334799878872,0.398584221773275,0.056199603,0.118507855,0.048563786,287.0191,-77.41432,11.647711,STD
8119830095000,0.884966,0.660826039612188,9.69080769792818,0.39785842161763,0.062002823,0.124311075,0.055283304,287.1668,-77.41354,11.660027,STD
8119835088000,0.889959,0.662156140549856,9.68826841420512,0.397132912072657,0.07971791,0.12156218,0.050701816,287.31827,-77.41793,11.667475,STD
8119840753000,0.895624,0.663665257676211,9.68538737228821,0.396309757341579,0.080634214,0.12461651,0.05009095,287.46484,-77.41939,11.676614,STD
8119845141000,0.900012,0.664834190765434,9.68315577265336,0.395672157525168,0.098043874,0.1142318,0.059253927,287.61472,-77.424034,11.686589,WAL
8119850099000,0.90497,0.666154967943275,9.68063428883623,0.394951733666971,0.09560041,0.108123146,0.061086524,287.7614,-77.429695,11.693141,WAL
8119855085000,0.909956,0.667483204128977,9.67809856509436,0.394227241259353,0.10873401,0.09315695,0.053450707,287.91248,-77.43977,11.698992,WAL
8119860122000,0.914993,0.668825026364715,9.67553690434671,0.393495338279576,0.13133603,0.08552113,0.05681047,288.06168,-77.448006,11.707409,WAL
8119864999000,0.91987,0.670124225698383,9.67305661459758,0.392786684153633,0.15363261,0.07513642,0.057421334,288.215,-77.46107,11.712277,WAL
8119870085000,0.924956,0.702263094184571,9.67336720881883,0.37997366382847,0.15790866,0.065973446,0.056505036,288.3689,-77.47477,11.716791,WAL
8119875102000,0.929973,0.740913744830619,9.67432746773259,0.364609430213451,0.17654006,0.05681047,0.040317107,288.52496,-77.49668,11.716311,WAL
8119880103000,0.934974,0.779441132488758,9.67528466423004,0.349294195549565,0.18936823,0.050701816,0.035430185,288.73218,-77.476456,11.752452,WAL
8119885121000,0.939992,0.81809948707155,9.67624511454482,0.3339268995001,0.1966986,0.045814894,0.028710667,288.94012,-77.46421,11.781589,WAL
8119890127000,0.944998,0.856665394413411,9.67720326804737,0.318596352663985,0.21013765,0.034513887,0.020463986,289.15,-77.45721,11.80721,WAL
8119895245000,0.950116,0.896094142670631,9.67818285846408,0.302922813169931,0.2144137,0.029626964,0.019242255,289.35745,-77.45148,11.831065,WAL
8119900119000,0.95499,0.933643130362246,9.67911574703208,0.287996507680674,0.22266038,0.03604105,0.013439035,289.56332,-77.45227,11.849507,WAL
8119905193000,0.960064,0.972732905402718,9.68008691580394,0.272457715302238,0.22937989,0.05009095,0.007330383,289.76657,-77.45505,11.865774,WAL
8119910333000,0.965204,1.01233114026831,9.68107071704307,0.256716802250375,0.23854288,0.052534413,-0.003970624,289.96973,-77.46298,11.877426,WAL
8119915102000,0.969973,1.04907121460178,9.68198350850405,0.242112052377935,0.24953845,0.052839845,-0.01038471,290.16772,-77.473045,11.887047,WAL
8119920132000,0.975003,1.0878220164255,9.68294625563106,0.226708007115119,0.25534168,0.054061573,-0.015882496,290.36325,-77.48716,11.892327,WAL
8119925101000,0.979972,1.12610287810782,9.68389732729589,0.211490770353503,0.269697,0.06383542,-0.013744468,290.55453,-77.50339,11.896591,WAL
8119930171000,0.985042,1.16516183740132,9.68486773046368,0.195964227712851,0.28099802,0.08124508,-0.017715093,290.74185,-77.52362,11.896264,WAL
8119935097000,0.989968,1.20311142980364,9.68581057188468,0.180878675632407,0.29657507,0.106901415,-0.018020526,290.92224,-77.5444,11.896174,WAL
8119940106000,0.994977,1.24170044895573,9.68676929959029,0.165538941492955,0.3042109,0.11362094,-0.026572637,291.10184,-77.5692,11.8916445,WAL
8119945107000,0.999978,1.28022783661387,9.68772649608774,0.15022370682907,0.29993483,0.11484267,-0.027183503,291.27405,-77.59252,11.888009,WAL
8119950158000,1.005029,1.31914042110922,9.68869326263615,0.13475535044289,0.301462,0.11881329,-0.016798794,291.44214,-77.6164,11.884134,WAL
8119955076000,1.009947,1.35702838201759,9.68963457284901,0.119694297838013,0.30695978,0.13072516,-0.01863139,291.60645,-77.643936,11.875683,WAL
8119960120000,1.014991,1.39588703895573,9.69059999959029,0.104247378492955,0.29810223,0.12644911,-0.024129177,291.77295,-77.668816,11.86858,WAL
8119965080000,1.019951,1.43409856520735,9.69154934864595,0.089057703641351,0.30665436,0.113926366,-0.025045475,291.93707,-77.69484,11.861475,WAL
8119970103000,1.024974,1.47279543947387,9.69251075596582,0.0736750954196562,0.31123585,0.10598512,-0.025961773,292.09998,-77.721504,11.852141,WAL
8119975068000,1.029939,1.51104548540921,9.69346106202658,0.0584701083958229,0.29779682,0.106595986,-0.016187929,292.2626,-77.744865,11.8450365,WAL
8119980112000,1.034983,1.54990414234736,9.69442648876786,0.0430231890507645,0.2724459,0.122783914,-0.0106901415,292.4218,-77.76925,11.835699,WAL
8119985077000,1.039948,1.5881541882827,9.69537679482862,0.0278182020269312,0.25167647,0.15851954,0.0021380284,292.57358,-77.78849,11.830271,WAL
8119990105000,1.044976,1.62688958223294,9.69633915915359,0.0124202816330069,0.21868975,0.23548855,0.008857546,292.70734,-77.805565,11.82317,WAL
8119995216000,1.050087,1.66626440293295,9.69731740976317,-0.00323182081992607,0.17959438,0.3304781,0.017104227,292.82394,-77.81722,11.818745,WAL
8120000175000,1.055046,1.70446822524783,9.69826656741781,-0.0184184332370841,0.13652839,0.4007276,0.01282817,292.92438,-77.82838,11.81138,WAL
8120005130000,1.060001,1.74264123181573,9.69921495946837,-0.0335927959164585,0.096516706,0.4541783,0.006414085,293.0011,-77.83576,11.804236,WAL
8120010142000,1.065013,1.78125336277806,9.70017426137704,-0.0489417173592485,0.06688975,0.49205196,-0.0018325958,293.06137,-77.84291,11.794351,WAL
8120015095000,1.069966,1.81941096147247,9.70112227062556,-0.0641099551697312,0.048258353,0.5137377,0.0015271631,293.11023,-77.846794,11.785404,WAL
8120020121000,1.074992,1.85813094754922,9.7020842521485,-0.0795017506947637,0.05681047,0.5271767,-0.0030543262,293.15033,-77.85508,11.771551,WAL
8120025936000,1.080807,1.9029293397172,9.70319724907565,-0.0973098069976017,0.058337633,0.5348125,0.009773844,293.18518,-77.85588,11.76356,WAL
8120030109000,1.08498,1.93507786775107,9.70399596552913,-0.110089345940292,0.079107046,0.5491679,0.013744468,293.2141,-77.86235,11.751658,WAL
8120035084000,1.089955,1.97340495305386,9.70494818560008,-0.125324957308584,0.09285152,0.5858198,0.025961773,293.2337,-77.86272,11.745412,WAL
8120040100000,1.094971,2.01204789976317,9.70590825311282,-0.140686128489158,0.09437868,0.61422503,0.029626964,293.25137,-77.86503,11.737855,WAL
8120045136000,1.100007,2.05084492520735,9.70687214864595,-0.156108548358649,0.10720685,0.6588182,0.032986723,293.25333,-77.86595,11.732903,WAL
8120050122000,1.104993,2.08925675381433,9.70782647412811,-0.171377846505846,0.118202426,0.7162395,0.026572637,293.24335,-77.868645,11.725569,WAL
8120055083000,1.109954,2.1274759840027,9.70877601458479,-0.186570583791896,0.12095132,0.7690793,0.024740042,293.22168,-77.8695,11.719929,WAL
8120060106000,1.114977,2.16617285826921,9.70973742190467,-0.20195319201359,0.10873401,0.79198676,0.00580322,293.19272,-77.87643,11.707308,WAL
8120064994000,1.119865,2.20382970107525,9.71067299008694,-0.21692237158509,0.115453534,0.84635377,-0.005497787,293.13953,-77.88308,11.695306,WAL
8120070088000,1.124959,2.13202970057803,9.70324294219653,-0.227905859075144,0.10293079,0.906524,-0.014049901,293.0788,-77.89146,11.678651,WAL
8120075111000,1.129982,2.03135294165836,9.69365498933626,-0.237494127312139,0.0983493,0.97127575,-0.031154128,293.00195,-77.905785,11.656012,WAL
8120080100000,1.134971,1.94628085256205,9.67647020896717,-0.2623079044996,0.113926366,1.022283,-0.044593163,292.96368,-77.80147,11.758031,WAL
8120085084000,1.139955,1.86507352582066,9.6573622153723,-0.290969316285028,0.113926366,1.0549643,-0.051923547,292.91135,-77.7016,11.852952,WAL
8120090095000,1.144966,1.8027080922525,9.64364637029128,-0.30013927526608,0.112399206,1.0659598,-0.059864793,292.91428,-77.587845,11.957309,WAL
8120096176000,1.151047,1.73306498135304,9.62872306543094,-0.305113779477236,0.12339478,1.0711522,-0.0580322,292.90778,-77.47776,12.058466,WAL
8120100126000,1.154997,1.69058080420996,9.60102342892341,-0.296990786626674,0.14935656,1.0613784,-0.0571159,292.96448,-77.35215,12.172414,WAL
8120105142000,1.160013,1.63912148020354,9.54956415865024,-0.276407067770755,0.16035213,1.0525209,-0.044593163,293.01657,-77.226616,12.2860985,WAL
8120110089000,1.16496,1.60742507561455,9.52339527236972,-0.262622979149459,0.17073683,1.0302242,-0.039095376,293.13437,-77.08439,12.412934,WAL
8120115100000,1.169971,1.58855021040315,9.51395764267453,-0.253185531762045,0.1826487,1.0036516,-0.027183503,293.25177,-76.94288,12.540693,WAL
8120120072000,1.174943,1.5647709781506,9.4995009902458,-0.256698025563792,0.21135938,0.9621128,-0.028099801,293.42395,-76.774605,12.693227,WAL
8120125096000,1.179967,1.53661222262973,9.48072861724541,-0.270777393523215,0.226631,0.9294315,-0.011301007,293.5957,-76.60423,12.848743,WAL
8120130096000,1.184967,1.50819869734389,9.47629993525108,-0.275308482890649,0.24495697,0.9074403,-0.014966198,293.81683,-76.416725,13.019653,WAL
8120135089000,1.18996,1.47944238037486,9.48588557442117,-0.27051576339581,0.25778514,0.88117313,-0.021380283,294.04214,-76.23336,13.188508,WAL
8120140093000,1.194964,1.45083936425397,9.50983191389355,-0.282562620697146,0.27275133,0.8588765,-0.018936822,294.2705,-76.0614,13.349122,WAL
8120145130000,1.200001,1.42225927604424,9.54793843290214,-0.311142679063889,0.2837469,0.8341365,-0.03023783,294.50177,-75.902306,13.498338,WAL
8120150087000,1.204958,1.40550070586073,9.58096881265521,-0.353088984017086,0.28130344,0.81489426,-0.036651913,294.83185,-75.686165,13.693757,WAL
8120155087000,1.209958,1.40074417462005,9.60950809943379,-0.410167388705672,0.29046643,0.81031275,-0.049480084,295.15613,-75.48546,13.876302,WAL
8120160087000,1.214958,1.39600630460993,9.62248353546099,-0.467022144326241,0.2950479,0.795652,-0.054367006,295.5316,-75.2633,14.07856,WAL
8120165368000,1.220239,1.39102457168046,9.6175016464736,-0.526803615730891,0.2959642,0.79320854,-0.07849618,295.89554,-75.05981,14.262865,WAL
8120170049000,1.22492,1.38061044508333,9.60708748698957,-0.573514548562518,0.29229903,0.7834347,-0.087964594,296.26627,-74.86862,14.439033,WAL
8120175091000,1.229962,1.36178724048338,9.58826438066465,-0.615866758912387,0.2947425,0.78038037,-0.102319926,296.6274,-74.69441,14.599127,WAL
8120180071000,1.234942,1.3621983422179,9.58528451750973,-0.650123535214008,0.30970868,0.7648033,-0.118507855,296.98508,-74.54691,14.73779,WAL
8120185088000,1.239959,1.39335714719288,9.60754077357791,-0.67237983776172,0.30176744,0.75686204,-0.13072516,297.3337,-74.40765,14.866878,WAL
8120190056000,1.244927,1.42625288819196,9.63135507303726,-0.687308750052621,0.30909783,0.73975784,-0.1414153,297.681,-74.29655,14.973601,WAL
8120195128000,1.249999,1.46714825017891,9.66202674131762,-0.677084896211324,0.31795537,0.72082096,-0.14446963,298.02408,-74.19205,15.073875,WAL
8120199990000,1.254861,1.49543016943705,9.69301477077788,-0.663858832996155,0.31123585,0.7058548,-0.14752395,298.34875,-74.107254,15.157361,WAL
8120205124000,1.259995,1.50027758057774,9.72937035433304,-0.642045467678202,0.30634892,0.68325275,-0.15851954,298.6753,-74.031265,15.233827,WAL
8120210070000,1.264941,1.50494748620724,9.76439464655427,-0.621030877716652,0.29443705,0.6560693,-0.1459968,298.9841,-73.95722,15.309786,WAL
8120215115000,1.269986,1.50971086548358,9.80011999112688,-0.599595656051464,0.29260445,0.6441574,-0.13683382,299.28995,-73.89179,15.377871,WAL
8120220073000,1.274944,1.51062050983526,9.83083375406925,-0.591729905242182,0.28802297,0.63163465,-0.12950343,299.5855,-73.837326,15.436188,WAL
8120225090000,1.279961,1.50114101775673,9.84979263924238,-0.620168361680971,0.28160888,0.6206391,-0.118507855,299.87872,-73.78286,15.494839,WAL
8120230074000,1.284945,1.496276161668,9.8652582047915,-0.654265001152767,0.2724459,0.6096435,-0.10445796,300.15845,-73.73268,15.548823,WAL
8120235401000,1.290272,1.50650383079391,9.87037214615076,-0.710517234743384,0.25961772,0.6072,-0.095294975,300.43408,-73.68369,15.60116,WAL
8120240091000,1.294962,1.51602429283936,9.86964353433885,-0.754502011729389,0.25686884,0.61636305,-0.086437434,300.70306,-73.64849,15.641359,WAL
8120245183000,1.300054,1.52792578340411,9.85298138292576,-0.785445847430078,0.26145032,0.61391956,-0.07727446,300.97144,-73.61338,15.681676,WAL
8120250171000,1.305042,1.53958419560697,9.83665954253917,-0.815757680202079,0.2602286,0.6133087,-0.07880162,301.2385,-73.5835,15.718179,WAL
8120255083000,1.309954,1.5510649736223,9.82058639097965,-0.845607664680041,0.25686884,0.61758476,-0.0711658,301.4999,-73.55169,15.7570505,WAL
8120260075000,1.314946,1.56384436696177,9.80311891629779,-0.868664533038229,0.258396,0.6243043,-0.061391957,301.73724,-73.53655,15.7820015,WAL
8120265094000,1.319965,1.58318680527163,9.77894086841046,-0.84932209472837,0.26206118,0.6301075,-0.058643065,301.96985,-73.52318,15.804984,WAL
8120270089000,1.32496,1.6031500291778,9.75417798901751,-0.829358868426833,0.27397305,0.63499445,-0.053450707,302.19528,-73.51196,15.829842,WAL
8120275080000,1.329951,1.62679592251905,9.72580281824478,-0.805712960271099,0.2678644,0.623388,-0.05681047,302.42047,-73.50292,15.851335,WAL
8120280074000,1.334945,1.64592704712846,9.692319443303,-0.780163553822522,0.2773328,0.623388,-0.06688975,302.6324,-73.49325,15.874091,WAL
8120285075000,1.339946,1.63655544419333,9.62671832061442,-0.742677107831915,0.30268374,0.62949663,-0.061086524,302.84225,-73.482544,15.898638,WAL
8120290172000,1.345043,1.62873452928257,9.56452028640654,-0.70936112751416,0.30298916,0.61911196,-0.07086037,303.04828,-73.47324,15.919403,WAL
8120295136000,1.350007,1.63471808614852,9.5405860901825,-0.715344668760227,0.3136793,0.61758476,-0.07849618,303.24655,-73.466,15.940295,WAL
8120300289000,1.35516,1.64092946175897,9.51574062016992,-0.721556028156073,0.31703907,0.6102544,-0.0888809,303.4192,-73.48149,15.937424,WAL
8120305126000,1.359997,1.64675993407174,9.49241876135935,-0.727386485248584,0.33414328,0.59986967,-0.0983493,303.59082,-73.50115,15.931928,WAL
8120310061000,1.364932,1.6527085346224,9.46862439021397,-0.733335070270611,0.34238997,0.5852089,-0.102319926,303.7544,-73.52914,15.918602,WAL
8120315088000,1.369959,1.65876803106986,9.44438643606042,-0.739394550899937,0.3585779,0.57635134,-0.113926366,303.9175,-73.563614,15.90014,WAL
8120320041000,1.374912,1.6647383286438,9.42050527693518,-0.745364832888609,0.36651915,0.55680364,-0.12217305,304.086,-73.59814,15.881709,WAL
8120325100000,1.379971,1.68964159775236,9.43011611968956,-0.752362575401905,0.37690386,0.535118,-0.12767084,304.2558,-73.63618,15.860739,WAL
8120330083000,1.384954,1.7209058231971,9.45176076697072,-0.759577415975407,0.36987892,0.5158757,-0.13775012,304.4288,-73.67683,15.83624,WAL
8120335086000,1.389957,1.75229553218767,9.47349228821247,-0.766821214367787,0.38148534,0.5128214,-0.14874569,304.5883,-73.725174,15.8070345,WAL
8120340103000,1.394974,1.78377307966033,9.49528462122663,-0.774085283233382,0.37384954,0.50762904,-0.15302174,304.75214,-73.77209,15.777258,WAL
8120345141000,1.400012,1.8174062577305,9.52341823014184,-0.805582677446808,0.37018433,0.50671273,-0.16310102,304.90622,-73.83183,15.735376,WAL
8120350975000,1.405846,1.85703111673759,9.5580896714539,-0.850160643829787,0.36896262,0.50518554,-0.16615535,305.06012,-73.889465,15.694787,WAL
8120355084000,1.409955,1.88935270299112,9.58181363583416,-0.893510393040474,0.35155296,0.5174029,-0.17256944,305.20065,-73.94632,15.653893,WAL
8120360103000,1.414974,1.93205696110563,9.61028320730503,-0.9551942994077,0.35613444,0.54519725,-0.17928895,305.33536,-74.00432,15.612287,WAL
8120365079000,1.41995,1.97210692033195,9.64543406224066,-0.997935050207469,0.35338554,0.55771995,-0.19425514,305.4724,-74.062225,15.569924,WAL
8120370073000,1.424944,2.00990699083185,9.6879590428769,-1.02156009426991,0.3549127,0.5702427,-0.19028452,305.59943,-74.11599,15.531264,WAL
8120375091000,1.429962,2.04121636448415,9.70650879120448,-1.04304181442034,0.34269542,0.5919284,-0.19761491,305.71625,-74.18303,15.479062,WAL
8120380081000,1.434952,2.06467186266811,9.69712688583489,-1.06180626195151,0.35216382,0.60048056,-0.20677789,305.8316,-74.24914,15.428533,WAL
8120385041000,1.439912,2.09405422447886,9.69570067133214,-1.06267288988485,0.3491095,0.6203337,-0.2012801,305.93103,-74.31042,15.381722,WAL
8120390084000,1.444955,2.13240715556879,9.70528857871749,-1.03870232046853,0.34238997,0.6365216,-0.204029,306.02795,-74.37504,15.331109,WAL
8120395131000,1.450002,2.17062066030249,9.70890207611471,-1.02669818253781,0.3408628,0.64934975,-0.19364429,306.10706,-74.43733,15.283783,WAL
8120400145000,1.455016,2.20834847424867,9.70418600088391,-1.03141415928108,0.33414328,0.6575964,-0.18600847,306.1818,-74.49845,15.236137,WAL
8120404985000,1.459856,2.22813710042129,9.69804620250862,-1.02940675063194,0.33108896,0.66828656,-0.17989981,306.24127,-74.54977,15.197584,WAL
8120410092000,1.464963,2.21877120275756,9.68868059823822,-1.01535790413635,0.32467487,0.6795876,-0.17745635,306.2973,-74.597786,15.161117,WAL
8120414992000,1.469863,2.21031428180498,9.67893846967496,-0.993353275369359,0.31856623,0.6908886,-0.17195857,306.34253,-74.63689,15.133419,WAL
8120420691000,1.475562,2.20211402389943,9.66527137316572,-0.941418268675314,0.31337386,0.6930266,-0.16523905,306.38647,-74.67331,15.107575,WAL
8120425082000,1.479953,2.1957958395753,9.65474106595883,-0.901403070501327,0.30879238,0.6914995,-0.16157386,306.421,-74.71289,15.077731,WAL
8120430085000,1.484956,2.18859705201583,9.64274308669304,-0.855810714212451,0.28893927,0.68539083,-0.14966199,306.45557,-74.74594,15.053111,WAL
8120435087000,1.489958,2.17646324472299,9.63074354875909,-0.817731402175984,0.27947086,0.6826419,-0.15241088,306.48923,-74.78112,15.02617,WAL
8120440066000,1.494937,2.15255605635498,9.61878970493858,-0.797808761845074,0.258396,0.6805039,-0.15851954,306.52393,-74.81143,15.002441,WAL
8120445177000,1.500048,2.12801505620456,9.60651894860867,-0.777357945470043,0.23335053,0.66981375,-0.15821409,306.55182,-74.835976,14.981852,WAL
8120450154000,1.505025,2.12150796369301,9.57373463049122,-0.793894326251947,0.21991149,0.67103547,-0.15760323,306.57654,-74.86091,14.960207,WAL
8120455449000,1.51032,2.1166856131197,9.53638786880302,-0.815929480282752,0.20952678,0.6609562,-0.16676621,306.60748,-74.88684,14.936774,WAL
8120460104000,1.514975,2.12088731000943,9.49437089990575,-0.853744796163996,0.20097467,0.6609562,-0.16890424,306.6194,-74.9244,14.901559,WAL
8120465000000,1.519871,2.12530653836004,9.45017861639962,-0.893517897464656,0.19058995,0.64751714,-0.1685988,306.63147,-74.96881,14.860154,WAL
8120470087000,1.524958,2.10271861787348,9.39217820741235,-0.962439919287348,0.16920967,0.64843345,-0.18203785,306.6395,-75.015305,14.81558,WAL
8120475123000,1.529994,2.07514872496189,9.33244359937119,-1.03595944499619,0.14049901,0.6417139,-0.19456059,306.6537,-75.05921,14.773041,WAL
8120480086000,1.534957,2.04523744611399,9.27152762645725,-1.15464414812176,0.13897185,0.6395759,-0.19700404,306.66116,-75.10277,14.733096,WAL
8120484987000,1.539858,2.0148385492228,9.21072935654145,-1.28637280712435,0.1386664,0.6432411,-0.20463985,306.66913,-75.14865,14.689571,WAL
8120490168000,1.545039,1.90098023805683,9.16003806507126,-1.44406608651967,0.13164146,0.63591075,-0.21624629,306.68594,-75.206055,14.635731,WAL
8120495192000,1.550063,1.78023195317738,9.1126011841893,-1.59931381060321,0.12889257,0.6224717,-0.25350907,306.70386,-75.271164,14.574194,WAL
8120500153000,1.555024,1.6909724539403,9.11096751014925,-1.67321389,0.13927728,0.6206391,-0.26419923,306.72852,-75.34218,14.509799,WAL
8120505084000,1.559955,1.61579118967164,9.1297627158209,-1.71080454666667,0.14752395,0.59406644,-0.28038713,306.76486,-75.422554,14.435907,WAL
8120510091000,1.564962,1.54024425499951,9.17649650416218,-1.73001340158652,0.160963,0.57848936,-0.32162055,306.81406,-75.54455,14.324924,WAL
8120515123000,1.569994,1.46473276495936,9.23784984546078,-1.73945233168152,0.18967366,0.5525276,-0.33292156,306.87372,-75.6597,14.22144,WAL
8120520084000,1.574955,1.44860500565168,9.30004520763796,-1.72787379293539,0.19303341,0.516792,-0.36713,306.95255,-75.80104,14.091541,WAL
8120525105000,1.579976,1.46829789509573,9.36404740677792,-1.70325768113034,0.21227567,0.4841107,-0.39920044,307.0377,-75.94211,13.962838,WAL
8120530138000,1.585009,1.50904903557099,9.45993450540123,-1.6857618537037,0.22174409,0.43676865,-0.44532076,307.14093,-76.11306,13.803806,WAL
8120535123000,1.589994,1.55969953002508,9.57044447405478,-1.67194809560185,0.22785273,0.38973203,-0.45937067,307.25305,-76.2791,13.64947,WAL
8120540081000,1.594952,1.6311288774221,9.69604383962565,-1.65437478137828,0.22052236,0.35369098,-0.4700608,307.37183,-76.450066,13.489096,WAL
8120545221000,1.600092,1.72012401705839,9.8373891932362,-1.63343470672126,0.23640485,0.33108896,-0.48899764,307.4998,-76.62262,13.327098,WAL
8120550193000,1.605064,1.81851768845901,10.0707461339093,-1.60835132090337,0.2434298,0.28221974,-0.5012149,307.63632,-76.79132,13.167852,WAL
8120555092000,1.609963,1.91984983921495,10.3350910950324,-1.58191687079538,0.23884831,0.24373524,-0.5369505,307.77573,-76.96669,13.000994,WAL
8120560557000,1.615428,2.01480461089436,10.5995370696088,-1.61184364718047,0.24709499,0.19639318,-0.56382865,307.9251,-77.13029,12.845209,WAL
8120565082000,1.619953,2.08409639268735,10.8027925834133,-1.66727704367338,0.23854288,0.18784106,-0.55863625,308.07315,-77.28925,12.692596,WAL
8120570072000,1.624943,2.16675188765248,10.9395057244868,-1.73539660776555,0.23426682,0.172264,-0.5662721,308.22726,-77.45546,12.5317,WAL
8120575103000,1.629974,2.25276357607855,11.0398522951503,-1.80707306468313,0.2443461,0.17379116,-0.5751296,308.37735,-77.61538,12.376183,WAL
8120580091000,1.634962,2.31822175555556,11.1356908129745,-1.88758266556246,0.23487769,0.18692477,-0.6059783,308.51913,-77.785065,12.210127,WAL
8120585103000,1.639974,2.37500851111111,11.2303352408558,-1.97276270006901,0.22204952,0.21135938,-0.6206391,308.6556,-77.94715,12.050652,WAL
8120590065000,1.644936,2.45727885870324,11.3100165908666,-2.0492450141572,0.20433442,0.24678956,-0.6160576,308.78113,-78.10555,11.893868,WAL
8120595213000,1.650084,2.55664259744384,11.385145555916,-2.12437370084058,0.19364429,0.3005457,-0.6068946,308.89273,-78.26106,11.738931,WAL
8120600142000,1.655013,2.6517793239886,11.4570784752495,-2.1963063536499,0.1826487,0.355829,-0.61086524,308.98828,-101.587036,11.586601,WAL
8120605141000,1.660012,2.74826715032198,11.5300329617067,-2.26926056979796,0.16768251,0.42821655,-0.59864795,309.062,-101.4479,11.446115,WAL
8120610087000,1.664958,2.83792253293455,11.6244642589726,-2.29275888810697,0.16035213,0.505491,-0.55955255,309.11188,-101.32014,11.316138,WAL
8120615111000,1.669982,2.92498900346838,11.7357155291043,-2.28308489755705,0.16462818,0.58093286,-0.5183192,309.14078,-101.201706,11.194853,WAL
8120620079000,1.67495,2.98105436471204,11.774016904712,-2.25200366910995,0.15332718,0.657291,-0.45845437,309.13724,-101.118614,11.1078,WAL
8120625124000,1.679995,3.01784823886721,11.7648187243218,-2.20601132641599,0.16737708,0.7458665,-0.4361578,309.10812,-101.04114,11.025424,WAL
8120630100000,1.684971,3.02521246514346,11.7815894697131,-2.16224153028693,0.16829337,0.8417723,-0.4175264,309.0429,-100.98001,10.959637,WAL
8120635117000,1.689988,3.00393775490613,11.8241388901877,-2.11969210981226,0.15088372,0.95233893,-0.3866777,308.94852,-100.93183,10.90688,WAL
8120640079000,1.69495,2.97010593539902,11.8369536807847,-2.04309953522069,0.12308934,1.0555751,-0.34666604,308.82376,-100.90018,10.871519,WAL
8120645207000,1.700078,2.89347445684351,11.7548485251895,-1.85152061020954,0.11178834,1.0977248,-0.3210097,308.6863,-100.875435,10.843252,WAL
8120650071000,1.704942,2.79206206771592,11.6712174502089,-1.66599870239969,0.09101892,1.1746938,-0.31490102,308.51334,-100.855255,10.821654,WAL
8120655108000,1.709979,2.65146624856699,11.5774870672302,-1.46916480027203,0.07727446,1.2241739,-0.29626966,308.33835,-100.84729,10.812593,WAL
8120659995000,1.714866,2.52249728478803,11.5120816569576,-1.26744671279402,0.04734206,1.2583824,-0.2929099,308.1265,-100.81636,10.783272,WAL
8120665106000,1.719977,2.40043487880299,11.4876691757606,-1.0379692162015,0.002443461,1.2812898,-0.2779437,307.90637,-100.795364,10.764733,WAL
8120669991000,1.724862,2.29879635757576,11.4863644090909,-0.840147160151515,-0.04642576,1.2742649,-0.26450464,307.68018,-100.7626,10.736614,WAL
8120675133000,1.730004,2.2185176468738,11.5241424286536,-0.670145056342539,-0.09621128,1.2366967,-0.2443461,307.4591,-100.7376,10.716669,WAL
8120680001000,1.734872,2.11309243873729,11.5361379686839,-0.537916445201893,-0.1432479,1.1936307,-0.20677789,307.22095,-100.70607,10.691211,WAL
8120685070000,1.739941,1.92734036036653,11.4872558830933,-0.474369682891954,-0.19914207,1.1313224,-0.15943582,307.00204,-100.68545,10.676144,WAL
8120690114000,1.744985,1.76280064644514,11.4513518109877,-0.432210933808419,-0.25625798,1.0848967,-0.14355333,306.77512,-100.65356,10.649265,WAL
8120695161000,1.750032,1.64264612190918,11.4433417686443,-0.43621608044415,-0.32742378,1.0390818,-0.086132,306.5683,-100.650154,10.649163,WAL
8120700064000,1.754935,1.52591982236493,11.4355602672357,-0.440106953032814,-0.39828414,1.0180069,-0.03390302,306.3687,-79.37783,10.622131,WAL
8120705079000,1.75995,1.42348711112334,11.321467662009,-0.549054811387391,-0.46944994,1.0097603,0.016798794,306.17996,-79.38504,10.612695,WAL
8120710094000,1.764965,1.32202955563436,11.1960984495666,-0.671089671926714,-0.52870387,1.0103711,0.074830994,305.99548,-79.37034,10.621351,WAL
8120715070000,1.769941,1.20937187651694,11.0881346402679,-0.797829524172577,-0.59406644,1.02717,0.116675265,305.80817,-79.36721,10.613907,WAL
8120720241000,1.775112,1.08114320780464,10.9755648353726,-0.922738382362347,-0.66737026,1.0613784,0.17592919,305.6284,-79.34763,10.618671,WAL
8120725096000,1.779967,0.835477869186967,10.865662180571,-0.963682609478124,-0.7339546,1.0934488,0.23762658,305.44437,-79.30935,10.636771,WAL
8120735079000,1.78995,0.330333260449527,10.6396769688543,-1.04787338585234,-0.86467975,1.171945,0.34238997,305.07312,-79.19785,10.692254,WAL
8120740075000,1.794946,0.0775332539131906,10.5265824964776,-1.09000672440443,-0.9257663,1.1917981,0.39950588,304.88156,-79.15246,10.702114,WAL
8120746027000,1.800898,-0.339642654582657,10.4042812057048,-1.09673781028524,-0.94897914,1.2247849,0.43554693,304.67377,-79.09313,10.720497,WAL
8120750000000,1.804871,-0.640673012766188,10.3250627455757,-1.09277688727878,-1.0115929,1.2464706,0.48747048,304.46262,-79.003914,10.759613,WAL
8120755076000,1.809947,-0.960014776345101,10.1984192229564,-1.00018240641873,-1.0784826,1.2843442,0.5308419,304.2455,-78.933846,10.773645,WAL
8120760054000,1.814925,-1.25701694506324,10.0679177624127,-0.887681579950916,-1.1554517,1.3069462,0.5714644,304.0258,-78.84079,10.801811,WAL
8120765093000,1.819964,-1.59964920303461,9.87858738549075,-0.704006547083926,-1.2315043,1.3100005,0.6010914,303.8134,-78.7754,10.791672,WAL
8120770099000,1.82497,-1.95881263658606,9.6649080913229,-0.490327053530583,-1.2815952,1.2947289,0.6282749,303.59872,-78.68967,10.793337,WAL
8120775072000,1.829943,-2.11236817657339,9.60142453745705,-0.426843494573392,-1.3350459,1.2825116,0.66523224,303.38116,-78.61145,10.769305,WAL
8120780626000,1.835497,-2.12281285938144,9.64842550103093,-0.473844605381443,-1.3710871,1.2760975,0.6985244,303.16498,-78.516716,10.753565,WAL
8120785093000,1.839964,-2.09202745268367,9.71903716977541,-0.540453436848116,-1.3869696,1.2825116,0.7266242,302.9384,-78.42729,10.711791,WAL
8120790137000,1.845008,-2.02950804231443,9.8220104201751,-0.636071298728588,-1.398576,1.2922854,0.75808376,302.71048,-78.31694,10.682076,WAL
8120795696000,1.850567,-1.95554628566746,9.93702463081049,-0.739845399374255,-1.4162911,1.3066407,0.78984874,302.48276,-78.195015,10.6588955,WAL
8120800225000,1.855096,-1.79184070439015,10.0619576446166,-0.791541901092571,-1.4117095,1.294118,0.8213083,302.25818,-78.06092,10.646178,WAL
8120804992000,1.859863,-1.61953235686333,10.1934559172626,-0.845955065961462,-1.4126259,1.2901474,0.86254174,302.03668,-77.91316,10.650529,WAL
8120810075000,1.864946,-1.432251448307,10.3678014988713,-0.836035766726862,-1.3997977,1.2852604,0.8918633,301.81793,-77.760506,10.661344,WAL
8120815154000,1.870025,-1.24467956427765,10.5462238261851,-0.817736060936795,-1.3701707,1.2904528,0.92179567,301.59573,-77.59837,10.68403,WAL
8120820101000,1.874972,-1.10340631912844,10.7097397099083,-0.783047151130275,-1.3399329,1.2959507,0.9645562,301.37534,-77.41701,10.735877,WAL
8120825059000,1.87993,-0.972722422660551,10.8709161023853,-0.743841989012844,-1.3151928,1.3057245,1.0033462,301.15134,-77.23405,10.793959,WAL
8120830088000,1.884959,-0.86870216271362,11.0231521128949,-0.662262703542206,-1.2932017,1.3100005,1.0384709,300.9209,-77.0311,10.880401,WAL
8120835087000,1.889958,-0.784407398938374,11.1669488268255,-0.553175379850854,-1.2635747,1.349096,1.0519099,300.67734,-76.83191,10.968132,WAL
8120840079000,1.89495,-0.686333840818859,11.3274252990074,-0.480503784888337,-1.2724323,1.3649784,1.0635164,300.45642,-76.59817,11.077583,WAL
8120845150000,1.900021,-0.579732254495133,11.4989154071388,-0.424885562149265,-1.2788464,1.4358387,1.073901,300.20782,-76.37038,11.184142,WAL
8120850610000,1.905481,-0.460342576496647,11.6546492688478,-0.392318234655558,-1.289842,1.557401,1.074512,299.9341,-76.1276,11.289119,WAL
8120855084000,1.909955,-0.360213265490754,11.7678389231863,-0.379257891322902,-1.328021,1.6056592,1.0714576,299.66083,-75.88155,11.392989,WAL
8120860088000,1.914959,-0.301628048596962,11.8408303842717,-0.356207569502532,-1.3390167,1.6902641,1.067487,299.34595,-75.62452,11.501322,WAL
8120865093000,1.919964,-0.277831055239797,11.8789053589514,-0.327651169522391,-1.3573426,1.774869,1.0693196,299.01727,-75.36313,11.605111,WAL
8120870082000,1.924953,-0.262474097652549,11.8631732267162,-0.284813885243878,-1.3738359,1.8716911,1.0665708,298.67188,-75.08965,11.714013,WAL
8120875091000,1.929962,-0.25284538100562,11.8102152675632,-0.231855991443196,-1.3704761,1.9593502,1.0714576,298.30487,-74.81839,11.818837,WAL
8120880117000,1.934988,-0.228996790110497,11.7347628895028,-0.182118060607735,-1.3765849,2.0506747,1.0754282,297.91315,-74.53884,11.92122,WAL
8120885087000,1.939958,-0.196126124088398,11.6455426616022,-0.135159959986188,-1.3726143,2.1242838,1.0858129,297.50183,-74.26304,12.02024,WAL
8120890098000,1.944969,-0.155908453653172,11.5263322879492,-0.0862657171065706,-1.3814718,2.1856759,1.0983357,297.0743,-73.96816,12.125982,WAL
8120895157000,1.950028,-0.109972105295345,11.3839296161942,-0.0357357358316109,-1.3814718,2.237294,1.1120802,296.62918,-73.677246,12.228257,WAL
8120900162000,1.955033,-0.0371463422935405,11.2354738417825,0.0137779157986509,-1.3701707,2.2708917,1.1362094,296.17322,-73.36749,12.338203,WAL
8120905200000,1.960071,0.066411199787408,11.0776717767784,0.0630910312469338,-1.3643675,2.3066273,1.1499538,295.70313,-73.060585,12.442329,WAL
8120910096000,1.964967,0.157822766429833,10.9179488370952,0.0814244734484789,-1.3637567,2.3044891,1.1615603,295.23373,-72.73159,12.565898,WAL
8120915095000,1.969966,0.242390010539745,10.7488143684985,0.0720281146270854,-1.3509285,2.3130412,1.1673635,294.75198,-72.40964,12.684545,WAL
8120920260000,1.975131,0.364086908963865,10.6061980792573,0.0502414330405271,-1.3353515,2.3240368,1.185384,294.26532,-72.06373,12.820809,WAL
8120925099000,1.97997,0.5121154064444,10.5044288567578,0.0178602004242364,-1.3182472,2.3512204,1.2269229,293.77087,-71.72049,12.958605,WAL
8120930057000,1.984928,0.622256888009199,10.3737717512749,-0.0109595589689031,-1.2953397,2.3695462,1.2733486,293.28073,-71.36168,13.116169,WAL
8120935087000,1.989958,0.684873351742826,10.210005040446,-0.0350428187389261,-1.284955,2.379931,1.2733486,292.7863,-71.01116,13.265189,WAL
8120940050000,1.994921,0.752869384137043,10.0556298985048,-0.0630254197698782,-1.2773192,2.4178047,1.2751812,292.28735,-70.63927,13.443656,WAL
8120945180000,2.000051,0.830705234914348,9.9048231884345,-0.0970786066438261,-1.2651019,2.4242187,1.2944235,291.79364,-70.27364,13.621607,WAL
8120950167000,2.005038,0.849638404366812,9.72310422925764,-0.1411428930131,-1.2663237,2.4223862,1.3066407,291.3012,-69.8955,13.804063,WAL
8120955085000,2.009956,0.802894952203255,9.50340980885272,-0.19723507465661,-1.2733486,2.4248295,1.3051136,290.8056,-69.52438,13.980234,WAL
8120960076000,2.014947,0.759593624131122,9.31924673183254,-0.241939184533965,-1.2599095,2.4318545,1.2770138,290.3183,-69.150276,14.160288,WAL
8120965113000,2.019984,0.721490618947472,9.18588608935624,-0.270516421015008,-1.25319,2.436436,1.2571607,289.8305,-68.778984,14.334895,WAL
8120969984000,2.024855,0.655998192490818,9.05063961851398,-0.301098987411244,-1.2351695,2.4355197,1.2302825,289.35138,-68.419754,14.496011,WAL
8120975093000,2.029964,0.540808659716546,8.89858973566249,-0.337959640593276,-1.2168436,2.4449883,1.1914927,288.87103,-68.0747,14.640714,WAL
8120979995000,2.034866,0.449435830258568,8.80047844879951,-0.351105039002668,-1.183246,2.4544566,1.1533136,288.4004,-67.74045,14.776064,WAL
8120985085000,2.039956,0.409422732341473,8.83548956412887,-0.301088680968603,-1.1487321,2.4394903,1.1371256,287.93616,-67.41939,14.9024935,WAL
8120990063000,2.044934,0.322208912847372,8.76877249677545,-0.196636163203049,-1.1157454,2.4333818,1.1297953,287.47522,-67.11577,15.008124,WAL
8120995189000,2.05006,0.130335900852062,8.48575959546609,0.0288146381629861,-1.0638218,2.4181101,1.0815369,287.02734,-66.8395,15.095748,WAL
8121000183000,2.055054,0.00137801029539399,8.27146589455653,0.238457749665017,-1.0201449,2.4028385,1.0250319,286.5896,-66.56626,15.174615,WAL
8121005118000,2.059989,0.00587568278730491,8.19950332817853,0.422862313849448,-0.96669424,2.3683245,0.97158116,286.16724,-66.3192,15.240587,WAL
8121010085000,2.064956,0.00520043911903561,8.0982723890346,0.614870983335015,-0.9117164,2.3237314,0.95569867,285.71313,-66.05842,15.2818165,WAL
8121015092000,2.069963,-0.018985514501261,7.86608734863311,0.837381750176536,-0.84696466,2.262034,0.9370673,285.28113,-65.82574,15.310201,WAL
8121020086000,2.074957,-0.0520688104986507,7.63105732534695,1.05367394448728,-0.79320854,2.1878138,0.88270026,284.8482,-65.58108,15.330512,WAL
8121025090000,2.079961,-0.121347446139746,7.38165436763685,1.24765417810332,-0.73945236,2.0967948,0.8228355,284.44205,-65.35869,15.349511,WAL
8121030053000,2.084924,-0.173316269190065,7.14731798000617,1.44099186130824,-0.6630942,1.9990565,0.7492262,284.024,-65.13004,15.35795,WAL
8121035083000,2.089954,-0.099000720687545,7.00859556706778,1.64412098503548,-0.6169739,1.9553796,0.698219,283.6224,-64.91669,15.358247,WAL
8121040086000,2.094957,-0.0391389825046094,6.86369425521591,1.82748336516254,-0.5879578,1.8423696,0.6753115,283.23135,-64.69146,15.358992,WAL
8121045137000,2.100008,-0.0438330574250364,6.68531920727802,1.92605893604076,-0.5021312,1.6951511,0.6197228,282.87308,-64.50691,15.3445015,WAL
8121050098000,2.104969,-0.0345273914408242,6.53763405205304,2.00970848177651,-0.4297437,1.5509869,0.548557,282.52557,-64.28897,15.332076,WAL
8121055090000,2.109961,0.0762306644917435,6.58947831093804,1.99792571803618,-0.3359759,1.4193454,0.45356745,282.22583,-64.112076,15.311454,WAL
8121060138000,2.115009,0.188231198615862,6.64190415606053,1.98601077585646,-0.25503623,1.3008375,0.3726278,281.93616,-63.944717,15.28442,WAL
8121065081000,2.119952,0.297902086130823,6.69323952698773,1.9743436682506,-0.16646078,1.1859949,0.3286455,281.6902,-63.812344,15.2555065,WAL
8121070184000,2.125055,0.40911554632221,6.74344993571044,1.96427884908504,-0.08307768,1.0687088,0.28588495,281.49353,-63.70859,15.212766,WAL
8121075075000,2.129946,0.493148857997847,6.76025662787944,1.97688383530678,0.0012217305,0.97219205,0.23151793,281.33096,-63.635998,15.16606,WAL
8121080085000,2.134956,0.579226733993541,6.77747223363832,1.98979550592034,0.112704635,0.88300574,0.18478674,281.23102,-63.57409,15.160977,WAL
8121085077000,2.139948,0.672184792812562,6.78430039403516,2.01158147489631,0.20799962,0.79473567,0.14538592,281.16336,-63.53704,15.153474,WAL
8121090075000,2.144946,0.766723364582263,6.78902727005728,2.03521610179735,0.30970868,0.70432764,0.12461651,281.12476,-63.532513,15.148273,WAL
8121095186000,2.150057,0.897105829867002,6.77753298097183,2.16823161639962,0.39522982,0.61727935,0.09682214,281.1153,-63.545246,15.151987,WAL
8121099996000,2.154867,1.02735403620274,6.76306102129019,2.31777592177191,0.49021935,0.54550266,0.08368854,281.12744,-63.584316,15.161489,WAL
8121105671000,2.160542,1.12044109811563,6.72772669146606,2.45159447227703,0.58032197,0.48441613,0.05222898,281.16693,-63.636585,15.168364,WAL
8121110062000,2.164933,1.18682113954223,6.69868539897395,2.551164382794,0.6411031,0.4370741,0.039095376,281.2217,-63.702076,15.181703,WAL
8121115092000,2.169963,1.25168349171538,6.68998938631324,2.671550569744,0.70554936,0.39584067,0.021991149,281.26468,-63.76887,15.198555,WAL
8121119989000,2.17486,1.31312968749244,6.68526280902036,2.78971638400524,0.7528914,0.36651915,0.009773844,281.31796,-63.845364,15.215765,WAL
8121125083000,2.179954,1.33388621289074,6.69689811289074,2.92068134861125,0.79504114,0.34147367,-0.0030543262,281.36554,-63.910534,15.236153,WAL
8121130001000,2.184872,1.34756047082164,6.71057237082164,3.04830789875157,0.81183994,0.34208453,-0.006414085,281.41385,-63.979362,15.254955,WAL
8121135080000,2.189951,1.3541558346771,6.78221028423679,3.16980598678082,0.8231409,0.33505958,-0.009162978,281.4514,-64.03512,15.280196,WAL
8121140153000,2.195024,1.35890956328767,6.86777734958904,3.2886493509589,0.8228355,0.3368922,-0.032070424,281.48822,-64.09436,15.296938,WAL
8121145139000,2.20001,1.38994875924815,6.99838229324135,3.43374397620476,0.82802784,0.36010507,-0.04734206,281.49945,-64.13636,15.313565,WAL
8121149993000,2.204864,1.42712995276945,7.13781201159768,3.58246879882024,0.8081747,0.39187005,-0.05009095,281.50845,-64.17299,15.325516,WAL
8121155076000,2.209947,1.51465631389846,7.32351130102632,3.67791102596365,0.7706065,0.40591997,-0.06261369,281.5053,-64.19936,15.327292,WAL
8121160123000,2.214994,1.61689871193983,7.52042255246004,3.75364615612661,0.7171558,0.43157628,-0.08155051,281.4911,-64.218185,15.321843,WAL
8121165063000,2.219934,1.72581748687903,7.74306177396292,3.81580680893168,0.6395759,0.47739118,-0.10293079,281.44644,-64.229935,15.27866,WAL
8121170104000,2.224975,1.86921847258015,8.07931222224726,3.8355862409915,0.548557,0.53786683,-0.10903945,281.39188,-64.22635,15.231583,WAL
8121175634000,2.230505,2.02215647526798,8.46848588871565,3.86397189670629,0.44348818,0.6178902,-0.115453534,281.32056,-64.20067,15.18043,WAL
8121180113000,2.234984,2.13919472681738,8.81542070892614,3.89741137220815,0.3277292,0.6921103,-0.10567969,281.2344,-64.15038,15.127783,WAL
8121184983000,2.239854,2.25098073086817,9.20819200160772,3.93649870996785,0.20158553,0.8002335,-0.09162979,281.12994,-64.095604,15.055857,WAL
8121190104000,2.244975,2.30354546315113,9.68653017620579,3.98906333247588,0.079107046,0.90469146,-0.054367006,281.0045,-64.01056,14.987405,WAL
8121195157000,2.250028,2.32847395921602,10.1026935861807,4.02721895886484,-0.02443461,0.9798279,0.0012217305,280.8739,-63.912193,14.923382,WAL
8121200100000,2.254971,2.30600887807517,10.4127101389522,4.04069782927107,-0.1151481,1.0555751,0.044593163,280.71436,-63.78673,14.856871,WAL
8121204983000,2.259854,2.26968390181526,10.6845592171297,4.06057541577575,-0.22510384,1.0821478,0.0888809,280.56168,-63.65628,14.789833,WAL
8121210107000,2.264978,2.18109831308796,10.8469665323438,4.10486828722295,-0.31490102,1.0916162,0.12064589,280.39252,-63.507305,14.726696,WAL
8121215066000,2.269937,2.08886202762822,10.9842203204874,4.15153875024086,-0.40958515,1.0803152,0.13103059,280.24008,-63.363094,14.650255,WAL
8121220098000,2.274969,1.97506558391423,11.0616015200718,4.21071296941532,-0.46670106,1.0506883,0.15027285,280.0882,-63.203465,14.587706,WAL
8121225113000,2.279984,1.87027890698109,11.1268940038438,4.28200457905672,-0.50243664,0.99265605,0.16126843,279.95435,-63.045624,14.515066,WAL
8121230124000,2.284995,1.82042502707251,11.1169235402036,4.43156621878246,-0.4972443,0.95081174,0.18997909,279.822,-62.882103,14.456002,WAL
8121235082000,2.289953,1.77275709196382,11.0826560848843,4.59333383110106,-0.46303585,0.85154617,0.20463985,279.71698,-62.735577,14.386924,WAL
8121240125000,2.294996,1.73075339320751,10.9524446669856,4.81175301200209,-0.4334089,0.7476991,0.23457226,279.62067,-62.5861,14.337243,WAL
8121245868000,2.300739,1.67871102900158,10.7562794508716,5.07272510903328,-0.3726278,0.5751296,0.2910773,279.54193,-62.439335,14.306129,WAL
8121250255000,2.305126,1.58299890794374,9.96977543155705,5.43476662931854,-0.25473082,0.5131268,0.30115658,279.46402,-62.320156,14.271623,WAL
8121254993000,2.309864,1.47962894451268,9.12034391947306,5.82577477226624,-0.22479841,0.42180246,0.33078352,279.38687,-62.146645,14.279725,WAL
8121260137000,2.315008,1.38521139323264,8.45034373509219,5.95177406418203,-0.14508049,0.34116822,0.35643986,279.32306,-62.017338,14.295472,WAL
8121264998000,2.319869,1.29846123205179,7.85222476480973,6.02939254413495,-0.07269296,0.28588495,0.36193767,279.27582,-61.89644,14.320793,WAL
8121270113000,2.324984,1.00273511888922,7.30275380791875,6.17121967275047,-0.006414085,0.28221974,0.32986724,279.10968,-61.690434,14.348232,WAL
8121275072000,2.329943,0.676526074709057,6.78547930627024,6.32034392179374,0.028710667,0.30848694,0.25625798,278.95416,-61.50468,14.367664,WAL
8121280091000,2.334962,0.179926133602734,7.00447723088058,6.19339069553679,0.03023783,0.3567453,0.13775012,278.7469,-61.288586,14.372163,WAL
8121285001000,2.339872,-0.344747725333735,7.39207390428227,6.00431897418577,0.02687807,0.43279803,0.046731193,278.53033,-61.090252,14.357314,WAL
8121290095000,2.344966,-0.768296707504333,8.85629413267861,5.64437599414597,0.004886922,0.49571714,0.0030543262,278.2544,-60.86466,14.291586,WAL
8121295239000,2.35011,-1.16672727797227,10.5923129064125,5.24120233968804,-0.1020145,0.5149594,-0.064446285,277.9848,-60.63555,14.19427,WAL
8121300184000,2.355055,-1.09241453015839,12.5506679016805,4.51430837636662,-0.36713,0.56779927,-0.15760323,277.7567,-60.47387,13.984734,WAL
8121305085000,2.359956,-0.883890972196253,14.5769734293993,3.69381343022986,-0.6478226,0.65576386,-0.26145032,277.5265,-60.29063,13.752378,WAL
8121310094000,2.364965,-0.45301625129892,15.9714887833152,3.22403731942931,-0.7635816,0.7296785,-0.38789943,277.50458,-60.318977,13.39464,WAL
8121315123000,2.369994,0.0861969653502427,17.0403712678094,2.93295772317448,-0.6123924,0.63529986,-0.5161811,277.51697,-60.35314,13.030965,WAL
8121320083000,2.374954,0.493097431150774,17.7461817872005,2.90560857626467,-0.3313944,0.38820487,-0.63041294,277.8505,-60.66029,12.654181,WAL
8121325127000,2.379998,0.840824006794202,18.2796799124347,3.01516613638694,-0.089491755,0.25167647,-0.7333437,278.18356,-60.993855,12.264121,WAL
8121330101000,2.384972,0.914026329237351,17.3646775266755,3.09048873482323,0.084910266,-0.004886922,-0.7593055,278.71136,-61.46059,11.96171,WAL
8121335086000,2.389957,0.829517607501106,15.60407955549,3.14682786303781,0.14538592,-0.23640485,-0.7302894,279.2559,-61.94082,11.675056,WAL
8121340131000,2.395002,0.74399172963564,13.8222908364065,3.20384509510252,0.22815818,-0.47983465,-0.623388,279.8694,-62.45216,11.454824,WAL
8121345235000,2.400106,0.657465648243104,12.0196645485568,3.26152912928652,0.2761111,-0.7141015,-0.4718934,280.5136,-62.93723,11.288983,WAL
8121350137000,2.405008,0.522994376364492,10.3870446643664,3.13133330384776,0.30207285,-0.9428705,-0.31306845,281.198,-63.40059,11.181145,WAL
8121355083000,2.409954,0.349652575279172,8.81210980489335,2.86389164454203,0.30268374,-1.14018,-0.17684549,281.90637,-63.836338,11.131742,WAL
8121360118000,2.414989,0.213958398101387,7.82325953556655,2.48948882078027,0.28924468,-1.2880094,-0.053450707,282.42896,-64.02387,11.193988,WAL
8121365071000,2.419942,0.102385376969989,7.1807531134723,2.06628086264904,0.22815818,-1.3603969,0.058643065,282.96603,-64.18352,11.297225,WAL
8121370084000,2.424955,0.0128531552353223,6.55948072579255,1.59548077187243,0.19211712,-1.3845261,0.12186762,283.46927,-64.2836,11.429235,WAL
8121375071000,2.429942,0.0311500742157839,6.07461211608083,0.932217433157744,0.20922135,-1.3805555,0.15943582,283.9699,-64.37284,11.581529,WAL
8121380076000,2.434947,0.0520720574301192,5.59472620025608,0.262372255427952,0.3200934,-1.3298537,0.16035213,284.4795,-64.4964,11.734215,WAL
8121385090000,2.439961,0.099366560823402,5.18326426350832,-0.451774752329361,0.46578476,-1.2767084,0.12950343,284.98312,-64.63505,11.879415,WAL
8121390171000,2.445042,0.155596618474493,4.79110314288652,-1.16500687200627,0.6093381,-1.2089024,0.05467244,285.53677,-64.85864,12.006435,WAL
8121395318000,2.450189,0.314867179583864,4.69940177588368,-1.75865161142661,0.7473936,-1.1038336,-0.051923547,286.07184,-65.12756,12.097692,WAL
8121400420000,2.455291,0.482187267540535,4.6235208905841,-2.33198694340692,0.8875872,-0.9786061,-0.16126843,286.636,-65.52224,12.154609,WAL
8121405126000,2.459997,0.73310558428404,4.70716045667123,-2.7061634947646,0.9761627,-0.872621,-0.25167647,287.18713,-65.95068,12.171691,WAL
8121410483000,2.465354,1.01321319803057,4.82277996883206,-3.12706397145797,1.0155635,-0.74281216,-0.33536503,287.75125,-66.49383,12.149217,WAL
8121415094000,2.469965,1.15599548312757,5.28574058820302,-3.39964821069959,1.028697,-0.6041457,-0.42638394,288.29153,-67.06604,12.08276,WAL
8121420044000,2.474915,1.30927509952969,5.7827380000196,-3.69227280064668,1.0409144,-0.52198434,-0.5170974,288.8567,-67.70457,12.008104,WAL
8121425076000,2.479947,1.41590924240968,6.55257453713388,-3.88801885953987,1.0888673,-0.36896262,-0.5571091,289.36075,-68.35812,11.898136,WAL
8121430051000,2.484922,1.51715901927377,7.33615951495888,-4.07290963450984,1.1178834,-0.2275473,-0.6230826,289.84818,-69.0252,11.746449,WAL
8121435076000,2.489947,1.70219258966635,8.34045508105847,-4.08367105915699,1.1636983,-0.13347405,-0.68019843,290.3561,-69.7681,11.5753765,WAL
8121440064000,2.494935,1.91203489595231,9.40465565422027,-4.03870492519611,1.246776,-0.050701816,-0.68233645,290.81525,-70.52026,11.388051,WAL
8121445120000,2.499991,2.18531607625733,10.4728097832484,-3.75106642879123,1.2980887,-0.009468411,-0.63224554,291.30762,-71.32947,11.180349,WAL
8121449996000,2.504867,2.45923539880758,11.5011300028849,-3.43224237690163,1.3558154,0.021380283,-0.5027421,291.7548,-72.12935,10.988301,WAL
8121455088000,2.509959,2.62884790244664,12.3115965595046,-2.84902775439992,1.3854424,0.017104227,-0.32406402,292.20804,-72.91717,10.821491,WAL
8121460086000,2.514957,2.75896785337294,13.0248466869714,-2.19842769783528,1.4065173,-0.018936822,-0.15210545,292.63306,-73.66664,10.690309,WAL
8121465191000,2.520062,2.61085587236283,13.1542199467504,-1.50756270048593,1.3994923,-0.086437434,-0.018325957,293.0408,-74.32606,10.611859,WAL
8121470062000,2.524933,2.39834451752379,13.1258850073902,-0.841693499362219,1.38025,-0.19425514,0.06169739,293.44632,-74.930824,10.5714245,WAL
8121475048000,2.529919,2.00620421693205,12.1813826379191,0.00970184193452678,1.35551,-0.3378085,0.09682214,293.8407,-75.399635,10.565235,WAL
8121480098000,2.534969,1.56615028359213,10.9999338643062,0.913725511700129,1.3005321,-0.5204572,0.1160644,294.26346,-75.81706,10.582388,WAL
8121485088000,2.539959,0.676318336498237,10.2482919236193,1.18266252890717,1.246776,-0.7107417,0.122783914,294.71085,-76.121,10.585693,WAL
8121490135000,2.545006,-0.346025468954172,9.59986115256561,1.2867901650803,1.1887437,-0.90194255,0.12034045,295.20453,-76.39722,10.596399,WAL
8121495119000,2.54999,-0.940224450196191,9.01394146457143,1.267428423,1.1487321,-1.0836749,0.10140363,295.7209,-76.530334,10.587145,WAL
8121500853000,2.555724,-1.46843914311429,8.36020976285714,1.199440385,1.07665,-1.2565498,0.054367006,296.2833,-76.65626,10.572831,WAL
8121505125000,2.559996,-1.81822099315297,7.92005866181061,1.06706260288241,1.0073168,-1.4052955,-0.0106901415,296.90787,-76.88409,10.422365,WAL
8121510101000,2.564972,-2.20996713026015,7.42417773777315,0.883586505650364,0.9288206,-1.5561792,-0.093767814,297.5786,-77.11302,10.260958,WAL
8121515120000,2.569991,-2.41040332252801,7.17450798215058,0.723177886494987,0.86315256,-1.68385,-0.19608775,298.29425,-77.40032,10.030397,WAL
8121520084000,2.574955,-2.53656425588756,7.02031132919206,0.5736539510517,0.8206975,-1.7507398,-0.29016098,299.03214,-77.69472,9.783732,WAL
8121525099000,2.57997,-2.43572834848164,7.17298935710016,0.376716679637328,0.7910705,-1.8619173,-0.3295618,299.84464,-78.040184,9.486722,WAL
8121530066000,2.584937,-2.23395528605996,7.46189168232912,0.161186350727466,0.7806858,-1.9547688,-0.39675698,300.6695,-78.40755,9.159559,WAL
8121535103000,2.589974,-1.8788904674871,7.84821039857086,-0.0789411720770147,0.7583892,-2.0344868,-0.43951756,301.53613,-78.79819,8.8154545,WAL
8121540098000,2.594969,-1.43262226577015,8.28973151607781,-0.330560457133585,0.7425067,-2.107485,-0.45478916,302.42267,-79.19508,8.46528,WAL
8121545114000,2.599985,-0.925739080328889,8.70894033293827,-0.596797273866667,0.73639804,-2.1542163,-0.43982297,303.3249,-79.60346,8.134671,WAL
8121550090000,2.604961,-0.384481602497778,9.1089994294321,-0.869779306933333,0.7324274,-2.1927009,-0.42241332,304.23895,-80.01047,7.803752,WAL
8121555071000,2.609942,0.0976759234320514,9.43046807583215,-1.11414444783515,0.7461719,-2.186592,-0.39522982,305.14053,-80.400444,7.529669,WAL
8121560092000,2.614963,0.538934476378577,9.69522351672645,-1.33878512716276,0.77182823,-2.1661282,-0.36468655,306.0398,-80.785675,7.261385,WAL
8121565074000,2.619945,0.982773908065979,9.94897236216495,-1.56570910602062,0.79901177,-2.1160371,-0.34208453,306.90808,-81.13692,7.0687594,WAL
8121570495000,2.625366,1.49658044602887,10.1791150490722,-1.83331671513402,0.8381071,-2.0638082,-0.3145956,307.75934,-81.483925,6.8819346,WAL
8121575060000,2.629931,1.88712162113418,10.3146415538684,-2.03588901604173,0.8918633,-1.9837849,-0.28771752,308.5398,-81.80972,6.771444,WAL
8121580081000,2.634952,2.18017235615122,10.2749055849602,-2.18489778436112,0.9465357,-1.8777997,-0.2501493,309.28864,-82.12291,6.664953,WAL
8121585060000,2.639931,2.41130922835078,10.2059437829072,-2.28764379377038,0.9923506,-1.7660115,-0.21899518,309.97876,-82.39618,6.6210694,WAL
8121590114000,2.644985,2.50267920808306,10.0647357861678,-2.28349065821177,1.0085385,-1.679574,-0.1881465,310.63727,-82.64478,6.5810065,WAL
8121595486000,2.650357,2.59505063266622,9.9094247702913,-2.27426266826773,1.0326678,-1.6019942,-0.1685988,311.24414,-82.8421,6.5862503,WAL
8121600134000,2.655005,2.59010149973316,9.68176217478319,-2.18022816064043,1.0433578,-1.5344934,-0.15393804,311.82202,-83.006905,6.5926433,WAL
8121605142000,2.660013,2.57279507,9.44479883564357,-2.05504060524753,1.0317514,-1.4834863,-0.16493362,312.36432,-83.12527,6.6150174,WAL
8121610102000,2.664973,2.50224899,9.24727002772277,-1.8245903129703,1.0134255,-1.4446963,-0.1600467,312.88483,-83.20918,6.6405663,WAL
8121615073000,2.669944,2.4274184213785,9.06924738785047,-1.60573733165888,0.9950995,-1.421178,-0.17562376,313.38123,-83.267395,6.6583176,WAL
8121620072000,2.674943,2.32846872390367,9.00471500575126,-1.45516172850467,0.9611965,-1.3982705,-0.20097467,313.86188,-83.303604,6.670094,WAL
8121625056000,2.679927,2.22981593490295,8.94037625952552,-1.30503794252336,0.9468411,-1.3649784,-0.22235495,314.31992,-83.317894,6.6779246,WAL
8121630076000,2.684947,2.08664576223654,8.9544713758873,-1.13838503512067,0.91690874,-1.3295482,-0.24312437,314.76672,-96.67547,6.674745,WAL
8121635101000,2.689972,1.94373640333106,8.98069141833057,-0.974673051105484,0.8848383,-1.2910637,-0.28313604,315.19904,-96.66967,6.6563993,WAL
8121640204000,2.695075,1.83901739588974,9.0568507235804,-0.850914242203175,0.8491027,-1.2388347,-0.3173445,315.61908,-96.65687,6.6213164,WAL
8121645305000,2.700176,1.73816849619209,9.13150727450785,-0.733004655749652,0.83016586,-1.1859949,-0.35613444,316.0354,-96.61756,6.5555577,WAL
8121650134000,2.705005,1.68299282614834,9.18668260847087,-0.68242696861205,0.81183994,-1.1325442,-0.38453966,316.4326,-96.5746,6.481188,WAL
8121655352000,2.710223,1.6288446026073,9.2510680641797,-0.621044186508223,0.7996226,-1.0882565,-0.4156938,316.82117,-96.49473,6.3716536,WAL
8121660081000,2.714952,1.63792777292419,9.36006648736462,-0.493879721453069,0.7846564,-1.0735956,-0.43371433,317.1992,-96.4129,6.257544,WAL
8121665309000,2.72018,1.65126282148213,9.47330387165255,-0.360971663048009,0.7809912,-1.0680978,-0.44593164,317.5691,-96.31186,6.1245017,WAL
8121670073000,2.724944,1.70013448411725,9.49551824267212,-0.325428641581459,0.7690793,-1.0732902,-0.47219884,317.93427,-96.204185,5.9830728,WAL
8121675446000,2.730317,1.75426451878453,9.51983427197829,-0.288280724582728,0.7483099,-1.0781772,-0.5006041,318.30145,-96.10079,5.854125,WAL
8121680057000,2.734928,1.78422582872928,9.52839481225162,-0.30540146546089,0.72234815,-1.0833695,-0.5183192,318.66626,-95.99447,5.7213125,WAL
8121685085000,2.739956,1.81689671712707,9.53772953280993,-0.324070536190753,0.7049385,-1.0864239,-0.5348125,319.02173,-95.889244,5.5908356,WAL
8121690086000,2.744957,1.84599763154309,9.55170198196393,-0.382820866366734,0.68844515,-1.0809261,-0.5510005,319.3725,-95.7799,5.4563384,WAL
8121695081000,2.749952,1.87475681951904,9.5660813757515,-0.445132485359719,0.68019843,-1.0659598,-0.56413406,319.7178,-95.66912,5.31916,WAL
8121700070000,2.754941,1.85947812558976,9.54086594662135,-0.472079907189124,0.6753115,-1.042747,-0.5748242,320.05234,-95.56427,5.185224,WAL
8121705063000,2.759934,1.84035898828469,9.51218714084366,-0.495978838802479,0.6719518,-1.0164797,-0.59559363,320.37836,-95.45585,5.0460835,WAL
8121710068000,2.764939,1.78868027076601,9.50559713305455,-0.468788419910663,0.66798115,-0.99112886,-0.61544675,320.69318,-95.358154,4.9103355,WAL
8121715511000,2.770382,1.72923160957042,9.5006434961034,-0.434110038524045,0.6704246,-0.9746355,-0.6377433,321.00012,-95.25871,4.76962,WAL
8121720267000,2.775138,1.69528900455028,9.5454572115264,-0.410292151523029,0.6728681,-0.95264435,-0.65301496,321.30658,-95.17893,4.6430073,WAL
8121725128000,2.779999,1.66273456989149,9.59709516792862,-0.386718242640945,0.6774496,-0.9392053,-0.68783426,321.60773,-95.09288,4.5055065,WAL
8121755829000,2.8107,1.45712796662889,9.92322907031589,-0.237830652312033,0.5390886,-1.0882565,-0.82253003,323.4471,-94.40509,3.4905174,WAL
8121760079000,2.81495,1.49542559284943,9.95193583396294,-0.317287930465911,0.50610185,-1.112691,-0.83016586,323.77402,-94.26199,3.2952292,WAL
8121765061000,2.819932,1.58983610601727,9.97339275858968,-0.484652068023026,0.46395215,-1.135904,-0.8268061,324.10474,-94.119934,3.1038353,WAL
8121770078000,2.824949,1.69034295306938,10.0079678419906,-0.665287182884126,0.4175264,-1.149343,-0.8210029,324.4357,-93.99662,2.9185824,WAL
8121775105000,2.829976,1.8040105810207,10.0735452669815,-0.875135107195786,0.3924809,-1.1462886,-0.8191703,324.76578,-93.87706,2.735849,WAL
8121780111000,2.834982,1.91932870652736,10.1312191791254,-1.09063473437096,0.36193767,-1.112691,-0.8023715,325.08527,-93.78717,2.5742786,WAL
8121785081000,2.839952,2.05262417076691,10.1209660113098,-1.36235235382378,0.3399465,-1.0726794,-0.77274454,325.3995,-93.70349,2.4191618,WAL
8121790108000,2.844979,2.17682346428571,10.0998828492063,-1.60696536111111,0.3145956,-1.0070114,-0.7501425,325.68567,-93.661964,2.2845008,WAL
8121795206000,2.850077,2.26908079115646,10.0445283182162,-1.75918988783069,0.29932398,-0.9416488,-0.71868294,325.95892,-93.62999,2.1628249,WAL
8121800176000,2.855047,2.36008156310779,9.99268052062647,-1.89351279233289,0.28160888,-0.8793405,-0.6704246,326.20242,-93.650856,2.0696988,WAL
8121805128000,2.859999,2.45717295186815,9.95384414760979,-1.94205856274951,0.27030787,-0.818254,-0.6224717,326.4266,-93.67796,1.987309,WAL
8121810089000,2.86496,2.55217237251841,9.9160036005891,-1.97762611469809,0.28038713,-0.75411314,-0.5635232,326.62317,-93.745575,1.9332454,WAL
8121815252000,2.870123,2.63955689522828,9.88202056730486,-1.94849797425626,0.27397305,-0.7284568,-0.50426924,326.81314,-93.814514,1.8935653,WAL
8121820089000,2.87496,2.72711411379548,9.85725622619764,-1.91350483859981,0.25809056,-0.6747007,-0.47678033,326.96902,-93.901474,1.8779502,WAL
8121825835000,2.880706,2.87383108515524,9.88092023789456,-1.81411589063387,0.26236662,-0.602924,-0.3827071,327.1141,-94.00806,1.8983237,WAL
8121830123000,2.884994,2.98331983788596,9.89857970224478,-1.7399460666036,0.23365596,-0.5751296,-0.3539964,327.2421,-94.100914,1.9187999,WAL
8121835151000,2.890022,3.16096263161706,9.93397602413516,-1.56603520289622,0.23823744,-0.5345071,-0.29718593,327.34805,-94.21746,1.974004,WAL
8121840109000,2.89498,3.34718459308126,9.97217540979485,-1.37503842417538,0.23151793,-0.50610185,-0.24678956,327.4501,-94.32473,2.0340614,WAL
8121845126000,2.899997,3.53483151961981,10.0462559415708,-1.19048862032016,0.22876903,-0.4886922,-0.20708331,327.52838,-94.43642,2.1298823,WAL
8121850108000,2.904979,3.72099996230115,10.1274062168084,-1.00909362648324,0.22235495,-0.46700647,-0.16462818,327.59875,-94.55107,2.2385468,WAL
8121855126000,2.909997,3.86723611963722,10.2315603229495,-0.746677492641956,0.21380283,-0.47250426,-0.13530666,327.64874,-94.65505,2.3792577,WAL
8121860090000,2.914961,4.00314294274448,10.3393487089905,-0.470177397839117,0.20525073,-0.4914411,-0.0983493,327.69794,-94.76475,2.5303075,WAL
8121865141000,2.920012,4.06371133663156,10.4293984108001,-0.280757744161123,0.17959438,-0.51923543,-0.07238753,327.72946,-94.86688,2.712731,WAL
8121870101000,2.924972,4.10320762783629,10.5127797042221,-0.118383804175905,0.15302174,-0.5366451,-0.056505036,327.76447,-94.973,2.8972478,WAL
8121875134000,2.930005,4.12579749954978,10.5860268013404,-0.0154984932200962,0.124311075,-0.5500842,-0.05222898,327.78705,-95.05513,3.1026318,WAL
8121880134000,2.935005,4.13804655306457,10.6521716647396,0.0506464418049729,0.10415252,-0.55680364,-0.03848451,327.8131,-95.14276,3.3086483,WAL
8121885115000,2.939986,4.150249060176,10.7180651776578,0.116540026076947,0.076052725,-0.5885687,-0.03756821,327.836,-95.20641,3.5070775,WAL
8121890103000,2.944974,4.16246871596235,10.7840512933848,0.182526213257956,0.043066,-0.6169739,-0.04337143,327.8595,-95.27233,3.7010784,WAL
8121895612000,2.950483,4.30416324102513,10.9211400719598,0.102361144485628,0.025045475,-0.59040123,-0.03970624,327.87585,-95.343445,3.8923,WAL
8121900123000,2.954994,4.45612649944724,11.0513941768844,-0.0061840186638191,-0.0076358155,-0.5540548,-0.03176499,327.89676,-95.41043,4.0768137,WAL
8121905150000,2.960021,4.64540163259159,11.3270106619376,-0.320040849294821,-0.029626964,-0.45845437,-0.0106901415,327.88394,-95.46783,4.2593317,WAL
8121910086000,2.964957,4.83832627898163,11.643958363813,-0.696703135223108,-0.06414085,-0.40133846,0.02687807,327.87137,-95.52958,4.44311,WAL
8121915119000,2.96999,4.9456198838022,12.02706875083,-1.04071925584134,-0.103847094,-0.24465153,0.048563786,327.79776,-95.62366,4.6504316,WAL
8121920101000,2.974972,5.00814602952997,12.4355731640748,-1.3616870389516,-0.12339478,-0.07238753,0.12767084,327.70532,-95.744,4.879547,WAL
8121925133000,2.980004,4.99136977419355,12.809751516129,-1.61106604193548,-0.17562376,0.10476339,0.20952678,327.57495,-95.91656,5.1389666,WAL
8121930311000,2.985182,4.84279690771996,13.1316599106162,-1.74478172518726,-0.20616703,0.24984388,0.31398472,327.40854,-96.117256,5.4217806,WAL
8121935165000,2.990036,4.57534621546973,13.3424831508042,-1.79655244692142,-0.23548855,0.3399465,0.42455134,327.22693,-96.35962,5.7265997,WAL
8121940126000,2.994997,4.10807734574326,13.4203613465833,-1.73814382549944,-0.28313604,0.4370741,0.50701815,327.0066,-96.61428,6.0460296,WAL
8121945126000,2.999997,3.6237231711542,13.4477414041566,-1.66825608452403,-0.35063666,0.5335908,0.5983425,326.77646,-96.86673,6.356808,WAL
8121950130000,3.005001,3.12128995374838,13.4077242610874,-1.58377614041566,-0.4202753,0.62949663,0.6780604,326.52286,-97.13048,6.6797605,WAL
8121955163000,3.010034,2.59049830208397,13.3206161400552,-1.52686812889979,-0.49418998,0.7174612,0.74128497,326.26166,-97.32889,6.93782,WAL
8121960108000,3.014979,2.00512345766677,13.1174281157422,-1.54138159529063,-0.57360244,0.784351,0.79320854,325.9814,-97.539185,7.2089458,WAL
8121965246000,3.020117,1.31958055655718,12.7903419901899,-1.54584777262433,-0.6704246,0.8353582,0.8393288,325.69553,-97.66586,7.3988743,WAL
8121970081000,3.024952,0.528602425828493,12.2637765326273,-1.53002819726683,-0.77091193,0.840856,0.8582657,325.4042,-97.7983,7.5916586,WAL
8121975095000,3.029966,-0.291659073131925,11.7177167178974,-1.51362295407292,-0.88147855,0.84207773,0.88056225,325.11914,-97.85833,7.7072268,WAL
8121980142000,3.035013,-1.11731918187808,11.1680629713993,-1.49710973859632,-0.97402465,0.8399397,0.895223,324.83347,-97.92632,7.824597,WAL
8121985077000,3.039948,-1.80413985443088,10.7104568566365,-1.4814289877117,-1.073901,0.8268061,0.88422745,324.55563,-98.00277,7.9437876,WAL
8121990081000,3.044952,-2.04950830421426,10.5453051480898,-1.46727312697913,-1.1551461,0.8072584,0.87872964,324.2798,-98.09357,8.066625,WAL
8121995188000,3.050059,-2.28695178050392,10.3999784868359,-1.43838357281306,-1.2308935,0.7724391,0.87689704,324.04773,-97.95251,7.9459734,WAL
8122000099000,3.05497,-2.46448019009154,10.3511585959234,-1.35405761996792,-1.3035865,0.70952,0.90194255,323.83145,-82.16112,7.8388443,WAL
8122005160000,3.060031,-2.64097861840467,10.3120015818251,-1.26425679271282,-1.3588698,0.68477994,0.90133166,323.62488,-82.28886,7.702011,WAL
8122010086000,3.064957,-2.7358443311309,10.4068668228478,-1.14228661759073,-1.4343116,0.67073005,0.89949906,323.43475,-82.385086,7.579023,WAL
8122015441000,3.070312,-2.83778906049478,10.5153264047159,-1.0092369746811,-1.4459181,0.6102544,0.89980453,323.27448,-82.47779,7.4407983,WAL
8122020109000,3.07498,-2.90259067135678,10.7183717738693,-0.883953682914573,-1.462106,0.59650993,0.906524,323.10565,-82.54068,7.311005,WAL
8122025082000,3.079953,-2.97162632063201,10.9346838177426,-0.750484571955933,-1.4694363,0.5674938,0.90408057,322.96396,-82.5869,7.1737323,WAL
8122030113000,3.084984,-3.00817847500245,11.2197354134963,-0.622503672616137,-1.4715744,0.5112942,0.9049969,322.83463,-82.60419,7.0466986,WAL
8122034994000,3.089865,-3.04017950440098,11.5031732933985,-0.499071059046455,-1.4761559,0.44135013,0.92087936,322.71814,-82.59415,6.9303713,WAL
8122040092000,3.094963,-3.01354135505422,11.8644749783114,-0.435001045466692,-1.4511104,0.35277468,0.93554014,322.62738,-82.56413,6.814065,WAL
8122045113000,3.099984,-2.97629489838304,12.2322836467854,-0.383787190636135,-1.4398094,0.25045475,0.97494096,322.56024,-82.50192,6.717031,WAL
8122050134000,3.105005,-2.8625410300758,12.573837100799,-0.279034124175374,-1.4382823,0.14844026,1.0009027,322.51392,-82.42402,6.6214166,WAL
8122054989000,3.10986,-2.73394286233354,12.8977136435157,-0.164724606371645,-1.434617,0.043982297,1.0384709,322.49637,-82.32094,6.548015,WAL
8122060087000,3.114958,-2.55429897536078,13.0899659477966,-0.0929724741735593,-1.4520267,-0.05589417,1.0778717,322.5086,-82.188225,6.488324,WAL
8122065084000,3.119955,-2.3689031125908,13.2475526949153,-0.0327188243389831,-1.45783,-0.14385876,1.1023064,322.54538,-82.04326,6.441984,WAL
8122070076000,3.124947,-2.14339311471814,13.2573029386661,-0.00077652393668122,-1.4566082,-0.21746802,1.1429288,322.59357,-81.85977,6.430263,WAL
8122075092000,3.129963,-1.90501846755657,13.2239303098452,0.0230609427707424,-1.4416419,-0.2751948,1.1545353,322.66,-81.67507,6.422398,WAL
8122080802000,3.135673,-1.62438756796416,12.9791376184171,0.0847144597541065,-1.41904,-0.2919936,1.1655309,322.72916,-81.45034,6.450654,WAL
8122085113000,3.139984,-1.41066415304131,12.753084142658,0.138145319922349,-1.4013249,-0.26847526,1.1725558,322.7998,-81.226845,6.4829006,WAL
8122090097000,3.144968,-1.12014756362142,12.4032850899072,0.167179344816319,-1.3942999,-0.20769419,1.1655309,322.86038,-80.975105,6.5483603,WAL
8122095200000,3.150071,-0.808329153151585,12.0158744466357,0.186077425216551,-1.393689,-0.13194689,1.1569787,322.90646,-80.728745,6.6135287,WAL
8122100144000,3.155015,-0.433454674731588,11.6880192200038,0.132071178897156,-1.4059063,0.00580322,1.1389582,322.90012,-80.448296,6.699283,WAL
8122105144000,3.160015,-0.0230716412036165,11.3768495081936,0.0463868113138068,-1.4395039,0.098043874,1.1249083,322.8827,-80.170296,6.780968,WAL
8122110080000,3.164951,0.420201594111386,11.0996374100634,-0.0564486914319966,-1.4492778,0.2837469,1.1203269,322.78436,-79.85608,6.8928595,WAL
8122115138000,3.170009,0.90454443350715,10.8392382357811,-0.176232396980432,-1.4618006,0.47983465,1.1096367,322.6556,-79.54542,6.9923925,WAL
8122120096000,3.174967,1.24350579385087,10.6645142925796,-0.313531415255613,-1.4810427,0.72692966,1.0955868,322.46832,-79.18966,7.1472955,WAL
8122125117000,3.179988,1.52964946468308,10.5214427287891,-0.460938780727617,-1.484708,0.9947941,1.0925325,322.21796,-78.84263,7.289105,WAL
8122130105000,3.184976,1.81354031414441,10.3667564747774,-0.554138119050445,-1.4895949,1.2843442,1.1096367,321.89786,-78.451744,7.481933,WAL
8122135104000,3.189975,2.09766173983954,10.1983875835806,-0.590968667721728,-1.4782939,1.5357152,1.1233811,321.51263,-78.07289,7.6578016,WAL
8122140089000,3.19496,2.31008473814667,10.0338416867538,-0.549340670847072,-1.4630222,1.7391334,1.1157454,321.0699,-77.68327,7.8619695,WAL
8122145174000,3.200045,2.49003765571347,9.86773120494599,-0.466285410670836,-1.4355333,1.9162843,1.1093313,320.56375,-77.30352,8.054649,WAL
8122150608000,3.205479,2.58446917062518,9.65399250651822,-0.380281883338091,-1.4248432,2.0482311,1.1163563,320.01758,-76.89477,8.27446,WAL
8122155084000,3.209955,2.60894303908079,9.45820275145114,-0.310939575487677,-1.4126259,2.1465805,1.1181889,319.43344,-76.50154,8.478601,WAL
8122160064000,3.214935,2.59868913581118,9.19677675160065,-0.288896363937059,-1.4132367,2.2553146,1.0876455,318.79852,-76.08798,8.690262,WAL
8122165079000,3.21995,2.54135813472599,8.87885051367336,-0.335803490241997,-1.42973,2.3475552,1.0626001,318.1429,-75.67904,8.894037,WAL
8122170078000,3.224949,2.44158297337881,8.52756234855674,-0.402897092953737,-1.4184291,2.4330764,1.0186177,317.4615,-75.26155,9.085595,WAL
8122175072000,3.229943,2.31393201867339,8.15406486022143,-0.483269924697509,-1.4175128,2.5286767,0.96761054,316.7564,-74.85045,9.256814,WAL
8122180092000,3.234963,2.17735394071951,7.84488395290571,-0.53646112919747,-1.3854424,2.6038132,0.9092729,316.03928,-74.46228,9.405521,WAL
8122185162000,3.240033,2.03338949181656,7.58094906310536,-0.57005286066614,-1.3478742,2.6762006,0.84940815,315.3031,-74.090675,9.529388,WAL
8122190116000,3.244987,1.92059058768183,7.37042031357025,-0.549364171181182,-1.2913691,2.7220156,0.8008443,314.5682,-73.74114,9.627613,WAL
8122195206000,3.250077,1.82634779906095,7.19091041852329,-0.486535656368072,-1.2360858,2.7491992,0.7458665,313.82684,-73.416245,9.700608,WAL
8122200166000,3.255037,1.7328533078125,7.08070181979167,-0.372398130677083,-1.1795808,2.7623327,0.70952,313.08545,-73.11507,9.749024,WAL
8122205180000,3.260051,1.63587797509566,7.06538982697704,-0.178447427936862,-1.1108584,2.7501154,0.675617,312.3517,-72.842285,9.780708,WAL
8122210093000,3.264964,1.56375810737849,7.15025913050947,0.0201387738083154,-1.0299188,2.7235427,0.66767573,311.61707,-72.57993,9.799744,WAL
8122215101000,3.269972,1.51226803718524,7.33281485613898,0.230779916732383,-0.98715824,2.674979,0.6759224,310.89804,-72.33078,9.815194,WAL
8122220702000,3.275573,1.45978256439723,7.57386491047431,0.497971231063241,-0.92057395,2.5485299,0.69913524,310.20105,-72.086876,9.826081,WAL
8122225071000,3.279942,1.42257211086957,7.78885856521739,0.729502828695652,-0.82802784,2.4990497,0.7165449,309.50095,-71.86152,9.835167,WAL
8122230046000,3.284917,1.36957036181818,8.02371008181818,0.98950178,-0.81061816,2.3991733,0.76083267,308.84216,-71.610374,9.859192,WAL
8122235092000,3.289963,1.30123263866667,8.24824892666667,1.24820907866667,-0.75625116,2.2883012,0.816116,308.20316,-71.38775,9.895894,WAL
8122240102000,3.294973,1.23223610227851,8.41053963123411,1.47371004578525,-0.70524395,2.1771238,0.8723156,307.58145,-71.13615,9.934017,WAL
8122245106000,3.299977,1.16194125498729,8.49957961128496,1.66116293927244,-0.659429,2.053729,0.91904676,306.99527,-70.89185,9.993967,WAL
8122250003000,3.304874,1.07932564966971,8.52589585172172,1.78480581321153,-0.6026186,1.9507982,0.95203346,306.4223,-70.63531,10.048689,WAL
8122255075000,3.309946,0.972045420648529,8.45762676227286,1.81894045977312,-0.56016344,1.8664987,0.9816604,305.87924,-70.382835,10.122819,WAL
8122259994000,3.314865,0.848155715461455,8.31154307866943,1.81446410106604,-0.5122105,1.8206838,0.9807441,305.3478,-70.126526,10.182674,WAL
8122265086000,3.319957,0.689311742996743,8.03717570447142,1.75188919612082,-0.46028697,1.7919732,0.95447695,304.83862,-69.88429,10.248102,WAL
8122269986000,3.324857,0.549999364052813,7.74084706003636,1.72098111396862,-0.41141775,1.7574593,0.915687,304.34244,-69.658104,10.292487,WAL
8122275079000,3.32995,0.428669310378875,7.37685714265212,1.73964726107922,-0.36560285,1.715615,0.86742866,303.86362,-69.451836,10.329902,WAL
8122280139000,3.33501,0.310076328767151,6.96527470724964,1.74048996952693,-0.31856623,1.6701056,0.78801614,303.40128,-69.274025,10.32323,WAL
8122285137000,3.340008,0.197349294474708,6.4457498540856,1.70128059299611,-0.267559,1.6126842,0.6872234,302.96497,-69.12028,10.30353,WAL
8122290369000,3.34524,0.147519439058162,5.96727262103165,1.61056170302099,-0.20097467,1.561677,0.57360244,302.53528,-68.98324,10.243571,WAL
8122295160000,3.350031,0.202611030935114,5.62570476382018,1.45410157813265,-0.13164146,1.5143349,0.46670106,302.13464,-68.8737,10.166017,WAL
8122300181000,3.355052,0.260347387189376,5.26773936806589,1.29013032222276,-0.05955936,1.4892895,0.36926803,301.74277,-68.7838,10.066249,WAL
8122305126000,3.359997,0.317209821301571,4.91519228939532,1.12864100525911,0.017104227,1.4349225,0.3200934,301.38293,-68.72012,9.96145,WAL
8122310109000,3.36498,0.395233117775148,4.64299445428994,0.976851288428994,0.06872234,1.3723087,0.21594086,301.04248,-68.69171,9.802641,WAL
8122315096000,3.369967,0.56479359652071,4.73719490059172,0.873231004059172,0.15027285,1.3075571,0.11942416,300.72763,-68.693825,9.643319,WAL
8122320085000,3.374956,0.734077699649721,4.84458697085108,0.788729790818896,0.25045475,1.251052,0.057726767,300.43362,-68.72101,9.510907,WAL
8122325074000,3.379945,0.901436569203825,5.02551546698854,0.811345849293761,0.37873647,1.2046263,0.018936822,300.1664,-68.78338,9.368073,WAL
8122330130000,3.385001,1.07106580297551,5.21084773117058,0.839803544498399,0.52748215,1.1395692,-0.0143553335,299.9124,-68.912445,9.226199,WAL
8122335086000,3.389957,1.23779068141337,5.43151272230602,0.977106403636739,0.6618725,1.0580186,-0.04184427,299.68256,-69.07155,9.085031,WAL
8122340117000,3.394988,1.39628073968872,5.66326575990272,1.12222569912451,0.8017606,0.9746355,-0.077579886,299.4674,-69.27564,8.956349,WAL
8122345145000,3.400016,1.46654165953307,5.95836211235409,1.31427231118677,0.9239337,0.8866709,-0.11056661,299.28088,-69.50831,8.832336,WAL
8122350303000,3.405174,1.5307548154363,6.26288383044824,1.50932365765184,1.0192287,0.8045095,-0.13347405,299.1026,-69.75627,8.727367,WAL
8122355075000,3.409946,1.51459338334365,6.5618704929184,1.67093810514543,1.0961977,0.729984,-0.1600467,298.95175,-70.02963,8.622936,WAL
8122360071000,3.414942,1.49767332577137,6.87489173468305,1.84013881337636,1.1496484,0.6612616,-0.18753563,298.81143,-70.30475,8.515729,WAL
8122365082000,3.419953,1.49801170264005,7.17691943728268,2.09063915032196,1.183246,0.59437186,-0.21227567,298.69507,-70.59059,8.411614,WAL
8122370000000,3.424871,1.50306629615797,7.4700859668813,2.35853287066967,1.210124,0.54275376,-0.24281894,298.598,-70.8855,8.306064,WAL
8122375078000,3.429949,1.39762315263614,7.79102140109679,2.61344560347316,1.2168436,0.5170974,-0.27183503,298.51096,-71.17349,8.180931,WAL
8122380100000,3.434971,1.28194413183567,8.11029546178565,2.86331232898788,1.2296717,0.49632803,-0.28893927,298.4401,-71.46486,8.0581,WAL
8122385088000,3.439959,1.15424167395794,8.45881321329328,3.11777656951746,1.2134838,0.4877759,-0.3118467,298.37024,-71.717316,7.92318,WAL
8122390074000,3.444945,1.02424272386406,8.81294840368006,3.37329170370822,1.1924089,0.5155703,-0.32162055,298.29828,-71.96537,7.7898593,WAL
8122395201000,3.450072,0.942003219289393,9.2564672770945,3.69189364730369,1.1447614,0.5549711,-0.3203988,298.23535,-72.17306,7.6279345,WAL
8122399995000,3.454866,0.884089350919794,9.70047341648271,4.01041979735099,1.0806206,0.5861252,-0.32925636,298.17102,-72.367615,7.464491,WAL
8122405125000,3.459996,0.882988899561257,10.2033882829302,4.3250419651846,1.0241156,0.6554584,-0.30818152,298.0632,-72.55404,7.245726,WAL
8122410091000,3.464962,0.89696162156302,10.6970906795613,4.62312646777985,0.9016371,0.72234815,-0.26297748,297.94965,-72.69867,7.0380673,WAL
8122415083000,3.469954,0.97197794573956,11.2352098640197,4.77194700742645,0.7602218,0.77091193,-0.21533,297.79953,-72.81086,6.817345,WAL
8122420001000,3.474872,1.06402444174038,11.7777995200576,4.87368252999383,0.5665775,0.8414669,-0.16584991,297.62482,-72.86687,6.612423,WAL
8122425076000,3.479947,1.27595514482446,12.2921419326024,4.91747591025048,0.32375857,0.9104946,-0.10995574,297.41144,-72.85716,6.4206886,WAL
8122430111000,3.484982,1.51363160820843,12.7917475442108,4.94657908141032,0.09773844,0.9627236,-0.060170226,297.18344,-72.794106,6.2453256,WAL
8122435082000,3.489953,1.7205353939433,13.0366450370029,4.88136648987482,-0.111177474,1.0002918,0.0061086523,296.9307,-72.681404,6.089333,WAL
8122440133000,3.495004,1.92535246759021,13.2370098940538,4.79676828396539,-0.28710666,0.9755518,0.056505036,296.68127,-72.51567,5.9510903,WAL
8122445172000,3.500043,2.0741301191664,13.295338669719,4.73159589832649,-0.41783184,0.9071349,0.1160644,296.41528,-72.32272,5.8579297,WAL
8122450160000,3.505031,2.19479729937901,13.2852828701189,4.676290050521,-0.49877146,0.80756384,0.17531833,296.1635,-72.09637,5.7875137,WAL
8122455076000,3.509947,2.26207998183327,13.1756689618222,4.69074550954445,-0.54733527,0.6753115,0.23701571,295.93478,-71.85871,5.7724285,WAL
8122460122000,3.514993,2.31555613480266,13.0330659492807,4.72639626267982,-0.56382865,0.5299256,0.2996294,295.73438,-71.609436,5.7838755,WAL
8122465093000,3.519964,2.3225749498706,12.8009152564205,4.78585057640852,-0.55955255,0.38637227,0.37232238,295.542,-71.37104,5.830506,WAL
8122470084000,3.524955,2.29878532800119,12.5059260914792,4.86197688944854,-0.54244834,0.25442538,0.43585235,295.38312,-71.13361,5.901752,WAL
8122475637000,3.530508,2.23927598487505,12.0822282653861,4.87825431641179,-0.5170974,0.16707164,0.49571714,295.22437,-70.892395,6.0031514,WAL
8122480145000,3.535016,2.17486392038419,11.6917292810518,4.85812553312197,-0.46609017,0.10995574,0.5513059,295.0889,-70.66386,6.1261435,WAL
8122485060000,3.539931,2.09023352536009,11.1691137664647,4.83348400048674,-0.39767328,0.10415252,0.57818395,294.9456,-70.42623,6.2597046,WAL
8122490074000,3.544945,1.98529673612794,10.5108737346777,4.80486490331777,-0.3155119,0.13194689,0.57971114,294.80603,-70.20944,6.3989367,WAL
8122495167000,3.550038,1.92075279072114,9.80789178088832,4.81770136495202,-0.2275473,0.1469131,0.55771995,294.63727,-70.01788,6.5238214,WAL
8122500240000,3.555111,1.91114093862894,9.0629732437432,4.88498432959739,-0.13775012,0.1966986,0.54000485,294.4513,-69.852325,6.640626,WAL
8122504982000,3.559853,1.9426781142255,8.36676359933902,4.97694059189578,-0.096516706,0.24404067,0.47861293,294.24246,-69.68856,6.73012,WAL
8122510139000,3.56501,2.04203051780822,7.60979301594022,5.12360376500623,-0.02565634,0.28130344,0.36865717,294.03003,-69.56551,6.7952294,WAL
8122514988000,3.569859,2.09884262440409,6.98668841288309,5.26097720102157,0.027183503,0.35918877,0.28099802,293.768,-69.40577,6.855183,WAL
8122520076000,3.574947,2.07118829523269,6.5442202530647,5.40385730817253,0.05131268,0.48624873,0.18509217,293.4949,-69.27022,6.873472,WAL
8122525049000,3.57992,1.94170337043699,6.24155538993903,5.51813063571138,0.043676864,0.6533204,0.06505715,293.14835,-69.093605,6.883598,WAL
8122530086000,3.584957,1.38284417650407,6.4768646804878,5.52793507430894,-0.00580322,0.8222246,-0.004276057,292.77313,-68.91702,6.8683558,WAL
8122535041000,3.589912,0.810538540178275,6.92787094817579,5.44064343573798,-0.065973446,0.9465357,-0.015271631,292.34814,-68.69565,6.835845,WAL
8122540076000,3.594947,0.150822801351575,8.14734502570481,5.01582679187396,-0.22021692,1.03786,-0.018936822,291.89557,-68.44158,6.773758,WAL
8122545718000,3.600589,-0.382880509029387,9.94217309492908,4.524577520089,-0.52473325,1.1172725,-0.05589417,291.41275,-68.20279,6.584228,WAL
8122550159000,3.60503,-0.540591086157412,11.9017273949198,4.11847266912024,-0.86437434,1.2000448,-0.14477506,290.9145,-67.91509,6.375786,WAL
8122555080000,3.609951,-0.647416441446634,13.9574292209756,3.67450113841951,-1.0277808,1.1969905,-0.269697,290.5392,-67.746284,6.0721426,WAL
8122560100000,3.614971,-0.356617863815415,15.373899357561,3.25706458115122,-0.86590147,1.0274754,-0.44929138,290.20334,-67.58267,5.747571,WAL
8122565063000,3.619934,-0.0822168783454266,16.648475723333,2.88501037989686,-0.52442783,0.6737844,-0.6252206,290.0548,-67.65581,5.350792,WAL
8122570076000,3.624947,0.0654615861901746,16.6919114430471,2.91107122212069,-0.18784106,0.25442538,-0.77640975,289.983,-67.77136,4.9553666,WAL
8122575097000,3.629968,0.213375723519768,16.7354164796888,2.93717365356012,0.07941248,-0.096516706,-0.8576548,290.0573,-68.091354,4.5843163,WAL
8122580078000,3.634949,0.0396062358891202,14.9214066615536,2.91224018916402,0.30024028,-0.33658674,-0.8060367,290.20932,-68.470505,4.2583833,WAL
8122585161000,3.640032,-0.165502206581006,12.8793017184358,2.86071004256983,0.4297437,-0.55863625,-0.6936375,290.44672,-68.87836,3.975882,WAL
8122590089000,3.64496,-0.200656402007449,11.4863167143389,2.57508215310987,0.49632803,-0.74220127,-0.57910025,290.71567,-69.30569,3.750216,WAL
8122595136000,3.650007,-0.236659491357542,10.0596942882682,2.28255699927374,0.4569272,-0.83291477,-0.44532076,290.94028,-69.64092,3.5683255,WAL
8122600133000,3.655004,-0.0787396830456853,9.04541723762092,2.01910565677617,0.38973203,-0.9969321,-0.37507126,291.2296,-69.97449,3.429036,WAL
8122605050000,3.659921,0.0926412287817259,8.08027225353893,1.76203429138971,0.17256944,-1.1129965,-0.21471913,291.50928,-70.23503,3.3560627,WAL
8122610094000,3.664965,0.265517824377932,7.3256551418465,1.19099245834115,0.0036651916,-1.1878275,-0.070249505,291.7955,-70.45347,3.317126,WAL
8122615437000,3.670308,0.447955186019891,6.58150272588666,0.514053839386377,-0.019242255,-1.2794572,0.013744468,292.10825,-70.6452,3.3159797,WAL
8122620075000,3.674946,0.557613040976146,6.07740064686127,-0.196568037037037,0.08827003,-1.3500122,0.038789943,292.41074,-70.806305,3.3660042,WAL
8122625072000,3.679943,0.657749695250052,5.58673105921741,-1.00767490790123,0.20433442,-1.352761,0.04062254,292.71338,-70.96134,3.430137,WAL
8122630117000,3.684988,0.761765811603637,5.26755839340773,-1.68229512361025,0.3222314,-1.2776246,0.03023783,293.06436,-71.179474,3.5213385,WAL
8122635064000,3.689935,0.864566546910519,5.00321367468485,-2.3039949594751,0.4615087,-1.1710287,-0.004276057,293.4096,-71.4385,3.598395,WAL
8122640096000,3.694967,1.00381495796122,5.0366014148728,-2.67454782035225,0.60903263,-1.0659598,-0.086437434,293.8158,-71.79918,3.672783,WAL
8122645135000,3.700006,1.14976375252624,5.12674626516634,-2.99649357338552,0.7058548,-0.94225967,-0.16279559,294.1905,-72.18769,3.7236476,WAL
8122650090000,3.704961,1.29377927468767,5.29877278707224,-3.25891291700163,0.768163,-0.82436264,-0.2556471,294.6001,-72.67474,3.7510405,WAL
8122655092000,3.709963,1.43949234378055,5.5277502730038,-3.48789062029332,0.79779,-0.7370089,-0.3454443,294.98874,-73.18575,3.7468517,WAL
8122660097000,3.714968,1.49519378123189,5.94307025407982,-3.65542923854566,0.81336707,-0.6600399,-0.43157628,295.383,-73.76423,3.723874,WAL
8122665095000,3.719966,1.52203639067203,6.41729010795401,-3.80306377732498,0.84513205,-0.5864306,-0.5360342,295.75836,-74.36315,3.66187,WAL
8122670088000,3.724959,1.57126115615104,7.07507872691839,-3.84746178660171,0.90285885,-0.5122105,-0.63621616,296.12866,-75.01569,3.5829353,WAL
8122675116000,3.729987,1.63479941851401,7.85219986419001,-3.82791158343484,1.0021244,-0.4822781,-0.743423,296.49207,-75.69517,3.4693475,WAL
8122680164000,3.735035,1.78069072153149,8.84172648250309,-3.69724281037464,1.0818423,-0.46120325,-0.8072584,296.85394,-76.431366,3.3282862,WAL
8122685073000,3.739944,1.9645602570811,9.91107301049815,-3.51337317377522,1.1566733,-0.4437936,-0.82527894,297.20267,-77.193245,3.1677458,WAL
8122690115000,3.744986,2.1350607980934,11.0380879137217,-3.2154490248339,1.2153164,-0.42730024,-0.7837401,297.54306,-77.98895,3.0005827,WAL
8122695094000,3.749965,2.29576402809822,12.1630101402022,-2.87567664714492,1.248914,-0.41630468,-0.643852,297.86417,-78.7825,2.8558738,WAL
8122700070000,3.754941,2.37852918547974,12.9149552262504,-2.41185380464079,1.2544118,-0.3943135,-0.54550266,298.16034,-79.567116,2.7245343,WAL
8122705272000,3.760143,2.41635286478125,13.4681272271994,-1.84922618007972,1.2678508,-0.37965274,-0.32834008,298.432,-80.327065,2.6666417,WAL
8122709989000,3.76486,2.35741907119636,13.6241424591461,-1.34997273526225,1.2709051,-0.38362336,-0.11942416,298.674,-81.024,2.6468356,WAL
8122714994000,3.769865,2.20678777113134,13.4631228010403,-0.830554507802341,1.2751812,-0.4092797,0.050701816,298.9032,-81.68601,2.6765187,WAL
8122719998000,3.774869,1.90583399936521,12.9843186954969,-0.399163460043642,1.2712106,-0.47403142,0.17531833,299.1016,-82.23125,2.7467315,WAL
8122724984000,3.779855,1.52694122257489,12.3402003913906,-0.0155345321979766,1.2562444,-0.5870415,0.24984388,299.31393,-82.73646,2.849011,WAL
8122729992000,3.784863,1.09654921347432,11.6162206970796,0.281303512578046,1.2348641,-0.73426,0.29749137,299.52646,-83.13937,2.9544988,WAL
8122734993000,3.789864,0.638352532039275,10.8493447946626,0.52728278419436,1.1921035,-0.89949906,0.29443705,299.775,-83.50709,3.0646904,WAL
8122739980000,3.794851,0.198233895665228,10.1340115618132,0.643416338857928,1.119716,-1.0595458,0.28771752,300.05096,-83.80046,3.1262598,WAL
8122745035000,3.799906,-0.238754898747057,9.43577927129121,0.690915116654239,1.0577132,-1.2253957,0.25473082,300.37607,-84.07611,3.1790862,WAL
8122749990000,3.804861,-0.65060278975547,8.84195924492624,0.668013794129294,0.99112886,-1.4016303,0.21074851,300.75,-84.32042,3.1447241,WAL
8122755040000,3.809911,-1.05997073827542,8.29374127393328,0.600982780863281,0.9288206,-1.5864171,0.15271631,301.17307,-84.55322,3.0990353,WAL
8122760041000,3.814912,-1.46536660175032,7.75084264562915,0.534602167527968,0.8512407,-1.7461584,0.07391469,301.65186,-84.79861,2.9419587,WAL
8122765214000,3.820085,-1.88470529436293,7.18927203890704,0.465938517701218,0.8002335,-1.8683313,-0.015271631,302.1703,-85.04389,2.7713745,WAL
8122770036000,3.824907,-2.13226644837234,7.00396921531701,0.335639113928437,0.7449502,-1.9685133,-0.10140363,302.72437,-85.27799,2.608553,WAL
8122774990000,3.829861,-2.28968822830239,7.04226086754551,0.15694420093032,0.70646566,-2.0360138,-0.19028452,303.30057,-85.51629,2.4233801,WAL
8122780000000,3.834871,-2.36865161027572,7.18630889447459,-0.052943376783302,0.68875057,-2.0595322,-0.25534168,303.926,-85.83057,2.144574,WAL
8122785040000,3.839911,-2.29382711509246,7.53370837625955,-0.320173500587975,0.66523224,-2.0427334,-0.28893927,304.55707,-86.13457,1.8516861,WAL
8122790002000,3.844873,-2.06747121498447,7.88283113276398,-0.543115725892857,0.6554584,-2.0182989,-0.32284227,305.21222,-86.480064,1.5217264,WAL
8122795092000,3.849963,-1.70320119576863,8.24710105318323,-0.737077674553571,0.6389651,-1.9743165,-0.33628133,305.85443,-86.80383,1.1900975,WAL
8122800510000,3.855381,-1.23291940523351,8.63170484790114,-0.881061005451572,0.6282749,-1.920255,-0.36713,306.49677,-87.14048,0.83099157,WAL
8122805077000,3.859948,-0.77591536735417,8.95359452689442,-0.956566013910594,0.62980205,-1.8750509,-0.39675698,307.12628,-87.44593,0.47317356,WAL
8122810073000,3.864944,-0.255809990762968,9.27302451748252,-1.04128406526459,0.64599,-1.8298469,-0.40775254,307.72964,-87.73648,0.1638667,WAL
8122815077000,3.869948,0.314396357634902,9.51311153846154,-1.13131668507463,0.68752885,-1.7941113,-0.39767328,308.31952,-87.99315,-0.14411029,WAL
8122820065000,3.874936,0.830402407717671,9.68691001813498,-1.23902667928903,0.7351763,-1.752267,-0.37934732,308.8723,-88.232,-0.35660988,WAL
8122825079000,3.87995,1.26085836334879,9.75123129438434,-1.37756419675425,0.7852673,-1.6554449,-0.3549127,309.39478,-88.439995,-0.564905,WAL
8122830091000,3.884962,1.65107447148709,9.83733329679909,-1.46564188017529,0.81214535,-1.5827519,-0.34055737,309.88837,-88.65235,-0.6773161,WAL
8122835164000,3.890035,1.99356784267886,9.95304017719348,-1.48878330458226,0.84574294,-1.5497651,-0.31490102,310.36124,-88.833855,-0.78184354,WAL
8122840072000,3.894943,2.23437184668801,9.93079172565223,-1.47658833120755,0.88270026,-1.5118915,-0.2874121,310.79578,-89.02528,-0.81077224,WAL
8122845223000,3.900094,2.30266949791027,9.63412383310258,-1.39335055136936,0.8881981,-1.4770721,-0.25137106,311.21796,-89.13805,-0.83295894,WAL
8122850673000,3.905544,2.37493162160689,9.32023526498075,-1.30528106969238,0.8961393,-1.4450017,-0.24251351,311.61072,-90.80595,-0.7993697,WAL
8122855070000,3.909941,2.43323190745901,9.06699342387401,-1.23422758144767,0.89644474,-1.4147639,-0.23671028,311.9909,-90.86923,-0.7600961,WAL
8122860103000,3.914974,2.49996498425994,8.77712165078095,-1.15289662708432,0.8793405,-1.3949108,-0.25045475,312.362,-91.03237,-0.7254982,WAL
8122865087000,3.919958,2.47663524719463,8.63426161793926,-1.07505523759107,0.88056225,-1.3726143,-0.27916542,312.7207,-91.258255,-0.69721895,WAL
8122870657000,3.925528,2.41102302929322,8.53836686630713,-0.989254523332387,0.86742866,-1.357648,-0.31337386,313.0729,-91.50726,-0.6778676,WAL
8122875059000,3.92993,2.34218618997565,8.47332521996753,-0.923911166359578,0.8570439,-1.3228287,-0.34666604,313.39502,-91.73676,-0.6378024,WAL
8122880111000,3.934982,2.25382611538149,8.40460038717533,-0.850277784533279,0.8582657,-1.284955,-0.39614612,313.7092,-91.97825,-0.61445725,WAL
8122885075000,3.939946,2.22788747561666,8.43735487181561,-0.75685429019814,0.8436049,-1.2195925,-0.45112398,314.0015,-92.20955,-0.6134242,WAL
8122890111000,3.944982,2.23763854007279,8.52999039142742,-0.649592520088961,0.84329945,-1.1890492,-0.4709771,314.29047,-92.445,-0.6181253,WAL
8122895129000,3.95,2.25404460155296,8.64336441846982,-0.563896343228077,0.8533788,-1.1337659,-0.5198463,314.5542,-92.67613,-0.65510964,WAL
8122900114000,3.954985,2.27381490820996,8.76692831897712,-0.489757631332436,0.8518516,-1.0656544,-0.5739079,314.80298,-92.90218,-0.69969344,WAL
8122905122000,3.959993,2.30554414184531,8.90942450797998,-0.40688630481443,0.86742866,-1.0064005,-0.6102544,315.03168,-93.11496,-0.748482,WAL
8122910092000,3.964963,2.34150358674096,9.05775711256965,-0.321482789808292,0.8891144,-0.96577793,-0.6435465,315.24365,-93.32875,-0.81140405,WAL
8122915086000,3.969957,2.34680091419844,9.15955684168949,-0.235773637692227,0.9074403,-0.9263771,-0.66889745,315.43326,-93.52776,-0.8790321,WAL
8122920082000,3.974953,2.33168209414367,9.23011073888772,-0.150100862554245,0.9184359,-0.8970556,-0.70463306,315.612,-93.73015,-0.9583783,WAL
8122925073000,3.979944,2.32053889937704,9.28100807386532,-0.0913731356185108,0.9309586,-0.86742866,-0.7254025,315.77094,-93.91603,-1.0332484,WAL
8122930111000,3.984982,2.310997087788,9.32394640037575,-0.0436642918866805,0.93554014,-0.8188649,-0.7492262,315.91434,-94.102264,-1.1176878,WAL
8122935078000,3.989949,2.28382532216221,9.34041018930999,-0.0982623693900736,0.9605856,-0.8011498,-0.77274454,316.05673,-94.27997,-1.2071222,WAL
8122940615000,3.995486,2.24432319169383,9.34534806518298,-0.211831220060527,0.9932669,-0.77091193,-0.7901542,316.18057,-94.45944,-1.2994133,WAL
8122945097000,3.999968,2.18830790837283,9.37120096366509,-0.270541007377567,1.0091494,-0.74128497,-0.81581056,316.2955,-94.6356,-1.3986354,WAL
8122950123000,4.004994,2.10719901379674,9.41682455144813,-0.311095438785677,1.0125091,-0.72326446,-0.83260936,316.40442,-94.814835,-1.4986032,WAL
8122955071000,4.009942,2.03901856659455,9.425325422328,-0.323001538989182,1.0354166,-0.71593404,-0.84788096,316.51318,-95.021965,-1.6118007,WAL
8122960096000,4.014967,1.97654766222415,9.41283141540459,-0.318836803333622,1.0384709,-0.7263188,-0.86406887,316.62112,-95.22246,-1.7282912,WAL
8122965075000,4.019946,1.89713077832556,9.40952277259605,-0.310936772880302,1.0598512,-0.73853606,-0.86926126,316.72806,-95.445724,-1.859541,WAL
8122970104000,4.024975,1.77948043364424,9.42556576282478,-0.294893548121253,1.0665708,-0.75533485,-0.8857546,316.83835,-95.66444,-1.996756,WAL
8122975075000,4.029946,1.6602076323312,9.43070812134056,-0.275070057088221,1.0595458,-0.77671516,-0.8912524,316.95758,-95.88434,-2.1443465,WAL
8122980108000,4.034979,1.53667861301134,9.42595690980779,-0.251314485608674,1.0491611,-0.79717916,-0.8979719,317.08063,-96.103,-2.2948124,WAL
8122985107000,4.039978,1.4075209386157,9.44678739212044,-0.230136413457816,1.0036516,-0.80939645,-0.906524,317.21332,-96.31148,-2.465595,WAL
8122990082000,4.044953,1.27244484931078,9.49336533717861,-0.211505215980057,0.9624182,-0.8371908,-0.9089675,317.356,-96.51527,-2.6344182,WAL
8122995141000,4.050012,1.13482014439863,9.54296975846834,-0.211850998372116,0.9297369,-0.87109387,-0.9095783,317.50153,-96.72198,-2.8294082,WAL
8123000125000,4.054996,0.998915027972509,9.59452002650957,-0.235282908585174,0.87109387,-0.91324353,-0.91813046,317.65683,-96.91041,-3.0243058,WAL
8123004983000,4.059854,0.903058137317145,9.65550887068461,-0.279814785789936,0.7993172,-0.9505063,-0.9224065,317.82874,-97.091286,-3.242647,WAL
8123010148000,4.065019,0.859643098673688,9.73751520869904,-0.361820977729666,0.711658,-0.98929626,-0.91996306,318.01242,-97.25333,-3.4576926,WAL
8123014987000,4.069858,0.849270395166899,9.84863204251937,-0.45845845858335,0.63194007,-1.0464121,-0.9251554,318.21503,-97.41974,-3.706776,WAL
8123020088000,4.074959,0.897801373018081,10.0330494593682,-0.599198332358434,0.56321776,-1.0821478,-0.9129381,318.42218,-97.56634,-3.9441624,WAL
8123024999000,4.07987,0.962832635110881,10.2132872009021,-0.755821724046232,0.49571714,-1.1136073,-0.8921687,318.64764,-97.70901,-4.182824,WAL
8123030072000,4.084943,1.06783284260477,10.4050267703439,-0.961256915730126,0.4334089,-1.1279627,-0.8555168,318.87766,-97.83455,-4.4077816,WAL
8123035064000,4.089935,1.18939110910227,10.5843003022287,-1.15431741166424,0.40317106,-1.1074986,-0.8188649,319.10406,-97.9601,-4.60933,WAL
8123040100000,4.094971,1.38025697762966,10.7299609116851,-1.3150466331181,0.3494149,-1.0919216,-0.77366084,319.3355,-98.05989,-4.7939963,WAL
8123045132000,4.100003,1.57235128264113,10.8502095117414,-1.45251477050373,0.33261612,-1.0708468,-0.7174612,319.54022,-98.17846,-4.943194,WAL
8123050093000,4.104964,1.76486110818676,10.9114629453909,-1.53564393444148,0.31978795,-1.0372492,-0.66798115,319.7367,-98.27882,-5.077799,WAL
8123055084000,4.109955,1.95676004173139,10.9607880223405,-1.60528222305611,0.30665436,-1.0015136,-0.6065892,319.91663,-98.35991,-5.1602125,WAL
8123060097000,4.114968,2.13691253639934,10.9230813728947,-1.5759551449952,0.2874121,-0.981355,-0.52931476,320.09265,-98.424934,-5.2228017,WAL
8123065068000,4.119939,2.31555567443931,10.8856906379265,-1.5468737755476,0.25381452,-0.95417154,-0.46639562,320.247,-98.46058,-5.2344017,WAL
8123070088000,4.124959,2.58525014919113,10.7637681545836,-1.47018623702816,0.22724187,-0.93492925,-0.40194935,320.4002,-98.48055,-5.2245893,WAL
8123075053000,4.129924,2.87014426872379,10.6260694772319,-1.38471793175554,0.2003638,-0.90102625,-0.33841935,320.54315,-98.48344,-5.1975245,WAL
8123080102000,4.134973,3.18281516534973,10.4809730112582,-1.21983241736683,0.17470746,-0.8750645,-0.2782491,320.6644,-98.453995,-5.1219664,WAL
8123084992000,4.139863,3.4903651217763,10.3394025922026,-1.0440895487126,0.14660765,-0.8738427,-0.24495697,320.7844,-98.41473,-5.038928,WAL
8123090228000,4.145099,3.76357761934258,10.2297821411742,-0.832413383296599,0.12797627,-0.8472701,-0.1853976,320.87424,-98.3257,-4.8868356,WAL
8123095186000,4.150057,4.01618842587878,10.130542067072,-0.629422585550067,0.10903945,-0.81245077,-0.14446963,320.96255,-98.233086,-4.7344894,WAL
8123100160000,4.155031,4.24068352051543,10.1211129667923,-0.433657567567485,0.08277224,-0.79320854,-0.10781772,321.03073,-98.08409,-4.5232153,WAL
8123104990000,4.159861,4.45271560047876,10.1305363130284,-0.245184596119996,0.07452556,-0.76144356,-0.07788532,321.08765,-97.937164,-4.3057218,WAL
8123110070000,4.164941,4.634824407895,10.2039126358593,-0.143019339625755,0.04184427,-0.7104363,-0.04734206,321.12018,-97.72908,-4.0386825,WAL
8123114998000,4.169869,4.80312583489846,10.2880640327885,-0.0635437003683011,0.01160644,-0.66889745,-0.027488936,321.14847,-97.526535,-3.7710087,WAL
8123120086000,4.174957,5.18637930208431,10.9384952261894,-0.611716154820451,-0.0033597588,-0.59956425,0.0036651916,321.14374,-97.2804,-3.4574893,WAL
8123125073000,4.179944,5.61045212622675,11.706289998598,-1.29469667376764,-0.014660766,-0.46700647,0.051923547,321.11203,-97.03565,-3.136507,WAL
8123130149000,4.18502,5.71061744379148,12.2338985324485,-1.72762358393029,-0.033292156,-0.28405234,0.11362094,321.0401,-96.76771,-2.776527,WAL
8123135053000,4.189924,5.66065249359137,12.6312388033842,-2.02979251641927,-0.048258353,-0.055588737,0.19028452,320.9215,-96.5082,-2.4006598,WAL
8123140092000,4.194963,5.60931208085516,13.0395172750899,-2.34027972090785,-0.04795292,0.18692477,0.27672195,320.74692,-96.31569,-1.9401939,WAL
8123145235000,4.200106,5.55691205253559,13.4562222125741,-2.65717507567759,-0.03268129,0.42638394,0.37507126,320.51724,-96.15076,-1.4600682,WAL
