timestamp,rel_time,acc_x,acc_y,acc_z,gyro_x,gyro_y,gyro_z,azimuth,pitch,roll,label
131225914000,0,-3.217807,9.17935761444911,-1.29571120754307,0.017104227,-0.042760566,0.014049901,117.5932,-120.215,-25.343454,STD
131231712000,0.005798,-3.22020176162327,9.18535740229885,-1.29406845231058,0.010079277,-0.04337143,0.006414085,118.25212,-120.13005,-25.290579,STD
131235933000,0.010019,-3.22291103227774,9.19754909195402,-1.30626019854563,-0.0030543262,-0.038179077,0.009162978,118.88162,-120.04172,-25.235031,STD
131240901000,0.014987,-3.22609976874099,9.2118983727422,-1.32060954592675,0.004276057,-0.032070424,0.0076358155,119.49879,-119.95286,-25.182909,STD
131245922000,0.020008,-3.22932252352803,9.22640073563218,-1.3351119761201,0.0076358155,-0.027794369,0.00580322,120.09295,-119.86162,-25.130644,STD
131250916000,0.025002,-3.2325279482256,9.24082511330049,-1.34953642072987,0.0018325958,-0.014049901,0.002443461,120.66064,-119.77165,-25.078428,STD
131255959000,0.030045,-3.23576482382628,9.25539101970443,-1.36410239473208,-0.0076358155,-0.016493361,0.011301007,121.21281,-119.679886,-25.024921,STD
131260899000,0.034985,-3.22530636362468,9.26368562754597,-1.3840512639213,0.0018325958,-0.013744468,0.0018325958,121.73874,-119.59626,-24.976639,STD
131265918000,0.040004,-3.20629673984576,9.26843814514534,-1.40781340529958,0.0018325958,-0.018325957,0.004581489,122.251915,-119.505646,-24.92417,STD
131270916000,0.045002,-3.19359521144984,9.25517408153137,-1.41483830290677,0.0027488936,-0.017104227,-0.004886922,122.725845,-119.42279,-24.87888,STD
131275916000,0.050002,-3.18510815012407,9.229712808933,-1.41059468362283,0.00061086525,-0.022907447,0.0036651916,123.18973,-119.33522,-24.829136,STD
131280923000,0.055009,-3.1742257950954,9.21640395979304,-1.37614587057238,0.004581489,-0.009162978,0.006414085,123.63117,-119.25214,-24.776815,STD
131285919000,0.060005,-3.15875343566886,9.2267185429557,-1.28331171401315,0.007941248,-0.0030543262,0.0018325958,124.06283,-119.1692,-24.72569,STD
131290846000,0.064932,-3.1485342155008,9.23651166236089,-1.22646696200318,0.003970624,0.01038471,0.0033597588,124.47445,-119.08549,-24.671724,STD
131295864000,0.06995,-3.14375913775835,9.24606201728935,-1.20736665103339,0.0015271631,0.012217305,-0.0018325958,124.87432,-119.00607,-24.621826,STD
131301525000,0.075611,-3.1467842759283,9.24839915364917,-1.18871353610755,-0.0061086523,0.012217305,0.00580322,125.28848,-118.913315,-24.566803,STD
131305944000,0.08003,-3.15512070441249,9.24423085235891,-1.17620889338127,-0.01038471,0.006414085,0.0061086523,125.69096,-118.824875,-24.516207,STD
131310848000,0.084934,-3.15734734316181,9.25361397348856,-1.16737083728233,-0.008552114,0.015271631,0.005192355,126.08375,-118.7319,-24.461401,STD
131315891000,0.089977,-3.15026030504794,9.28196247128742,-1.16500846657699,-0.016187929,0.0143553335,0.0033597588,126.47025,-118.63838,-24.40871,STD
131320807000,0.094893,-3.14335174280963,9.30959705688711,-1.16270558845138,-0.021380283,0.013133603,0.004581489,126.85018,-118.5488,-24.359192,STD
131325901000,0.099987,-3.13619303328116,9.33823224383682,-1.16031932702504,-0.024129177,0.0061086523,0.005192355,127.221825,-118.460236,-24.311474,STD
131330827000,0.104913,-3.12696091139695,9.35188591418309,-1.16344860480536,-0.018936822,0.006414085,-0.0012217305,127.58139,-118.37468,-24.265484,STD
131335920000,0.110006,-3.11275608398214,9.33768079011746,-1.17765348166197,-0.014966198,0.009468411,0.005192355,127.93397,-118.28636,-24.216623,STD
131340843000,0.114929,-3.10934628050207,9.32264133512064,-1.19010841220083,-0.021991149,0.023823744,0.012217305,128.2879,-118.19418,-24.164732,STD
131346042000,0.120128,-3.13361622113088,9.303225230563,-1.19981638845235,-0.019547688,0.017104227,0.015882496,128.63843,-118.104324,-24.113852,STD
131350851000,0.124937,-3.15606556609798,9.28526561394102,-1.20879612643919,-0.027794369,0.012217305,0.014966198,128.97305,-118.01348,-24.06117,STD
131355978000,0.130064,-3.17999939675847,9.26611839946381,-1.21836965870339,-0.014966198,0.006414085,0.007941248,129.30148,-117.927734,-24.0103,STD
131360894000,0.13498,-3.20101560616622,9.24883292672028,-1.22819340616622,-0.016493361,0.014660766,0.010079277,129.61476,-117.833954,-23.95019,STD
131365924000,0.14001,-3.21393016487936,9.23591854781055,-1.24110796487936,-0.018325957,0.009773844,0.010995574,129.92545,-117.74519,-23.894547,STD
131371236000,0.145322,-3.22768509301107,9.22236460046593,-1.25509715299942,-0.021991149,0.004581489,0.0021380284,130.2132,-117.67131,-23.851156,STD
131375920000,0.150006,-3.2472793716754,9.21583305299942,-1.28993134535042,-0.018325957,-0.00061086525,-0.00061086525,130.49617,-117.59735,-23.806759,STD
131380821000,0.154907,-3.2677814126092,9.20899891249272,-1.32637933354688,-0.017715093,0.01038471,-0.0009162979,130.76323,-117.52969,-23.767277,STD
131385916000,0.160002,-3.28909500137837,9.20189425101922,-1.36427007010289,-0.028099801,0.01282817,-0.0070249503,131.02753,-117.463776,-23.73149,STD
131390825000,0.164911,-3.30963050820229,9.19504895500874,-1.40077755307707,-0.025045475,0.022602014,0.0018325958,131.2814,-117.3968,-23.690695,STD
131396025000,0.170111,-3.32149611554304,9.18581343258209,-1.42759258021177,-0.028710667,0.0421497,-0.0061086523,131.52852,-117.33751,-23.662848,STD
131400813000,0.174899,-3.33040493979017,9.17690488741014,-1.44986468734214,-0.028099801,0.058643065,-0.0143553335,131.76866,-117.277626,-23.632195,STD
131405989000,0.180075,-3.33102415015638,9.18480924985268,-1.48465506253116,-0.01985312,0.0711658,-0.019242255,131.98189,-117.23615,-23.612078,STD
131410875000,0.184961,-3.32890308885363,9.19753530760165,-1.52071275031504,-0.019242255,0.06536258,-0.028099801,132.18999,-117.19684,-23.59524,STD
131415920000,0.190006,-3.326713004066,9.21067549616971,-1.55794382581025,-0.015577064,0.07574729,-0.029626964,132.38567,-117.166336,-23.580797,STD
131420906000,0.194992,-3.32454853176647,9.22366201355333,-1.5947394932868,-0.021380283,0.08246681,-0.039095376,132.57848,-117.13855,-23.57118,STD
131425884000,0.19997,-3.32140636614222,9.24076926042853,-1.62022595208571,-0.0033597588,0.09101892,-0.049785517,132.76308,-117.11499,-23.561056,STD
131430932000,0.205018,-3.31640241400476,9.26578928237243,-1.62522995647449,-0.00580322,0.092240654,-0.056199603,132.94339,-117.088844,-23.551958,STD
131435904000,0.20999,-3.30740229057464,9.28609807388264,-1.63628771477653,-0.003970624,0.09193522,-0.05009095,133.10844,-117.06992,-23.54132,STD
131441291000,0.215377,-3.29171644068106,9.30178408756461,-1.65720201751292,0.0030543262,0.09315695,-0.05009095,133.26805,-117.053955,-23.533318,STD
131445858000,0.219944,-3.28195887693988,9.31154178332499,-1.66444057458244,0.013133603,0.086132,-0.049480084,133.42911,-117.0342,-23.521294,STD
131450938000,0.225024,-3.27531661452692,9.31818418445365,-1.66001237652118,0.027488936,0.0720821,-0.054367006,133.58809,-117.01694,-23.51072,STD
131455824000,0.22991,-3.26892801331634,9.32457291908251,-1.65575328681109,0.039095376,0.07086037,-0.056199603,133.74702,-117.00085,-23.499352,STD
131460911000,0.234997,-3.26227659817958,9.33122447312611,-1.65131898690211,0.058643065,0.053450707,-0.06566802,133.9108,-116.990265,-23.492857,STD
131466037000,0.240123,-3.25436449046671,9.34001157343508,-1.64546099046671,0.08002335,0.04062254,-0.07360926,134.06892,-116.98002,-23.484226,STD
131470933000,0.245019,-3.23362217115682,9.37112516069454,-1.62471867115682,0.094989546,0.04153884,-0.07819075,134.22438,-116.972275,-23.476866,STD
131475897000,0.249983,-3.20781065139438,9.40484433700773,-1.60112856477294,0.112704635,0.03604105,-0.080634214,134.38318,-116.962204,-23.465439,STD
131480927000,0.255013,-3.16696448284341,9.44569045816846,-1.5693593330978,0.11484267,0.021685716,-0.090713486,134.5403,-116.9543,-23.457422,STD
131485869000,0.259955,-3.11919873175853,9.49011307086614,-1.53613499658793,0.13988814,0.010079277,-0.10842858,134.70256,-116.94762,-23.449501,STD
131490914000,0.265,-3.01284115318771,9.5678358001016,-1.48704686040132,0.14385876,-0.01740966,-0.11881329,134.87059,-116.93816,-23.443733,STD
131495927000,0.270013,-2.90715819156718,9.64506554076708,-1.43827008602997,0.16187929,-0.042760566,-0.12583824,135.0501,-116.92386,-23.432072,STD
131500921000,0.275007,-2.83880541648417,9.67760240075652,-1.45980433513836,0.17073683,-0.07269296,-0.13561209,135.23491,-116.91127,-23.4255,STD
131505812000,0.279898,-2.78285444077245,9.69625256370695,-1.50176737217798,0.18142697,-0.10354166,-0.13713925,135.42429,-116.900055,-23.419504,STD
131510998000,0.285084,-2.74217621637744,9.69036765726681,-1.59334377288503,0.20158553,-0.13805555,-0.13775012,135.64522,-116.86009,-23.385532,STD
131515817000,0.289903,-2.71032315854861,9.67671651646618,-1.69345362756853,0.22327125,-0.16707164,-0.13041973,135.87029,-116.819786,-23.351233,STD
131520919000,0.295005,-2.68696357543463,9.62463933552696,-1.80257683775661,0.24617869,-0.19792034,-0.14110987,136.10246,-116.78122,-23.316439,STD
131525880000,0.299966,-2.66829723428936,9.55930723897456,-1.90990839679796,0.2764165,-0.23884831,-0.124005646,136.34502,-116.73726,-23.27427,STD
131530932000,0.305018,-2.65250223565715,9.47283267581712,-2.00647582654291,0.32284227,-0.27305678,-0.12003502,136.5769,-116.710464,-23.23945,WAL
131535905000,0.309991,-2.63839383416609,9.37877633850104,-2.09582944520589,0.35796702,-0.30390546,-0.112399206,136.81786,-116.6801,-23.201014,WAL
131540932000,0.315018,-2.66207727980655,9.25211251707461,-2.14818313564943,0.40683624,-0.3173445,-0.11026118,137.0441,-116.67204,-23.167784,WAL
131545980000,0.320066,-2.70501965722463,9.10897042864193,-2.18158284003158,0.43860126,-0.34422258,-0.10842858,137.2806,-116.663055,-23.134958,WAL
131550920000,0.325006,-2.7625340507167,8.96201113443161,-2.17477981923154,0.47433686,-0.35888332,-0.10873401,137.49895,-116.67631,-23.10947,WAL
131556164000,0.33025,-2.83252130156281,8.80204068549672,-2.14478535026876,0.505491,-0.36560285,-0.116675265,137.71904,-116.69263,-23.086016,WAL
131560874000,0.33496,-2.90962816527301,8.67888184929797,-2.09227486234009,0.5314528,-0.3680463,-0.116980694,137.91814,-116.72977,-23.072758,WAL
131565890000,0.339976,-2.99955745475819,8.55897597347894,-2.0223297550702,0.55863625,-0.36651915,-0.12583824,138.11363,-116.7729,-23.06335,WAL
131570879000,0.344965,-3.0969722772226,8.46872534487389,-1.98227041536396,0.5815437,-0.36010507,-0.12736541,138.29457,-116.835945,-23.070208,WAL
131575853000,0.349939,-3.1974777503021,8.39106234784694,-1.95485984480675,0.5885687,-0.3594942,-0.14935656,138.4716,-116.90463,-23.084236,WAL
131580845000,0.354931,-3.26768479259781,8.37957265825204,-1.93823957865835,0.5842926,-0.33200526,-0.16340645,138.62737,-116.984795,-23.110182,WAL
131585882000,0.359968,-3.31862546347179,8.41110722659157,-1.92853660337926,0.56596667,-0.30604348,-0.16737708,138.77966,-117.06319,-23.137714,WAL
131590869000,0.364955,-3.36906046955647,8.44232876566429,-1.91892994510711,0.5335908,-0.28344148,-0.17654006,138.90462,-117.15796,-23.180532,WAL
131595905000,0.369991,-3.41999102713467,8.47385707341849,-1.90922889616816,0.48838675,-0.2452624,-0.17165314,139.01543,-117.242004,-23.21572,WAL
131600878000,0.374964,-3.4764373810565,8.53521906404799,-1.9854631558243,0.46303585,-0.20952678,-0.17012598,139.11702,-117.32378,-23.251097,WAL
131605915000,0.380001,-3.53710876729876,8.61455863660991,-2.11147285305728,0.42821655,-0.15393804,-0.15027285,139.20105,-117.3887,-23.274199,WAL
131610879000,0.384965,-3.62322526666667,8.70023913636364,-2.31323422424242,0.38515055,-0.1001819,-0.13836098,139.2803,-117.45935,-23.309526,WAL
131615889000,0.389975,-3.72984697333333,8.79232141818182,-2.57494225212121,0.35185838,-0.03359759,-0.1301143,139.33871,-117.51958,-23.333849,WAL
131620879000,0.394965,-3.84238389727931,8.89340816089254,-2.83910433675866,0.31215215,0.029321533,-0.13316862,139.36496,-117.58396,-23.360752,WAL
131626535000,0.400621,-3.97491087430025,9.01533265648855,-3.14126575801527,0.2959642,0.11026118,-0.13591751,139.36589,-117.64269,-23.378084,WAL
131630841000,0.404927,-4.03343603963801,9.09937285429864,-3.33893708992459,0.2843578,0.18906279,-0.1328632,139.32268,-117.73155,-23.41038,WAL
131635884000,0.40997,-4.07228630760181,9.19164225972851,-3.54775770491704,0.28496864,0.2519819,-0.13713925,139.25961,-117.81995,-23.439613,WAL
131640875000,0.414961,-4.08013743265464,9.23662051735395,-3.6758219737457,0.32742378,0.31581733,-0.13775012,139.13504,-117.94144,-23.475498,WAL
131645907000,0.419993,-4.06357709471649,9.24490083762887,-3.74206315257732,0.37293324,0.33567044,-0.12156218,139.00789,-118.05797,-23.505882,WAL
131650868000,0.424954,-4.03873260245801,9.2389385559197,-3.76901677845145,0.43188173,0.35124752,-0.12186762,138.85059,-118.20747,-23.544931,WAL
131655909000,0.429995,-3.98434483836542,9.1845505853134,-3.66518539532978,0.49877146,0.35369098,-0.10903945,138.69666,-118.35501,-23.574812,WAL
131660885000,0.434971,-3.92431159249822,9.1316282190841,-3.53678545139879,0.5552765,0.3475823,-0.106595986,138.54146,-118.516205,-23.61024,WAL
131665884000,0.43997,-3.84753498724162,9.0804441421953,-3.34057866532431,0.5983425,0.3359759,-0.09193522,138.39229,-118.676216,-23.638485,WAL
131671096000,0.445182,-3.7669677834531,9.02813163740532,-3.13748211712954,0.6239988,0.29901853,-0.087659165,138.2683,-118.82916,-23.665552,WAL
131675870000,0.449956,-3.68705386059429,8.99261406020587,-2.96877476121577,0.6218608,0.29779682,-0.08155051,138.14093,-118.977234,-23.685835,WAL
131681219000,0.455305,-3.59740652212088,8.95566457011126,-2.78260607640573,0.61208695,0.29657507,-0.05681047,138.06877,-119.09827,-23.692636,WAL
131685885000,0.459971,-3.51678737692693,8.98701661060439,-2.68407167993385,0.5757405,0.28893927,-0.04550946,137.99966,-119.21339,-23.702002,WAL
131691201000,0.465287,-3.42720689480665,9.02522172520082,-2.57597682178218,0.5198463,0.28527406,-0.026267206,137.9697,-119.29329,-23.692741,WAL
131696791000,0.470877,-3.39220412766673,9.13023028768915,-2.57097626237624,0.44959682,0.30573806,-0.002443461,137.93706,-119.35893,-23.67798,WAL
131700813000,0.474899,-3.36701966801793,9.20578385447413,-2.56737836435644,0.3472769,0.32284227,0.014049901,137.94289,-119.38755,-23.651245,WAL
131705981000,0.480067,-3.43524280999526,9.31178217290384,-2.69473462055898,0.30543262,0.3390302,0.045814894,137.94682,-119.40436,-23.612787,WAL
131710874000,0.48496,-3.51959391149218,9.41389173529133,-2.84123952392231,0.23609942,0.36774087,0.07238753,137.94318,-119.39672,-23.569504,WAL
131715928000,0.490014,-3.64104579299253,9.52352689718553,-3.04420904043653,0.19547687,0.3817908,0.09254608,137.9524,-119.369675,-23.503654,WAL
131720926000,0.495012,-3.77392752234348,9.63349772946582,-3.26415103991959,0.18967366,0.37568212,0.09896017,137.96071,-119.33479,-23.435488,WAL
131725916000,0.500002,-3.88022431356703,9.70366888342257,-3.48533759621174,0.20525073,0.35460728,0.1020145,137.95183,-119.31055,-23.370218,WAL
131730920000,0.505006,-3.97220560824326,9.75208014435802,-3.70802944706536,0.2434298,0.3417791,0.10170906,137.94336,-119.28938,-23.306013,WAL
131735919000,0.510005,-3.92403881210948,9.7068470149295,-3.71841429875587,0.30695978,0.3313944,0.113926366,137.91737,-119.302986,-23.259325,WAL
131740907000,0.514993,-3.80517740608239,9.61439916274998,-3.62156426421528,0.37934732,0.3109304,0.12614368,137.8991,-119.32449,-23.216208,WAL
131745980000,0.520066,-3.69175306884667,9.47423959451884,-3.44899960438077,0.4550946,0.2843578,0.14202617,137.85724,-119.38022,-23.183788,WAL
131750938000,0.525024,-3.58824240197239,9.29186363313609,-3.20747480078896,0.5122105,0.24007004,0.15943582,137.82942,-119.440636,-23.152237,WAL
131755940000,0.530026,-3.48425379636843,9.10742060937059,-3.00770755193339,0.5448918,0.1957823,0.18112154,137.82864,-119.48755,-23.107294,WAL
131760902000,0.534988,-3.38142550802521,8.92411791504375,-2.84228794482077,0.54458636,0.1518,0.19700404,137.84282,-119.53446,-23.064556,WAL
131766093000,0.540179,-3.31757168689135,8.74657909304889,-2.75412378980112,0.5314528,0.121256754,0.22113322,137.89063,-119.56251,-23.000315,WAL
131770929000,0.545015,-3.30622809958852,8.59684420023024,-2.7654673297247,0.50579643,0.113926366,0.22388211,137.94397,-119.5883,-22.941017,WAL
131775851000,0.549937,-3.29468278596062,8.44444652809347,-2.77701259513079,0.47708577,0.09285152,0.22357668,138.02904,-119.59567,-22.874496,WAL
131780898000,0.554984,-3.28284426546488,8.28817853718037,-2.78885106618007,0.43585235,0.080634214,0.2180789,138.11282,-119.59593,-22.809984,WAL
131785829000,0.559915,-3.29955971691023,8.1671165177453,-2.84663079269311,0.37384954,0.06872234,0.19303341,138.20804,-119.595795,-22.755737,WAL
131790894000,0.56498,-3.37189279107267,8.10442789039666,-2.99611913924843,0.32284227,0.05131268,0.18142697,138.30821,-119.58757,-22.702034,WAL
131795837000,0.569923,-3.41579187568049,8.06836320281105,-3.14335870544393,0.29352075,0.027794369,0.160963,138.3786,-119.6052,-22.669857,WAL
131800895000,0.574981,-3.4062027527665,8.08274693724636,-3.29678472213204,0.26053402,-0.0030543262,0.12980886,138.45308,-119.616974,-22.64667,WAL
131805836000,0.579922,-3.38763498698106,8.10588086343773,-3.44290039115076,0.2556471,-0.0290161,0.11575896,138.50308,-119.65544,-22.641594,WAL
131810917000,0.585003,-3.34776454095958,8.15018141041515,-3.5846622339949,0.25809056,-0.034208454,0.09468412,138.55106,-119.69632,-22.647587,WAL
131815857000,0.589943,-3.31247556357101,8.19421793839866,-3.72052056113847,0.26908615,-0.035430185,0.090713486,138.59375,-119.752975,-22.650658,WAL
131820885000,0.594971,-3.30299104424857,8.24638182908214,-3.84381748018515,0.28771752,-0.030543262,0.08399397,138.6327,-119.81476,-22.6597,WAL
131825853000,0.599939,-3.29520292301747,8.29546781264401,-3.96166872256144,0.2941316,-0.020463986,0.08399397,138.66734,-119.88455,-22.660563,WAL
131830904000,0.60499,-3.30449109422043,8.31868830126728,-4.03829563187404,0.3115413,-0.0036651916,0.08674286,138.69742,-119.95824,-22.661125,WAL
131835850000,0.609936,-3.31358618326613,8.34142608323733,-4.11332962384793,0.31856623,0.023518313,0.09987647,138.71628,-120.03456,-22.655138,WAL
131840876000,0.614962,-3.32282838252688,8.36453164170507,-4.1895772671275,0.32589662,0.05222898,0.095294975,138.72766,-120.11496,-22.651056,WAL
131845881000,0.619967,-3.33203196535618,8.38754065884217,-4.26550632693932,0.34422258,0.06658431,0.099571034,138.73734,-120.191574,-22.63972,WAL
131850884000,0.62497,-3.27871487050103,8.37681841752674,-4.25879124398574,0.3484986,0.099265605,0.11575896,138.73393,-120.26317,-22.621658,WAL
131855810000,0.629896,-3.22117310810659,8.36353975548883,-4.24551239707262,0.36377025,0.1441642,0.119729586,138.72186,-120.33977,-22.60304,WAL
131860892000,0.634978,-3.15591144275334,8.30075959662215,-4.16778419697565,0.37751472,0.20066923,0.12644911,138.68939,-120.43088,-22.572458,WAL
131865833000,0.639919,-3.09086175134525,8.2264165653967,-4.07485584459937,0.364992,0.2275473,0.12705997,138.65294,-120.51811,-22.541416,WAL
131870916000,0.645002,-3.0271367527478,8.13860415397564,-3.94610222499257,0.36010507,0.26725355,0.1469131,138.60257,-120.59328,-22.486599,WAL
131875835000,0.649921,-2.96649628126547,8.04997594118229,-3.81082743572631,0.3463606,0.29749137,0.15454891,138.54674,-120.665344,-22.43371,WAL
131880922000,0.655008,-2.95314195312989,7.94171319767214,-3.67218358644366,0.32345316,0.29871312,0.1600467,138.5012,-120.719734,-22.37054,WAL
131885900000,0.659986,-2.9578048356025,7.82980411570814,-3.53695989735915,0.28344148,0.269697,0.15607607,138.4571,-120.76747,-22.30995,WAL
131890855000,0.664941,-2.96896424420855,7.75659708768638,-3.4760725115829,0.267559,0.2134974,0.15760323,138.44542,-120.802765,-22.253384,WAL
131895929000,0.670015,-2.98335923281327,7.69901693285277,-3.44728253437346,0.26053402,0.16279559,0.14752395,138.43971,-120.8345,-22.205294,WAL
131900872000,0.674958,-2.97834537510336,7.68701135050923,-3.46051635809217,0.24862215,0.086437434,0.13255776,138.46,-120.860214,-22.169044,WAL
131905864000,0.67995,-2.96388312272865,7.69665305344358,-3.49426161363315,0.24984388,0.03756821,0.12797627,138.4872,-120.88606,-22.13634,WAL
131910908000,0.684994,-2.92004097727092,7.72914717383975,-3.53777153714796,0.24984388,-0.01160644,0.12308934,138.5311,-120.91536,-22.121603,WAL
131915919000,0.690005,-2.86293346660056,7.77197770745736,-3.58536122875843,0.25442538,-0.03634648,0.12492194,138.5817,-120.94399,-22.109142,WAL
131920917000,0.695003,-2.8064955711693,7.82376003770655,-3.66778475823025,0.25625798,-0.055588737,0.13041973,138.64246,-120.97467,-22.094894,WAL
131925917000,0.700003,-2.75028848313318,7.87996699030248,-3.76722791850113,0.24923302,-0.056505036,0.13775012,138.70462,-121.00217,-22.080376,WAL
131930924000,0.70501,-2.69477973243635,7.94457861130201,-3.91445195156282,0.22999077,-0.049785517,0.14996742,138.77446,-121.01814,-22.054722,WAL
131935919000,0.710005,-2.64031929189609,8.01884271210929,-4.11744116238874,0.2098322,-0.03940081,0.15393804,138.8426,-121.031364,-22.029205,WAL
131940903000,0.714989,-2.58716824198155,8.10124850431419,-4.32795871407319,0.21685717,-0.019547688,0.16493362,138.91357,-121.04286,-21.988993,WAL
131945988000,0.720074,-2.53404126340375,8.19301301041357,-4.55012575810771,0.21960606,0.00061086525,0.18387043,138.98235,-121.045975,-21.944971,WAL
131951577000,0.725663,-2.47874306716832,8.27250976158416,-4.73331675128713,0.2556471,0.028099801,0.19761491,139.03328,-121.06166,-21.888437,WAL
131955908000,0.729994,-2.43767665381188,8.32179010940594,-4.84008962326733,0.28802297,0.04642576,0.22449298,139.08488,-121.06964,-21.823439,WAL
131960845000,0.734931,-2.40885848431159,8.35547300960111,-4.89208271077898,0.32284227,0.0421497,0.23793201,139.12064,-121.091675,-21.74541,WAL
131965894000,0.73998,-2.39928642389389,8.36504526991983,-4.86815255973473,0.35613444,0.03176499,0.25289822,139.15697,-121.11333,-21.6604,WAL
131970895000,0.744981,-2.42056734793233,8.3591441160467,-4.7829356112683,0.37568212,-0.0015271631,0.2678644,139.19463,-121.13881,-21.560604,WAL
131975806000,0.749892,-2.47640227932331,8.3358790552038,-4.62938927057776,0.40653083,-0.043066,0.27488935,139.23927,-121.17114,-21.463284,WAL
131980778000,0.754864,-2.54981284071218,8.27138312721924,-4.48244102372933,0.42638394,-0.09712757,0.27977628,139.30373,-121.19742,-21.367914,WAL
131985828000,0.759914,-2.64794186678503,8.14872197270975,-4.34506058191133,0.4428773,-0.13652839,0.28313604,139.37666,-121.22725,-21.275946,WAL
131990841000,0.764927,-2.82458795424933,7.96541897887671,-4.23429481156845,0.44043383,-0.17287487,0.26206118,139.47319,-121.25224,-21.206678,WAL
131995847000,0.769933,-3.09432092901984,7.70988222159708,-4.1538479814431,0.42210788,-0.20647246,0.23671028,139.5792,-121.27599,-21.142916,WAL
132000774000,0.77486,-3.31717766637257,7.53338438748747,-4.15083415139362,0.398895,-0.23182335,0.21105394,139.67827,-121.3114,-21.098082,WAL
132005823000,0.779909,-3.48685545177461,7.45581759368358,-4.2526408023862,0.3659083,-0.25809056,0.17623462,139.7818,-121.34571,-21.066923,WAL
132010770000,0.784856,-3.62381088248276,7.38839982329064,-4.37970480413793,0.3454443,-0.28008172,0.14110987,139.84421,-121.42693,-21.09697,WAL
132015823000,0.789909,-3.72393137296552,7.33118821400985,-4.54657228827586,0.31612277,-0.29749137,0.09101892,139.90509,-121.506424,-21.141422,WAL
132021096000,0.795182,-3.76871547694205,7.30404534180025,-4.72514425277435,0.3005457,-0.29993483,0.042455133,139.92163,-121.62725,-21.213856,WAL
132025857000,0.799943,-3.73948061221208,7.31753830932676,-4.89155828601726,0.29840767,-0.29138273,0.009773844,139.93422,-121.74808,-21.293966,WAL
132030778000,0.804864,-3.70926326935635,7.33148472671763,-5.06356489336621,0.30451632,-0.26939157,-0.02107485,139.90004,-121.90821,-21.398376,WAL
132035821000,0.809907,-3.67829678692972,7.34577689963009,-5.23983583847102,0.32070425,-0.22540927,-0.044898596,139.85283,-122.070984,-21.503317,WAL
132040778000,0.814864,-3.60909052442257,7.38289569578229,-5.40104295229966,0.33658674,-0.1704314,-0.06078109,139.79547,-122.24127,-21.604218,WAL
132045833000,0.819919,-3.46324570307291,7.46554093548905,-5.54202607993573,0.35155296,-0.09712757,-0.08827003,139.71536,-122.417435,-21.704538,WAL
132050769000,0.824855,-3.30517179031621,7.54249216245059,-5.6097562173913,0.35979962,-0.01985312,-0.09101892,139.58887,-122.615524,-21.787958,WAL
132055818000,0.829904,-3.11405202325099,7.61416231832016,-5.54764254130435,0.3680463,0.06261369,-0.0842994,139.43832,-122.81563,-21.864548,WAL
132060820000,0.834906,-2.93817847574373,7.67233608176162,-5.4444323925141,0.3643811,0.10476339,-0.061391957,139.28293,-123.002975,-21.89966,WAL
132065959000,0.840045,-2.78506880042777,7.70582871238577,-5.25304506105386,0.36346483,0.15668693,-0.04153884,139.10416,-123.18776,-21.922483,WAL
132070880000,0.844966,-2.66747619534562,7.73868651124424,-5.10445987967742,0.36377025,0.17256944,-0.014966198,138.95918,-123.32857,-21.90141,WAL
132075914000,0.85,-2.61860004542857,7.77423286114286,-5.037810694,0.3387248,0.13347405,0.015577064,138.82045,-123.45657,-21.875658,WAL
132080842000,0.854928,-2.57524241692069,7.81290631504349,-4.98866691251184,0.31673363,0.0711658,0.03726278,138.73631,-123.544785,-21.824602,WAL
132085919000,0.860005,-2.56686871136657,7.88408198160682,-5.06821641578404,0.27855456,0.0067195175,0.04428773,138.66772,-123.61937,-21.776802,WAL
132090853000,0.864939,-2.55873086161199,7.9532528972703,-5.14552530866271,0.25625798,-0.04337143,0.045814894,138.63258,-123.67355,-21.718596,WAL
132095980000,0.870066,-2.55292836661102,8.08211296452421,-5.25979331615192,0.24465153,-0.04917465,0.046731193,138.6051,-123.719284,-21.663176,WAL
132100822000,0.874908,-2.54809000417362,8.21758691068447,-5.37591391360601,0.23365596,-0.044898596,0.046120327,138.58952,-123.75908,-21.614378,WAL
132105917000,0.880003,-2.53939856235817,8.30030933982602,-5.35559817577534,0.23518312,-0.035430185,0.04550946,138.57481,-123.80109,-21.558607,WAL
132110896000,0.884982,-2.53038142199319,8.37244740431165,-5.31502092643722,0.22510384,-0.025961773,0.05497787,138.5605,-123.83558,-21.50027,WAL
132115893000,0.889979,-2.48671772713713,8.36283605729863,-5.29043863038782,0.20799962,-0.015882496,0.06688975,138.5449,-123.868225,-21.42962,WAL
132120844000,0.89493,-2.43306454331859,8.3286929508281,-5.27092850210884,0.17562376,0.002443461,0.08674286,138.52798,-123.89108,-21.354301,WAL
132125863000,0.899949,-2.36388442723155,8.2558162236271,-5.24141063834686,0.13683382,0.003970624,0.112704635,138.53563,-123.89403,-21.273006,WAL
132130893000,0.904979,-2.29115920832233,8.17400017437252,-5.20959334914135,0.087964594,0.014049901,0.13072516,138.53862,-123.8851,-21.187572,WAL
132135878000,0.909964,-2.19211901730344,8.12227661518486,-5.19330992229136,0.03940081,0.01985312,0.14355333,138.5506,-123.85989,-21.094416,WAL
132140876000,0.914962,-2.08136059247699,8.0828959372911,-5.18346470784183,0.0030543262,0.032070424,0.15790866,138.5617,-123.82352,-20.996489,WAL
132145897000,0.919983,-1.97009247501928,8.04333403578958,-5.17357418728339,-0.027794369,0.021991149,0.17745635,138.59189,-123.78053,-20.892334,WAL
132150858000,0.924944,-1.86015399051268,8.00424489152569,-5.16380185657428,-0.055283304,0.024740042,0.18661933,138.6165,-123.730576,-20.785877,WAL
132155879000,0.929965,-1.78467474009225,7.97973596105648,-5.13486272595945,-0.08979719,0.0143553335,0.20250183,138.6526,-123.67134,-20.675665,WAL
132160903000,0.934989,-1.7176812674963,7.95880051453311,-5.10136574919502,-0.11484267,0.006414085,0.21471913,138.6886,-123.60855,-20.565214,WAL
132165888000,0.939974,-1.63473358344723,7.94073088881657,-4.77790486287016,-0.1328632,-0.037873644,0.21533,138.75475,-123.52359,-20.43571,WAL
132170881000,0.944967,-1.53618457767654,7.92517048242759,-4.18142447744875,-0.18325958,-0.2312125,0.21594086,138.86597,-123.425415,-20.326246,WAL
132175863000,0.949949,-1.62391279752633,7.96752719670177,-4.08213540494735,-0.2565634,-1.1878275,0.015271631,139.18411,-123.34868,-20.368067,WAL
132180892000,0.954978,-1.80572753449235,8.03929611265647,-4.2304581310153,-0.5571091,-1.9984456,-0.2666427,139.5042,-123.22652,-20.437195,WAL
132185887000,0.959973,-1.6470624904931,8.31513038994083,-5.10661242762327,-0.6151413,-1.9004018,-0.13255776,139.93217,-123.03575,-20.432928,WAL
132190890000,0.964976,-1.31157867790927,8.69786581065089,-6.36349544447732,-0.39645153,-1.4844025,0.03023783,140.45076,-122.88494,-20.542532,WAL
132195920000,0.970006,-1.22347953152302,8.96224036717828,-6.57657524805195,-0.2602286,-1.10139,0.067500606,140.92142,-122.73495,-20.656464,WAL
132200883000,0.974969,-1.27959487952578,9.15396724872098,-6.18376776320346,-0.25259277,-0.9502009,0.06627888,141.35158,-122.582245,-20.70716,WAL
132205880000,0.979966,-1.46203579683337,9.33935168700521,-6.39527089080904,-0.40286562,-1.6441438,-0.041233405,141.83322,-122.49544,-20.778032,WAL
132210897000,0.984983,-1.73107578813477,9.52025817783356,-7.02148485824483,-0.6930266,-1.924531,-0.096516706,142.16371,-122.370575,-20.764261,WAL
132215886000,0.989972,-1.78796673983808,9.89162978596728,-7.78502492271884,-0.64660084,-1.520749,0.01863139,142.56442,-122.21768,-20.721502,WAL
132220879000,0.994965,-1.65489537379828,10.4360128958509,-8.67620030455389,-0.4260785,-0.9841039,0.16340645,142.99515,-122.04527,-20.69527,WAL
132225837000,0.999923,-1.62233360661204,10.9428921748285,-9.32259377761052,-0.2660318,-0.41325033,0.21655174,143.21552,-121.95271,-20.646784,WAL
132231069000,1.005155,-2.20951145569741,11.2675109568407,-8.5158206736471,-0.13622294,-0.045814894,0.2144137,143.35301,-121.884674,-20.53478,WAL
132236054000,1.01014,-2.7547587516067,11.5665258234002,-7.73057421367756,-0.050396383,0.03023783,0.2003638,143.39474,-121.86644,-20.34023,WAL
132240881000,1.014967,-3.1398800826696,11.7527380758034,-6.80374407811041,0.018325957,-0.10934488,0.183565,143.3979,-121.87487,-20.134876,WAL
132245911000,1.019997,-3.54119773239952,11.9467815043486,-5.83793600230706,0.11362094,-0.35124752,0.19181168,143.46635,-121.85635,-19.984726,WAL
132250881000,1.024967,-4.01316051118141,12.0934829981455,-5.09137102875532,0.18478674,-0.6273586,0.19914207,143.58186,-121.85164,-19.865946,WAL
132256110000,1.030196,-4.49853685012585,12.2090231567074,-4.35932547274168,0.19639318,-0.90133166,0.21410827,143.7656,-121.85132,-19.776516,WAL
132261672000,1.035758,-4.72695538824462,11.925982843852,-3.85779790538827,0.20158553,-1.1572843,0.22113322,144.10106,-121.78267,-19.750978,WAL
132265829000,1.039915,-4.89767381020789,11.714440488487,-3.48295970015848,0.19058995,-1.2709051,0.21319197,144.52199,-121.68547,-19.799961,WAL
132270885000,1.044971,-4.91490970724303,11.2522735467779,-3.39443654993787,0.19303341,-1.4187346,0.19792034,145.01234,-121.59399,-19.878803,WAL
132275857000,1.049943,-4.9064566452512,10.770451396414,-3.35639801370495,0.10415252,-1.473407,0.16279559,145.49428,-121.48668,-19.960897,WAL
132280886000,1.054972,-4.7962913949589,10.1537800067945,-3.25868573535342,-0.016187929,-1.4083499,0.1001819,145.97447,-121.3881,-20.093992,WAL
132285828000,1.059914,-4.63031710060274,9.4743232470137,-3.12901837881644,-0.16371189,-1.2724323,0.039095376,146.43489,-121.27251,-20.22484,WAL
132290847000,1.064933,-4.38592263912788,8.90419706237779,-2.99364637871529,-0.30543262,-1.1007792,0.010079277,146.81483,-121.184525,-20.380278,WAL
132295953000,1.070039,-4.11819161585843,8.35439148904967,-2.85499985789011,-0.43951756,-0.9117164,-0.019547688,147.13615,-121.080795,-20.52494,WAL
132300926000,1.075012,-3.80109570590469,7.94692928534319,-2.6212884113298,-0.5720753,-0.75411314,-0.064751714,147.38458,-120.99022,-20.678696,WAL
132305893000,1.079979,-3.46841915691877,7.57623297901888,-2.3598996021081,-0.679893,-0.6395759,-0.09560041,147.5847,-120.88359,-20.81305,WAL
132310998000,1.085084,-3.134289354736,7.4589570333167,-2.16295696428785,-0.76052725,-0.5766568,-0.10903945,147.74059,-120.7707,-20.93339,WAL
132315920000,1.090006,-2.81436529906178,7.42131883976445,-1.993585486316,-0.83077675,-0.5555819,-0.112399206,147.86987,-120.647125,-21.046223,WAL
132320915000,1.095001,-2.57238764044567,7.5319507359298,-1.93918347753895,-0.89888823,-0.5516113,-0.07819075,148.03125,-120.481285,-21.129627,WAL
132325931000,1.100017,-2.35451004912246,7.68825418235062,-1.92023761723526,-0.95264435,-0.5494733,-0.009162978,148.18716,-120.30405,-21.198341,WAL
132330931000,1.105017,-2.23099207880484,7.96275377345858,-1.88341540902368,-0.9636399,-0.51159966,0.073303826,148.3816,-120.06615,-21.199745,WAL
132335917000,1.110003,-2.14033073448586,8.27768342470271,-1.8404704882882,-0.94714653,-0.48716503,0.16310102,148.58434,-119.814255,-21.1789,WAL
132340873000,1.114959,-2.10636396276195,8.58635255383873,-1.78198802436504,-0.904386,-0.45570546,0.2770274,148.8359,-119.51166,-21.091156,WAL
132346878000,1.120964,-2.08970282785128,8.95845088556253,-1.70423600345727,-0.86101454,-0.4269948,0.3933972,149.08728,-119.20039,-20.974987,WAL
132350883000,1.124969,-2.13842595420092,9.08772393001805,-1.56522222620814,-0.8035932,-0.39858958,0.5152648,149.38985,-118.84181,-20.797972,WAL
132355874000,1.12996,-2.21510180549429,9.21711462923601,-1.36874025718869,-0.75869465,-0.3820962,0.6218608,149.69315,-118.47617,-20.592892,WAL
132360873000,1.134959,-2.35118398969451,9.24187860434438,-1.15444791763539,-0.72601336,-0.355829,0.66889745,150.02463,-118.07603,-20.350473,WAL
132365886000,1.139972,-2.51784724578457,9.21330768657012,-0.930642975163658,-0.7131852,-0.34391713,0.75686204,150.36423,-117.65921,-20.071337,WAL
132370887000,1.144973,-2.73652575067329,9.12312861264445,-0.742456324596505,-0.68661255,-0.3387248,0.8222246,150.71452,-117.23059,-19.792284,WAL
132375859000,1.149945,-2.98208566540923,9.00034856030943,-0.574202320375322,-0.6789767,-0.33475417,0.8539896,151.05933,-116.79956,-19.501825,WAL
132380887000,1.154973,-3.25204217007663,8.86272497094238,-0.381589384282416,-0.65484756,-0.37018433,0.8744536,151.40602,-116.37222,-19.227774,WAL
132385877000,1.159963,-3.53737358782963,8.71530421265798,-0.172346306857797,-0.62858033,-0.43218717,0.890947,151.75368,-115.950676,-18.952648,WAL
132390833000,1.164919,-3.80365264626584,8.56273442976543,-0.0329030043925586,-0.59986967,-0.5366451,0.86620694,152.0956,-115.574005,-18.747744,WAL
132395959000,1.170045,-4.06395228066864,8.39949526215512,0.0509222446488721,-0.5833763,-0.6792821,0.8026769,152.45703,-115.21326,-18.560932,WAL
132400851000,1.174937,-4.30212506546185,8.26945281787149,0.0918104281903614,-0.57360244,-0.8170323,0.71776664,152.81017,-114.89907,-18.45136,WAL
132405873000,1.179959,-4.52424923473896,8.19219242359438,0.0483513380445783,-0.57940567,-0.95294976,0.6209445,153.19116,-114.608116,-18.375244,WAL
132410883000,1.184969,-4.71602407629946,8.14788230217223,-0.0401014864134988,-0.5833763,-1.0900891,0.52015173,153.56569,-114.386986,-18.392256,WAL
132416305000,1.190391,-4.85701621425524,8.17305947905353,-0.236483610155547,-0.5907067,-1.241889,0.43218717,153.97261,-114.18808,-18.442513,WAL
132420851000,1.194937,-4.95304144032273,8.19615589465191,-0.436487820431535,-0.5723807,-1.3698653,0.35430184,154.37292,-114.05898,-18.568296,WAL
132425867000,1.199953,-4.99733574981097,8.22716189741817,-0.755407431518672,-0.55955255,-1.4822645,0.2773328,154.80301,-113.95169,-18.723614,WAL
132430879000,1.204965,-5.03437187736567,8.25953322681883,-1.07329005325725,-0.5366451,-1.5625933,0.20219639,155.22856,-113.90808,-18.926508,WAL
132435880000,1.209966,-5.00248842158821,8.30508156433666,-1.38301570449834,-0.48624873,-1.6102408,0.13897185,155.66965,-113.889114,-19.145607,WAL
132441354000,1.21544,-4.96156800533333,8.35745629166667,-1.71175844166667,-0.42760566,-1.6303993,0.09285152,156.09222,-113.932236,-19.38758,WAL
132445886000,1.219972,-4.86994143928889,8.42497050277778,-1.88536677277778,-0.37201694,-1.627345,0.06261369,156.51419,-113.993126,-19.634188,WAL
132450876000,1.224962,-4.76878915854657,8.48419818628454,-2.04412379733879,-0.31612277,-1.5894713,0.06688975,156.9061,-114.08929,-19.865625,WAL
132455881000,1.229967,-4.66620840726714,8.47973806857728,-2.06642401330604,-0.29718593,-1.5619824,0.07238753,157.29164,-114.189766,-20.09398,WAL
132460911000,1.234997,-4.56025154168033,8.46104991819672,-2.07639704991803,-0.29749137,-1.4944818,0.079107046,157.64304,-114.28936,-20.28222,WAL
132465884000,1.23997,-4.40019891995082,8.1682704944918,-1.84607712029508,-0.30818152,-1.4184291,0.09621128,157.97786,-114.37938,-20.453276,WAL
132470878000,1.244964,-4.2394704275082,7.87425472091803,-1.61478459495082,-0.34483343,-1.3115277,0.10415252,158.29752,-114.44842,-20.603493,WAL
132475858000,1.249944,-4.06720985266508,7.6631826211615,-1.47142260763723,-0.4098906,-1.2373075,0.10476339,158.5986,-114.50315,-20.739367,WAL
132480876000,1.254962,-3.88561234486874,7.50547959582339,-1.3854028300716,-0.46120325,-1.1655309,0.09865474,158.86314,-114.5491,-20.86044,WAL
132485884000,1.25997,-3.69444440526937,7.37982794893826,-1.26945794011011,-0.5137377,-1.1044444,0.09712757,159.13145,-114.54932,-20.963755,WAL
132490864000,1.26495,-3.49752290703893,7.2766786463429,-1.13348837149037,-0.55741453,-1.0650436,0.08307768,159.37834,-114.54664,-21.062986,WAL
132495882000,1.269968,-3.31708288786652,7.20940126876296,-0.959254001579623,-0.591623,-1.0458013,0.06719518,159.62407,-114.51566,-21.135235,WAL
132500887000,1.274973,-3.15145775794254,7.17154416821009,-0.755771672277619,-0.61819565,-1.0748174,0.038179077,159.86606,-114.486534,-21.211,WAL
132505879000,1.279965,-2.99004917810109,7.18751724846481,-0.519021332006046,-0.62888575,-1.1203269,0.0021380284,160.13869,-114.42463,-21.270864,WAL
132510906000,1.284992,-2.83086244365612,7.25119179026925,-0.250678012764478,-0.6426302,-1.185384,-0.027794369,160.41954,-114.365776,-21.335293,WAL
132515890000,1.289976,-2.70483118721704,7.34863525044702,0.00853478228571429,-0.6264423,-1.2809844,-0.051618114,160.76018,-114.282166,-21.390667,WAL
132521644000,1.29573,-2.61049125419441,7.51635039505421,0.296795386285714,-0.64996064,-1.3732251,-0.06658431,161.11284,-114.198654,-21.449993,WAL
132525849000,1.299935,-2.56504531934975,7.64518465593434,0.498659003756313,-0.655153,-1.4682146,-0.08277224,161.5462,-114.07789,-21.491467,WAL
132530886000,1.304972,-2.55996978926768,7.81267910959596,0.721984818308081,-0.655153,-1.5491543,-0.10903945,161.9961,-113.96389,-21.538109,WAL
132535862000,1.309948,-2.58997650680326,7.98413826926596,0.910516757947086,-0.6554584,-1.6224581,-0.13133603,162.51497,-113.80986,-21.56455,WAL
132540875000,1.314961,-2.67115265302367,8.16559081967376,1.05376879242093,-0.6542367,-1.6798794,-0.13591751,163.04692,-113.66188,-21.589924,WAL
132545852000,1.319938,-2.77626055201754,8.31575590684468,1.11329781691741,-0.6765333,-1.704925,-0.13469578,163.62129,-113.49405,-21.608328,WAL
132550881000,1.324967,-2.92021325946996,8.42132131583142,1.04611990681479,-0.7357872,-1.7076738,-0.15210545,164.1985,-113.33341,-21.627838,WAL
132555815000,1.329901,-3.03497178156307,8.51464642074514,0.9237422126712,-0.81153446,-1.6581937,-0.16676621,164.77916,-113.164375,-21.640787,WAL
132560902000,1.334988,-3.10962707540465,8.59396776180443,0.704442427085528,-0.8576548,-1.5668694,-0.18661933,165.33965,-113.004974,-21.65175,WAL
132565830000,1.339916,-3.15631434759272,8.6653287376299,0.46943975356278,-0.95814216,-1.4443909,-0.20525073,165.85144,-112.864746,-21.674543,WAL
132570879000,1.344965,-3.14248464127181,8.72525727247593,0.174405806917723,-1.0662653,-1.2959507,-0.21533,166.3198,-112.73016,-21.690222,WAL
132575841000,1.349927,-3.11118812331903,8.79375555793991,-0.119716937081545,-1.1462886,-1.1459832,-0.21777347,166.72504,-112.627464,-21.717257,WAL
132580894000,1.35498,-3.00734350001022,8.90254531575721,-0.436195869227468,-1.212262,-1.02717,-0.20250183,167.08751,-112.522194,-21.73333,WAL
132585843000,1.359929,-2.91261001698514,9.02218590764331,-0.752013186836518,-1.2391402,-0.91232723,-0.19181168,167.36876,-112.43203,-21.736826,WAL
132590869000,1.364955,-2.83828759332175,9.18476623972206,-1.0911090447211,-1.244638,-0.8002335,-0.16401732,167.6093,-112.33572,-21.725151,WAL
132595892000,1.369978,-2.77816280495603,9.35556368867046,-1.41125769697879,-1.2012665,-0.68783426,-0.12339478,167.79788,-112.233696,-21.683681,WAL
132601723000,1.375809,-2.78394053260217,9.59823072338334,-1.68281391290222,-1.1307116,-0.59040123,-0.074830994,167.95393,-112.127884,-21.629686,WAL
132605876000,1.379962,-2.79945282001082,9.75511472585445,-1.82484417419966,-1.0531317,-0.5122105,-0.024740042,168.08815,-112.018005,-21.55808,WAL
132610913000,1.384999,-2.8516542003517,9.89866809026964,-1.84659471148886,-0.9618073,-0.45998153,0.035430185,168.20049,-111.90036,-21.469824,WAL
132616128000,1.390214,-2.90951286132389,10.0411372129148,-1.8569504141602,-0.86926126,-0.46731192,0.089186326,168.3152,-111.78399,-21.374384,WAL
132620883000,1.394969,-3.00662478241918,10.0994043168984,-1.72487827123603,-0.79229224,-0.49632803,0.12705997,168.42172,-111.66248,-21.268162,WAL
132625841000,1.399927,-3.10788259625522,10.1601589544485,-1.58716771716284,-0.7089091,-0.5564982,0.1554652,168.55736,-111.54847,-21.166935,WAL
132630884000,1.40497,-3.27533083682266,10.2136795254516,-1.4379088660509,-0.6236934,-0.6224717,0.18020524,168.70433,-111.431206,-21.058645,WAL
132635846000,1.409932,-3.47040511434729,10.2624480821018,-1.2867261876642,-0.5549711,-0.68294734,0.18936823,168.86809,-111.31572,-20.949615,WAL
132640863000,1.414949,-3.69271123611014,10.3187905142055,-1.27867420641003,-0.5137377,-0.7101309,0.19272798,169.05579,-111.21542,-20.859983,WAL
132645946000,1.420032,-3.9274831677657,10.3785509761487,-1.32562861948439,-0.48716503,-0.6844745,0.20097467,169.24452,-111.114655,-20.766964,WAL
132650876000,1.424962,-4.06642450226577,10.4143992290263,-1.41868694537661,-0.48502702,-0.6554584,0.22174409,169.4451,-111.04552,-20.710266,WAL
132655882000,1.429968,-4.10067544390692,10.4241854021229,-1.5703695117575,-0.5036584,-0.59650993,0.23060162,169.62642,-110.97708,-20.652512,WAL
132660886000,1.434972,-4.13249162433701,10.3797213251734,-1.67493499461444,-0.50976706,-0.49205196,0.27091873,169.76794,-110.94041,-20.626146,WAL
132665884000,1.43997,-4.16178485441656,10.2796364261526,-1.73108006126071,-0.51923543,-0.3811799,0.30573806,169.88783,-110.90021,-20.59568,WAL
132671701000,1.445787,-4.19587823564361,10.1631510604855,-1.79642536992044,-0.5390886,-0.21471913,0.3567453,169.95894,-110.85779,-20.560394,WAL
132675865000,1.449951,-4.2202833997195,10.079767002958,-1.84320169195226,-0.550695,-0.16584991,0.37568212,170.03174,-110.81387,-20.523575,WAL
132680896000,1.454982,-4.19468347494033,9.9490296358393,-1.78821341396181,-0.5500842,-0.1160644,0.39461896,170.05768,-110.75369,-20.46941,WAL
132685919000,1.460005,-4.12771213961814,9.79595351103819,-1.64948780435561,-0.54550266,-0.10415252,0.40561453,170.08104,-110.69095,-20.412622,WAL
132690912000,1.464998,-4.04561633719788,9.61819678011397,-1.52051613825899,-0.54092115,-0.10170906,0.41416663,170.08119,-110.651596,-20.379227,WAL
132696000000,1.470086,-3.94986725580664,9.41712329927294,-1.39604215248575,-0.5348125,-0.122478485,0.41783184,170.0857,-110.61129,-20.3446,WAL
132700912000,1.474998,-3.87943603056027,9.22888746010187,-1.29509651443124,-0.52595496,-0.1337795,0.42363504,170.10269,-110.56702,-20.309214,WAL
132705920000,1.480006,-3.82674784935584,9.04208350843903,-1.20887944062718,-0.5216789,-0.15668693,0.4437936,170.12996,-110.51844,-20.269531,WAL
132710911000,1.484997,-3.81909376242143,8.9127822728943,-1.10240804086452,-0.50610185,-0.15485434,0.4633413,170.16115,-110.46371,-20.223995,WAL
132715928000,1.490014,-3.85161746798182,8.83379642191277,-0.97695934583696,-0.5006041,-0.15668693,0.48472157,170.20053,-110.403595,-20.173216,WAL
132720912000,1.494998,-3.95952494301938,8.78289037507343,-0.840848151055414,-0.4801401,-0.14660765,0.49296826,170.2512,-110.35051,-20.13233,WAL
132725906000,1.499992,-4.15618801762287,8.76416043038966,-0.691009659467398,-0.4560109,-0.14049901,0.4813618,170.30281,-110.29866,-20.091658,WAL
132730904000,1.50499,-4.34854442872634,8.76540487575448,-0.546389413340153,-0.44715336,-0.14019357,0.46303585,170.35211,-110.25562,-20.060684,WAL
132735916000,1.510002,-4.53513865068031,8.79486697560102,-0.408898793677749,-0.45081854,-0.14385876,0.41996986,170.39944,-110.224396,-20.040426,WAL
132741544000,1.51563,-4.67405377193354,8.79677648984421,-0.306028648374088,-0.44409904,-0.15790866,0.355829,170.43794,-110.23472,-20.065784,WAL
132745968000,1.520054,-4.73253822750444,8.77588920765135,-0.262165325234668,-0.45234573,-0.18570304,0.28619036,170.47983,-110.25841,-20.104334,WAL
132750836000,1.524922,-4.79689228033425,8.75290564306843,-0.213899806011635,-0.4382958,-0.21288654,0.25045475,170.5116,-110.31475,-20.1759,WAL
132755922000,1.530008,-4.86412825253895,8.72889282271741,-0.163472848170972,-0.43401974,-0.28069258,0.18570304,170.56139,-110.3972,-20.273745,WAL
132760875000,1.534961,-4.90147389849295,8.714894,-0.174799774769081,-0.41996986,-0.3631594,0.11362094,170.62186,-110.49091,-20.38128,WAL
132765927000,1.540013,-4.89676979144385,8.714894,-0.278290743850267,-0.38789943,-0.43157628,0.053145275,170.69623,-110.59792,-20.500834,WAL
132770806000,1.544892,-4.89222677119592,8.714894,-0.378237782280019,-0.3652974,-0.4792238,0.005192355,170.78163,-110.744415,-20.661577,WAL
132775851000,1.549937,-4.88752918210987,8.714894,-0.481585355323286,-0.34330627,-0.47525316,-0.037873644,170.86896,-110.90315,-20.832438,WAL
132780820000,1.554906,-4.89485332932692,8.73759291346154,-0.550113883942308,-0.31856623,-0.42546764,-0.06169739,170.95966,-111.06921,-21.009432,WAL
132785878000,1.559964,-4.93449286911825,8.82182703252864,-0.53029410887275,-0.3051272,-0.3680463,-0.07849618,171.04355,-111.24043,-21.19004,WAL
132790890000,1.564976,-4.98794296653356,8.90485696653356,-0.482446872226659,-0.30573806,-0.31215215,-0.105374254,171.09834,-111.41367,-21.370546,WAL
132795889000,1.569975,-5.06987276478418,8.98678676478418,-0.377758496729416,-0.30818152,-0.26083946,-0.12614368,171.13443,-111.58507,-21.547865,WAL
132800857000,1.574943,-5.16820102411002,9.06944234276264,-0.270145315322831,-0.30268374,-0.22510384,-0.15943582,171.15625,-111.76338,-21.731237,WAL
132805875000,1.579961,-5.32714832518061,9.15728158325355,-0.148843537682653,-0.30940324,-0.20189096,-0.19120082,171.16418,-111.941986,-21.914331,WAL
132811662000,1.585748,-5.52611891485316,9.26485708282273,-0.016165035232622,-0.30848694,-0.15943582,-0.22357668,171.15051,-112.12735,-22.104153,WAL
132815884000,1.58997,-5.81657565539827,9.40154266025776,0.0137349163215719,-0.31337386,-0.09162979,-0.27763826,171.12001,-112.32278,-22.303396,WAL
132821069000,1.595155,-6.1704503521843,9.57737174952732,0.0381976292468902,-0.31887165,-0.026267206,-0.35338554,171.07149,-112.54976,-22.53434,WAL
132825847000,1.599933,-6.46187350021893,9.83692046920092,-0.0892999805447308,-0.35124752,0.073303826,-0.45204028,170.99002,-112.79258,-22.780426,WAL
132831130000,1.605216,-6.76505104133824,10.1136160198509,-0.219571033029922,-0.3912592,0.21288654,-0.5497787,170.85085,-113.091446,-23.081831,WAL
132835881000,1.609967,-6.81351556586618,10.2413864980149,-0.210759296697008,-0.38912117,0.38453966,-0.6395759,170.67017,-113.40825,-23.40028,WAL
132841279000,1.615365,-6.85843694419869,10.3821430813496,-0.199167959627741,-0.32589662,0.5204572,-0.73884153,170.4313,-113.778,-23.770582,WAL
132845890000,1.619976,-6.66806219394564,10.4028359701968,-0.153643571320712,-0.22113322,0.6151413,-0.8335256,170.15257,-114.162384,-24.154736,WAL
132850816000,1.624902,-6.46468201182755,10.4249424916589,-0.105009189017432,-0.10720685,0.65087694,-0.883922,169.85973,-114.55277,-24.544538,WAL
132855876000,1.629962,-6.11091955345745,10.4103860075988,-0.125779273778116,-0.03756821,0.7125743,-0.9764681,169.53017,-114.97177,-24.962027,WAL
132860838000,1.634924,-5.73176963630319,10.3878175797872,-0.161888784670213,0.08307768,0.77946407,-1.0482447,169.1891,-115.38945,-25.376501,WAL
132865916000,1.640002,-5.28348550174252,10.3691840756827,-0.229738754091027,0.2098322,0.8717047,-1.1163563,168.84941,-115.788925,-25.771591,WAL
132870916000,1.645002,-4.81855164825314,10.3525793942783,-0.308611463237105,0.34605515,0.9593639,-1.1691961,168.49084,-116.19592,-26.171824,WAL
132875852000,1.649938,-4.25037143969591,10.3710094044586,-0.368370591526608,0.47739118,1.0506883,-1.20371,168.13342,-116.55075,-26.516989,WAL
132880962000,1.655048,-3.50127714752414,10.4413939585987,-0.403562942091638,0.61758476,1.1102476,-1.2269229,167.759,-116.91216,-26.864714,WAL
132885880000,1.659966,-2.78837759800712,10.5587399857651,-0.407760667459075,0.7556403,1.131017,-1.2266175,167.41565,-117.2018,-27.13637,WAL
132890885000,1.664971,-2.07195747060498,10.7341897900356,-0.378519030021352,0.9129381,1.1233811,-1.2064588,167.06384,-117.4914,-27.402046,WAL
132895889000,1.669975,-1.29333565178113,11.0747647024812,-0.272508314988037,1.0958922,1.1032226,-1.1716396,166.77565,-117.67488,-27.554932,WAL
132900883000,1.674969,-0.454198620002658,11.579094313735,-0.0902714834552061,1.278541,1.0882565,-1.1169671,166.49107,-117.85121,-27.692898,WAL
132905829000,1.679915,0.238184186305356,12.0516255974272,0.0900526797941797,1.4535538,1.0574077,-1.0604621,166.29378,-117.91525,-27.710863,WAL
132910918000,1.685004,0.484846508493252,12.4473133231232,0.275049445849852,1.6129897,1.0137309,-1.0009027,166.1094,-117.97313,-27.712967,WAL
132915814000,1.6899,0.622221620696976,12.7795318131693,0.49126517754086,1.7455474,0.9410379,-0.95722586,166.0853,-117.8668,-27.547132,WAL
132920882000,1.694968,0.56295445976517,13.0257182678001,0.792160049507796,1.858863,0.82802784,-0.89766645,166.09085,-117.756165,-27.36853,WAL
132925823000,1.699909,0.444147735193961,13.2201057481652,1.09668994353114,1.9730947,0.6637051,-0.8246681,166.19417,-117.59019,-27.131882,WAL
132930890000,1.704976,0.0829270213734535,13.240456622143,1.45282306635563,2.0891593,0.44990227,-0.7724391,166.349,-117.43249,-26.89812,WAL
132935816000,1.709902,-0.2610138158125,13.2612170582031,1.79053648986328,2.1978931,0.20861048,-0.74189585,166.59601,-117.26039,-26.65343,WAL
132940859000,1.714945,-0.595877525875,13.2847989929687,2.11596748511719,2.307238,-0.03359759,-0.7367035,166.90724,-117.100006,-26.417387,WAL
132945859000,1.719945,-0.902965366276877,13.2975537689551,2.41725876799321,2.3805418,-0.14172074,-0.72692966,167.23997,-116.97857,-26.218779,WAL
132950863000,1.724949,-1.13796743870238,13.2794767953602,2.65678006022256,2.4397957,-0.3640757,-0.7275405,167.67804,-116.87259,-26.039354,WAL
132955857000,1.729943,-1.36742141394554,13.258674368934,2.8530581057872,2.452013,-0.5589417,-0.7284568,168.1391,-116.813156,-25.90809,WAL
132960864000,1.73495,-1.56494914859841,13.2201320897217,2.77597405042701,2.4510968,-0.73639804,-0.7150178,168.65631,-116.75777,-25.78398,WAL
132965849000,1.739935,-1.77008983604801,13.1652503167595,2.64639947263181,2.3857343,-0.8750645,-0.6826419,169.21658,-116.72693,-25.695406,WAL
132970858000,1.744944,-2.02710993501929,13.011038386198,2.19918455195028,2.2800546,-0.9407325,-0.625526,169.80153,-116.683716,-25.60146,WAL
132975853000,1.749939,-2.31630420694169,12.861759075119,1.70449588537386,2.1126773,-0.9660834,-0.5537493,170.39302,-116.64523,-25.524069,WAL
132980861000,1.754947,-2.69203710468068,12.7238317327945,1.0814450282378,1.9477439,-0.96791595,-0.4810564,170.9906,-116.581726,-25.431503,WAL
132985850000,1.759936,-3.09236087773389,12.5814477106176,0.437765895748145,1.7730364,-0.92485,-0.40683624,171.5313,-116.5258,-25.35132,WAL
132990861000,1.764947,-3.56860199182966,12.4242418886213,-0.274283845125735,1.6087136,-0.8781188,-0.30909783,172.06665,-116.42883,-25.241756,WAL
132995907000,1.769993,-4.11769561520378,12.1680205820301,-0.852022143042765,1.4624114,-0.8585711,-0.21319197,172.435185008479,-116.455439995012,-25.2229400825935,WAL
133020936000,1.795022,-8.27574483620107,8.87690112152975,-0.843995026496099,2.017077,-1.3976597,-0.35827246,174.26318,-116.58743,-25.12961,WAL
133025773000,1.799859,-8.86794273821203,8.32583536460106,-0.894593025948544,2.2354615,-1.9917262,-0.45112398,174.6328,-116.95469,-25.416002,WAL
133030948000,1.805034,-8.61490860316348,8.09264641425568,-1.1674730709981,2.3732114,-2.5237896,-0.52839845,175.09274,-117.347855,-25.732422,WAL
133035799000,1.809885,-8.27720397019639,7.8997747631501,-1.55071782139544,2.3658812,-2.6975808,-0.59864795,175.6186,-117.860016,-26.205965,WAL
133040780000,1.814866,-7.54281885798875,7.80091540653311,-2.43574591254318,2.228742,-2.626415,-0.636827,176.21777,-118.36338,-26.68719,WAL
133045802000,1.819888,-6.80620605349592,7.67615969737437,-3.23110947162946,2.0347922,-2.248595,-0.6435465,176.74248,-118.867226,-27.150766,WAL
133050797000,1.824883,-6.09118052227358,7.43624983263841,-3.57450995004425,1.9275852,-1.6691893,-0.6249151,177.16469,-119.350174,-27.586672,WAL
133055797000,1.829883,-5.3886883699862,7.20074094724906,-3.84266213867087,1.7168368,-1.0555751,-0.5885687,177.41933,-119.764626,-27.918941,WAL
133060829000,1.834915,-4.76148028195622,6.99167151841846,-3.65735057692763,1.5546521,-0.54733527,-0.5494733,177.51666,-120.15509,-28.209538,WAL
133065808000,1.839894,-4.15424032488987,6.78979466054396,-3.46280615986401,1.4165965,-0.183565,-0.5314528,177.50406,-120.512794,-28.432058,WAL
133070867000,1.844953,-3.63921963876652,6.62276084070102,-3.17977681482475,1.3225232,0.06414085,-0.5140431,177.36905,-120.842766,-28.616005,WAL
133076486000,1.850572,-3.09344829905599,6.44229790668287,-2.87901425451911,1.2663237,0.22937989,-0.49113566,177.1893,-121.11066,-28.725975,WAL
133080840000,1.854926,-2.78945742340406,6.32537845808019,-2.70753217410038,1.2147056,0.36743546,-0.45173484,176.94566,-121.3567,-28.809065,WAL
133085824000,1.85991,-2.44148072973175,6.19154140437424,-2.51123757400692,1.1707232,0.5006041,-0.40775254,176.70844,-121.53823,-28.828552,WAL
133090835000,1.864921,-2.16527492980555,6.19438639556411,-2.23412041536358,1.1420126,0.6078109,-0.3594942,176.44566,-121.70153,-28.82591,WAL
133095819000,1.869905,-1.89940548398825,6.213722437857,-1.94891512915738,1.1255192,0.6954701,-0.28771752,176.15985,-121.84134,-28.794937,WAL
133100857000,1.874943,-1.72855820323573,6.14522469715591,-1.60319715495151,1.1233811,0.7867944,-0.23579398,175.88635,-121.94058,-28.720495,WAL
133105832000,1.879918,-1.568617288232,6.06969678383066,-1.25665857536367,1.0952814,0.88086766,-0.18325958,175.60071,-122.01471,-28.619186,WAL
133111416000,1.885502,-1.47224391943692,5.85393125666486,-1.29803746112615,1.0732902,0.98654735,-0.15027285,175.34677,-122.039795,-28.47621,WAL
133115801000,1.889887,-1.41312903881971,5.65839762531673,-1.41626722236058,1.0509937,1.0836749,-0.12492194,175.08238,-122.04985,-28.316223,WAL
133120872000,1.894958,-1.36358483920814,5.53906608937599,-1.49767343112164,1.0277808,1.1743884,-0.10140363,174.8394,-122.034775,-28.137815,WAL
133125824000,1.89991,-1.31675993391588,5.43136849917062,-1.57259335781991,1.0057896,1.2501358,-0.08307768,174.58473,-122.01262,-27.950233,WAL
133130887000,1.904973,-1.25867779329389,5.30557622838358,-1.51041456264676,0.96852684,1.2889256,-0.07422013,174.3224,-122.01999,-27.775185,WAL
133135818000,1.909904,-1.20101816114398,5.18138639751104,-1.43501356578379,0.93279123,1.3115277,-0.07880162,174.05486,-122.02374,-27.596685,WAL
133140904000,1.91499,-1.17195730549814,5.02778810653162,-1.28504997023563,0.8741482,1.287704,-0.08460484,173.80455,-122.042145,-27.430067,WAL
133145859000,1.919945,-1.15234045230467,4.87085348582059,-1.11830699974163,0.80970186,1.2672399,-0.07391469,173.55942,-122.05158,-27.260624,WAL
133150923000,1.925009,-1.17343979058278,4.72071218901489,-0.966604002835026,0.7797695,1.1911873,-0.0580322,173.35994,-122.07575,-27.111929,WAL
133155808000,1.929894,-1.20111916110837,4.57770211599448,-0.823594059875752,0.7165449,1.0659598,-0.02443461,173.19426,-122.0782,-26.9641,WAL
133160981000,1.935067,-1.22165613320586,4.45536779246339,-0.772407292820632,0.65301496,0.90408057,0.016798794,173.08307,-122.08641,-26.838905,WAL
133165871000,1.939957,-1.23912858987968,4.34616493825203,-0.746198575881914,0.5766568,0.7425067,0.080634214,173.02173,-122.06863,-26.711508,WAL
133170929000,1.945015,-1.24989415271628,4.30301736388625,-0.802870854145635,0.516792,0.5702427,0.16065755,173.0244,-122.05005,-26.606264,WAL
133175853000,1.949939,-1.25696439558699,4.29359042260983,-0.897140832915188,0.45356745,0.40530908,0.25473082,173.08388,-121.99971,-26.494959,WAL
133180909000,1.954995,-1.26422417380679,4.28391076885402,-0.993937951651757,0.3885103,0.24587326,0.33383787,173.19766,-121.947876,-26.397978,WAL
133185941000,1.960027,-1.27144949105403,4.27427706282173,-1.09027559039432,0.32498032,0.10567969,0.42210788,173.36504,-121.86125,-26.286575,WAL
133190871000,1.964957,-1.31047521771809,4.34811761124297,-1.25415889785551,0.25961772,-0.025045475,0.49174652,173.58153,-121.76647,-26.17686,WAL
133195922000,1.970008,-1.36586732523423,4.46393741983136,-1.45558484853217,0.19730948,-0.10995574,0.51923543,173.82787,-121.651344,-26.06291,WAL
133200907000,1.974993,-1.46205783649497,4.59978026959251,-1.64068528361064,0.116675265,-0.15302174,0.5693264,174.1002,-121.52693,-25.93779,WAL
133205873000,1.979959,-1.57103899975092,4.74192968180731,-1.82074110349706,0.015882496,-0.19181168,0.61361414,174.39433,-121.38461,-25.813082,WAL
133210916000,1.985002,-1.77118845398865,4.93278623701822,-1.94982778220297,-0.06719518,-0.20463985,0.6719518,174.6884,-121.23183,-25.670572,WAL
133215953000,1.990039,-2.00178718996116,5.13936433716761,-2.06032308823822,-0.15454891,-0.23518312,0.7244862,174.99841,-121.05444,-25.521868,WAL
133220918000,1.995004,-2.34567466967074,5.36758090331244,-2.10897814622501,-0.23793201,-0.28802297,0.7696902,175.30965,-120.865425,-25.365204,WAL
133225899000,1.999985,-2.73002454429523,5.60483391539839,-2.13744847794688,-0.33475417,-0.34300083,0.81061816,175.63058,-120.651306,-25.197996,WAL
133230931000,2.005017,-3.16760052533009,5.85073329244311,-2.11554346513719,-0.4196644,-0.39064834,0.82863873,175.94269,-120.46243,-25.050262,WAL
133235920000,2.010006,-3.61948245890065,6.0968074600618,-2.0752766897275,-0.5131268,-0.48899764,0.8350528,176.2837,-120.25278,-24.903667,WAL
133240904000,2.01499,-4.08578855744086,6.4544484007386,-2.06468931959277,-0.61086524,-0.5531385,0.8374963,176.59581,-120.064575,-24.796144,WAL
133245945000,2.020031,-4.56763983048208,6.89293288511828,-2.07432633901587,-0.70646566,-0.7357872,0.8344419,176.96571,-119.865555,-24.706457,WAL
133250921000,2.025007,-4.97640912717969,7.38318507695278,-2.21808524263783,-0.75900006,-0.93370754,0.7987063,177.31633,-119.716034,-24.690563,WAL
133255927000,2.030013,-5.34209198955296,7.9155084329439,-2.45415896108912,-0.82894415,-1.0910053,0.7654142,177.69969,-119.55386,-24.684464,WAL
133260896000,2.034982,-5.64323297613156,8.5001924091732,-2.87534984761617,-0.86101454,-1.1749994,0.72509706,178.0757,-119.435776,-24.739325,WAL
133265885000,2.039971,-5.88832580573325,9.13935647314424,-3.47126196125528,-0.870483,-1.2110404,0.6768387,178.46909,-119.325195,-24.809423,WAL
133270871000,2.044957,-6.33964699408155,9.99608454394299,-4.70448490055424,-0.8268061,-1.1936307,0.61300325,178.83878,-119.25411,-24.90686,WAL
133275857000,2.049943,-6.97763653582739,11.04994847981,-6.51448422406968,-0.7583892,-1.1539245,0.53969944,179.19678,-119.202225,-25.014685,WAL
133280890000,2.054976,-7.48290509269551,11.7276252454347,-7.80722627401747,-0.68294734,-1.0552697,0.46731192,179.5034,-119.18152,-25.104332,WAL
133285882000,2.059968,-7.84824557383882,12.0217950461493,-8.56637540938865,-0.56505036,-0.890947,0.39736784,179.76428,-119.19262,-25.198925,WAL
133290893000,2.064979,-8.13951604390621,12.1698475830358,-9.0520691490881,-0.3930918,-0.68875057,0.30298916,179.90695,-119.299286,-25.282969,WAL
133295887000,2.069973,-8.35181188507189,12.1652323617678,-9.25052004931005,-0.12889257,-0.52626044,0.1908954,180.0045,-119.44939,-25.375763,WAL
133300812000,2.074898,-8.46235424541307,12.0763278547714,-9.27802675463547,0.20586158,-0.44776422,0.058643065,180.01396,-119.68622,-25.496655,WAL
133305873000,2.079959,-8.42941819483545,11.8598894068537,-9.05688227929327,0.5546656,-0.4025602,-0.084910266,179.9779,-119.98283,-25.63523,WAL
133310874000,2.08496,-8.38703046879536,11.5754613399129,-8.82050223386551,0.8472701,-0.37812558,-0.22021692,179.89134,-120.371605,-25.825298,WAL
133315885000,2.089971,-8.32666573730043,11.1622000243832,-8.55118631765844,1.0369438,-0.3943135,-0.34147367,179.79738,-120.81383,-26.041248,WAL
133320911000,2.094997,-8.20875172314951,10.7457592651135,-8.19068956649956,1.1206323,-0.3912592,-0.42577308,179.68495,-121.29584,-26.28665,WAL
133325852000,2.099938,-7.95757494632852,10.3317818566794,-7.62321476938956,1.0555751,-0.32986724,-0.49235737,179.55418,-121.79291,-26.545609,WAL
133330817000,2.104903,-7.69109200409938,9.89237753043478,-7.21140700496894,0.87995136,-0.23762658,-0.5323691,179.4033,-122.29745,-26.834723,WAL
133335878000,2.109964,-7.37499498953416,9.37056642608696,-7.29168567670807,0.6658431,-0.08979719,-0.5564982,179.21466,-122.78221,-27.11551,WAL
133340895000,2.114981,-6.97724958840694,8.90132091462934,-7.3269446779377,0.41630468,0.07666359,-0.5757405,179.00685,-123.20979,-27.391745,WAL
133345927000,2.120013,-6.40242196537855,8.53077096273659,-7.2699369892153,0.09468412,0.44165558,-0.58246,178.69463,-123.583084,-27.628733,WAL
133350861000,2.124947,-5.76693413505542,8.3122401147849,-6.98231632690212,-0.054367006,0.87964594,-0.57635134,178.30385,-123.94557,-27.828043,WAL
133355879000,2.129965,-4.94537983141086,8.4431474136765,-6.12464967469472,-0.31581733,1.0836749,-0.5726862,177.87544,-124.23489,-28.01161,WAL
133360922000,2.135008,-4.13861103694899,8.70952009499519,-5.27264431351299,-0.45662177,0.9294315,-0.54061574,177.47017,-124.46856,-28.125555,WAL
133365891000,2.139977,-3.43327688654475,9.61179819307026,-4.4802883387103,-0.42149702,0.49938235,-0.4700608,177.09703,-124.675575,-28.235184,WAL
133370850000,2.144936,-2.7772798008196,10.5293016925178,-3.7585518355865,-0.23976462,0.040317107,-0.3753767,176.92729,-124.71933,-28.243883,WAL
133375849000,2.149935,-2.65914418352869,11.6473705342381,-3.81340056224553,-0.03268129,-0.32834008,-0.24190263,176.87602,-124.747025,-28.259172,WAL
133380823000,2.154909,-2.54159936248348,12.7598479134573,-3.86797499041156,0.1001819,-0.38545597,-0.08277224,177.06529,-124.56688,-28.112017,WAL
133385879000,2.159965,-2.53682228717474,13.9587984287434,-3.56327981971479,0.14508049,-0.29718593,0.092240654,177.33498,-124.37325,-27.948214,WAL
133390966000,2.165052,-2.5593785793592,15.1813530546347,-3.17079918631355,0.08002335,-0.077579886,0.29901853,177.59927,-124.14105,-27.726738,WAL
133395965000,2.170051,-2.68456084112247,16.094356440434,-2.59711285570624,-0.1160644,0.17928895,0.49632803,177.93692,-123.74765,-27.34537,WAL
133401090000,2.175176,-2.86376395634258,16.8879695872105,-1.91614155250365,-0.40133846,0.46486846,0.6114761,178.2051,-123.31257,-26.91669,WAL
133405880000,2.179966,-3.12030340466714,16.6855068853925,-1.33822978785736,-0.6618725,0.7690793,0.61361414,178.48396,-122.73938,-26.38191,WAL
133410955000,2.185041,-3.4198022815739,16.1773406602687,-0.744141746641075,-0.8222246,0.9691377,0.5195409,178.69336,-122.15677,-25.84708,WAL
133415876000,2.189962,-3.71021291669866,15.6845946516315,-0.168081204606526,-0.9059132,1.0506883,0.37598756,178.85757,-121.52519,-25.312778,WAL
133420880000,2.194966,-4.00552176005657,15.1835377470957,0.417695457116881,-0.95539325,0.9633345,0.25900686,178.98415,-120.9151,-24.818548,WAL
133426501000,2.200587,-3.98030495027635,13.7306038235294,0.892395474970391,-1.0103711,0.8008443,0.17989981,179.09146,-120.339096,-24.37902,WAL
133430890000,2.204976,-3.89318654914133,12.4279744411765,1.22842402062771,-1.1090258,0.6258314,0.10140363,179.2016,-119.79721,-23.999575,WAL
133435877000,2.209963,-3.53338722096096,10.9538553247872,1.33219863749878,-1.2030991,0.47555858,0.02687807,179.27039,-119.342316,-23.800812,WAL
133440874000,2.21496,-3.08850473638321,9.47871882238967,1.34624754725511,-1.2968669,0.40286562,-0.004886922,179.35548,-118.89521,-23.627728,WAL
133445879000,2.219965,-2.53043004385523,8.25079293744329,1.09304783556709,-1.3255776,0.24862215,-0.06383542,179.43967,-118.54231,-23.577381,WAL
133450890000,2.224976,-1.92566417936284,7.12350965782841,0.730188301715899,-1.3326025,0.09621128,-0.08307768,179.54224,-118.1886,-23.532297,WAL
133455878000,2.229964,-1.43539541928287,6.3731359934263,0.506655040776892,-1.241889,-0.0693332,-0.051923547,179.65642,-117.89851,-23.524343,WAL
133460935000,2.235021,-0.980589773401632,5.75294636729273,0.332083184211725,-1.0842859,-0.25503623,0.005497787,179.82144,-117.62499,-23.526941,WAL
133465883000,2.239969,-0.641102144549192,5.46912025342767,0.429737574295822,-0.8732319,-0.5103779,0.1328632,180.04916,-117.3773,-23.497053,WAL
133470879000,2.244965,-0.362051636928961,5.37762834636198,0.690489681395927,-0.6805039,-0.8359691,0.2910773,180.35893,-117.132744,-23.458845,WAL
133475868000,2.249954,-0.207689308071758,5.46228260262719,0.937106653684933,-0.50885075,-1.153619,0.45845437,180.75006,-116.87628,-23.365646,WAL
133480892000,2.254978,-0.165240049152044,5.70754501376336,1.17293592243898,-0.36743546,-1.3842206,0.625526,181.22139,-116.60464,-23.241394,WAL
133485877000,2.259963,-0.207866130189065,5.99162129034236,1.27622090485437,-0.2657264,-1.5021176,0.8063421,181.77748,-116.25068,-23.033926,WAL
133490891000,2.264977,-0.340363721698518,6.32041153485948,1.24186965009709,-0.19456059,-1.5280794,0.9831876,182.38206,-115.87038,-22.785606,WAL
133496072000,2.270158,-0.520466935547871,6.71577804024306,1.12908859829068,-0.17562376,-1.4926492,1.1566733,183.02782,-115.41452,-22.466091,WAL
133500963000,2.275049,-0.724099682972038,7.1322996305701,0.962479952494813,-0.18142697,-1.409877,1.2938126,183.6694,-114.929596,-22.102535,WAL
133505877000,2.279963,-1.01932891810295,7.55019785039522,0.74592374634278,-0.18478674,-1.2727377,1.4016303,184.28981,-114.41342,-21.693876,WAL
133510891000,2.284977,-1.40813950460382,7.97603792404087,0.477459299973009,-0.20586158,-1.0943651,1.4688255,184.8702,-113.87268,-21.250336,WAL
133515882000,2.289968,-2.05314502364947,8.52605483522142,0.198085060887557,-0.24770586,-0.91324353,1.5082263,185.40163,-113.33246,-20.788355,WAL
133520881000,2.294967,-3.03923065256998,9.24320797734295,-0.09774063246887,-0.34238997,-0.70952,1.4944818,185.86508,-112.785645,-20.314562,WAL
133525847000,2.299933,-3.79724882887399,9.74498944999746,-0.31555697753568,-0.48533243,-0.52503866,1.4376713,186.25731,-112.29561,-19.884773,WAL
133530892000,2.304978,-4.01564659445376,9.73026621875159,-0.3474577765402,-0.65179324,-0.34483343,1.3411547,186.58052,-111.813324,-19.465847,WAL
133535831000,2.309917,-4.22945562600945,9.71585233587282,-0.378688310986845,-0.8246681,-0.27091873,1.1866057,186.82446,-111.50808,-19.231403,WAL
133540888000,2.314974,-4.44837287091269,9.70109408405709,-0.410664988997918,-0.9108001,-0.18997909,1.0882565,187.0058,-111.211205,-19.0038,WAL
133545863000,2.319949,-4.6583234116,9.4820122616,-0.417426189896,-1.0910053,-0.20158553,0.8903361,187.1721,-110.95225,-18.850052,WAL
133550916000,2.325002,-4.8615682094,8.8819563844,-0.378712913364,-1.2247849,-0.33108896,0.68477994,187.3405,-110.72442,-18.731459,WAL
133555804000,2.32989,-4.95731380300404,8.3802252184379,-0.442898783902295,-1.2968669,-0.5842926,0.4792238,187.5168,-110.619606,-18.75906,WAL
133560932000,2.335018,-4.86057425725401,8.00777746222791,-0.708932706439476,-1.2956452,-0.87964594,0.27397305,187.72882,-110.56775,-18.849127,WAL
133565892000,2.339978,-4.75172142557455,7.6728271235889,-0.969247124655268,-1.1988231,-1.2110404,0.09101892,187.98311,-110.63274,-19.063984,WAL
133570881000,2.344967,-4.61116994901636,7.38733212601581,-1.23717321059018,-1.0384709,-1.4990633,-0.061391957,188.29544,-110.754265,-19.329145,WAL
133575862000,2.349948,-4.44420360196769,7.13556221416736,-1.45069180002071,-0.8023715,-1.7379116,-0.17806722,188.65956,-110.95287,-19.636627,WAL
133580896000,2.354982,-4.11967727241094,7.07564948135874,-1.35083754076222,-0.539394,-1.9052887,-0.2843578,189.06845,-111.202126,-19.978407,WAL
133585868000,2.359954,-3.80684844328358,7.03039539002357,-1.18808826450118,-0.28008172,-2.0360138,-0.34055737,189.51482,-111.48384,-20.318691,WAL
133590876000,2.364962,-3.51957424029851,7.03510489670071,-0.792497679835035,-0.062308256,-2.1169536,-0.3707952,189.97841,-111.79543,-20.671318,WAL
133595910000,2.369996,-3.23961784419889,7.05464394045427,-0.371426062271332,0.087964594,-2.1719313,-0.3903429,190.4916,-112.067955,-20.977795,WAL
133600914000,2.375,-2.99936870828729,7.13799581522406,0.148296483879681,0.16584991,-2.2128594,-0.39706242,191.01031,-112.34476,-21.277613,WAL
133605894000,2.37998,-2.7485843728223,7.21493863691389,0.644725506222001,0.16432275,-2.2492058,-0.4071417,191.57439,-112.563515,-21.531593,WAL
133610893000,2.384979,-2.45785855749129,7.27213048147337,1.07366533573917,0.10781772,-2.257147,-0.3717115,192.13058,-112.761795,-21.761803,WAL
133615877000,2.389963,-2.15283365052103,7.33481017942879,1.49239611279429,0.032070424,-2.2351558,-0.3268129,192.75952,-112.875435,-21.944023,WAL
133620879000,2.394965,-1.79231174951756,7.41800757089927,1.88065049370899,-0.0852157,-2.1881194,-0.25717425,193.37733,-112.95915,-22.09836,WAL
133625874000,2.39996,-1.45630169589609,7.50217788220438,2.23472503937043,-0.2321288,-2.1294763,-0.16676621,194.04834,-112.948784,-22.181488,WAL
133630893000,2.404979,-1.26121112425363,7.59322019725805,2.39079746952286,-0.40225476,-2.0638082,-0.07727446,194.6992,-112.90797,-22.234604,WAL
133635845000,2.409931,-1.06872486986561,7.68304716361504,2.54478644623433,-0.589485,-2.019826,-0.030543262,195.40057,-112.76778,-22.204176,WAL
133640881000,2.414967,-1.14020997756984,7.75327509064302,2.49390833289579,-0.68630713,-1.8866574,0.058948494,196.05217,-112.58882,-22.124329,WAL
133646025000,2.420111,-1.23633306553437,7.82318284904656,2.42400071136142,-0.8854492,-1.7434094,0.14019357,196.68141,-112.38753,-22.024847,WAL
133650882000,2.424968,-1.45520317305109,7.89473564857698,2.27259985235991,-1.067487,-1.6230689,0.20158553,197.30524,-112.12395,-21.855267,WAL
133655840000,2.429926,-1.73638413149196,7.97027656743857,2.07955021424783,-1.2321151,-1.5506815,0.2321288,197.89272,-111.848206,-21.66398,WAL
133660902000,2.434988,-2.07282843672058,8.07710680474569,1.78774365308576,-1.3448198,-1.5335772,0.24740042,198.44453,-111.580345,-21.466303,WAL
133665883000,2.439969,-2.47381414790381,8.22430388784848,1.36645488133645,-1.4443909,-1.5601498,0.22602014,198.97856,-111.32397,-21.265844,WAL
133670880000,2.444966,-2.73354039104074,8.43589023334621,0.73878718351033,-1.4899004,-1.6197093,0.21135938,199.46545,-111.123505,-21.101334,WAL
133675853000,2.449939,-2.86688064593551,8.70257083915814,-0.0658523015755938,-1.5253305,-1.641395,0.18081611,199.93915,-110.947365,-20.944386,WAL
133681432000,2.455518,-2.80718802995434,9.10367827275495,-1.20525203231253,-1.5384641,-1.5916094,0.16798794,200.32079,-69.164925,-20.834524,WAL
133685878000,2.459964,-2.59980425844749,9.50116420700152,-2.29401687107052,-1.4746287,-1.4107933,0.17654006,200.65907,-69.26428,-20.72654,WAL
133690891000,2.464977,-2.32678041527906,9.97668155792964,-3.29305787024314,-1.3341297,-1.1410962,0.25686884,200.82724,-69.39476,-20.58911,WAL
133695896000,2.469982,-2.01335563479462,10.4799269788175,-4.05234038576165,-1.099252,-0.8368854,0.37751472,200.92795,-69.53576,-20.442595,WAL
133700881000,2.474967,-1.79714952377804,10.9336580946136,-4.49904293062751,-0.8200866,-0.61911196,0.54092115,200.99074,-69.80983,-20.17181,WAL
133705877000,2.479963,-1.78677872226076,11.286265671074,-4.28125588218272,-0.5177083,-0.5375614,0.6927212,201.01218,-70.10767,-19.88001,WAL
133710933000,2.485019,-1.99389945155702,11.3944403609693,-3.67366464062281,-0.27030787,-0.63041294,0.81245077,201.0756,-70.54644,-19.449492,WAL
133715950000,2.490036,-2.43650575228797,11.2308681767298,-2.64893498091519,-0.0729984,-0.8313876,0.86101454,201.165,-70.988266,-19.011675,WAL
133720862000,2.494948,-2.95138897638191,10.935173201005,-1.79254730854271,0.04337143,-1.0592403,0.8549059,201.3289,-108.55139,-18.549185,WAL
133725852000,2.499938,-3.56460879574659,10.4849067482053,-1.08498590617373,0.10354166,-1.2263119,0.7858781,201.54895,-108.11833,-18.107445,WAL
133730830000,2.504916,-4.16958238038749,10.0199381346466,-0.481271091346683,0.12522738,-1.289842,0.71837753,201.80812,-107.810074,-17.791231,WAL
133735877000,2.509963,-4.76074564621712,9.4967845458383,-0.203999775042862,0.10995574,-1.3494014,0.68203104,202.11891,-107.52292,-17.49463,WAL
133740898000,2.514984,-5.21738983131673,9.06326075079843,-0.127665419523497,0.07788532,-1.3784174,0.61117065,202.40811,-107.43757,-17.406996,WAL
133745880000,2.519966,-5.47425536868327,8.76285919791952,-0.349701586681632,-0.032070424,-1.3542882,0.52687126,202.69603,-107.36367,-17.33238,WAL
133751444000,2.52553,-5.61836366187962,8.50354328340508,-0.78679408122817,-0.18081611,-1.1823297,0.4202753,202.90775,-107.436226,-17.408617,WAL
133755879000,2.529965,-5.44931288891235,8.44834336625782,-1.51129724469986,-0.3387248,-1.1074986,0.39522982,203.13658,-107.5015,-17.47927,WAL
133760947000,2.535033,-5.25613378690602,8.38526485890667,-2.33920751132321,-0.36041048,-0.9245446,0.3567453,203.25969,-107.656845,-17.638329,WAL
133765884000,2.53997,-5.14516115849285,8.48501278228894,-2.60965569197058,-0.37751472,-0.74128497,0.34116822,203.3555,-107.80389,-17.790056,WAL
133770820000,2.544906,-5.05943866193834,8.63740767973,-2.70490283853516,-0.34391713,-0.58246,0.35185838,203.40004,-107.94861,-17.937908,WAL
133775855000,2.549941,-5.1050001414817,8.80111279737595,-2.48033818234192,-0.27183503,-0.47067168,0.36651915,203.43825,-108.03411,-18.02259,WAL
133780824000,2.55491,-5.19419401010161,8.96541675041926,-2.15172998214462,-0.19211712,-0.39064834,0.3652974,203.43752,-108.11872,-18.105497,WAL
133785885000,2.559971,-5.33068261891781,9.14105341709367,-1.73222724005944,-0.09987647,-0.3539964,0.3857614,203.43881,-108.16863,-18.15224,WAL
133790898000,2.564984,-5.4831997789711,9.3181708548883,-1.28451501820045,-0.058643065,-0.3387248,0.40378192,203.4232,-108.218185,-18.197754,WAL
133795887000,2.569973,-5.47381153982406,9.35300516960696,-1.00543249722461,-0.030848695,-0.31978795,0.4083634,203.4046,-108.27528,-18.251865,WAL
133800819000,2.574905,-5.42019634003216,9.34853714103959,-0.775333654055716,-0.06536258,-0.29046643,0.41172317,203.37929,-108.32483,-18.298542,WAL
133805873000,2.579959,-5.36525489239465,9.34395858946223,-0.539542990354254,-0.14355333,-0.24648413,0.41386122,203.3518,-108.39365,-18.368212,WAL
133810925000,2.585011,-5.31033518652509,9.3393818497375,-0.303845635186114,-0.2434298,-0.17806722,0.4083634,203.30817,-108.45944,-18.435438,WAL
133815882000,2.589968,-5.22359761285315,9.26912612294318,-0.222956346530063,-0.36041048,-0.129198,0.3912592,203.27174,-108.52251,-18.501907,WAL
133821283000,2.595369,-5.10048248019249,9.13530507140639,-0.265778937698437,-0.45875978,-0.09682214,0.36285394,203.21909,-108.587494,-18.57075,WAL
133825848000,2.599934,-5.06034745339652,9.0603756678515,-0.344233631230253,-0.52839845,-0.08399397,0.32650748,203.17915,-108.64406,-18.634073,WAL
133830891000,2.604977,-5.05081036761453,8.99838480943918,-0.453910192412125,-0.537256,-0.0888809,0.27000242,203.13255,-108.71529,-18.710394,WAL
133835879000,2.609965,-5.04127769243292,9.09600329122701,-0.517941541362677,-0.5039638,-0.106901415,0.24190263,203.09775,-108.77544,-18.77393,WAL
133840890000,2.614976,-5.03163256233544,9.30337389046327,-0.551699521882223,-0.47678033,-0.13958271,0.19394971,203.06631,-108.85856,-18.858501,WAL
133845887000,2.619973,-4.95771188649331,9.49184042790607,-0.514551254050068,-0.43890667,-0.16401732,0.16371189,203.04234,-71.056984,-18.94261,WAL
133850879000,2.624965,-4.84174214645837,9.66811431263342,-0.431052948224335,-0.39675698,-0.18417588,0.13103059,203.02454,-70.95841,-19.039476,WAL
133855878000,2.629964,-4.71576445187541,9.72981872200917,-0.356329591333832,-0.36926803,-0.2125811,0.08827003,203.02925,-70.866356,-19.12851,WAL
133860933000,2.635019,-4.57991895122065,9.69359350734262,-0.28840690720232,-0.34208453,-0.2321288,0.052534413,203.03511,-70.76836,-19.222681,WAL
133865879000,2.639965,-4.46071333246046,9.6786327657903,-0.180341287952027,-0.30024028,-0.26083946,-0.020158553,203.0655,-70.67878,-19.30758,WAL
133870884000,2.64497,-4.36030088038127,9.6936944239028,-0.0096400019857547,-0.25350907,-0.34208453,-0.08368854,203.1156,-70.583405,-19.397623,WAL
133875850000,2.649936,-4.32690914626895,9.5937588206818,0.329868376208007,-0.17989981,-0.54367006,-0.14752395,203.22305,-70.492836,-19.481686,WAL
133880891000,2.654977,-4.362790116044,9.37129665821029,0.853730921078981,-0.048563786,-0.9984592,-0.22724187,203.42982,-70.383575,-19.583567,WAL
133885858000,2.659944,-4.39814436656427,9.1521001573184,1.36990335916153,0.17989981,-1.8005253,-0.355829,203.81918,-70.257416,-19.699686,WAL
133891020000,2.665106,-4.43488659349916,8.92429819685859,1.9063402678352,0.5546656,-2.8112018,-0.5305365,204.4056,-70.106636,-19.840403,WAL
133895881000,2.669967,-4.49791112269104,8.91069616877309,1.55457480526541,0.98624194,-3.7391062,-0.69974613,205.20271,-69.936775,-20.000313,WAL
133900936000,2.675022,-4.59674703704064,9.13190033462959,0.184991780163329,1.4092661,-4.192979,-0.8188649,206.15059,-69.75396,-20.177004,WAL
133905818000,2.679904,-4.64925359692714,9.48066221108781,-1.09329115605909,1.7183639,-3.9920044,-0.8481864,207.14645,-69.50424,-20.415462,WAL
133910898000,2.684984,-4.63594540507887,10.0573489804869,-2.3531298868697,1.8576412,-3.3896914,-0.818254,208.13991,-69.26565,-20.648829,WAL
133915814000,2.6899,-4.66429413503891,10.6245467153697,-3.29943178210117,1.8399261,-2.7663033,-0.77488256,209.05989,-69.08904,-20.838272,WAL
133920878000,2.694964,-4.86715102928016,11.2472704406615,-3.1248804311284,1.8011361,-2.3218987,-0.6994407,209.83614,-68.94401,-21.000507,WAL
133925828000,2.699914,-5.10874750810578,11.7576444196947,-2.94091154738766,1.7867808,-1.8811595,-0.6178902,210.45995,-68.856705,-21.11564,WAL
133930894000,2.70498,-5.62509816933993,11.6689779827994,-2.66969706691034,1.7250835,-1.6126842,-0.57879484,210.99463,-68.77175,-21.218674,WAL
133935812000,2.709898,-6.0251104795212,11.4565855818454,-2.31800666280299,1.5830573,-0.9789116,-0.5849035,211.29091,-68.69612,-21.303196,WAL
133940874000,2.71496,-6.17018139076309,10.9053168664339,-1.72321676490773,1.4883732,-0.27030787,-0.6310238,211.47867,-111.38558,-21.383204,WAL
133945904000,2.71999,-6.18906459972299,10.3272531405817,-1.17614335948753,1.2895365,0.21624629,-0.6774496,211.50157,-111.55171,-21.53924,WAL
133950862000,2.724948,-5.90252025647012,9.68370248426988,-0.743978073041156,1.0861185,0.5849035,-0.6945538,211.345,-111.72349,-21.691853,WAL
133955828000,2.729914,-5.53263539869229,9.13750364108239,-0.43234740248466,0.8564331,0.9633345,-0.72021013,211.01404,-111.95662,-21.904675,WAL
133960860000,2.734946,-4.9121360923046,8.87573081098481,-0.475976244621266,0.6310238,1.351234,-0.7153232,210.57182,-112.178215,-22.103172,WAL
133965842000,2.739928,-4.32795039761739,8.61874317224263,-0.577535715050134,0.44806966,1.6264287,-0.68661255,210.05023,-112.37013,-22.276848,WAL
133970983000,2.745069,-3.80984824675866,8.35969199473841,-0.84636227464112,0.32406402,1.8078557,-0.69058317,209.44579,-112.5638,-22.45267,WAL
133975857000,2.749943,-3.34079241168896,8.21137900495295,-0.954151603060921,0.27214047,2.012801,-0.729984,208.81404,-112.6948,-22.563246,WAL
133980847000,2.754933,-2.92421322288262,8.3391931961367,-0.641717189212481,0.26236662,2.1114557,-0.7849618,208.16838,-112.830154,-22.679209,WAL
133985872000,2.759958,-2.62540406879369,8.50896102052655,-0.324733942472111,0.38820487,2.0299053,-0.85154617,207.55603,-112.94644,-22.765661,WAL
133990852000,2.764938,-2.71053122928752,8.80690620571174,-0.00314240173136993,0.61727935,1.9141463,-0.97005403,206.9327,-113.098175,-22.882013,WAL
134006537000,2.780623,-2.97340902572891,9.86207110730281,0.904673451211041,1.0070114,1.9040669,-1.2822062,205.29642,-113.5343,-23.191626,WAL
134010903000,2.784989,-3.0345549734485,10.4238489283429,0.916138297453615,1.0067059,1.9520199,-1.3243558,204.7715,-113.72987,-23.335707,WAL
134016004000,2.79009,-3.10109645601136,11.0849558876617,0.927832099258441,1.0064005,2.0228803,-1.348485,204.268,-113.9507,-23.511002,WAL
134020993000,2.795079,-3.06089131880719,11.8337752955191,0.902703927863679,1.0161743,2.069917,-1.351234,203.7644,-114.17503,-23.68844,WAL
134025773000,2.799859,-2.99993206004386,12.5686860806001,0.88614913605822,1.0164797,2.0372355,-1.3301591,203.294,-114.37764,-23.842947,WAL
134030804000,2.80489,-2.72614961413618,13.5053104752268,0.938984366035291,1.029308,1.9446895,-1.3084733,202.83542,-114.58021,-23.996492,WAL
134035784000,2.80987,-2.45274255772545,14.4268813492246,0.997045885831897,1.0277808,1.7583756,-1.215011,202.45854,-114.72411,-24.0913,WAL
134040879000,2.814965,-2.14912401593912,15.3143814770247,1.11382225180931,1.0461067,1.4453071,-1.0818423,202.15836,-114.85259,-24.17493,WAL
134045933000,2.820019,-1.85594154073696,16.1809951811779,1.20918014830969,1.1010846,1.1725558,-0.9117164,201.95415,-114.88629,-24.15772,WAL
134050797000,2.824883,-1.79888538591406,16.6279350688986,0.724202891892416,1.1456778,1.0259482,-0.7467828,201.8137,-114.88886,-24.113852,WAL
134055930000,2.830016,-1.77780134991744,16.9972490565323,0.166720155450219,1.1490375,0.93676186,-0.57910025,201.7657,-114.79623,-23.967796,WAL
134060828000,2.834914,-2.24254480903351,16.0814305794075,-0.931350246906265,1.0998629,0.86651236,-0.42149702,201.75874,-114.668625,-23.790607,WAL
134066077000,2.840163,-2.74113529317139,15.0954560391363,-2.07580706280702,1.0503827,0.8393288,-0.2507602,201.78159,-114.48208,-23.540646,WAL
134070927000,2.845013,-3.21334132915879,14.0883621569951,-2.44772151309942,1.0451905,0.87109387,-0.07971791,201.81017,-114.26409,-23.258106,WAL
134076432000,2.850518,-3.74931952052182,12.945258688709,-2.86986358502924,1.0656544,0.9434814,0.044898596,201.79938,-114.13561,-23.037395,WAL
134080891000,2.854977,-4.22283582761006,11.9007725352201,-3.30072781993711,1.1239921,1.0134255,0.13072516,201.78946,-113.98239,-22.784742,WAL
134085812000,2.859898,-4.75141431338574,10.7299959667715,-3.78978644592243,1.1954633,1.0989466,0.17623462,201.7613,-113.81903,-22.512362,WAL
134090874000,2.86496,-5.21023358727634,9.71709564877402,-3.89503777097416,1.2809844,1.2055426,0.17989981,201.65028,-113.78327,-22.338049,WAL
134095894000,2.86998,-5.65171143504686,8.74311394660608,-3.93599960227208,1.3686435,1.2815952,0.1469131,201.53235,-113.75775,-22.161072,WAL
134100886000,2.874972,-5.9870008032579,7.97280228521264,-3.78548600319938,1.4724907,1.3374895,0.061391957,201.26251,-113.897354,-22.092907,WAL
134105815000,2.879901,-6.28628528888997,7.27293640222396,-3.57828895914943,1.5439619,1.3765849,-0.064446285,200.98265,-114.066956,-22.040749,WAL
134110891000,2.884977,-6.29575751793943,6.84525061473991,-3.14734004719791,1.6148223,1.3600914,-0.18478674,200.63177,-114.3693,-22.098148,WAL
134115825000,2.889911,-6.1816568194587,6.55049045631351,-2.63864097362914,1.6685784,1.2791518,-0.29565877,200.29208,-114.71046,-22.185574,WAL
134120883000,2.894969,-5.86417911822855,6.48488406631079,-2.11341073408462,1.6917913,1.1414018,-0.37018433,199.92772,-115.143456,-22.365387,WAL
134125843000,2.899929,-5.47444206801107,6.51305780771056,-1.59689179853697,1.6432275,1.0781772,-0.40958515,199.56842,-115.590935,-22.56129,WAL
134130888000,2.904974,-5.00853682114435,6.60633924802055,-1.20658889370908,1.5720617,0.9221011,-0.41050145,199.2929,-116.03177,-22.788485,WAL
134135863000,2.909949,-4.51898805087136,6.72632680619522,-0.880223065236224,1.5302174,0.7510588,-0.41416663,199.04346,-116.473946,-23.027338,WAL
134140890000,2.914976,-4.11051320912512,6.73864859670743,-0.770784306095955,1.4306464,0.59131753,-0.39553526,198.8955,-116.81935,-23.231964,WAL
134146440000,2.920526,-3.69800327215428,6.70364778015052,-0.748283762892756,1.3680327,0.42180246,-0.3454443,198.80507,-117.14784,-23.435762,WAL
134150911000,2.924997,-3.36569121301976,6.67545162684854,-0.730157649620414,1.2629639,0.38545597,-0.33353242,198.75407,-117.39215,-23.590601,WAL
134155880000,2.929966,-2.99636474873001,6.64411485973659,-0.710012568687676,1.2394456,0.33567044,-0.3182608,198.75946,-117.61824,-23.738636,WAL
134160875000,2.934961,-2.65301002683992,6.54956393976994,-0.727320173650016,1.1957687,0.30970868,-0.30573806,198.74266,-117.83127,-23.881876,WAL
134165884000,2.93997,-2.34134923592502,6.3809604342635,-0.788630493699009,1.1704178,0.30909783,-0.28405234,198.73244,-118.03093,-24.016024,WAL
134170881000,2.944967,-2.11058174594646,6.14257309183556,-0.859508327904398,1.1313224,0.33108896,-0.2507602,198.73827,-118.158966,-24.057255,WAL
134175854000,2.94994,-1.93756380186424,5.85572764679732,-0.936911095114723,1.1007792,0.3726278,-0.23487769,198.73851,-118.27896,-24.093403,WAL
134180888000,2.954974,-1.82610545822719,5.52015632893088,-0.97436560933389,1.0894781,0.43890667,-0.22693644,198.71179,-118.38337,-24.089314,WAL
134185878000,2.959964,-1.78120103277302,5.14096347812696,-0.9693762345166,1.0665708,0.5036584,-0.21471913,198.67673,-118.47316,-24.07511,WAL
134190875000,2.964961,-1.7488251238316,4.79629900550406,-0.945965847014291,1.026559,0.57543504,-0.22724187,198.60487,-118.573944,-24.05085,WAL
134195893000,2.969979,-1.72562293070684,4.47610859501738,-0.908842318632677,0.981355,0.6420194,-0.24190263,198.51996,-118.66478,-24.018156,WAL
134200885000,2.974971,-1.70332567135135,4.18806711935135,-0.864428497556757,0.9111055,0.6649268,-0.27305678,198.40182,-118.779045,-24.00454,WAL
134206837000,2.980923,-1.67764949405405,3.87995267005405,-0.80280563987027,0.8549059,0.66889745,-0.28955013,198.2746,-118.88507,-23.98643,WAL
134211166000,2.985252,-1.64755320290837,3.68638771937871,-0.777431501846138,0.784351,0.6542367,-0.29749137,198.11676,-119.014015,-23.990267,WAL
134216081000,2.990167,-1.59357945293443,3.51955982080684,-0.782338186360888,0.7415904,0.64568454,-0.29626966,197.96054,-119.13652,-23.994528,WAL
134220829000,2.994915,-1.53470908907935,3.39589838615177,-0.788586965355354,0.70738196,0.63713247,-0.28130344,197.79945,-119.267296,-24.01378,WAL
134225864000,2.99995,-1.46041132184129,3.33088782769646,-0.797874169289291,0.6924158,0.6469063,-0.2312125,197.64328,-119.38211,-24.021582,WAL
134230822000,3.004908,-1.39690814228571,3.29436671804082,-0.853422467722449,0.677755,0.6747007,-0.19211712,197.47089,-119.51251,-24.032938,WAL
134235880000,3.009966,-1.35736578214286,3.32896648316327,-1.0313634444898,0.6609562,0.713796,-0.112399206,197.30563,-119.61528,-24.017204,WAL
134240861000,3.014947,-1.36490379271655,3.37782677812474,-1.25299404795283,0.6252206,0.763887,0.005497787,197.12294,-119.69836,-23.96786,WAL
134245993000,3.020079,-1.47102887292584,3.45946137980234,-1.57953288087368,0.57635134,0.8368854,0.13744467,196.9374,-119.75211,-23.88792,WAL
134250905000,3.024991,-1.57260455374969,3.53759644672369,-1.89207355649863,0.49938235,0.9309586,0.26297748,196.74101,-119.78671,-23.763878,WAL
134255880000,3.029966,-1.75722294355432,3.72538634183844,-1.93995163465181,0.4111123,1.0048733,0.3885103,196.55069,-119.77981,-23.601032,WAL
134260892000,3.034978,-1.9492518742582,3.92572114348595,-1.9735787215563,0.32253686,1.0512991,0.49388456,196.36046,-119.73604,-23.406551,WAL
134265888000,3.039974,-2.13728765845942,4.14196243521321,-2.05349400715268,0.18142697,1.0693196,0.5699373,196.14494,-119.6862,-23.181738,WAL
134270862000,3.044948,-2.32518469929811,4.36037495710665,-2.14158993103919,0.002443461,1.0983357,0.6258314,195.91745,-119.61282,-22.947903,WAL
134275856000,3.049942,-2.52100422006239,4.6121427593683,-2.31875984612985,-0.18845193,1.0965031,0.6600399,195.70912,-119.502716,-22.7055,WAL
134281077000,3.055163,-2.72670095819861,4.880642,-2.5057623319062,-0.37659842,1.0708468,0.68691796,195.50021,-119.3782,-22.472214,WAL
134285871000,3.059957,-2.92652772124711,5.1864992,-2.69743290749689,-0.5635232,1.0516045,0.70829827,195.3013,-119.2173,-22.237091,WAL
134290841000,3.064927,-3.13369063579677,5.5035852,-2.89614020008883,-0.7275405,1.0201449,0.7293731,195.1001,-119.04483,-22.010214,WAL
134295920000,3.070006,-3.44819450625255,5.90859619852881,-3.13089178929301,-0.86926126,0.9932669,0.7125743,194.90796,-118.85172,-21.796331,WAL
134300829000,3.074915,-3.77960702436657,6.32166116485492,-3.36624268033306,-0.9636399,1.0015136,0.68966687,194.7217,-118.64052,-21.585459,WAL
134305914000,3.08,-4.1666809975877,7.13871664438637,-3.45366658253091,-1.0534371,0.9941832,0.63529986,194.52982,-118.43651,-21.40322,WAL
134310850000,3.084936,-4.55153971199115,8.01296365936275,-3.50593132600261,-1.1398746,0.94959,0.55680364,194.34581,-118.23327,-21.243792,WAL
134315936000,3.090022,-5.03057820214131,8.52972320110519,-3.14440379889481,-1.2263119,0.8350528,0.45937067,194.1556,-118.06242,-21.135607,WAL
134320866000,3.094952,-5.51044870825933,8.95834520426288,-2.71578179573712,-1.303281,0.550695,0.35002577,194.02176,-117.90433,-21.078072,WAL
134325915000,3.100001,-5.69269401961058,9.44864626330504,-1.58972227389316,-1.3616186,0.3277292,0.25625798,193.88675,-117.76071,-21.068913,WAL
134330869000,3.104955,-5.80165065829256,9.94131970833749,-0.329615245839241,-1.3588698,-0.3173445,0.22510384,193.95213,-117.632324,-21.139164,WAL
134335920000,3.110006,-5.80439739442975,10.3110123575541,-0.754188078854831,-1.2534955,-1.3912456,0.1704314,194.15639,-117.556816,-21.373922,WAL
134340984000,3.11507,-5.78176004586899,10.6505741618173,-1.58045478395519,-0.9691377,-2.7482827,0.09773844,194.62323,-117.53418,-21.695742,WAL
134345874000,3.11996,-5.70705250446903,11.0565186763274,-2.86782356699115,-0.51923543,-3.8417315,0.011911872,195.29706,-117.462,-22.105816,WAL
134350862000,3.124948,-5.46397942933628,11.7170429891593,-5.72657239123894,-0.093767814,-4.2256603,-0.06566802,196.15872,-117.45929,-22.564617,WAL
134355916000,3.130002,-5.34094605403996,12.1949860755864,-7.52291861928758,0.26419923,-4.0149117,-0.12736541,197.15115,-117.57912,-22.98804,WAL
134362158000,3.136244,-5.38711142567815,12.4777494589246,-7.97303111327348,0.5421429,-3.8099666,-0.20616703,198.23349,-117.768425,-23.440517,WAL
134366574000,3.14066,-5.4764135501866,12.5178369673934,-8.37438568061285,0.9868528,-3.8875463,-0.24678956,199.34227,-118.050995,-23.711369,WAL
134370876000,3.144962,-5.6058952154783,12.4369110322137,-8.82757108662345,1.1432343,-4.16885,-0.35705075,200.41722,-118.35266,-24.012402,WAL
134375829000,3.149915,-5.68225157174283,12.2816437943206,-9.12109442625738,1.3347405,-4.1178427,-0.441961,201.3996,-118.70821,-24.265081,WAL
134380846000,3.154932,-5.60057996870313,11.9885869838016,-8.91931832136786,1.4220943,-3.8817432,-0.4615087,202.38556,-119.06749,-24.52919,WAL
134385838000,3.159924,-5.47197855688906,11.6609398922227,-8.78938020213186,1.3768903,-3.4611626,-0.44868052,203.28085,-119.467926,-24.797184,WAL
134390875000,3.164961,-5.23868989194631,11.2514947298658,-8.81318514765101,1.1933253,-2.826779,-0.41691554,204.0224,-119.84819,-25.023382,WAL
134395890000,3.169976,-4.96973919897436,10.8114368489152,-8.74645427692308,0.9138544,-2.104736,-0.3436117,204.61162,-120.181305,-25.200893,WAL
134400874000,3.17496,-4.61670075384615,10.2983542011834,-8.46873046153846,0.6041457,-1.4669929,-0.20341812,205.03311,-120.44909,-25.300854,WAL
134405861000,3.179947,-4.41561492926368,9.72051341054726,-8.16488696465672,0.27152961,-1.0638218,-0.0888809,205.31787,-120.65553,-25.338379,WAL
134410877000,3.184963,-4.63548707183085,8.96052103323383,-7.7872806878806,-0.054061573,-0.6588182,0.0888809,205.42694,-120.76315,-25.26459,WAL
134415878000,3.189964,-4.94830986276371,8.47511409142053,-7.77619526888186,-0.50762904,-0.204029,0.09254608,205.40634,-120.79783,-25.1579,WAL
134420879000,3.194965,-5.52929760880802,8.76981788677918,-8.81186939815401,-0.7687739,-0.02565634,-0.07360926,205.34973,-120.81009,-25.039864,WAL
134426215000,3.200301,-6.14809231659459,9.18645613675676,-9.89130395189189,-0.4841107,0.42821655,-0.22937989,205.06337,-120.89328,-24.952135,WAL
134430853000,3.204939,-6.66669377136216,11.3184835652973,-10.3858957592432,-0.098043874,0.6044512,-0.24190263,204.80737,-120.95787,-24.88061,WAL
134435909000,3.209995,-7.23982853157695,13.5282640750428,-10.6716113078752,0.06505715,1.0198395,-0.13836098,204.31871,-121.13083,-24.798826,WAL
134440876000,3.214962,-7.8506027681187,14.9986458314628,-9.40029598915731,0.29779682,1.4242324,0.016493361,203.7949,-121.36778,-24.687416,WAL
134446067000,3.220153,-8.4519261679156,16.4862694290081,-7.98810369208243,0.42088616,1.6013832,0.14996742,203.28143,-121.51468,-24.45784,WAL
134450955000,3.225041,-8.5257758378032,17.2339970353974,-5.54645067429501,0.44226643,1.5610662,0.301462,202.7503,-121.64532,-24.169588,WAL
134456159000,3.230245,-8.57859648852459,17.9706312284474,-3.00644973758939,0.27580565,1.4801265,0.45051312,202.19963,-121.61386,-23.853378,WAL
134460865000,3.234951,-8.23525907213115,17.7359452321119,-1.61137029354735,0.00580322,1.498147,0.5448918,201.66289,-121.54903,-23.519749,WAL
134465839000,3.239925,-7.87236907868852,17.4878942024108,-0.136843061361813,-0.24495697,1.4556919,0.49602258,201.28009,-121.32016,-23.263288,WAL
134470880000,3.244966,-7.24815825908909,15.9044627770675,0.691588513548542,-0.37720928,1.321607,0.3811799,200.92372,-121.06981,-23.021873,WAL
134475852000,3.249938,-6.61086997403116,14.2303920655214,1.45252948214702,-0.505491,1.1279627,0.23762658,200.59009,-120.80361,-22.825361,WAL
134480888000,3.254974,-5.89589148315894,12.2992344738416,1.61498263707025,-0.6389651,1.0021244,0.122783914,200.31468,-120.47895,-22.688902,WAL
134485814000,3.2599,-5.19072925709018,10.3905957635277,1.7231075271151,-0.79504114,0.9166033,0.024740042,200.06952,-120.16421,-22.607244,WAL
134490866000,3.264952,-4.3104922390478,8.92392650316759,1.51011571490689,-0.91965765,0.8576548,-0.047036625,199.83083,-119.87563,-22.596624,WAL
134495862000,3.269948,-3.42412012294106,7.5231829539259,1.26670784226339,-1.0262536,0.7696902,-0.067500606,199.62363,-119.58084,-22.611729,WAL
134500923000,3.275009,-2.64898025165625,6.47302166371186,0.829685515312121,-1.1087204,0.679893,-0.007330383,199.4159,-119.31537,-22.641663,WAL
134505816000,3.279902,-1.92315718816833,5.52857724176542,0.37058051188299,-1.119716,0.6365216,0.08827003,199.22424,-119.048386,-22.673933,WAL
134510893000,3.284979,-1.40385637334527,4.72825758572049,-0.0216735567437066,-1.035722,0.675617,0.1863139,199.05482,-118.7891,-22.64715,WAL
134515823000,3.289909,-1.00426160517036,4.03152811740451,-0.364915204584418,-0.91415983,0.80878556,0.31642818,198.88312,-118.51146,-22.585028,WAL
134521007000,3.295093,-0.915547964764518,3.71393209708276,-0.314143786230453,-0.83077675,1.0173961,0.44776422,198.7025,-118.23506,-22.43162,WAL
134525930000,3.300016,-0.889678759044353,3.48542079864655,-0.193420845711934,-0.8142834,1.1249083,0.51923543,198.5197,-117.95597,-22.260633,WAL
134530853000,3.304939,-1.01308204565709,3.44319338964589,0.212353389132494,-0.82711154,1.2950343,0.66431594,198.28583,-117.66742,-21.99757,WAL
134535921000,3.310007,-1.21681417287698,3.49543235466581,0.776534598634162,-0.90469146,1.4141531,0.81000733,198.04532,-117.358955,-21.715597,WAL
134540967000,3.315053,-1.49616304074287,3.7165123928592,1.25479330598906,-1.0128145,1.4553864,0.95264435,197.79149,-117.01326,-21.401903,WAL
134545929000,3.320015,-1.78806122744025,3.97192333003167,1.7063233522315,-1.1123856,1.4544702,1.0842859,197.53078,-116.63042,-21.051823,WAL
134550885000,3.324971,-2.31877528543825,5.07939783382806,2.06771327759731,-1.1646146,1.4382823,1.1890492,197.24315,-116.18233,-20.69135,WAL
134555907000,3.329993,-2.94728845317838,6.52497821338561,2.39992732027443,-1.1768318,1.3848315,1.2980887,196.9784,-115.69747,-20.303896,WAL
134560892000,3.334978,-3.32683169071825,7.43093611607327,2.52070651745215,-1.1688906,1.2623531,1.3921618,196.72783,-115.17376,-19.943933,WAL
134565889000,3.339975,-3.53119415603519,7.95784670418296,2.49116014807574,-1.1924089,1.1414018,1.4633276,196.49695,-114.62812,-19.57224,WAL
134570879000,3.344965,-3.73527034213315,8.48401917459868,2.4616551684503,-1.2302825,1.0073168,1.4853189,196.31029,-114.04982,-19.249767,WAL
134575946000,3.350032,-3.94249559963984,9.01831093964807,2.43169490156411,-1.319469,0.91721416,1.4391985,196.14183,-113.46956,-18.94145,WAL
134580885000,3.354971,-4.49558463609497,9.97037586129445,2.08047945275342,-1.4498887,0.8304713,1.3240504,196.00035,-112.89667,-18.661375,WAL
134585881000,3.359967,-5.2073081715102,11.1204456116639,1.58557247397301,-1.606881,0.7489208,1.1334605,195.87082,-112.3483,-18.429459,WAL
134590867000,3.364953,-5.35932441968504,11.3501601622047,1.24380857535433,-1.7754798,0.6059783,0.8881981,195.77339,-111.84049,-18.279747,WAL
134595883000,3.369969,-5.22221038110236,11.1043001322835,0.979036201259843,-1.967597,0.39828414,0.6123924,195.70206,-111.382416,-18.20636,WAL
134600879000,3.374965,-4.72119700524559,10.689241966619,0.462335523452551,-2.1380284,0.12889257,0.34116822,195.67604,-111.078415,-18.283604,WAL
134605876000,3.379962,-4.0046224393896,10.173491040248,-0.204033008619933,-2.3032675,-0.23273966,0.10781772,195.72406,-110.839325,-18.44078,WAL
134610854000,3.38494,-3.16553757479742,9.6328612086017,-1.26286698024517,-2.400395,-0.6795876,-0.0693332,195.86966,-110.69515,-18.66378,WAL
134615888000,3.389974,-2.20394897157698,9.06191796073135,-2.69022502670684,-2.3722951,-1.1404854,-0.1881465,196.11609,-110.62381,-18.944359,WAL
134620876000,3.394962,-1.48646980351837,8.454209106724,-3.96875712595778,-2.1371121,-1.3365731,-0.21502456,196.41086,-110.5775,-19.139668,WAL
134625862000,3.399948,-0.921795752541048,7.81953399374511,-5.15877284096951,-1.9477439,-1.5906931,-0.2171626,196.84697,-110.57245,-19.371483,WAL
134630885000,3.404971,-0.604448230433893,7.18532961012075,-5.69411741768318,-1.4450017,-1.676825,-0.22388211,197.287,-110.62921,-19.484804,WAL
134635880000,3.409966,-0.486962783954155,6.5587406474212,-5.70390786303725,-0.84116143,-1.6624697,-0.20861048,197.75795,-110.698845,-19.586498,WAL
134640869000,3.414955,-0.610430552780229,6.13272341006178,-5.0168606407767,-0.21930063,-1.6136005,-0.22204952,198.22867,-110.748276,-19.571018,WAL
134645942000,3.420028,-0.89629780914975,5.8325628505737,-3.85433371197411,0.30818152,-1.6172657,-0.23762658,198.70393,-110.83685,-19.548323,WAL
134650863000,3.424949,-1.17716324935278,5.69795755752051,-2.69594531788514,0.68111473,-1.6859881,-0.25503623,199.17566,-110.95574,-19.52101,WAL
134655875000,3.429961,-1.46594454656335,5.68045576317229,-1.49268980623519,0.8958339,-1.7782288,-0.2660318,199.6511,-111.11623,-19.494766,WAL
134660848000,3.434934,-1.68113390230504,5.68643154211547,-0.326566609123223,0.926988,-1.8689423,-0.25442538,200.1237,-111.31987,-19.557814,WAL
134665885000,3.439971,-1.77465944691943,5.73319415165877,0.806131153080569,0.8512407,-1.8515326,-0.23304509,200.58553,-111.52966,-19.614105,WAL
134670879000,3.444965,-1.73663419575,5.795955386,1.701128182,0.6740898,-1.7418822,-0.17592919,201.0352,-111.70588,-19.73161,WAL
134675865000,3.449951,-1.57593718961538,5.87400814769231,2.38064672615385,0.41813725,-1.5653422,-0.09896017,201.45354,-111.84377,-19.825262,WAL
134680820000,3.454906,-1.43081544056506,5.95483091035623,2.98205535764906,0.13133603,-1.349096,-0.018936822,201.89682,-111.88476,-19.935745,WAL
134685882000,3.459968,-1.30255522786544,6.04186454582822,3.49509649543608,-0.160963,-1.1459832,0.070554934,202.29309,-111.870575,-20.009665,WAL
134690893000,3.464979,-1.24666978413384,6.11563339981112,3.89421758138154,-0.48563787,-0.97005403,0.15790866,202.67636,-111.73997,-20.034748,WAL
134695894000,3.46998,-1.34144039843497,6.16301888688613,4.06221996449002,-0.8371908,-0.8362745,0.22785273,203.01407,-111.558876,-20.027918,WAL
134700866000,3.474952,-1.4606448130559,6.20666967972256,4.2012134745002,-1.2140946,-0.7296785,0.2751948,203.33688,-111.291084,-19.98014,WAL
134705882000,3.479968,-1.82812692933497,6.21646919600163,4.06402014426765,-1.5778649,-0.67073005,0.28771752,203.63441,-110.99464,-19.914368,WAL
134710898000,3.484984,-2.21567370758566,6.25363414913844,3.90714750239651,-1.8939877,-0.68203104,0.25228736,203.9195,-110.70045,-19.864326,WAL
134715887000,3.489973,-2.72667571331947,6.461820109388,3.62798903997821,-2.1383338,-0.71776664,0.20341812,204.19302,-110.41159,-19.808119,WAL
134720858000,3.494944,-3.2320691729223,6.69297763305662,3.30249595008861,-2.3261747,-0.8775079,0.18295415,204.47847,-110.203674,-19.811419,WAL
134726368000,3.500454,-3.75871770710755,7.16056257513292,2.51990614279452,-2.4077253,-1.1252137,0.12767084,204.7981,-110.052895,-19.833944,WAL
134731234000,3.50532,-4.21227724089001,7.58247482140125,1.78170774895046,-2.528066,-1.3658947,0.053450707,205.11609,-110.029175,-19.936398,WAL
134735882000,3.509968,-4.39499671628883,8.18046658078179,0.0541764958858102,-2.6080892,-1.5027285,0.024129177,205.47462,-110.05429,-20.034786,WAL
134740872000,3.514958,-4.59116069697733,8.82245859440246,-1.80046656624685,-2.6022859,-1.4004086,-0.01863139,205.73112,-110.18936,-20.189348,WAL
134745886000,3.519972,-4.27427081852243,9.79674806448549,-4.59788617692876,-2.5051584,-0.929126,-0.0067195175,205.9073,-69.65405,-20.330698,WAL
134750821000,3.524907,-3.85527681825858,10.824281211715,-7.54580923423747,-2.25562,-0.19853121,0.09712757,205.96332,-69.48989,-20.455597,WAL
134755879000,3.529965,-3.36361921288838,11.7375171772152,-8.24347056386651,-1.8347337,0.5516113,0.2828306,205.64287,-69.46175,-20.47908,WAL
134761009000,3.535095,-2.85951431214039,12.6515013544304,-8.74757521864212,-1.2962561,1.0433578,0.5183192,205.18967,-69.48033,-20.466173,WAL
134765886000,3.539972,-2.76718619682769,12.849429705119,-7.11884013085797,-0.75716746,1.1334605,0.7089091,204.75648,-69.76663,-20.208025,WAL
134770811000,3.544897,-2.73318066716449,12.9465885062313,-5.15137314017922,-0.36163223,0.8622363,0.7959574,204.3052,-70.07273,-19.9222,WAL
134775866000,3.549952,-2.9652217705465,12.5850531829338,-3.0867747104698,-0.122783914,0.4120286,0.8185594,203.95375,-109.44168,-19.43995,WAL
134780858000,3.554944,-3.22648945775647,12.1725254069032,-1.04246896228188,0.013439035,-0.06261369,0.77396625,203.72209,-108.99745,-18.972345,WAL
134785875000,3.559961,-3.50662211009157,11.699965692293,0.148940190499809,0.07574729,-0.49541172,0.7174612,203.66011,-108.61943,-18.56387,WAL
134790870000,3.564956,-3.78951434483022,11.2163111434567,1.13906277386494,0.053145275,-0.79717916,0.6753115,203.71918,-108.27749,-18.183367,WAL
134796605000,3.570691,-3.90697024669174,10.7768432905783,1.16864788492733,-0.0720821,-0.9211848,0.64751714,203.86497,-108.066864,-17.962732,WAL
134800859000,3.574945,-3.94423596117492,10.4787178341295,0.924350207134871,-0.2782491,-0.8597928,0.6404922,204.04602,-107.86489,-17.75513,WAL
134805878000,3.579964,-3.8817147011164,10.2508233949131,0.0962691579749539,-0.49693888,-0.62125,0.6597345,204.21541,-107.73303,-17.642153,WAL
134810946000,3.585032,-3.78276890129114,10.0623549002039,-0.921458794689836,-0.6560693,-0.29901853,0.68875057,204.33644,-107.600006,-17.528254,WAL
134815886000,3.589972,-3.75071804404568,9.96708098694943,-1.81292237275693,-0.7351763,-0.14294247,0.72326446,204.40865,-107.48946,-17.432856,WAL
134820881000,3.594967,-3.74584078915171,9.9085537245106,-2.67131984522839,-0.7128797,0.106901415,0.732122,204.35405,-107.38142,-17.336317,WAL
134825864000,3.59995,-3.92063720263675,9.81131059887798,-2.86263783935484,-0.64873886,0.21288654,0.75533485,204.29308,-107.24071,-17.197634,WAL
134830891000,3.604977,-4.16371349858813,9.69877536372137,-2.80862083247312,-0.4728097,0.17745635,0.7244862,204.20325,-107.1205,-17.076164,WAL
134835879000,3.609965,-4.61513919192858,9.38173145359866,-2.06937922539148,-0.2764165,0.050701816,0.66950834,204.13069,-106.98351,-16.931175,WAL
134840866000,3.614952,-5.210245868886,8.92429871629161,-0.861401425299424,-0.11484267,-0.09101892,0.5723807,204.0774,-106.87515,-16.811415,WAL
134845893000,3.619979,-5.58857246304682,8.62340862800942,-0.0162739957862924,-0.015882496,-0.21533,0.45020768,204.04582,-106.84091,-16.76517,WAL
134850887000,3.624973,-5.68656783048868,8.52541346521873,0.356107893981149,-0.014660766,-0.3023783,0.32834008,204.0475,-106.836975,-16.747782,WAL
134855880000,3.629966,-5.76827434634146,8.54324357398374,0.492933049626016,-0.06780604,-0.36896262,0.21166481,204.02707,-107.01653,-16.93255,WAL
134860895000,3.634981,-5.83335246558266,8.68207707624209,0.384469436012647,-0.18967366,-0.3707952,0.106595986,204.01062,-107.21831,-17.141422,WAL
134866213000,3.640299,-5.9074768136612,8.86540192349727,0.239681833661202,-0.34391713,-0.32620203,0.03604105,203.99031,-107.45145,-17.388718,WAL
134870880000,3.644966,-5.98198901094749,9.09307821394832,0.0575406716254515,-0.4633413,-0.22021692,0.00030543262,203.94821,-107.69595,-17.646955,WAL
134875892000,3.649978,-6.07619946649656,9.33349666007082,-0.129707783597167,-0.5571091,-0.1282817,-0.008552114,203.90169,-107.94005,-17.90505,WAL
134880890000,3.654976,-6.27559494196001,9.54286195355134,-0.254329951857946,-0.6075055,-0.058948494,-0.021991149,203.82661,-108.18948,-18.166391,WAL
134885887000,3.659973,-6.4562043718273,9.72241256694287,-0.367519677329263,-0.6224717,-0.0030543262,-0.035124753,203.72813,-108.421715,-18.407701,WAL
134890868000,3.664954,-6.56022125019625,9.78066181029219,-0.434090375216747,-0.6059783,0.06536258,-0.06414085,203.60251,-108.65837,-18.650873,WAL
134895928000,3.670014,-6.66588786423899,9.83983490231138,-0.501716902281727,-0.5852089,0.124005646,-0.11026118,203.45691,-108.91341,-18.910204,WAL
134900887000,3.674973,-6.62680995066829,9.82742095838396,-0.542643052120292,-0.54458636,0.17867808,-0.15821409,203.29042,-109.17272,-19.17179,WAL
134905844000,3.67993,-6.57393468169299,9.80819376123937,-0.581097697371405,-0.49480084,0.22204952,-0.2180789,203.10863,-109.44365,-19.443592,WAL
134910884000,3.68497,-6.44868670521046,9.75479199650044,-0.489111655985224,-0.4361578,0.23945917,-0.2678644,202.90965,-70.27371,-19.726145,WAL
134915822000,3.689908,-6.31996830515213,9.69962723534558,-0.387975646104792,-0.36071593,0.24953845,-0.28863382,202.69958,-69.98862,-20.010637,WAL
134920880000,3.694966,-6.2065085868121,9.67933350361924,-0.294992232946951,-0.3222314,0.269697,-0.34483343,202.48479,-69.70023,-20.29807,WAL
134925839000,3.699925,-6.0981988145761,9.66520588547348,-0.205519122637581,-0.27183503,0.31123585,-0.39370266,202.2606,-69.41444,-20.583036,WAL
134930884000,3.70497,-5.95973563384189,9.82099519140083,-0.260406792482663,-0.21380283,0.3481932,-0.4569272,202.04387,-69.13009,-20.866438,WAL
134935815000,3.709901,-5.8193853243511,10.0034504960373,-0.339938698033485,-0.19028452,0.37140608,-0.51893,201.8191,-68.838295,-21.157316,WAL
134940870000,3.714956,-5.65826609627388,10.2174293964441,-0.603128712362398,-0.19058995,0.40561453,-0.5717699,201.5888,-68.5507,-21.444078,WAL
134945880000,3.719966,-5.49491517420087,10.435231257613,-0.902605437575184,-0.17592919,0.4990769,-0.6236934,201.3339,-68.25221,-21.742157,WAL
134950846000,3.724932,-5.24288298428348,10.5459822819177,-1.17850215680042,-0.101098195,0.6389651,-0.6737844,201.07146,-67.97996,-22.014887,WAL
134955858000,3.729944,-4.95273822593017,10.6160170812923,-1.44863694262637,0.024740042,0.79198676,-0.7131852,200.7773,-67.70201,-22.293877,WAL
134960850000,3.734936,-4.65056799276925,10.53588749089,-1.60155666423734,0.20799962,0.9804387,-0.75441855,200.45059,-67.46518,-22.53293,WAL
134965844000,3.73993,-4.34489408028236,10.4172677238386,-1.72473872635696,0.4147775,1.169807,-0.77732605,200.07834,-67.226585,-22.773193,WAL
134970837000,3.744923,-4.04431617743661,10.1833672118661,-1.74893963708399,0.61300325,1.3399329,-0.7883216,199.67935,-112.97213,-22.971321,WAL
134975842000,3.749928,-3.7452163661252,9.89851003625198,-1.72994919175911,0.8060367,1.4993688,-0.8060367,199.22842,-113.17924,-23.172615,WAL
134980841000,3.754927,-3.43732403652535,9.55356346180453,-1.7013998342524,0.95203346,1.6200147,-0.82558435,198.76056,-113.35377,-23.333055,WAL
134985849000,3.759935,-3.12450621310406,9.17912996600455,-1.66822221780808,1.0531317,1.7006488,-0.8622363,198.26057,-113.54266,-23.497625,WAL
134990839000,3.764925,-2.93836650917502,8.97024832228219,-1.6025608767926,1.1340714,1.7577647,-0.91538155,197.75623,-113.7219,-23.64131,WAL
135000874000,3.77496,-2.69755267019564,8.72480378922513,-1.43584360737278,1.2861768,1.9159788,-1.0329732,196.6958,-114.11653,-23.927631,WAL
135005882000,3.779968,-2.57737372593967,8.60231388174634,-1.35264280166731,1.4095715,2.0418172,-1.0815369,196.13712,-114.335915,-24.07098,WAL
135010850000,3.784936,-2.62180729521232,8.63053024771024,-1.07563054565362,1.5903877,2.1053472,-1.1355985,195.56955,-114.563576,-24.206072,WAL
135015941000,3.790027,-2.82986069625312,8.8081366286428,-0.598630169641965,1.7733418,2.1826215,-1.2006557,194.96475,-114.81863,-24.34896,WAL
135020930000,3.795016,-3.00793274809505,9.10122168510679,0.0490385462940158,1.8570304,2.172237,-1.2437216,194.38638,-115.07719,-24.487717,WAL
135025788000,3.799874,-3.16459464821051,9.46378206782759,0.796539941064076,2.0091357,2.0176878,-1.3326025,193.8348,-115.38431,-24.653397,WAL
135030796000,3.804882,-3.27389097980213,10.0239368244395,1.75200132749184,2.1096232,1.6991217,-1.4321736,193.35161,-115.717865,-24.857565,WAL
135035798000,3.809884,-3.32935210917798,10.7751813132302,2.89651494399537,2.2018638,1.2403619,-1.5121969,192.96701,-116.07837,-25.085142,WAL
135040792000,3.814878,-3.30413687825743,11.6168007960396,3.82768094469307,2.2748623,0.68691796,-1.5619824,192.71751,-116.45705,-25.356699,WAL
135045827000,3.819913,-3.2229757690495,12.5286692069307,4.62019478028713,2.317928,0.11484267,-1.5919148,192.61996,-116.84837,-25.655298,WAL
135050986000,3.825072,-2.9566627732976,13.5196216865198,5.09065742882668,2.3289237,-0.41722095,-1.5745052,192.68985,-117.24519,-25.977943,WAL
135055794000,3.82988,-2.59100630746476,14.4794701121699,5.31005142287076,2.2736404,-0.90224797,-1.509448,192.93022,-117.62355,-26.30799,WAL
135060823000,3.834909,-2.14647585657739,15.4576281533084,5.15836372912564,2.1297817,-1.3093897,-1.3946054,193.37257,-117.90695,-26.585163,WAL
135065799000,3.839885,-1.65848498489563,16.4054566921032,4.7126026153013,1.9376645,-1.6032158,-1.2333369,193.94057,-118.140686,-26.837967,WAL
135070847000,3.844933,-1.27987169613042,17.1493250566851,3.96826234320247,1.72264,-1.7767016,-1.0503827,194.673,-118.20938,-26.953825,WAL
135075863000,3.849949,-1.00532157294107,17.6984250210812,2.97358103672819,1.5552629,-1.8127426,-0.86009824,195.4567,-118.21625,-27.022902,WAL
135080860000,3.854946,-0.868159952138903,17.9961951912431,1.83361976097232,1.4312572,-1.7357736,-0.6783658,196.28453,-118.06879,-26.92734,WAL
135085933000,3.860019,-0.931731254655259,17.9277339456467,0.454611582586814,1.3390167,-1.5589281,-0.5216789,197.08292,-117.870125,-26.784088,WAL
135090865000,3.864951,-1.13235196221374,17.0659680364063,-1.30856694187904,1.2699889,-1.2883148,-0.35643986,197.7835,-117.56882,-26.50227,WAL
135095901000,3.869987,-1.52883060394402,15.0882946607947,-3.69215910829908,1.2253957,-0.960891,-0.18295415,198.39941,-117.22863,-26.174215,WAL
135100817000,3.874903,-2.23492033298684,13.4670937412741,-5.29111836863437,1.1942415,-0.5656612,-0.039095376,198.81026,-116.876785,-25.785604,WAL
135105879000,3.879965,-3.51551823313942,12.3344352772268,-5.67483529896052,1.1670581,-0.15790866,0.08093964,199.11435,-116.49754,-25.356462,WAL
135110881000,3.884967,-4.58457745043275,11.229973967422,-5.89339534279879,1.1759156,0.028099801,0.17531833,199.17442,-116.27861,-24.999363,WAL
135115891000,3.889977,-5.1538213678693,10.1614749019741,-5.70209207624234,1.1872166,0.33628133,0.2144137,199.0952,-116.05556,-24.612736,WAL
135121498000,3.895584,-5.75759785854874,9.023590969734,-5.44471942217314,1.2180653,0.6310238,0.26542094,198.90578,-116.06496,-24.42115,WAL
135125868000,3.899954,-6.17063646546668,8.23685049224551,-5.16936033720275,1.2757921,0.70921457,0.25534168,198.7023,-116.09294,-24.23236,WAL
135130899000,3.904985,-6.62232598646708,7.36383801641485,-4.83455467538705,1.3130548,0.8323039,0.19517145,198.36433,-116.2545,-24.154987,WAL
135135882000,3.909968,-6.85821712600261,6.78968803779146,-4.34496925549338,1.3790283,0.9251554,0.07788532,198.02126,-116.44915,-24.091677,WAL
135141476000,3.915562,-7.10744465877887,6.16480371572287,-3.78455053173047,1.4245378,0.9877691,-0.08032878,197.62517,-116.772156,-24.159277,WAL
135145892000,3.919978,-7.12528356646631,5.89722252192344,-3.21817070762417,1.4162911,1.0027353,-0.23182335,197.21902,-117.126175,-24.251066,WAL
135150966000,3.925052,-7.13084429484792,5.61128137351542,-2.58428837810884,1.3573426,0.9639453,-0.3912592,196.79948,-117.565315,-24.453009,WAL
135155881000,3.929967,-6.95066728988206,5.60154208694393,-2.18010768030209,1.2791518,0.8906415,-0.52626044,196.38521,-118.027695,-24.685911,WAL
135160855000,3.934941,-6.74099215854259,5.61121646233383,-1.79399855967504,1.185384,0.829555,-0.6169739,195.99255,-118.496445,-24.97347,WAL
135165888000,3.939974,-6.32330569404234,5.76784907237814,-1.57566241042836,1.0760391,0.7635816,-0.66950834,195.62083,-118.9664,-25.286335,WAL
135170869000,3.944955,-5.89916611330935,5.91580968758993,-1.37865306305377,0.9810496,0.71929383,-0.68325275,195.28569,-119.4068,-25.604515,WAL
135175872000,3.949958,-5.36398008633094,5.99291257625899,-1.3741176380159,0.89736104,0.6881397,-0.634689,194.96849,-119.81983,-25.916634,WAL
135181198000,3.955284,-4.79536185541623,6.06598458402996,-1.37091108225357,0.8176431,0.68508536,-0.559858,194.68039,-120.16613,-26.175669,WAL
135185883000,3.959969,-4.31871467142111,5.9409626012278,-1.40216664934692,0.7339546,0.71929383,-0.45631635,194.39792,-120.47246,-26.407827,WAL
135191281000,3.965367,-3.76952758514455,5.7969137937217,-1.43817893348137,0.6743952,0.7812967,-0.3481932,194.13966,-120.704254,-26.552864,WAL
135195929000,3.970015,-3.26355998440762,5.55480275694609,-1.41756429572797,0.6374379,0.86345804,-0.2782491,193.87349,-120.90595,-26.673347,WAL
135200824000,3.97491,-2.71875480690843,5.25717764433444,-1.37720833129237,0.61086524,0.9419542,-0.20769419,193.60274,-121.06959,-26.75816,WAL
135205880000,3.979966,-2.29961302023945,4.93033027323261,-1.32825234307298,0.5830709,1.0207558,-0.1591304,193.34499,-121.187775,-26.77585,WAL
135210894000,3.98498,-1.91634417519954,4.60181403186051,-1.27806236506081,0.5558874,1.0595458,-0.12492194,193.08687,-121.28594,-26.7756,WAL
135215888000,3.989974,-1.61775648821489,4.23860987912111,-1.19884264765559,0.5516113,1.1456778,-0.11178834,192.80882,-121.35983,-26.721355,WAL
135220838000,3.994924,-1.35361908651177,3.86483044577376,-1.10913560654962,0.5213735,1.2110404,-0.08827003,192.53778,-121.41377,-26.654898,WAL
135225867000,3.999953,-1.17103887833416,3.58371031998017,-0.968078918383738,0.49663344,1.2657127,-0.064751714,192.25957,-121.45593,-26.556822,WAL
135230863000,4.004949,-1.00973446048587,3.32752098833912,-0.816263021638076,0.47128254,1.3005321,-0.04886922,191.97884,-121.48896,-26.45262,WAL
135235881000,4.009967,-0.90390723307912,3.18046263927449,-0.668614858357612,0.44135013,1.3054191,-0.024129177,191.70654,-121.504135,-26.331152,WAL
135240875000,4.014961,-0.812835021975626,3.06206879764829,-0.522899314886223,0.42485678,1.2880094,0.0030543262,191.44214,-121.51297,-26.206343,WAL
135245912000,4.019998,-0.715074892400208,2.99115932169439,-0.384038916257796,0.4184427,1.2324207,0.03848451,191.20378,-121.50569,-26.076923,WAL
135250878000,4.024964,-0.616200836102911,2.94172237872141,-0.250558927609148,0.4251622,1.1612549,0.098043874,190.98917,-121.486084,-25.939743,WAL
135255878000,4.029964,-0.575883423696134,2.93407868293647,-0.195236493148559,0.43768495,1.0961977,0.17104226,190.74544,-121.48782,-25.791065,WAL
135260992000,4.035078,-0.552276079575822,2.93880009851538,-0.162186219268293,0.47952923,1.026559,0.24678956,190.53806,-121.48064,-25.634272,WAL
135265880000,4.039966,-0.615082812400511,2.94996606244473,-0.222433739605974,0.516792,0.999681,0.30848694,190.32564,-121.45386,-25.44933,WAL
135270879000,4.044965,-0.713870607143559,2.96407854841309,-0.321221558909305,0.54336464,1.0012082,0.3903429,190.14114,-121.41016,-25.243729,WAL
135275853000,4.049939,-0.855977493059253,2.9937212314897,-0.42284770270137,0.548557,1.0170907,0.46639562,189.96402,-121.355774,-25.020483,WAL
135280909000,4.054995,-1.02305942589964,3.03191140323376,-0.527870607703835,0.5290093,1.0393872,0.5311473,189.79735,-121.28646,-24.779173,WAL
135286074000,4.06016,-1.22077411352806,3.08087906285515,-0.64238692021932,0.4560109,1.0885619,0.5748242,189.63281,-121.21823,-24.538332,WAL
135290951000,4.065037,-1.42098957362177,3.13209704361479,-0.754135112372645,0.3182608,1.1685852,0.6032294,189.46423,-121.12591,-24.281893,WAL
135295978000,4.070064,-1.65755029129141,3.26804496186273,-0.902891887205912,0.1328632,1.2672399,0.61178154,189.28348,-121.04367,-24.044079,WAL
135300928000,4.075014,-1.90675436389605,3.44671948824638,-1.06746059763043,-0.10842858,1.349096,0.6038403,189.0926,-120.9269,-23.801226,WAL
135305937000,4.080023,-2.16247381698983,3.71296605720868,-1.11569524223459,-0.3585779,1.3744467,0.5830709,188.90186,-120.82187,-23.59967,WAL
135310975000,4.085061,-2.42182157488961,4.03251975273565,-1.09253920537531,-0.6206391,1.351234,0.52626044,188.70316,-120.684784,-23.41271,WAL
135315955000,4.090041,-2.71609965344951,4.46547017385101,-1.03429223331907,-0.72082096,1.3420709,0.48716503,188.47145,-120.56914,-23.247253,WAL
135320924000,4.09501,-3.04100946368083,4.99405470131458,-0.947003041302354,-0.9440922,1.2779301,0.3912592,188.2546,-120.41492,-23.127142,WAL
135325891000,4.099977,-3.35227087650143,5.64588839316315,-0.952989422447809,-1.1523973,1.1071932,0.25900686,188.03726,-120.27193,-23.057585,WAL
135330889000,4.104975,-3.65536295812803,6.39414704849114,-1.02876247499753,-1.320996,0.8491027,0.13591751,187.85724,-120.12304,-23.033096,WAL
135335873000,4.109959,-3.90812889422424,7.25689864303511,-1.23290273386183,-1.4828753,0.5375614,0.034513887,187.69987,-119.947586,-23.070242,WAL
135340897000,4.114983,-4.12154467799169,8.22408013914685,-1.5462150394866,-1.6038266,0.20219639,-0.0076358155,187.61739,-119.77549,-23.155949,WAL
135345877000,4.119963,-4.30719621039295,9.24121752677422,-2.04515771612392,-1.6575829,-0.095294975,-0.012217305,187.57858,-119.59169,-23.267345,WAL
135350909000,4.124995,-4.45983341090765,10.3478386500049,-2.80357479920816,-1.6471981,-0.30757064,-0.005192355,187.60756,-119.41919,-23.410213,WAL
135355808000,4.129894,-4.57944924706943,11.3716159188458,-3.6341346638413,-1.5503759,-0.4184427,0.032070424,187.71614,-119.23801,-23.526207,WAL
135360885000,4.134971,-4.65836615338142,12.349306032101,-4.63813022941389,-1.4196508,-0.45875978,0.06994407,187.8622,-119.07492,-23.648848,WAL
135365848000,4.139934,-4.7443604182058,13.305797883905,-5.72705662005277,-1.2370021,-0.39614612,0.121256754,188.01364,-118.92619,-23.672338,WAL
135370884000,4.14497,-4.87161304467221,14.2797707095596,-7.31771662289426,-1.0189233,-0.2275473,0.18020524,188.14319,-118.79908,-23.67538,WAL
135375831000,4.149917,-5.14938791139489,14.9934020198532,-8.76403833905491,-0.74464476,-0.00030543262,0.20280726,188.2443,-118.68967,-23.561174,WAL
135380912000,4.154998,-6.02487116365422,14.7871105827732,-9.80052976517423,-0.42302418,0.16340645,0.19058995,188.31416,-118.61905,-23.43676,WAL
135385858000,4.159944,-6.6995488,14.4343230585574,-10.3625232717594,-0.10567969,0.16584991,0.118202426,188.36255,-118.6031,-23.22448,WAL
135390886000,4.164972,-6.9259764,13.6824120007985,-9.77722900825126,0.20861048,0.0125227375,0.005192355,188.40807,-118.65357,-23.039848,WAL
135396037000,4.170123,-7.14226837230216,12.9159568348321,-9.18215378477218,0.47616947,-0.2134974,-0.13775012,188.38039,-118.87551,-22.985703,WAL
