timestamp,rel_time,acc_x,acc_y,acc_z,gyro_x,gyro_y,gyro_z,azimuth,pitch,roll,label
664397152000,0,0.586075953428616,9.8704288319528,-0.0528740964664111,-0.01740966,-0.030543262,0.21288654,30.574867,-106.02982,9.054509,STD
664402171000,0.005019,0.605491520436849,9.86731276547797,-0.0336982271488628,-0.04062254,0.0018325958,0.19364429,30.74086,-105.89025,8.83968,STD
664407155000,0.010003,0.624771692975011,9.86421842889486,-0.0146560807693727,-0.0580322,0.049480084,0.17806722,30.89419,-105.75011,8.630312,STD
664412154000,0.015002,0.644109891714632,9.86111477950102,0.00444337544071373,-0.099265605,0.09040806,0.1685988,31.03866,-105.59991,8.422139,STD
664417136000,0.019984,0.663382327425933,9.85802168462601,0.0234778805094576,-0.12003502,0.13744467,0.16310102,31.16654,-105.45193,8.21743,STD
664422281000,0.025129,0.683285314526423,9.85482739054092,0.0431351524040153,-0.14080444,0.18051068,0.16310102,31.283085,-105.296776,8.017198,STD
664427197000,0.030045,0.702302434951303,9.85177527203319,0.0619174942181352,-0.16401732,0.1966986,0.16676621,31.393236,-105.1391,7.8208885,STD
664432157000,0.035005,0.721489765567131,9.84869583594728,0.080867944868671,-0.20555615,0.2443461,0.16646078,31.481579,-104.97463,7.631332,STD
664437158000,0.040006,0.740835701133613,9.84559094484533,0.0999750423895037,-0.21655174,0.2770274,0.16523905,31.569227,-104.81574,7.445594,STD
664442162000,0.04501,0.760193241940387,9.84248419118124,0.119093601876455,-0.25167647,0.30848694,0.16187929,31.643135,-104.64373,7.2650294,STD
664447155000,0.050003,0.779508230199424,9.83938426691169,0.138170134154303,-0.27885997,0.344528,0.14905111,31.70541,-104.47282,7.086677,STD
664452116000,0.054964,0.798699429228682,9.83630420997172,0.157124405460212,-0.30726522,0.36285394,0.13591751,31.763165,-104.29582,6.910936,STD
664457238000,0.060086,0.782327751385764,9.8423491686867,0.16855447835727,-0.3323107,0.36987892,0.112399206,31.812092,-104.1132,6.733019,STD
664462252000,0.0651,0.751810618183074,9.85196083245426,0.176484127436597,-0.35216382,0.37018433,0.0870483,31.856466,-103.926384,6.554405,STD
664467136000,0.069984,0.7220847149996,9.86132329073922,0.184208181306447,-0.3707952,0.3662137,0.059864793,31.862583,-103.69489,6.466784,STD
664472265000,0.075113,0.690867647549141,9.87115540551063,0.19231970307108,-0.37873647,0.3680463,0.027488936,31.86594,-103.46053,6.3718753,STD
664477198000,0.080046,0.66084351151227,9.88061179509288,0.200121250519887,-0.38515055,0.35277468,0.0030543262,31.874916,-103.22289,6.271355,STD
664482150000,0.084998,0.630703734164898,9.89010460701489,0.207952846499309,-0.37598756,0.32711834,-0.022907447,31.88517,-102.98624,6.162036,STD
664487143000,0.089991,0.600314415042235,9.89967601451219,0.215849284044798,-0.36193767,0.30757064,-0.044898596,31.897703,-102.750114,6.0477643,STD
664492160000,0.095008,0.569779022685256,9.90929342917551,0.223783677628958,-0.33414328,0.28710666,-0.07360926,31.916742,-102.51898,5.924285,STD
664497737000,0.100585,0.535835254860883,9.91998434437928,0.232603712115477,-0.30543262,0.26633725,-0.103847094,31.94092,-102.29203,5.7946844,STD
664502134000,0.104982,0.509073421057088,9.92841324058709,0.239557574700598,-0.27855456,0.25259277,-0.1337795,31.968174,-102.07133,5.6580973,STD
664507130000,0.109978,0.478665842780135,9.93799039898014,0.247458756750921,-0.24312437,0.22296582,-0.15118915,32.005646,-101.86116,5.516454,STD
664512156000,0.115004,0.448075672960287,9.94762506633072,0.255407383849584,-0.20769419,0.20555615,-0.17195857,32.04257,-101.656845,5.367387,STD
664517174000,0.120022,0.417534194218543,9.95724439795928,0.263343358935356,-0.19211712,0.18997909,-0.1881465,32.087437,-101.45819,5.2153764,STD
664522201000,0.125049,0.386937938013932,9.96688098227511,0.27129356753563,-0.18234327,0.1826487,-0.19975294,32.134758,-101.26831,5.0605335,STD
664527168000,0.130016,0.356706864895112,9.97640254867589,0.279148886039223,-0.17806722,0.1731803,-0.20677789,32.18717,-101.08286,4.903791,STD
664532152000,0.135,0.326372323235318,9.98595670348593,0.287031090070209,-0.17715092,0.16707164,-0.2171626,32.24058,-100.90053,4.7449265,STD
664537263000,0.140111,0.295264810710597,9.99575431288282,0.295114144805837,-0.18509217,0.16768251,-0.21746802,32.2955,-100.720726,4.589102,STD
664542194000,0.145042,0.265252847443252,10.0052068685346,0.302912529251421,-0.20372356,0.18387043,-0.21594086,32.347878,-100.54066,4.4336495,STD
664547158000,0.150006,0.235040033478722,10.0147226840396,0.31076310325018,-0.23060162,0.20250183,-0.21380283,32.39991,-100.35976,4.28072,STD
664552132000,0.15498,0.20476635566656,10.0242576691971,0.318629492265053,-0.26816985,0.23945917,-0.19608775,32.443466,-100.17652,4.1364913,STD
664557130000,0.159978,0.174346604620081,10.0338386615207,0.326533837318598,-0.31337386,0.28924468,-0.18203785,32.478508,-99.987366,3.9954586,STD
664562156000,0.165004,0.143756434800232,10.0434733288713,0.33448246441726,-0.35338554,0.3381139,-0.15943582,32.505024,-99.79604,3.865522,STD
664567608000,0.170456,0.11057346507126,10.0539246234187,0.34310481120236,-0.39370266,0.3903429,-0.1423316,32.517326,-99.59704,3.7422743,STD
664572164000,0.175012,0.0828438960901157,10.0626583171014,0.350310132543687,-0.43585235,0.44990227,-0.12217305,32.51533,-99.39322,3.6304533,STD
664577167000,0.180015,0.0523937131198206,10.0722488942512,0.358222385105288,-0.46089783,0.49968776,-0.12217305,32.501648,-99.18633,3.5211241,STD
664582153000,0.185001,0.0220469986905001,10.0818068829917,0.366107752139497,-0.49418998,0.5696318,-0.124311075,32.466663,-98.97157,3.4215894,STD
664587161000,0.190009,-0.00843361620361099,10.0914070449678,0.374027912209156,-0.5112942,0.63224554,-0.12186762,32.420364,-98.7585,3.3263366,STD
664592165000,0.195013,-0.0388898855586693,10.1009995390828,0.381941746272369,-0.53023106,0.70402217,-0.14355333,32.351162,-98.53691,3.2279522,STD
664597179000,0.200027,-0.0694070187613596,10.1106112028504,0.389871395351695,-0.5342017,0.78893244,-0.15760323,32.26153,-98.3195,3.1364284,STD
664602140000,0.204988,-0.0996015735716001,10.1201212674597,0.39771722484562,-0.5320636,0.86284715,-0.17256944,32.15452,-98.10002,3.0418088,STD
664607141000,0.209989,-0.130039583772369,10.129708010679,0.405626314403999,-0.5271767,0.93554014,-0.1853976,32.024128,-97.88271,2.9479203,STD
664612154000,0.215002,-0.160550630590296,10.1393177574813,0.413554381981715,-0.5195409,1.0067059,-0.19975294,31.873497,-97.6687,2.8529217,STD
664617164000,0.220012,-0.191043418253933,10.1489217533878,0.421477705054596,-0.50885075,1.065349,-0.21227567,31.706427,-97.4594,2.7578568,STD
664622241000,0.225089,-0.221943993696705,10.1586541859662,0.429506988735438,-0.49266282,1.1322387,-0.22327125,31.517439,-97.25596,2.6628246,STD
664627173000,0.230021,-0.251962043348813,10.1681086585832,0.437306954682633,-0.48349985,1.1609493,-0.22418754,31.323761,-97.056946,2.5687072,STD
664632148000,0.234996,-0.282241807545738,10.177645560706,0.445174925199117,-0.47769663,1.2064588,-0.22724187,31.107105,-96.86362,2.4745662,STD
664637594000,0.240442,-0.315388258966132,10.1880853534619,0.453787782974549,-0.4700608,1.2644911,-0.22327125,30.88022,-96.677414,2.384372,STD
664642143000,0.244991,-0.343075223253933,10.1968056283878,0.460982033804596,-0.46639562,1.3213016,-0.22052236,30.641947,-96.49476,2.295204,STD
664647154000,0.250002,-0.373574097302334,10.2064115412597,0.468906938379088,-0.4569272,1.3637567,-0.20830505,30.393047,-96.32048,2.212028,STD
664652211000,0.255059,-0.404352945049842,10.216105634533,0.476904592027703,-0.44409904,1.3982705,-0.1966986,30.13175,-96.15166,2.1316977,STD
664657138000,0.259986,-0.400108454990807,10.2150854866697,0.478485979416226,-0.43768495,1.4309518,-0.17562376,29.861004,-95.98898,2.0594327,STD
664662171000,0.265019,-0.384214035743907,10.2105098286651,0.478004330172874,-0.4382958,1.4321736,-0.15302174,29.591284,-95.83222,1.9916599,STD
664667150000,0.269998,-0.36849015069914,10.2059832637525,0.477527848634497,-0.39767328,1.4147639,-0.124311075,29.370375,-95.622536,1.8005632,STD
664672176000,0.275024,-0.352617837737701,10.2014139696671,0.477046869278826,-0.37415496,1.3698653,-0.09590584,29.158674,-95.41784,1.6179435,STD
664677164000,0.280012,-0.336865530325912,10.1968792225725,0.476569526456287,-0.3371976,1.318858,-0.0852157,28.955126,-95.23636,1.4406251,STD
664682152000,0.285,-0.321113222914123,10.1923444754779,0.476092183633747,-0.28955013,1.2492194,-0.09132435,28.77111,-95.07268,1.2676508,STD
664687151000,0.289999,-0.305326177053751,10.1877997279386,0.475613788130565,-0.2593123,1.196685,-0.10476339,28.597933,-94.92208,1.0974011,STD
664692167000,0.295015,-0.289485444500115,10.1832395251666,0.475133765757297,-0.23243423,1.1554517,-0.110872045,28.442488,-94.791336,0.928761,STD
664697152000,0.3,-0.273742611210666,10.178707505466,0.474656710029478,-0.22021692,1.1044444,-0.11942416,28.305449,-94.67175,0.7568506,STD
664702137000,0.304985,-0.257999777921217,10.1741754857654,0.47417965430166,-0.22540927,1.0473285,-0.12492194,28.18285,-94.56253,0.58573306,STD
664707117000,0.309965,-0.24227273483567,10.1696480117214,0.473703077065043,-0.23304509,0.9795224,-0.11636983,28.078903,-94.46416,0.41757837,STD
664712156000,0.315004,-0.226359367344089,10.1650668989288,0.473220853632248,-0.23915374,0.9053023,-0.12736541,27.993341,-94.37227,0.24364126,STD
664717135000,0.319983,-0.210635482299322,10.1605403340162,0.472744372093872,-0.24007004,0.872621,-0.12095132,27.916534,-94.28837,0.079249,STD
664722224000,0.325072,-0.194564212768729,10.1559137646568,0.472257363749063,-0.2565634,0.8216137,-0.12522738,27.866241,-94.206505,-0.090617865,STD
664727177000,0.330025,-0.178922436784247,10.1514108371589,0.471783370364934,-0.25381452,0.77824235,-0.12858713,27.823757,-94.13837,-0.2562234,STD
664732158000,0.335006,-0.16319223565792,10.1468824539836,0.471306697430076,-0.269697,0.73792523,-0.12950343,27.795296,-94.068794,-0.4207059,STD
664737159000,0.340007,-0.147398873715987,10.1423358881816,0.470828110530413,-0.26083946,0.72418076,-0.12614368,27.77197,-94.01557,-0.5826045,STD
664742164000,0.345012,-0.131592879610934,10.1377856858543,0.470349140837788,-0.26939157,0.7058548,-0.13164146,27.761482,-93.96206,-0.7456078,STD
664747150000,0.349998,-0.115846888280705,10.1332527570224,0.469871989411729,-0.27397305,0.7153232,-0.13103059,27.74736,-93.92021,-0.90305907,STD
664752140000,0.354988,-0.100088264787355,10.1287161916651,0.469394455192709,-0.2733622,0.7360926,-0.122478485,27.735428,-93.88561,-1.0574262,STD
664757152000,0.36,-0.0842601643968402,10.1241596254184,0.468914815612403,-0.29016098,0.7699956,-0.1282817,27.716928,-93.854385,-1.2128203,STD
664762172000,0.36502,-0.0684067996800835,10.1195957861211,0.468434410446174,-0.31398472,0.8045095,-0.129198,27.692728,-93.82846,-1.3615947,STD
664767136000,0.369984,-0.0527302852470196,10.1150828581785,0.467959364381402,-0.34147367,0.83016586,-0.13041973,27.661453,-93.80576,-1.5093023,STD
664772225000,0.375073,-0.036659015716427,10.1104562888192,0.467472356036593,-0.36987892,0.86101454,-0.12583824,27.619114,-93.78415,-1.6526062,STD
664777220000,0.380068,-0.020884602019176,10.1059151778052,0.466994343326372,-0.39858958,0.87995136,-0.12370021,27.572989,-93.76409,-1.7944685,STD
664782155000,0.385003,-0.0052996707687388,10.1014286146713,0.466522072510567,-0.4120286,0.8961393,-0.115453534,27.51921,-93.74747,-1.9306064,STD
664787159000,0.390007,0.0105031652955343,10.0968793214753,0.466043198516183,-0.43004912,0.9129381,-0.11301007,27.459984,-93.73151,-2.0653737,STD
664792168000,0.395016,0.0263217915637085,10.0923254826227,0.465563846030598,-0.44806966,0.90133166,-0.10140363,27.404728,-93.717735,-2.1933055,STD
664797150000,0.399998,0.0420551507308166,10.0877961903161,0.4650870773975,-0.4529566,0.9034697,-0.09285152,27.340916,-93.71081,-2.3189383,STD
664802151000,0.404999,0.0578485126727489,10.0832496245141,0.464608490497837,-0.4474588,0.89858276,-0.0842994,27.282763,-93.707726,-2.4396358,STD
664807139000,0.409987,0.0736008200845383,10.0787148774195,0.464131147675297,-0.44440445,0.8866709,-0.0693332,27.22638,-93.70739,-2.5542867,STD
664812155000,0.415003,0.0894415526381741,10.0741546746475,0.46365112530203,-0.4382958,0.88025683,-0.060170226,27.169998,-93.71491,-2.66636,STD
664817135000,0.419983,0.105168595723722,10.0696272006036,0.463174548065412,-0.4269948,0.870483,-0.042760566,27.118427,-93.725266,-2.770317,STD
664823037000,0.425885,0.123807352408642,10.0642615074695,0.462609737051253,-0.41905355,0.86254174,-0.039095376,27.068235,-93.74249,-2.8740282,STD
664827171000,0.430019,0.136862692994114,10.0605031585343,0.462214120525916,-0.4083634,0.84879726,-0.027183503,27.022959,-93.761444,-2.9690666,STD
664832151000,0.434999,0.152589736079662,10.0559756844903,0.461737543289299,-0.39492437,0.8350528,-0.019242255,26.980074,-93.78644,-3.062799,STD
664837165000,0.440013,0.168424152551737,10.051417299981,0.461257712312512,-0.37384954,0.8179486,-0.005497787,26.94242,-93.813934,-3.150237,STD
664842172000,0.44502,0.184236462738351,10.046865279391,0.460778551223407,-0.34025195,0.81183994,-0.0021380284,26.905638,-93.84906,-3.23704,STD
664847157000,0.450005,0.1999792960278,10.0423332596904,0.460301495495588,-0.3115413,0.80481493,0.01038471,26.874392,-93.88343,-3.316194,STD
664852148000,0.454996,0.21574107756193,10.0377957852018,0.459823865578328,-0.27855456,0.79198676,0.02107485,26.846737,-93.924644,-3.3937602,STD
664857127000,0.459975,0.18393566948198,10.0249486233184,0.452386599684659,-0.26297748,0.7644979,0.030543262,26.825605,-93.96578,-3.4671133,STD
664862156000,0.465004,0.132410571307947,10.0085761838565,0.442033425585434,-0.2434298,0.75228053,0.041233405,26.804117,-94.009705,-3.5358808,STD
664867142000,0.46999,0.0813260337267723,9.99234373542601,0.431768775345082,-0.22785273,0.73914695,0.05009095,26.766375,-93.99611,-3.5371268,STD
664872159000,0.475007,0.0299238826949323,9.9760103632287,0.421440305578565,-0.22571471,0.7180721,0.054061573,26.734827,-93.982315,-3.53697,STD
664877161000,0.480009,-0.0213245844091666,9.95972582511211,0.411142716227935,-0.21594086,0.70952,0.06505715,26.70394,-93.9679,-3.5323577,STD
664882150000,0.484998,-0.0724398587758897,9.94348360986547,0.400871889904405,-0.21899518,0.6976081,0.061391957,26.680286,-93.95522,-3.531158,STD
664887151000,0.489999,-0.123678080284806,9.92720232735426,0.390576359248167,-0.21197024,0.70554936,0.0693332,26.653906,-93.9397,-3.5235476,STD
664892833000,0.495681,-0.181893552113172,9.90870397757848,0.378878857710725,-0.21624629,0.7089091,0.070249505,26.63244,-93.92543,-3.5192978,STD
664897154000,0.500002,-0.226164768897821,9.89463650672646,0.369983239241298,-0.19792034,0.7272351,0.074830994,26.604813,-93.91228,-3.5116897,STD
664902130000,0.504978,-0.277146850527168,9.87843661434978,0.359739175944869,-0.1994475,0.7489208,0.083383106,26.575596,-93.895164,-3.5028183,STD
664907162000,0.51001,-0.32870268548675,9.86205440807175,0.349379825762467,-0.20189096,0.7724391,0.081855945,26.5409,-93.88194,-3.4955282,STD
664912153000,0.515001,-0.379838451043838,9.84580568161435,0.339104882050152,-0.20463985,0.79809546,0.08735373,26.499884,-93.8648,-3.4838028,STD
664917145000,0.519993,-0.43098446219611,9.82955369955157,0.328827879643445,-0.20830505,0.8142834,0.08155051,26.45514,-93.85086,-3.4758396,STD
664922262000,0.52511,-0.483411172746224,9.81289476681614,0.318293540437692,-0.21044308,0.8185594,0.08399397,26.407013,-93.83353,-3.4640527,STD
664927167000,0.530015,-0.533665817117597,9.79692602242153,0.308195644443121,-0.19517145,0.8246681,0.09162979,26.354176,-93.818306,-3.4524732,STD
664932149000,0.534997,-0.584709372318041,9.78070659641256,0.297939228980338,-0.20005837,0.8176431,0.08399397,26.304245,-93.80401,-3.4448545,STD
664937158000,0.540006,-0.636029558588419,9.76439926905829,0.287627228768961,-0.18661933,0.8164214,0.07544186,26.25145,-93.79231,-3.4354196,STD
664942172000,0.54502,-0.687400972834711,9.74807566367713,0.277304935085622,-0.19364429,0.80573124,0.06780604,26.203789,-93.779564,-3.428246,STD
664947153000,0.550001,-0.738434282439972,9.73185949327354,0.267050578317231,-0.18997909,0.7910705,0.05955936,26.158035,-93.772285,-3.423863,STD
664952128000,0.554976,-0.789406118474137,9.71566285650224,0.256808573715194,-0.17928895,0.7852673,0.05131268,26.113186,-93.76716,-3.421781,STD
664957165000,0.560013,-0.841013181409631,9.69926437219731,0.246438930060831,-0.17195857,0.77091193,0.046731193,26.075375,-93.763374,-3.4212582,STD
664962285000,0.565133,-0.893470628745294,9.68259567264574,0.2358984147719,-0.14477506,0.75991637,0.041233405,26.03862,-93.765686,-3.4233854,STD
664967137000,0.569985,-0.943182256571981,9.66679947533632,0.225909629580125,-0.13408493,0.75319684,0.028099801,26.005049,-93.770096,-3.4290884,STD
664972249000,0.575097,-0.995557739146182,9.6501568206278,0.215385583846334,-0.1255328,0.7519751,0.023823744,25.973478,-93.77653,-3.433819,STD
664977185000,0.580033,-1.04612999696822,9.63408715246637,0.2052238683256,-0.10903945,0.7263188,0.022296581,25.951168,-93.78774,-3.44166,STD
664982150000,0.584998,-1.09699937705056,9.61792307174888,0.195002450667487,-0.100792766,0.7305948,0.01985312,25.920965,-93.80016,-3.4506323,STD
664987152000,0.59,-1.14824784415466,9.60163853363229,0.184704861316856,-0.082161374,0.73884153,0.03176499,25.897451,-93.812256,-3.4559581,STD
664992171000,0.595019,-1.19967048637686,9.58529865022421,0.174372274161555,-0.06688975,0.7495316,0.041233405,25.872355,-93.82601,-3.4624846,STD
664997154000,0.600002,-1.25072428717249,9.56907596860987,0.164113800004379,-0.0693332,0.75533485,0.032375857,25.846643,-93.84134,-3.4707243,STD
665002137000,0.604985,-1.30177808796811,9.55285328699552,0.153855325847204,-0.06719518,0.7715228,0.0106901415,25.815294,-93.85979,-3.479685,STD
665007167000,0.610015,-1.35331343173733,9.53647759192825,0.143500093053587,-0.06566802,0.75411314,-0.043066,25.792011,-93.88822,-3.5005069,STD
665012160000,0.615008,-1.40446968848478,9.52022235426009,0.133221031952487,-0.09896017,0.745561,-0.090713486,25.761856,-93.91627,-3.5253925,STD
665017134000,0.619982,-1.45543127892377,9.50402897309417,0.122981086044843,-0.14660765,0.7113526,-0.09773844,25.744339,-93.94552,-3.5539658,STD
665022223000,0.625071,-1.50757111280876,9.48746119730942,0.112504390282076,-0.16829337,0.6618725,-0.07513642,25.733824,-93.977844,-3.5872571,STD
665027243000,0.630091,-1.55900400062615,9.47111805829596,0.102169744432383,-0.21563543,0.6087272,-0.079107046,25.734102,-94.00937,-3.6298747,STD
665032264000,0.635112,-1.61044713403872,9.45477166367713,0.0918330398882973,-0.2275473,0.6197228,-0.09712757,25.730383,-94.040146,-3.6693885,STD
665037160000,0.640008,-1.66060956805345,9.43883221973094,0.0817536721432578,-0.21868975,0.67011917,-0.12492194,25.730482,-94.07128,-3.7124553,STD
665042161000,0.645009,-1.71184778956237,9.42255093721973,0.0714581414870195,-0.21930063,0.7687739,-0.17684549,25.71322,-94.11096,-3.7665205,STD
665047152000,0.65,-1.76298355511946,9.40630221076233,0.0611831977747049,-0.19700404,0.86345804,-0.24007004,25.682386,-94.164444,-3.830657,STD
665052134000,0.654982,-1.8140271103199,9.39008278475336,0.0509267823119217,-0.18173242,0.97249746,-0.30940324,25.618853,-94.23202,-3.9095082,STD
665057205000,0.660053,-1.81352880856877,9.38956805512708,0.0831199085945892,-0.17928895,1.0442741,-0.3640757,25.538786,-94.312836,-4.000507,STD
665062234000,0.665082,-1.79163622448649,9.39558249716272,0.132438367652254,-0.16646078,1.1142182,-0.4260785,25.427809,-94.41572,-4.110923,STD
665067158000,0.670006,-1.77020073352981,9.40147136425032,0.180727111418398,-0.15485434,1.1560625,-0.49266282,25.400404,-94.75178,-4.4547257,STD
665072258000,0.675106,-1.74799906742927,9.40757071886988,0.230741854149377,-0.15515977,1.1905763,-0.537256,25.353947,-95.09506,-4.803895,STD
665077189000,0.680037,-1.72653310359755,9.41346795762068,0.279099245601622,-0.17256944,1.1820242,-0.56413406,25.306765,-95.446915,-5.1612535,STD
665082157000,0.685005,-1.7049060688549,9.41940944659127,0.327819489108975,-0.19914207,1.1588113,-0.5861252,25.252924,-95.80427,-5.523858,STD
665087171000,0.690019,-1.68307878379056,9.42540594934863,0.376990845982137,-0.23335053,1.1175779,-0.5897904,25.206036,-96.15721,-5.883159,STD
665092168000,0.695016,-1.66132550427989,9.43138212092391,0.425995487046196,-0.2932153,1.0668762,-0.57360244,25.16789,-96.50189,-6.2374196,STD
665097155000,0.700003,-1.63961575744785,9.43734633298034,0.474902059987252,-0.34788775,0.9999864,-0.54336464,25.14563,-96.83704,-6.5833435,STD
665102176000,0.705024,-1.61775799950847,9.44335120740089,0.524142064546515,-0.43371433,0.9016371,-0.49418998,25.146536,-97.15162,-6.9143195,STD
665107257000,0.710105,-1.59563904549732,9.44942783893462,0.57397047784379,-0.4822781,0.7724391,-0.42424592,25.1751,-97.44725,-7.2261224,STD
665112193000,0.715041,-1.57415131532629,9.45533105744485,0.622376903357537,-0.505491,0.6976081,-0.3472769,25.215628,-97.71993,-7.5171003,STD
665117129000,0.719977,-1.55266358515525,9.46123427595508,0.670783328871284,-0.4908302,0.5702427,-0.30940324,25.307428,-97.98069,-7.7961483,STD
665122156000,0.725004,-1.5307797076087,9.46724632608696,0.720082174304348,-0.4801401,0.45753807,-0.21991149,25.41622,-98.20136,-8.034548,STD
665127122000,0.72997,-1.50916137940177,9.47318542315377,0.7687828041871,-0.43860126,0.36896262,-0.13194689,25.553482,-98.41196,-8.259305,STD
665132111000,0.734959,-1.48744292603401,9.47915202711397,0.817708990752757,-0.3894266,0.2828306,-0.05467244,25.721556,-98.59903,-8.458791,STD
665137177000,0.740025,-1.4653892710408,9.48521071936941,0.867390301865529,-0.31948254,0.23273966,-0.00580322,25.903627,-98.77028,-8.638504,STD
665142153000,0.745001,-1.44372741015525,9.49116177595508,0.916188999871284,-0.23945917,0.20311269,0.019547688,26.103504,-98.92714,-8.800658,STD
665147890000,0.750738,-1.41875271242607,9.49802295192615,0.972450682037484,-0.16249016,0.18753563,0.027488936,26.312586,-99.07623,-8.951726,STD
665152147000,0.754995,-1.40022085113391,9.50311411910566,1.0141982819994,-0.10476339,0.183565,0.015577064,26.52566,-99.22459,-9.099232,STD
665157138000,0.759986,-1.37849369123042,9.50908311496963,1.06314408218966,-0.06780604,0.19181168,-0.0033597588,26.738632,-99.373314,-9.244509,STD
665162133000,0.764981,-1.35674911825548,9.51505689464114,1.11212910962912,-0.043982297,0.2003638,-0.018325957,26.951662,-99.52435,-9.390113,STD
665167144000,0.769992,-1.33493489299473,9.52104980954284,1.16127104606538,-0.036651913,0.19853121,-0.016798794,27.164473,-99.675,-9.534433,STD
665172140000,0.774988,-1.31318596675192,9.52702478516624,1.21026588031714,-0.043982297,0.18936823,-0.0070249503,27.376106,-99.82589,-9.678632,STD
665177129000,0.779977,-1.29146751338415,9.53299138912644,1.25919206688279,-0.05681047,0.17928895,0.0027488936,27.587803,-99.97436,-9.820424,STD
665182158000,0.785006,-1.26957492930187,9.53900583116208,1.30851052594046,-0.063224554,0.19058995,0.009162978,27.795206,-100.11897,-9.958339,STD
665187144000,0.789992,-1.24786953573769,9.54496884726662,1.35740729206921,-0.07544186,0.22907446,0.014049901,27.996857,-100.25837,-10.091855,STD
665192160000,0.795008,-1.22603354413763,9.55096774192775,1.40659826256698,-0.08735373,0.2764165,0.022296581,28.191889,-100.39278,-10.220539,STD
665197159000,0.800007,-1.20427155809123,9.55694630540681,1.45562251725563,-0.093462385,0.32895094,0.03634648,28.373507,-100.521965,-10.343932,STD
665202143000,0.804991,-1.18257487106278,9.56290692960758,1.50449966975979,-0.106595986,0.3576616,0.059864793,28.54772,-100.64334,-10.460253,STD
665207163000,0.810011,-1.16072146639126,9.56891060807625,1.55372986750675,-0.11484267,0.36896262,0.09437868,28.711336,-100.755844,-10.56736,STD
665212153000,0.815001,-1.13899865975563,9.57487840798833,1.60266586088471,-0.12339478,0.3820962,0.1142318,28.865536,-100.86351,-10.670049,STD
665217872000,0.82072,-1.11410232084799,9.58171805682545,1.65875102042951,-0.13561209,0.37018433,0.17592919,29.023975,-100.9476,-10.749623,STD
665222172000,0.82502,-1.09538326903772,9.58686064993606,1.70092031332033,-0.14813483,0.36041048,0.19211712,29.177128,-101.0371,-10.835095,STD
665227162000,0.83001,-1.07366046240209,9.59282844984815,1.74985630669829,-0.14752395,0.34666604,0.22113322,29.335129,-101.10468,-10.898424,STD
665232150000,0.834998,-1.05194636230219,9.59879385785646,1.79877268645165,-0.15851954,0.33841935,0.24709499,29.493887,-101.166336,-10.957143,STD
665237165000,0.840013,-1.03011472396999,9.6047915565657,1.84795385013711,-0.15974127,0.31642818,0.24831672,29.66005,-101.226585,-11.014196,STD
665242167000,0.845015,-1.00833967812,9.61077370790042,1.89700752526267,-0.18142697,0.2947425,0.25473082,29.828194,-101.27572,-11.061814,STD
665247152000,0.85,-0.986638637823689,9.61673552805307,1.94589448457912,-0.20341812,0.27183503,0.24281894,30.002174,-101.32898,-11.113998,STD
665252207000,0.855055,-0.964632868776974,9.62278106483776,1.99546792075659,-0.2171626,0.24251351,0.2171626,30.183414,-101.38299,-11.168024,STD
665257150000,0.859998,-1.01452811529412,9.59177929411765,1.9961695620915,-0.24801129,0.21044308,0.16676621,30.370771,-101.44459,-11.23221,STD
665262163000,0.865011,-1.0996973002521,9.54247075210084,1.97375663099907,-0.25442538,0.16218472,0.10720685,30.569946,-101.51588,-11.306118,STD
665267127000,0.869975,-1.15498757555964,9.52190397822754,1.94278197482367,-0.25686884,0.105374254,0.057726767,30.843403,-101.46531,-11.298145,STD
665272268000,0.875116,-1.18518347527343,9.52693672452213,1.90252079272207,-0.2761111,0.051618114,0.04734206,31.127327,-101.425156,-11.296709,STD
665277176000,0.880024,-1.23937138200123,9.54019506183565,1.85845059828291,-0.2837469,-0.014049901,0.04795292,31.442059,-101.4255,-11.330026,STD
665282149000,0.884997,-1.31238670224857,9.55966569869174,1.80977375200327,-0.2764165,-0.08399397,0.057726767,31.771421,-101.430855,-11.363539,STD
665287457000,0.890305,-1.38355843827274,9.59357201446176,1.75793560540788,-0.26419923,-0.18997909,0.06047566,32.134617,-101.45084,-11.406358,STD
665292158000,0.895006,-1.44316399672064,9.6302526453814,1.712085127956,-0.24312437,-0.2855795,0.055588737,32.512875,-101.47475,-11.448012,STD
665297127000,0.899975,-1.51455046882353,9.66849438963111,1.63038975004985,-0.20769419,-0.37140608,0.048258353,32.929066,-101.52036,-11.506127,STD
665302135000,0.904983,-1.59105797941176,9.70674792023928,1.52997360807577,-0.1853976,-0.46273044,0.037873644,33.372272,-101.57124,-11.565586,STD
665307226000,0.910074,-1.66729553819834,9.74486647573942,1.33533228381983,-0.12186762,-0.49754974,0.029321533,33.8332,-101.64067,-11.639227,STD
665312164000,0.915012,-1.74042953280495,9.78143325826406,1.09764681328049,-0.07727446,-0.56321776,0.025961773,34.32728,-101.71295,-11.712948,STD
665317154000,0.920002,-1.79855187547721,9.81317864452669,0.936934039176081,-0.051923547,-0.6249151,0.020158553,34.82956,-78.195,-11.804084,STD
665322222000,0.92507,-1.84582035335021,9.8415398003506,0.832943432276977,-0.01038471,-0.6792821,0.021380283,35.346565,-78.10423,-11.892489,STD
665327246000,0.930094,-1.88055948788675,9.87546562082912,0.746051641856421,0.040317107,-0.7098254,0.018020526,35.858536,-77.996956,-11.997992,STD
665332150000,0.934998,-1.90430302948433,9.91345550556117,0.674821081524773,0.093462385,-0.7440339,0.014049901,36.385277,-77.89157,-12.101545,STD
665337132000,0.93998,-1.92318089149602,9.92854244840109,0.626007027894684,0.14813483,-0.79198676,0.005192355,36.930363,-77.774704,-12.217561,STD
665342173000,0.945021,-1.93779099402804,9.92367231251891,0.596786843171593,0.19303341,-0.82527894,0.0012217305,37.479042,-77.66011,-12.331634,STD
665347152000,0.95,-1.94923696835855,9.90099116538977,0.566177123882398,0.23915374,-0.8604037,-0.0036651916,38.045418,-77.53875,-12.453466,STD
665352130000,0.954978,-1.95836803719594,9.86446660400306,0.534218335278682,0.27305678,-0.90010995,-0.0067195175,38.62078,-77.41858,-12.574265,STD
665357575000,0.960423,-1.9605528008679,9.81803100867898,0.525225354265819,0.29626966,-0.9416488,-0.015882496,39.21855,-77.29035,-12.703422,STD
665362158000,0.965006,-1.95612344630134,9.77373746301342,0.538513445716016,0.3210097,-0.9691377,-0.027794369,39.82167,-77.16211,-12.832706,STD
665367143000,0.969991,-1.95134749809675,9.73526258247423,0.520345854827518,0.32925636,-1.0030408,-0.03481932,40.43451,-77.03039,-12.965459,STD
665372210000,0.975058,-1.94653726360032,9.70640157731959,0.467433225138779,0.34513888,-1.0519099,-0.04062254,41.05757,-76.8971,-13.099744,STD
665377156000,0.980004,-1.94840354316109,9.70897588259878,0.431909609175532,0.35888332,-1.097114,-0.050701816,41.675255,-76.76246,-13.235182,STD
665382159000,0.985007,-1.9575055056231,9.74538354236322,0.41370567474734,0.3622431,-1.1432343,-0.04917465,42.305233,-76.63076,-13.36749,STD
665387134000,0.989982,-1.96856855260104,9.78963568451593,0.380933254773491,0.37720928,-1.1884383,-0.06047566,42.924385,-76.49643,-13.502541,STD
665392162000,0.99501,-1.98327449286369,9.8484596503105,0.322109452774102,0.3622431,-1.1997393,-0.058948494,43.54457,-76.36724,-13.632154,STD
665397145000,0.999993,-1.98822099878942,9.88889712340135,0.266652779619252,0.35033122,-1.1792754,-0.04917465,44.163834,-76.23839,-13.7613535,STD
665402130000,1.004978,-1.97889944299522,9.90287926242312,0.215384188683979,0.32253686,-1.1664472,-0.047036625,44.78596,-76.10905,-13.890856,WAL
665407169000,1.010017,-1.97117907204373,9.91035183772897,0.175386813027717,0.28221974,-1.097114,-0.03726278,45.375626,-75.98609,-14.013901,WAL
665412214000,1.015062,-1.96654543283782,9.90571810175506,0.156852241688885,0.26297748,-1.0262536,-0.032986723,45.95823,-104.13644,-14.136411,WAL
665417162000,1.02001,-1.96221852938197,9.89317618588272,0.155974554922054,0.20922135,-0.9596693,-0.021685716,46.490364,-104.24719,-14.247068,WAL
665422184000,1.025032,-1.95841266647147,9.85892349916911,0.201644937666377,0.14477506,-0.9086621,-0.030848695,47.00356,-104.361244,-14.360974,WAL
665427108000,1.029956,-1.95468107169423,9.82533922410382,0.246424102268735,0.09010262,-0.8539896,-0.040011674,47.491974,-104.46975,-14.469324,WAL
665432149000,1.034997,-1.95699431412504,9.81290121642141,0.328413822188584,0.038179077,-0.818254,-0.05467244,47.968266,-104.58076,-14.580283,WAL
665437131000,1.039979,-1.96146630002812,9.80842913712625,0.422325600866998,-0.020463986,-0.7816021,-0.064751714,48.425453,-104.69123,-14.690827,WAL
665442160000,1.045008,-1.97309654864721,9.78835506843501,0.525830205124668,-0.074830994,-0.7690793,-0.080634214,48.888405,-104.807526,-14.807343,WAL
665447162000,1.05001,-1.98926833910779,9.7583218397878,0.634412306395949,-0.12889257,-0.7611381,-0.09682214,49.33909,-104.924835,-14.924819,WAL
665452146000,1.054994,-2.00538193440077,9.72839668753316,0.74260366839836,-0.17715092,-0.7651087,-0.10567969,49.800396,-74.955734,-15.044129,WAL
665457150000,1.059998,-2.02156019099108,9.69835145039788,0.85122918514396,-0.22693644,-0.75441855,-0.13194689,50.252075,-74.828445,-15.170677,WAL
665462172000,1.06502,-2.06891439466262,9.64834962421349,0.929112342204383,-0.24678956,-0.7449502,-0.15851954,50.706535,-74.700356,-15.297268,WAL
665467177000,1.070025,-2.15211152473422,9.57555233901063,0.970710874662617,-0.26542094,-0.72418076,-0.18845193,51.151485,-74.565414,-15.429719,WAL
665472214000,1.075062,-2.22226614302383,9.5152849442302,0.998335461277563,-0.28802297,-0.7058548,-0.22815818,51.62609,-74.40868,-15.581269,WAL
665477139000,1.079987,-2.28289643349155,9.4639822521507,1.01699095025215,-0.28191432,-0.66950834,-0.26419923,52.086147,-74.246086,-15.73725,WAL
665482189000,1.085037,-2.3376863646701,9.4346383818437,1.04090522643893,-0.28893927,-0.6215554,-0.30268374,52.553913,-74.051216,-15.923053,WAL
665487177000,1.090025,-2.38686384326626,9.42122610032756,1.06772927596631,-0.27947086,-0.5873469,-0.35124752,53.01214,-73.84566,-16.118385,WAL
665492195000,1.095043,-2.44844421681861,9.40464402452059,1.10089324866394,-0.25167647,-0.5684101,-0.39920044,53.466557,-73.61501,-16.337538,WAL
665497198000,1.100046,-2.52375496351252,9.38456124960704,1.14105900819449,-0.24129178,-0.5571091,-0.44623706,53.910545,-73.37358,-16.566198,WAL
665502133000,1.104981,-2.5953321237453,9.35653146307001,1.16358422172676,-0.2134974,-0.5412266,-0.50976706,54.35388,-73.10517,-16.8215,WAL
665507131000,1.109979,-2.66559898694376,9.32139780218369,1.17236761401963,-0.19730948,-0.5103779,-0.5366451,54.786816,-72.83753,-17.07524,WAL
665512088000,1.114936,-2.73796446184651,9.28929256188474,1.15511234017968,-0.1685988,-0.4728097,-0.5919284,55.22296,-72.53115,-17.367537,WAL
665517196000,1.120044,-2.81744563508554,9.26124030268566,1.08965724772054,-0.129198,-0.42241332,-0.6420194,55.64382,-72.22395,-17.661219,WAL
665522131000,1.124979,-2.8864186809558,9.23091671110655,1.00909259738899,-0.07727446,-0.3585779,-0.6942484,56.068363,-71.88623,-17.986294,WAL
665527202000,1.13005,-2.93622275520459,9.19107365972721,0.879601884730797,-0.024129177,-0.2932153,-0.73731434,56.475586,-71.5436,-18.317862,WAL
665532085000,1.134933,-3.00566268630603,9.11681209390959,0.746682997307547,0.03145956,-0.226631,-0.78984874,56.86064,-71.173256,-18.681507,WAL
665537153000,1.140001,-3.12500416502743,8.96075038140722,0.590621069125213,0.09468412,-0.16493362,-0.8573494,57.226288,-70.794556,-19.056282,WAL
665542926000,1.145774,-3.23746681144831,8.82628639060603,0.470901838476048,0.15699236,-0.105068825,-0.91415983,57.55481,-70.4023,-19.450762,WAL
665547153000,1.150001,-3.28282817771034,8.79604532187879,0.47468195430479,0.23487769,-0.076052725,-0.9746355,57.873222,-69.99869,-19.859373,WAL
665552171000,1.155019,-3.33132199780439,8.7606676742515,0.475323118750499,0.27305678,-0.062308256,-1.0338894,58.166664,-69.550156,-20.318075,WAL
665557193000,1.160041,-3.31212237055888,8.73186860928144,0.427324381427146,0.30207285,-0.057421334,-1.0916162,58.4528,-69.09325,-20.786562,WAL
665562200000,1.165048,-3.29335825111896,8.69716668821162,0.37456706340106,0.32070425,-0.049480084,-1.1304061,58.739216,-68.61635,-21.274832,WAL
665567236000,1.170084,-3.27915661248528,8.58828740925599,0.260953880185512,0.3371976,-0.055588737,-1.1655309,59.027336,-68.131485,-21.770565,WAL
665572217000,1.175065,-3.26533030509187,8.47765674120121,0.149261263185849,0.3313944,-0.047036625,-1.1976013,59.298923,-67.646126,-22.266737,WAL
665577206000,1.180054,-3.25659483471981,8.29857927932169,0.0531710206819636,0.34300083,-0.005497787,-1.2269229,59.560738,-67.15907,-22.764496,WAL
665582143000,1.184991,-3.24795041354786,8.12136832937197,-0.0419176799076698,0.32650748,0.025961773,-1.2614367,59.79779,-66.663574,-23.270939,WAL
665587179000,1.190027,-3.28681227477128,7.93130254762331,-0.154120303945903,0.3213151,0.067500606,-1.3090842,60.017086,-66.16299,-23.782038,WAL
665592131000,1.194979,-3.3339726388922,7.74266173131464,-0.267304902068417,0.32498032,0.11148291,-1.353372,60.224037,-65.660126,-24.294222,WAL
665597191000,1.200039,-3.4372325933682,7.51156520095727,-0.326857079808546,0.32253686,0.15363261,-1.4178182,60.39863,-65.13006,-24.833927,WAL
665602192000,1.20504,-3.5506685297444,7.27524028826606,-0.374122062346788,0.31581733,0.1704314,-1.4541647,60.565056,-64.602165,-25.370104,WAL
665607219000,1.210067,-3.78061428899164,7.18532163932065,-0.376123417033612,0.31978795,0.17562376,-1.564426,60.707523,-64.012115,-25.968489,WAL
665612509000,1.215357,-4.05090384261071,7.12675866750845,-0.36711376524631,0.33567044,0.16982053,-1.7983873,60.845665,-63.383423,-26.603878,WAL
665617169000,1.220017,-4.47146146632664,7.05603592913501,-0.316739402741751,0.35888332,0.10140363,-1.9010127,61.003082,-62.71728,-27.275314,WAL
665622150000,1.224998,-5.05240720870199,6.96665977274904,-0.232328526160092,0.36896262,-0.05131268,-2.176513,61.187115,-61.943672,-28.052471,WAL
665627164000,1.230012,-5.73023667663334,6.92476104226774,-0.301378890016503,0.3930918,-0.2434298,-2.5231788,61.440487,-61.052414,-28.945938,WAL
665632150000,1.234998,-6.45800511474614,6.91085469571886,-0.458984825319872,0.44593164,-0.419359,-2.9404,61.733753,-60.074986,-29.924545,WAL
665637126000,1.239974,-7.20720016274009,6.93311514300312,-0.75262431929227,0.5103779,-0.49449542,-3.4266486,62.14201,-58.84058,-31.159357,WAL
665642137000,1.244985,-7.97909874657016,6.98306142852682,-1.15219526725329,0.61544675,-0.516792,-3.984674,62.58361,-122.51216,-32.512142,WAL
665647152000,1.25,-8.88027543640374,7.07932517638903,-1.62746672811679,0.7816021,-0.58551437,-4.593096,63.113956,-124.194336,-34.19382,WAL
665652148000,1.254996,-9.93055994307321,7.2300838972797,-2.19029847801701,1.0424415,-0.7861836,-5.2500815,63.682858,-126.01412,-36.012444,WAL
665657142000,1.25999,-11.0651442320337,7.55706325679062,-3.04590539090909,1.425454,-0.9816604,-5.9760947,64.215645,-128.18672,-38.180702,WAL
665662159000,1.265007,-12.2738997924226,8.02900722211085,-4.14389864545455,1.8869628,-1.0152581,-6.744563,64.726425,-130.5058,-40.49158,WAL
665667183000,1.270031,-12.6597014604023,8.67214930482946,-4.31822865101545,2.4107797,-0.9654725,-7.3490143,65.15529,-133.13414,-43.10072,WAL
665672180000,1.275028,-12.4039401322515,9.44408456350209,-3.77415421305024,2.9150488,-1.0259482,-7.6739945,65.57132,-135.82596,-45.76402,WAL
665677153000,1.280001,-11.9874384105306,10.4687001430301,-3.17882940278394,3.1548135,-1.2632693,-7.667886,65.625656,-138.64758,-48.528267,WAL
665682174000,1.285022,-11.4054106136776,11.7588606283034,-2.52404886568489,3.1871893,-1.5842791,-7.1865244,65.65019,-141.33234,-51.140697,WAL
665687110000,1.289958,-10.956795731398,12.8199799578916,-2.46097085036164,3.1410692,-1.475545,-6.2503734,65.61479,-143.56854,-53.300217,WAL
665692119000,1.294967,-10.6193460565739,13.6992512718716,-2.95051144284157,3.1016684,-0.9950995,-4.960837,65.54063,-145.50046,-55.14551,WAL
665697145000,1.299993,-10.3314472923665,14.394486545069,-3.19073149713953,2.9535334,-0.70646566,-3.3499851,65.771706,-146.72435,-56.31059,WAL
665702134000,1.304982,-10.0970431140861,14.8950787229336,-3.17483971094296,2.792876,-0.08002335,-2.459038,65.61945,-147.76025,-57.25279,WAL
665707179000,1.310027,-9.91818501201025,15.1162913797374,-3.0980975636383,2.4129176,0.31887165,-0.81153446,65.410095,-147.94164,-57.323433,WAL
665712185000,1.315033,-10.271335678926,12.7363619150208,-2.46856791873599,2.0937407,0.43035457,0.0036651916,65.06972,-148.11115,-57.36268,WAL
665717169000,1.320017,-10.4973539107549,10.610019151176,-1.84125191352428,1.9300288,0.39767328,0.2507602,64.76002,-147.87775,-56.990776,WAL
665722182000,1.32503,-10.2879083079951,9.31692141132397,-1.20836251772572,1.8457294,0.21563543,0.2593123,64.57595,-147.4996,-56.483715,WAL
665727113000,1.329961,-9.94774121271489,8.17099347710638,-0.564250819029787,1.7208074,0.0018325958,0.22143865,64.632095,-147.39642,-56.29105,WAL
665732162000,1.33501,-8.42924191541277,8.09692013523404,0.283475120774468,1.5683966,-0.204029,0.24007004,64.796745,-147.27673,-56.098404,WAL
665737138000,1.339986,-6.9326975495234,8.02391776859574,1.11894437735319,1.3878858,-0.43157628,0.31703907,65.27988,-147.31097,-56.11646,WAL
665742152000,1.345,-6.05300633751497,8.24635875149701,1.53627753577844,1.1933253,-0.7086037,0.3979787,65.88819,-147.33064,-56.145844,WAL
665747086000,1.349934,-5.38336784607784,8.55759960778443,1.81450761771457,0.97310835,-1.0341948,0.4804455,66.635826,-147.31798,-56.17146,WAL
665752162000,1.35501,-4.85172144360454,8.87337072249851,1.57920438174856,0.7470882,-1.3448198,0.5705481,67.80979,-147.09659,-56.058094,WAL
665757201000,1.360049,-4.37653782952059,9.1853597008156,1.17121854412174,0.528093,-1.5641204,0.6545421,69.089645,-146.84483,-55.930744,WAL
665762156000,1.365004,-3.9344983803697,9.49806774573036,0.680704711707856,0.34330627,-1.6307048,0.7351763,70.52769,-146.45198,-55.68026,WAL
665767194000,1.370042,-3.49341302802893,9.81797568444846,0.152371676220615,0.2302962,-1.5714508,0.8381071,71.98971,-146.02518,-55.391365,WAL
665772176000,1.375024,-3.14349165312282,9.96539916396056,-0.257874524631935,0.18173242,-1.4446963,0.96669424,73.26666,-145.4834,-54.957863,WAL
665777152000,1.38,-2.82070201766112,10.0603372191453,-0.632880100358602,0.19517145,-1.2977833,1.1236867,74.478096,-144.90564,-54.47439,WAL
665782151000,1.384999,-2.51467398856853,10.1470469245578,-0.711345196462786,0.25411993,-1.1252137,1.2938126,75.39611,-144.21362,-53.84167,WAL
665787160000,1.390008,-2.21419733931466,10.2310035044215,-0.689251335372144,0.39278635,-0.9584476,1.466382,76.226456,-143.4834,-53.15755,WAL
665792157000,1.395005,-1.98647237402217,10.165064797009,-0.691527186299937,0.5540548,-0.893085,1.647809,76.87206,-142.67084,-52.37058,WAL
665797150000,1.399998,-1.81144668052709,9.99003983455344,-0.711530098828697,0.7110472,-0.77457714,1.7479908,77.40198,-141.84236,-51.55521,WAL
665802127000,1.404975,-1.63281948804961,9.79199613631239,-0.685899392406477,0.7846564,-0.62796944,1.9199494,77.89536,-140.90886,-50.629196,WAL
665807166000,1.410014,-1.44981971003382,9.57932058880804,-0.636439998665573,0.8741482,-0.46975538,2.085494,78.32284,-139.96136,-49.679886,WAL
665812153000,1.415001,-1.34446765578597,9.38656152342159,-0.502354127689317,0.904386,-0.32620203,2.255009,78.68269,-138.97704,-48.68759,WAL
665817202000,1.42005,-1.26837012992038,9.19855568431772,-0.332253654226995,0.8921687,-0.23671028,2.4352143,78.9998,-137.95343,-47.65074,WAL
665822144000,1.424992,-1.26496561089724,9.04725680262756,-0.177962399855382,0.8765916,-0.18753563,2.5937338,79.28801,-136.90375,-46.58384,WAL
665827137000,1.429985,-1.31853390560139,8.92064085181791,-0.0318670927294022,0.850019,-0.20097467,2.730873,79.56818,-135.8188,-45.480312,WAL
665832132000,1.43498,-1.44964726160136,8.85695442207598,0.081781480017948,0.8222246,-0.23915374,2.8615983,79.89207,-134.71349,-44.36042,WAL
665837169000,1.440017,-1.6372328962409,8.83771498055639,0.173169369658989,0.81214535,-0.30115658,2.9651399,80.22834,-133.58755,-43.220078,WAL
665842163000,1.445011,-1.81750545674734,8.81307156358928,0.258132186755303,0.7974846,-0.38912117,3.0390546,80.62767,-132.46243,-42.087254,WAL
665847175000,1.450023,-1.99437639605617,8.78438970600538,0.339397221962952,0.81092364,-0.4990769,3.0860913,81.0514,-131.32759,-40.945404,WAL
665852169000,1.455017,-2.13882761950578,8.73853711801184,0.365691302880767,0.8359691,-0.6414085,3.1105258,81.54056,-130.21567,-39.83263,WAL
665857118000,1.459966,-2.25906455798177,8.68064548952363,0.352331644083435,0.88331115,-0.81000733,3.1126637,82.06727,-129.11028,-38.72775,WAL
665862136000,1.464984,-2.36661833474379,8.59853910731889,0.338846888758486,0.9450085,-0.98654735,3.10289,82.66062,-128.0409,-37.663723,WAL
665867798000,1.470646,-2.46747180802567,8.47247233153539,0.323718865133451,1.0274754,-1.1505647,3.0692923,83.29371,-126.99272,-36.62125,WAL
665872112000,1.47496,-2.54571968046262,8.37146269971086,0.324567115654688,1.1053606,-1.3374895,3.0185907,83.983025,-125.991486,-35.627457,WAL
665877130000,1.479978,-2.64000636666667,8.24243833333333,0.354341846666667,1.1850786,-1.5305228,2.9394836,84.71486,-125.02344,-34.66662,WAL
665882087000,1.484935,-2.72380934190512,8.14246244067481,0.385842036440488,1.2327261,-1.720502,2.8194485,85.495346,-124.12058,-33.77234,WAL
665887135000,1.489983,-2.79139777564545,8.09289756417187,0.421889183850312,1.2754866,-1.9071213,2.680782,86.32404,-123.25981,-32.920567,WAL
665892092000,1.49494,-2.84534195947335,8.04791247543353,0.474836175648683,1.3035865,-1.9929478,2.5983152,87.17812,-122.45549,-32.125843,WAL
665897150000,1.499998,-2.85052708625562,8.01680187716763,0.599279310465639,1.3048081,-2.1762075,2.4156666,88.10825,-121.729065,-31.414057,WAL
665902158000,1.505006,-2.81773141174194,7.99005949019355,0.709536361290323,1.2883148,-2.3652701,2.2061398,89.065956,-121.06149,-30.762827,WAL
665907184000,1.510032,-2.71262700133995,7.9709496155335,0.795530847146402,1.2409728,-2.5405886,1.9801197,90.062675,-120.45727,-30.178444,WAL
665912151000,1.514999,-2.59150328893155,7.95980329455942,0.846427753902051,1.1594223,-2.6865854,1.7577647,91.12052,-119.91919,-29.667442,WAL
665917171000,1.520019,-2.43393743370166,7.96430512375691,0.828420230276243,1.0375546,-2.7861564,1.5460999,92.20419,-119.44447,-29.223309,WAL
665922133000,1.524981,-2.2742307357467,7.97165626423267,0.783063947840347,0.8958339,-2.8695395,1.3353515,93.33378,-119.017044,-28.831636,WAL
665927156000,1.530004,-2.09562573443688,7.99150115501238,0.619342635337252,0.7199047,-2.8750372,1.1191051,94.45568,-118.65007,-28.501654,WAL
665932130000,1.534978,-1.90954536673985,8.03689577579583,0.420183709121844,0.5513059,-2.7550023,0.89766645,95.54932,-118.3139,-28.20032,WAL
665937977000,1.540825,-1.65855888035126,8.18031682381998,0.0565094657848518,0.40011674,-2.545781,0.68600166,96.6042,-118.03531,-27.954079,WAL
665942174000,1.545022,-1.47827783466562,8.27914049405873,-0.199711643769027,0.24923302,-2.2687535,0.49938235,97.56406,-117.77737,-27.72174,WAL
665947150000,1.549998,-1.26300805090838,8.34465774594913,-0.443060165297064,0.13713925,-1.9401081,0.31245756,98.43179,-117.58022,-27.544918,WAL
665952379000,1.555227,-1.0475913467168,8.4092179685448,-0.699087640976488,0.04428773,-1.5891659,0.14905111,99.14474,-117.37279,-27.349747,WAL
665957136000,1.559984,-0.975217566799407,8.41886749417496,-0.935508576106757,-0.035430185,-1.2131784,-0.013439035,99.739746,-117.219025,-27.20485,WAL
665962129000,1.564977,-0.913605398605452,8.43711183988522,-1.15366033190818,-0.089186326,-0.852157,-0.15699236,100.18751,-117.06053,-27.050877,WAL
665967168000,1.570016,-0.941299819720708,8.50634784447633,-1.18597051558106,-0.09132435,-0.5308419,-0.27305678,100.52583,-116.941414,-26.934526,WAL
665972289000,1.575137,-0.9744378511146,8.57632809010989,-1.21146760029827,-0.076052725,-0.2761111,-0.36193767,100.73574,-116.84033,-26.834044,WAL
665977155000,1.580003,-1.06222576197802,8.63851129230769,-1.15294233912088,-0.022907447,-0.06719518,-0.45875978,100.85695,-116.7754,-26.768648,WAL
665982179000,1.585027,-1.15286416398744,8.7027135956044,-1.09251675092622,0.0421497,0.101098195,-0.54275376,100.9097,-116.73315,-26.724897,WAL
665987131000,1.589979,-1.4616535721207,8.84597399872503,-0.968905885805355,0.118202426,0.17989981,-0.6365216,100.92408,-116.72204,-26.711218,WAL
665992201000,1.595049,-1.99816639118147,9.0729599241394,-0.778031105418615,0.21197024,0.3203988,-0.73731434,100.86458,-116.73776,-26.722284,WAL
665997149000,1.599997,-2.35185945171567,9.16046744090485,-0.668360988536813,0.24495697,0.43066,-0.79351395,100.805786,-116.779976,-26.759415,WAL
666002129000,1.604977,-2.60642411544523,9.16854902355333,-0.603709635321528,0.34300083,0.5558874,-0.9049969,100.696304,-116.8681,-26.838915,WAL
666007687000,1.610535,-2.90451254967762,9.1466280001057,-0.5275017767551,0.40775254,0.6585127,-1.0873401,100.59438,-117.06709,-27.029875,WAL
666012159000,1.615007,-3.16706352314766,9.07872695962372,-0.459600679551844,0.50701815,0.7528914,-1.1502593,100.45523,-117.263504,-27.21435,WAL
666017135000,1.619983,-3.43986320845311,8.988698139411,-0.374850781714745,0.52534413,0.84482664,-1.2837334,100.29954,-117.58539,-27.523857,WAL
666022169000,1.625017,-3.68214706313197,8.87240155724193,-0.273091560725701,0.5684101,0.9334021,-1.4251486,100.11385,-117.925476,-27.847054,WAL
666027087000,1.629935,-3.92320224843246,8.74456988582869,-0.171300350071589,0.5635232,0.9941832,-1.5711454,99.92611,-118.36044,-28.265327,WAL
666032146000,1.634994,-4.17872028754761,8.58842026125598,-0.0624685782322492,0.5723807,1.0439687,-1.7259997,99.71135,-118.83284,-28.717533,WAL
666037108000,1.639956,-4.40562892079111,8.44857177418085,0.0658154578795631,0.5320636,1.0687088,-1.9010127,99.5134,-119.40225,-29.269302,WAL
666042164000,1.645012,-4.58667516178294,8.33422647613894,0.242097304653941,0.48075095,1.0989466,-2.0873265,99.29485,-120.00951,-29.857393,WAL
666047103000,1.649951,-4.75859482334751,8.2338100242559,0.429446860164283,0.42149702,1.0928379,-2.2779164,99.10707,-120.72418,-30.55721,WAL
666052144000,1.654992,-4.92188074410514,8.15916493448009,0.658047314855045,0.36926803,1.056186,-2.4544566,98.91673,-121.47427,-31.293419,WAL
666057145000,1.659993,-5.06600813666764,8.08929065283513,0.870187092284579,0.3191771,0.9624182,-2.6230555,98.800446,-122.310265,-32.12388,WAL
666062154000,1.665002,-5.14970169555103,8.03349528676941,1.03292414711641,0.30634892,0.8054258,-2.764776,98.71702,-123.17375,-32.984062,WAL
666067172000,1.67002,-5.22786422172339,7.97658995558774,1.18276228295921,0.31490102,0.6356053,-2.9034426,98.740814,-124.11055,-33.927593,WAL
666072234000,1.675082,-5.27856901602703,7.91418399538177,1.2685705342425,0.35155296,0.42760566,-3.0356948,98.83429,-125.06993,-34.896473,WAL
666077245000,1.680093,-5.32876295602221,7.85240677953978,1.3535142614611,0.40286562,0.2180789,-3.1661146,99.04413,-126.07812,-35.920906,WAL
666082149000,1.684997,-5.31250775610485,7.82128787481931,1.36024984675725,0.41263947,0.042760566,-3.29348,99.321594,-127.10542,-36.966423,WAL
666087155000,1.690003,-5.26630807340272,7.80280807892454,1.33253005643249,0.41355577,-0.04428773,-3.381139,99.650215,-128.14151,-38.02036,WAL
666092160000,1.695008,-5.26042920788523,7.73382646057386,1.3647855775983,0.41386122,-0.22327125,-3.4171803,100.12452,-129.20255,-39.104065,WAL
666097154000,1.700002,-5.2807592989373,7.6321760053135,1.43594089628055,0.43249258,-0.43585235,-3.4886515,100.656044,-130.28014,-40.203163,WAL
666102134000,1.704982,-5.35916596715103,7.53121624790841,1.57695552633201,0.47983465,-0.70402217,-3.5311065,101.27881,-131.33328,-41.276867,WAL
666107213000,1.710061,-5.46197293367679,7.4284088788199,1.74830067927785,0.5503896,-1.022283,-3.5616498,102.0195,-132.38487,-42.34794,WAL
666112159000,1.715007,-5.59370198231278,7.57007265896439,1.78406826319714,0.63804877,-1.3603969,-3.5011742,102.92248,-133.42297,-43.403748,WAL
666117159000,1.720007,-5.76469841125932,8.00259287742884,1.66336487069636,0.71593404,-1.6227635,-3.2061262,103.94652,-134.38324,-44.376793,WAL
666122149000,1.724997,-5.91931643972659,8.23514255682514,1.52876787365844,0.75900006,-1.7763962,-2.7904325,105.17527,-135.3121,-45.312004,WAL
666127126000,1.729974,-6.06033345381555,8.30321960997756,1.38288820566211,0.7415904,-1.8881844,-2.3808472,106.51742,-43.860626,-46.134983,WAL
666132108000,1.734956,-6.38986505058673,8.33455149975348,1.28337716429346,0.6817256,-2.0210476,-1.9730947,107.88669,-43.214043,-46.765827,WAL
666137180000,1.740028,-6.86405713878316,8.33934191647766,1.21631968262499,0.6762278,-2.147802,-1.5005904,109.3017,-42.71788,-47.23425,WAL
666142150000,1.744998,-7.36578236093968,8.23227323810472,1.04912083024089,0.69974613,-2.2311852,-1.0296134,110.68258,-42.342293,-47.57208,WAL
666147132000,1.74998,-7.89770607734422,8.03755097959387,0.802156256480191,0.7538077,-2.2382102,-0.61666846,112.06517,-42.095592,-47.770542,WAL
666152038000,1.754886,-8.34763702666601,7.78583042676387,0.541421813643214,0.7877107,-2.159714,-0.24801129,113.39041,-41.9127,-47.89845,WAL
666157080000,1.759928,-8.74454909859086,7.47397090996184,0.257913089341423,0.79290307,-2.024102,0.036957346,114.66044,-41.830494,-47.92014,WAL
666162071000,1.764919,-8.91784667233799,7.12172431940356,0.137330419759128,0.75991637,-1.8573358,0.23243423,115.75821,-41.72389,-47.972668,WAL
666167078000,1.769926,-8.86284672519595,6.7229722378895,0.183163981839992,0.69058317,-1.7614299,0.33292156,116.798195,-41.675114,-47.965145,WAL
666172092000,1.77494,-8.6665311943294,6.42838949264097,0.216812928614208,0.61117065,-1.6869044,0.3830125,117.64868,-41.562057,-48.03455,WAL
666177068000,1.779916,-8.26169552267176,6.29175773747478,0.231994262338324,0.5161811,-1.5855007,0.42913285,118.42655,-41.478718,-48.07474,WAL
666182067000,1.784915,-7.83815293361303,6.2976723298618,0.304893202709773,0.42363504,-1.5329664,0.46578476,119.22276,-41.3494,-48.153877,WAL
666187078000,1.789926,-7.39757943237907,6.43979274870681,0.432801708284304,0.3200934,-1.4801265,0.47769663,119.960106,-41.227062,-48.22491,WAL
666192429000,1.795277,-6.97443464298142,6.65786397118426,0.535064784139976,0.2773328,-1.4618006,0.51007247,120.68633,-41.160927,-48.236137,WAL
666197074000,1.799922,-6.64462825547647,6.89972194889284,0.596628611304864,0.19181168,-1.4810427,0.5311473,121.39254,-41.09172,-48.243874,WAL
666202079000,1.804927,-6.27421918154246,7.38285495060659,0.625621074878683,0.12675454,-1.4792101,0.5497787,122.11282,-41.12069,-48.145466,WAL
666207163000,1.810011,-5.88043596925669,8.13291823541305,0.611557402361833,0.08674286,-1.4895949,0.55924714,122.83061,-41.15037,-48.040283,WAL
666212078000,1.814926,-5.65410663178255,8.68685389453324,0.561642729500153,0.065973446,-1.4862351,0.57604593,123.54151,-41.27818,-47.830032,WAL
666217104000,1.819952,-5.66390689687468,8.98575583996742,0.453841982909498,0.038179077,-1.461495,0.5983425,124.23075,-41.4061,-47.615986,WAL
666222093000,1.824941,-5.83434083617063,9.18759695714567,0.326298582542166,0.0290161,-1.4450017,0.6059783,124.89325,-41.709675,-47.226143,WAL
666227460000,1.830308,-6.24860196806566,9.26842849272656,0.159583638789267,0.041233405,-1.3927728,0.5751296,125.51732,-42.003357,-46.84805,WAL
666232047000,1.834895,-6.76792946634847,9.30334806479607,-0.0260035581940025,0.06383542,-1.3316863,0.47616947,126.08444,-42.320454,-46.455315,WAL
666237100000,1.839948,-7.59382007457333,9.28934963234018,-0.296634464048019,0.10751228,-1.2641857,0.29932398,126.62681,-42.603207,-46.101994,WAL
666242052000,1.8449,-8.45668477281343,9.26920637015976,-0.500277732796281,0.17134771,-1.1484267,0.04062254,127.06617,-42.793648,-45.864628,WAL
666247112000,1.84996,-9.45831266341728,9.23421523016518,-0.57026041469898,0.26511553,-0.9798279,-0.25259277,127.47153,-42.925617,-45.69801,WAL
666252160000,1.855008,-10.3941953950712,9.23854093165191,-0.618724575894301,0.36835176,-0.8390234,-0.56413406,127.75656,-42.870995,-45.753246,WAL
666257156000,1.860004,-10.8363577470158,9.54252839025799,-0.503577957738737,0.48747048,-0.69913524,-0.86529064,128.0021,-42.74477,-45.896362,WAL
666262352000,1.8652,-11.2222336310642,9.85999787516779,-0.36486715819559,0.6404922,-0.6084218,-1.0458013,128.1755,-42.42352,-46.259098,WAL
666267162000,1.87001,-10.7187488410355,10.1691549758389,-0.0159610384065197,0.7742717,-0.55955255,-0.9621128,128.3191,-42.10607,-46.626522,WAL
666272492000,1.87534,-10.1600768570543,10.4973956402444,0.368730388161367,0.88270026,-0.5513059,-0.63621616,128.45982,-41.808125,-46.978115,WAL
666277195000,1.880043,-9.62954088636968,10.0745625764768,0.612058963891595,0.9239337,-0.5235115,-0.19211712,128.56337,-41.579674,-47.264004,WAL
666282143000,1.884991,-9.07136695846249,9.62970227464352,0.868063597681339,0.8570439,-0.49938235,0.19242255,128.77502,-41.541378,-47.333767,WAL
666287144000,1.889992,-8.43936438977666,9.09185862349313,1.23248875117746,0.7086037,-0.43676865,0.35338554,128.94481,-41.56296,-47.343925,WAL
666292166000,1.895014,-7.77419131492384,8.51207879001963,1.64597484663583,0.6053675,-0.4905248,0.56413406,129.11989,-41.703583,-47.22765,WAL
666297768000,1.900616,-7.0304866640032,7.95156727628845,1.9906806229125,0.410196,-0.6597345,0.743423,129.4242,-41.86722,-47.051147,WAL
666302148000,1.904996,-6.44813040351578,7.55774376729924,2.20016125375549,0.09712757,-0.7131852,0.77457714,129.6954,-42.033512,-46.864067,WAL
666307236000,1.910084,-5.8405329144333,7.1873590789527,2.30251428573888,-0.00580322,-0.81031275,0.8179486,130.19426,-42.24214,-46.59265,WAL
666312238000,1.915086,-5.29711569522941,6.89139089600932,2.29281041587157,-0.22174409,-0.88178396,0.8338311,130.69128,-42.424694,-46.321392,WAL
666317169000,1.920017,-4.74740843448208,6.8474055805273,2.05357575471512,-0.44073927,-0.8888089,0.840856,131.28554,-42.61734,-46.008762,WAL
666322173000,1.925021,-4.17955222174385,6.97990534373457,1.64661210099733,-0.64873886,-0.7779369,0.8738427,131.8409,-42.803883,-45.689163,WAL
666327169000,1.930017,-3.63631633564105,7.26877114338796,1.19364809864517,-0.82802784,-0.5729916,0.95233893,132.36676,-43.01613,-45.327976,WAL
666332155000,1.935003,-3.11324696496363,7.68304202658838,0.704055162797301,-0.97524637,-0.30482176,1.0870347,132.79964,-43.234787,-44.955853,WAL
666337119000,1.939967,-2.58395583730377,8.2024639770337,0.210307049067955,-1.10139,0.03268129,1.2901474,133.00291,-43.586365,-44.481052,WAL
666342192000,1.94504,-2.01860142553519,9.03982881718081,-0.312379072003513,-1.1682798,0.39584067,1.5464053,133.06534,-43.976532,-43.980183,WAL
666347153000,1.950001,-1.58599488779543,9.79056352808989,-0.651682976536226,-1.1808025,0.7415904,1.8353447,132.85626,-44.582287,-43.318275,WAL
666352150000,1.954998,-1.29860349744285,10.4626881011236,-0.781472626702828,-1.1780536,1.0622946,2.164601,132.49353,-45.258434,-42.60541,WAL
666357132000,1.95998,-1.08714542865278,11.1015251423148,-0.756332875774677,-1.1695015,1.3536774,2.514016,131.90933,-46.18952,-41.68943,WAL
666362201000,1.965049,-0.997487400133388,11.6992453324441,-0.472415834873794,-1.1841623,1.5964963,2.8478537,131.2155,-47.19426,-40.713142,WAL
666367482000,1.97033,-1.22815429571212,12.2856583726023,-0.0436046142151535,-1.1801916,1.7498235,3.1202996,130.43758,-48.395546,-39.558945,WAL
666372159000,1.975007,-1.75438809828165,12.7689346665601,0.46830986431266,-1.1588113,1.8695531,3.3017266,129.59508,-49.645817,-38.362373,WAL
666377122000,1.97997,-2.31280126102542,13.2817634557225,1.01152807191017,-1.1071932,1.930945,3.4202344,128.79184,-51.00331,-37.0414,WAL
666382151000,1.984999,-2.49918098757859,13.4077655719982,1.24449734052037,-1.072374,2.0793853,3.474296,127.93783,-52.367134,-35.718983,WAL
666387191000,1.990039,-2.65461865296734,13.5015214744671,1.45174758680162,-1.0580186,2.182927,3.520722,127.10012,-53.73716,-34.384445,WAL
666392173000,1.995021,-2.80826755157184,13.5941984399632,1.6566128104074,-1.02717,2.2379048,3.5295794,126.33228,-55.027878,-33.097374,WAL
666397423000,2.000271,-2.9530772386734,13.6538286906509,1.88349676122177,-1.0369438,2.2122486,3.5369098,125.57064,-56.294243,-31.825693,WAL
666402136000,2.004984,-2.87134902168112,13.2365846851234,2.22331416724483,-1.0769554,2.1300871,3.5472944,124.82437,-57.530304,-30.576292,WAL
666407171000,2.010019,-2.78403699695035,12.7908338750596,2.5863484637282,-1.1163563,2.0314324,3.561039,124.133675,-58.69081,-29.370125,WAL
666412158000,2.015006,-2.60569534477186,12.2750496044677,2.48055314543726,-1.1994339,1.930945,3.5485163,123.477,-59.803017,-28.191595,WAL
666418329000,2.021177,-2.37507934947368,11.6320189894737,2.30096470543541,-1.2577715,1.7815884,3.5271358,122.87146,-60.87888,-27.030657,WAL
666422170000,2.025018,-2.22723723789474,11.2764940078947,2.19184321865072,-1.2959507,1.7415768,3.5112534,122.30513,-61.859367,-25.918177,WAL
666427097000,2.029945,-2.03759441473684,10.8204482947368,2.05186884599043,-1.3002267,1.6581937,3.479183,121.78293,-62.782032,-24.843155,WAL
666432151000,2.034999,-1.87162808861949,10.2772125483037,1.86126286283244,-1.3005321,1.568702,3.436117,121.27373,-63.659306,-23.794191,WAL
666437155000,2.040003,-1.71850719344047,9.70976454435673,1.65409928493563,-1.2599095,1.4764613,3.3680055,120.79141,-64.4911,-22.776932,WAL
666442158000,2.045006,-1.58941246502766,9.18810359065765,1.46221025054292,-1.1948525,1.427592,3.2485814,120.315895,-65.26946,-21.805319,WAL
666447174000,2.050022,-1.47623306883835,8.69601919237861,1.28013911053063,-1.1145236,1.4080443,3.0980031,119.86361,-65.99743,-20.87522,WAL
666452127000,2.054975,-1.33801891067042,8.34790113931951,1.29013108306825,-0.9972375,1.3475688,2.9443705,119.42541,-66.6764,-20.002699,WAL
666457163000,2.060011,-1.18266140304006,8.07117055667405,1.40664923913831,-0.8585711,1.2226468,2.8002062,119.020874,-67.30857,-19.177765,WAL
666462157000,2.065005,-1.04196082552083,7.85595944409722,1.60407455288387,-0.7510588,1.0115929,2.6676486,118.6539,-67.89275,-18.406967,WAL
666467157000,2.070005,-0.9080259296875,7.671221596875,1.84423364817708,-0.6536258,0.70432764,2.5476136,118.36109,-68.443665,-17.66949,WAL
666472191000,2.075039,-0.765536504324711,7.54232799842552,2.04825091251406,-0.6059783,0.32345316,2.3930645,118.167816,-68.932304,-16.961327,WAL
666477234000,2.080082,-0.617404914446376,7.4534490032512,2.22600874818526,-0.5549711,0.13225232,2.2266037,118.01631,-69.3864,-16.291723,WAL
666482153000,2.085001,-0.500467933127911,7.43278565983518,2.34534992536725,-0.48930305,-0.24953845,2.1410828,118.04505,-69.785934,-15.605121,WAL
666487147000,2.089995,-0.397651940666428,7.44992173611609,2.43531394561089,-0.464563,-0.66981375,1.9556851,118.15391,-70.10657,-14.985571,WAL
666492201000,2.095049,-0.350923200002033,7.50065324713538,2.36113972531646,-0.40866885,-1.0818423,1.765706,118.37735,-70.3931,-14.355992,WAL
666497237000,2.100085,-0.390151545828885,7.60117591355803,2.03995766962025,-0.36896262,-1.4056009,1.5647314,118.70399,-70.61851,-13.765175,WAL
666502127000,2.104975,-0.428242612368461,7.6987843009303,1.72808708734177,-0.3359759,-1.6484199,1.3405437,119.13538,-70.79048,-13.197164,WAL
666507191000,2.110039,-0.467689066551777,7.79986587018454,1.40511926962025,-0.30665436,-1.7708983,1.0931433,119.63474,-70.90704,-12.681861,WAL
666512092000,2.11494,-0.4925612668357,7.96487307261663,1.04892260655849,-0.26908615,-1.8063285,0.82711154,120.18311,-70.969086,-12.228755,WAL
666517225000,2.120073,-0.502057584566792,8.22127438017966,0.621587768239158,-0.21655174,-1.751656,0.57604593,120.753,-70.9859,-11.840494,WAL
666522143000,2.124991,-0.470644464399811,8.46332475698721,0.232823918690668,-0.1423316,-1.642922,0.376293,121.30231,-71.0778,-11.516646,WAL
666527164000,2.130012,-0.374975305582189,8.70477515679773,-0.131630059077215,-0.052839845,-1.4831808,0.23151793,121.83437,-71.146225,-11.257497,WAL
666532099000,2.134947,-0.29272298121519,8.9263961835443,-0.471312242607595,0.04550946,-1.323745,0.111177474,122.33985,-71.289505,-11.045188,WAL
666537142000,2.13999,-0.240994234395326,9.10979786660175,-0.767576864736125,0.16584991,-1.1960741,0.014660766,122.816895,-71.43537,-10.8787565,WAL
666542088000,2.144936,-0.18600219016902,9.2854460932591,-1.08564501636508,0.31795537,-1.078788,-0.064446285,123.247055,-71.67967,-10.728114,WAL
666547149000,2.149997,-0.113719104257308,9.44928804314973,-1.51452466279578,0.49602258,-0.95630956,-0.13439035,123.64387,-71.93869,-10.614917,WAL
666552703000,2.155551,-0.065576353128345,9.54596810977018,-2.00414150664288,0.700357,-0.7901542,-0.13561209,123.98874,-72.29727,-10.503352,WAL
666557141000,2.159989,-0.0878776827033267,9.46122322132438,-2.43232690966523,0.9407325,-0.66431594,-0.12156218,124.31084,-72.687225,-10.416506,WAL
666562089000,2.164937,-0.0914191066664032,9.36281865850044,-2.89163640452435,1.2574661,-0.5381723,-0.111177474,124.57467,-73.21329,-10.328221,WAL
666567186000,2.170034,-0.0431992244100563,9.25191271174553,-3.32079343228292,1.6016886,-0.37384954,-0.08032878,124.78468,-73.788925,-10.245561,WAL
666572139000,2.174987,0.01972580320509,9.18923218361666,-3.74923083775723,1.9712621,-0.1777618,-0.0067195175,124.93103,-74.48852,-10.171427,WAL
666577159000,2.180007,0.124871695434934,9.24180469380654,-4.21282851148225,2.3359487,-0.07360926,0.10323623,125.04717,-75.24301,-10.086396,WAL
666582104000,2.184952,0.219190663288332,9.30402874011572,-4.69601522324012,2.5124888,0.18845193,0.17715092,125.041916,-76.06067,-10.011896,WAL
666587225000,2.190073,0.29013014295082,9.39861514098361,-5.27298994754098,2.8787024,0.50488013,0.35705075,124.97485,-76.97864,-9.885016,WAL
666592147000,2.194995,0.361259270612661,9.50531853072574,-5.78680333098526,3.2824843,0.8414669,0.54825157,124.8125,-77.956604,-9.72516,WAL
666597150000,2.199998,0.445636198787654,9.67851303299657,-6.1420742951154,3.7067304,1.1594223,0.73273283,124.55483,-78.93622,-9.525024,WAL
666602307000,2.205155,0.517801114032465,9.81426091445963,-6.45173109867578,4.1245623,1.4419475,0.93462384,124.19279,-79.94219,-9.256059,WAL
666607198000,2.210046,0.392747269713797,9.38407594489534,-6.00653936693721,4.477337,1.5204436,1.0833695,123.79738,-80.79536,-8.946644,WAL
666612226000,2.215074,0.276106347244977,9.0011958478917,-5.61623154005346,4.707022,1.3787229,1.1502593,123.383705,-81.41964,-8.57629,WAL
666617185000,2.220033,0.214679188160731,8.89062686746573,-5.53432871828921,4.7051897,1.1994339,1.2205088,122.96545,-98.32101,-8.159037,WAL
666623030000,2.225878,0.143985128051378,8.76910553320802,-5.44428839411028,4.4587054,1.1255192,1.3643675,122.57437,-98.44931,-7.730095,WAL
666627158000,2.230006,0.156370171259399,9.00442136278195,-5.61767905075188,3.9144244,1.1203269,1.5677856,122.229935,-98.85381,-7.2611675,WAL
666632118000,2.234966,0.171251424726399,9.2871651890142,-5.82601666144528,3.3001995,1.0751228,1.7513506,121.93686,-99.44432,-6.774925,WAL
666637143000,2.239991,0.444058098178404,9.00354360450704,-5.16893262828169,2.6300802,0.88239485,1.9037615,121.70711,-100.063805,-6.2468934,WAL
666642131000,2.244979,0.735606674760563,8.67611231605634,-4.44678937825352,1.9529362,0.49510628,1.9581286,121.56271,-100.6525,-5.710173,WAL
666647153000,2.250001,0.818552867163419,8.37277048715879,-4.32761057112014,1.3912456,-0.014660766,1.892766,121.523796,-101.20604,-5.1777816,WAL
666652128000,2.254976,0.847943470553642,8.07886440210764,-4.36189955598108,0.98899084,-0.39736784,1.7369953,121.56706,-101.68963,-4.678865,WAL
666657189000,2.260037,0.877842132615535,7.77987772945561,-4.39678127505269,0.72234815,-0.6383542,1.5415184,121.72446,-101.96649,-4.1765795,WAL
666662091000,2.264939,0.906801476900735,7.49028423620521,-4.4305671250604,0.5513059,-0.8555168,1.3130548,121.9762,-102.20718,-3.756268,WAL
666667180000,2.270028,0.720320613403337,6.91343567175662,-4.45128658247301,0.4654793,-0.96669424,1.0665708,122.2585,-102.43483,-3.4102757,WAL
666672149000,2.274997,0.514841242923454,6.32034753499509,-4.46996651150147,0.4111123,-0.99173975,0.82344633,122.565186,-102.65196,-3.1416113,WAL
666677156000,2.280004,0.412946879273329,6.5711158558685,-4.25853629619124,0.40866885,-0.98746365,0.7125743,122.892715,-102.90856,-2.9093819,WAL
666682090000,2.284938,0.327697264858174,6.94053086980054,-4.01699575580836,0.42332962,-1.0079277,0.5296202,123.21379,-103.17825,-2.772376,WAL
666687135000,2.289983,0.199615919693108,7.37036856936468,-3.8712883413855,0.4981606,-1.0818423,0.43218717,123.54667,-103.505974,-2.6991532,WAL
666692488000,2.295336,0.0570096719258794,7.83498884277638,-3.73328229484925,0.57635134,-1.181108,0.39584067,123.88201,-103.8447,-2.6655989,WAL
666697153000,2.300001,-0.104055433873885,8.25094780454095,-3.69356717600635,0.6414085,-1.2308935,0.36865717,124.21831,-104.141624,-2.673098,WAL
666702158000,2.305006,-0.294148308290898,8.7024184057208,-3.68881485754511,0.68783426,-1.2131784,0.344528,124.55833,-104.453705,-2.6935205,WAL
666707274000,2.310122,-0.479262458200184,9.21735841352923,-3.70629455298439,0.6957755,-1.1233811,0.32711834,124.89179,-104.722435,-2.7457402,WAL
666712154000,2.315002,-0.650923859608203,9.7371110265279,-3.73490476663606,0.6728681,-0.990518,0.301462,125.20347,-104.99273,-2.802955,WAL
666717192000,2.32004,-0.784728483894501,10.173588956229,-3.68977918989899,0.6041457,-0.820392,0.28893927,125.47976,-105.22852,-2.8892062,WAL
666722257000,2.325105,-0.898146278483913,10.5637460199214,-3.60811842895623,0.53023106,-0.6579019,0.2883284,125.71822,-105.45244,-2.9690812,WAL
666727157000,2.330005,-1.02519489633836,10.8656912358153,-3.50710345755891,0.44409904,-0.5180137,0.29779682,125.91799,-105.63117,-3.0687222,WAL
666732150000,2.334998,-1.16941205421301,11.109057867672,-3.38542028280867,0.37201694,-0.4089743,0.30818152,126.07986,-105.78924,-3.1562026,WAL
666737151000,2.339999,-1.28378170951154,11.266384085802,-3.24539519644308,0.30665436,-0.32284227,0.3118467,126.2145,-105.88491,-3.2537756,WAL
666742161000,2.345009,-1.35508821104726,11.2996606517388,-3.07901316097295,0.26053402,-0.2773328,0.32436943,126.33081,-105.96269,-3.3379793,WAL
666747150000,2.349998,-1.43951576174651,11.2765171342908,-2.88594898259776,0.23884831,-0.23976462,0.35033122,126.432,-105.992096,-3.4393182,WAL
666752135000,2.354983,-1.544615699371,11.1664123381906,-2.65072538982074,0.24404067,-0.2312125,0.3622431,126.52797,-106.016106,-3.536244,WAL
666757146000,2.359994,-1.64169025609806,11.0031871711932,-2.46708518309429,0.28130344,-0.25228736,0.35246924,126.62807,-106.01196,-3.6439097,WAL
666762278000,2.365126,-1.73167774363747,10.7782185828502,-2.33710322764724,0.33505958,-0.27977628,0.3390302,126.727905,-106.01428,-3.7456863,WAL
666767210000,2.370058,-1.78901915879715,10.6039545729603,-2.22982304864022,0.40194935,-0.29626966,0.3222314,126.83537,-105.999916,-3.8735476,WAL
666772257000,2.375105,-1.82199891042012,10.4626129911297,-2.13559532741983,0.4972443,-0.29749137,0.31245756,126.94575,-106.010155,-4.0003343,WAL
666777156000,2.380004,-1.87191575707309,10.3401069464504,-2.06628177080063,0.54367006,-0.31520647,0.31337386,127.068375,-106.01836,-4.1509433,WAL
666782151000,2.384999,-1.94283974726147,10.2316345053201,-2.02038971821036,0.6432411,-0.3213151,0.32436943,127.18843,-106.068184,-4.2969613,WAL
666787106000,2.389954,-2.01498942814672,10.1275613974976,-1.9479671465084,0.7467828,-0.3051272,0.32375857,127.31096,-106.12358,-4.453912,WAL
666792162000,2.39501,-2.09783894413432,10.0395339557267,-1.73566537668699,0.8332202,-0.2932153,0.3191771,127.43732,-106.20101,-4.6063323,WAL
666797105000,2.399953,-2.14525762856866,9.9980804854834,-1.49859182379754,0.90010995,-0.29229903,0.31795537,127.56718,-106.30037,-4.7750993,WAL
666802133000,2.404981,-2.11263737764444,10.0633211333108,-1.18636920312591,0.93615097,-0.3286455,0.3295618,127.705345,-106.41318,-4.940282,WAL
666807139000,2.409987,-2.07089697492476,10.1210881424838,-0.873622296400285,0.9074403,-0.39614612,0.36987892,127.85867,-106.495605,-5.1183133,WAL
666812156000,2.415004,-1.99859455849834,10.1553365384128,-0.553969640788848,0.8426886,-0.50946164,0.4279111,128.03807,-106.5744,-5.291258,WAL
666817125000,2.419973,-1.92698389331538,10.1892572638207,-0.237375252562173,0.7272351,-0.68966687,0.5045747,128.27405,-106.56205,-5.4525275,WAL
666822161000,2.425009,-1.95645437144553,10.1114713256159,0.153610770782626,0.59223384,-0.9129381,0.5510005,128.55638,-106.524895,-5.6145916,WAL
666827129000,2.429977,-2.02706514971802,9.9890792116355,0.567860964905511,0.43860126,-1.1756102,0.5742133,128.90392,-106.4476,-5.774901,WAL
666832154000,2.435002,-2.0335702837254,9.93760901325012,0.781611794330293,0.27183503,-1.4181237,0.60994893,129.32767,-106.24606,-5.921429,WAL
666837126000,2.439974,-2.01071101843495,9.91932169649544,0.900480045448872,0.10048734,-1.5864171,0.66339964,129.80638,-106.0022,-6.0649266,WAL
666842282000,2.44513,-1.99213260149223,9.99991485492228,0.731443736777202,-0.06414085,-1.645671,0.7113526,130.34218,-105.65263,-6.2340436,WAL
666847173000,2.450021,-1.97757090341969,10.1358238341969,0.396524453031088,-0.16249016,-1.6111571,0.7696902,130.9016,-105.27643,-6.3824697,WAL
666852135000,2.454983,-1.98852240722563,10.3088869287662,0.124021930095433,-0.22724187,-1.529912,0.82527894,131.47545,-104.8461,-6.509404,WAL
666857214000,2.460062,-2.01220561260103,10.5030895590613,-0.122283578917129,-0.27488935,-1.434617,0.8753699,132.03568,-104.398445,-6.6098065,WAL
666862159000,2.465007,-2.03526398050443,10.6921685129516,-0.362090773653715,-0.27977628,-1.3429873,0.8979719,132.56593,-104.000694,-6.671608,WAL
666867167000,2.470015,-2.058616115279,10.88365635948,-0.604953145997663,-0.2724459,-1.303281,0.91415983,133.08179,-103.59692,-6.712035,WAL
666872167000,2.475015,-2.10137752247706,11.0282861445951,-0.746935538183087,-0.23732115,-1.2223413,0.92149025,133.55591,-103.205635,-6.7350025,WAL
666877889000,2.480737,-2.16695216743119,11.1539704337854,-0.823439214549262,-0.22082779,-1.1511755,0.9193522,134.01671,-102.81918,-6.7492332,WAL
666882151000,2.484999,-2.32911762174527,11.1884316553846,-0.868614200408575,-0.17104226,-1.0952814,0.8793405,134.4367,-102.53163,-6.7515507,WAL
666887176000,2.490024,-2.58885075957629,11.1932865784615,-0.914735031808323,-0.11881329,-1.0638218,0.8014552,134.83662,-102.26131,-6.759143,WAL
666892140000,2.494988,-2.8454309180227,11.1980825661538,-0.96029598843884,-0.076052725,-1.0567969,0.7189884,135.22842,-102.02387,-6.7819557,WAL
666897153000,2.500001,-3.10454379761412,11.2029258953846,-1.00630668053972,-0.03481932,-1.0503827,0.6203337,135.60265,-101.81944,-6.8261495,WAL
666902139000,2.504987,-3.39463861174905,11.2370828920248,-1.03852633822272,-0.0036651916,-1.0268645,0.50793445,135.96468,-101.64401,-6.89106,WAL
666907183000,2.510031,-3.71015657297799,11.2916171508749,-1.06189806466414,0.015271631,-0.9841039,0.37965274,136.31085,-101.50025,-6.9832826,WAL
666912143000,2.514991,-4.01590169033858,11.3352124142108,-1.06780165601144,0.018936822,-0.94989544,0.20586158,136.63853,-101.46311,-7.2141633,WAL
666917139000,2.519987,-4.28969697564139,11.3032689860753,-0.944593749035765,0.019547688,-0.9468411,0.03145956,136.95425,-101.46065,-7.47399,WAL
666922385000,2.525233,-4.57541060564405,11.2629491329344,-0.809387670697825,-0.011911872,-0.960891,-0.14385876,137.25005,-101.54149,-7.8490744,WAL
666927158000,2.530006,-4.81196337252365,11.1372807167462,-0.609796402935231,-0.040011674,-1.0430524,-0.321926,137.55463,-101.66959,-8.26651,WAL
666932116000,2.534964,-5.05768485129781,11.0067414317134,-0.402469039522924,-0.124005646,-1.1612549,-0.47891834,137.87398,-101.8468,-8.7793865,WAL
666937139000,2.539987,-5.48366166169621,10.8036536242786,-0.309149074492993,-0.2773328,-1.2623531,-0.71776664,138.2002,-102.080864,-9.354505,WAL
666942166000,2.545014,-6.05915022838005,10.5407152081616,-0.31411018059357,-0.46395215,-1.3197744,-1.0082331,138.53888,-102.36356,-9.976987,WAL
666947783000,2.550631,-6.91439637023858,10.1714694623612,-0.485774740316742,-0.68630713,-1.2770138,-1.3381003,138.87776,-102.73478,-10.733484,WAL
666952120000,2.554968,-7.66188260193336,9.85538940189223,-0.686528190497738,-0.9468411,-1.0497719,-1.7693712,139.16756,-103.2073,-11.578273,WAL
666957162000,2.56001,-8.85857690667933,9.42465049575043,-1.35782854079592,-1.3002267,-0.36468655,-2.3203716,139.2954,-103.90044,-12.634872,WAL
666962158000,2.565006,-10.2124757721128,8.96537717268273,-2.24767004224578,-1.8133535,0.77579886,-3.0060678,139.2098,-104.75049,-13.812449,WAL
666967182000,2.57003,-11.2361876697479,8.39539972026144,-2.7505804573296,-2.477364,1.4236214,-3.8038578,139.02457,-105.97185,-15.332106,WAL
666972161000,2.575009,-12.0821030336134,7.77654581699346,-3.0533292264239,-2.843883,2.6511552,-4.211916,138.3295,-107.30801,-16.869772,WAL
666977257000,2.580105,-12.828005153622,6.46533341540383,-2.28699489000833,-3.4083226,3.5069773,-5.0057354,137.4394,-109.25805,-18.982244,WAL
666982155000,2.585003,-13.003251314274,5.43637639020979,-1.24453182809543,-3.726889,3.9519928,-5.800471,136.29231,-111.33513,-21.161428,WAL
666987167000,2.590015,-12.8452951168244,5.00199671468532,-0.643733951386261,-3.8915172,4.079358,-6.548781,134.92503,-113.83181,-23.727867,WAL
666992162000,2.59501,-12.6878746846095,4.56909039400599,-0.0449738966850796,-4.024991,3.9315288,-7.2234817,133.62714,-116.709656,-26.668213,WAL
666997138000,2.599986,-12.5378499217811,4.17458887707615,0.646135874204512,-4.1105123,3.5842519,-7.8193808,132.36197,-119.75664,-29.745792,WAL
667002137000,2.604985,-12.424660565363,3.9812233612846,1.86292343540341,-4.1471643,3.0320296,-8.290663,131.22495,-122.92215,-32.921875,WAL
667007132000,2.60998,-12.249321700886,3.9957025487015,2.93109697192178,-4.1621304,2.2000313,-8.287914,130.67227,-53.751118,-36.235706,WAL
667012156000,2.615004,-11.6221111939098,5.51472708708626,2.93599699644567,-4.0365977,1.6346754,-7.5695367,130.2771,-50.55018,-39.39729,WAL
667017624000,2.620472,-10.8620572638181,7.00293756053249,3.08116575562839,-4.0204096,1.2644911,-6.2830544,130.85641,-47.296898,-42.530586,WAL
667022177000,2.625025,-10.0187161680019,7.79334922995873,3.58223035100753,-4.181067,0.68844515,-4.7891836,131.8025,-44.389835,-45.247444,WAL
667027095000,2.629943,-9.10776701157239,8.64712577075342,4.12346375317634,-4.2797217,-0.39187005,-3.476434,132.5781,-42.386147,-47.041466,WAL
667032149000,2.634997,-8.7406150644695,8.43206976178086,3.58996263590633,-4.223522,-1.5454891,-2.5130997,133.63411,-40.732704,-48.415062,WAL
667037118000,2.639966,-8.63972717384601,7.72126621114002,2.56732261162186,-4.012163,-2.3353379,-1.9999728,134.98267,-39.33884,-49.445126,WAL
667042163000,2.645011,-8.61417260691643,7.58885494158501,1.4770969181585,-3.7003162,-2.7577512,-1.8503108,136.69815,-38.421,-49.86778,WAL
667047153000,2.650001,-8.63712564822286,7.82756661910663,0.366168899243996,-3.3356297,-2.9223793,-1.8319849,138.58427,-37.608776,-50.09174,WAL
667052130000,2.654978,-8.65324028181142,8.25679652961624,-0.696957824421176,-2.9220738,-2.9159653,-1.8182404,140.24565,-36.78335,-50.356304,WAL
667057187000,2.660035,-8.6635365208887,8.86429414927182,-1.73691134946954,-2.5072963,-2.8362474,-1.8206838,141.9296,-35.984592,-50.568775,WAL
667062155000,2.665003,-8.4607786949866,9.46675433065442,-2.48526211218905,-2.079996,-2.7375927,-1.8145752,143.23073,-35.291492,-50.801224,WAL
667067167000,2.670015,-8.14390827784156,10.0775335683123,-3.0960410141791,-1.6560557,-2.3722951,-1.7837266,144.37471,-34.648384,-51.044785,WAL
667072174000,2.675022,-7.80535513553305,11.3274239131252,-3.47461696637778,-1.4547756,-1.9410243,-1.758681,145.1675,-34.122864,-51.305355,WAL
667077236000,2.680084,-7.4459605353451,13.088963971181,-3.67709279076955,-1.0387764,-1.5225816,-1.6691893,145.79182,-33.69222,-51.5754,WAL
667082153000,2.685001,-7.31462339561989,14.5656557460288,-3.64564518575054,-0.6533204,-1.0830641,-1.3820826,146.00377,-33.470745,-51.77644,WAL
667087235000,2.690083,-7.29632504295517,15.965487606542,-3.49010828051509,-0.36957347,-0.6597345,-0.9841039,146.00545,-33.338284,-51.972553,WAL
667092160000,2.695008,-7.20877157834787,16.9969659864546,-3.2912128743253,-0.23823744,-0.29565877,-0.5543602,145.67654,-33.5743,-51.89495,WAL
667097151000,2.699999,-7.05672098101591,17.7474095710621,-3.04596998696768,-0.2669481,0.048563786,-0.18753563,145.12749,-33.90357,-51.781223,WAL
667102152000,2.705,-6.74371913050994,18.252824314261,-2.59378995650821,-0.2779437,0.4129449,0.1572978,144.35072,-34.537495,-51.40534,WAL
667107236000,2.710084,-6.30186152808989,18.5768539550562,-1.97518944494382,-0.42943826,0.65026605,0.53786683,143.45175,-35.240253,-50.95656,WAL
667112115000,2.714963,-5.81209655032237,18.829250762089,-1.45323558757253,-0.6609562,0.7840455,0.91446525,142.48065,-36.10519,-50.32909,WAL
667117193000,2.720041,-5.10139192605846,18.9128626021921,-1.12923782461315,-0.9068295,0.86437434,1.2779301,141.42963,-37.023426,-49.637352,WAL
667122124000,2.724972,-4.54556977554446,18.4214120075924,-1.01656129524476,-1.1334605,0.94959,1.5946637,140.50972,-38.06662,-48.74027,WAL
667127125000,2.729973,-4.19151101591409,17.0290996347652,-1.21751354059441,-1.2852604,1.14018,1.8344283,139.52193,-39.13711,-47.809334,WAL
667132087000,2.734935,-3.88498434014383,15.529827008275,-1.38187259585263,-1.4312572,1.395827,1.9504927,138.59738,-40.26827,-46.77034,WAL
667137148000,2.739996,-3.6462481304699,13.8061519174466,-1.49169121042262,-1.5451837,1.6337591,1.9691241,137.62735,-41.391907,-45.735954,WAL
667142093000,2.744941,-3.39904033033298,12.2451780855004,-1.52885481570867,-1.5848899,1.8472565,1.9425515,136.57103,-42.386852,-44.842556,WAL
667147126000,2.749974,-3.12152338597064,10.8853451353997,-1.43634918368679,-1.5931365,1.9889772,1.9052887,135.48386,-43.358593,-43.97136,WAL
667152099000,2.754947,-2.80827122228898,9.70399211234605,-1.26194929035746,-1.5628988,2.0494528,1.8668042,134.36005,-44.159645,-43.27593,WAL
667157168000,2.760016,-2.38052060939221,8.95056827375588,-0.853641873295284,-1.543351,2.060143,1.8249599,133.23094,-44.94182,-42.598354,WAL
667162131000,2.764979,-1.95702578244759,8.38064049146758,-0.353678806825939,-1.5286902,2.0387628,1.8188512,132.13635,-45.60862,-42.02214,WAL
667167352000,2.7702,-1.49870817604096,8.23924405085324,0.445939260682594,-1.5201381,1.9159788,1.8228219,131.09625,-46.26591,-41.444523,WAL
667172136000,2.774984,-1.11591352147702,8.15165831790389,1.16788639848094,-1.5216653,1.6826283,1.8380935,130.2146,-46.887653,-40.855934,WAL
667177152000,2.78,-0.840549421413968,8.2021415520684,1.88842236271138,-1.534188,1.3973542,1.8133535,129.41164,-47.496746,-40.263943,WAL
667182162000,2.78501,-0.553726659512268,8.29720057301148,2.57897202464385,-1.5537357,1.1276573,1.7125608,128.87639,-48.10362,-39.5967,WAL
667187135000,2.789983,-0.195640485977444,8.66942184962406,3.08311964097744,-1.4947872,0.88422745,1.5787812,128.44249,-48.69297,-38.930187,WAL
667192161000,2.795009,0.191251792948899,9.02463612765098,3.54449969452636,-1.4196508,0.6936375,1.4278975,128.25334,-49.256683,-38.2125,WAL
667197150000,2.799998,0.765445290211068,9.21764271187639,3.63617768347808,-1.3090842,0.63407815,1.2663237,128.11148,-49.777527,-37.531986,WAL
667202162000,2.80501,1.34615698669102,9.33605991979819,3.69147827025052,-1.1655309,0.7134906,1.0494665,128.11253,-50.303036,-36.804417,WAL
667207181000,2.810029,1.95241734707724,8.97230379088379,3.51169066993737,-0.93615097,0.95569867,0.7284568,128.0939,-50.762093,-36.165646,WAL
667212146000,2.814994,2.55215488230689,8.61246135612387,3.33383742515658,-0.57360244,1.4966198,0.24373524,128.02333,-51.220512,-35.566856,WAL
667217183000,2.820031,3.37844705737221,7.52504525777603,3.51813090473752,-0.03756821,2.2638667,-0.3744604,127.83352,-51.59123,-35.138355,WAL
667222120000,2.824968,4.2306450780065,6.31892847486457,3.76959930704225,0.6560693,2.7171285,-0.8854492,127.60044,-51.912323,-34.836884,WAL
667227186000,2.830034,4.82020201670876,5.63419517349913,4.86209477783175,1.119716,2.8506026,-1.1691961,127.262146,-52.20921,-34.628048,WAL
667232168000,2.835016,5.33004104118904,5.09654701606761,6.14132684767826,1.3457361,2.7482827,-1.3026701,126.880585,-52.45689,-34.534058,WAL
667237157000,2.840005,5.54082199706499,5.21047880782669,6.92092604402516,1.4321736,2.5329528,-1.3185526,126.62547,-52.632328,-34.487137,WAL
667242116000,2.844964,5.64986682779275,5.54235407826695,7.52778422596586,1.428203,2.286163,-1.2370021,126.4115,-52.810116,-34.43743,WAL
667247154000,2.850002,5.64388731974098,6.54530088371256,7.12762915124561,1.3994923,2.0622811,-1.073901,126.56514,-52.877224,-34.34841,WAL
667252144000,2.854992,5.59661035706448,7.77449868207573,6.37119994745031,1.3750577,1.8521434,-0.8546005,126.776436,-52.97671,-34.20694,WAL
667257125000,2.859973,5.48720758696179,8.60798802819073,5.64246448040965,1.3616186,1.756543,-0.6282749,127.09487,-53.13585,-33.945366,WAL
667262164000,2.865012,5.3171559584407,9.07563008985795,4.93037254380575,1.3686435,1.575116,-0.50823987,127.48576,-53.316086,-33.63685,WAL
667267163000,2.870011,5.13697201585414,9.36320197542608,4.26374409591756,1.3881912,1.4071281,-0.28344148,127.62533,-53.847984,-33.07641,WAL
667272894000,2.875742,4.92487294166667,9.60793191666667,3.51867843333333,1.432479,1.2095132,0.02107485,127.799706,-54.425068,-32.455887,WAL
667277161000,2.880009,4.79636250895845,9.6763066427415,3.03750676740421,1.5155567,1.1548407,0.12583824,127.83137,-55.086906,-31.824705,WAL
667282154000,2.885002,4.65443394659111,9.72361574437848,2.49559803770462,1.5485435,1.0433578,0.3481932,127.89711,-55.847878,-31.068916,WAL
667287138000,2.889986,4.49685366559333,9.70067327787162,1.98318869638936,1.6282613,0.945314,0.6010914,127.822014,-56.703667,-30.29735,WAL
667292171000,2.895019,4.31874970648226,9.59381129560811,1.49976320147804,1.7146988,0.8695667,0.86162543,127.75261,-57.613,-29.465273,WAL
667297156000,2.900004,4.13786646427331,9.43295185234511,1.18820988066589,1.8127426,0.8219192,1.1355985,127.578445,-58.62361,-28.590178,WAL
667302191000,2.905039,3.95172773294731,9.22819907295889,1.0020711784945,1.9184223,0.7733554,1.4046847,127.412056,-59.70002,-27.64704,WAL
667307294000,2.910142,3.80254189908821,9.02772091437066,0.825666930372646,1.9859229,0.7076874,1.6569719,127.175575,-60.844666,-26.673391,WAL
667312268000,2.915116,3.69395854245788,8.83888046560951,0.665152440473736,2.0347922,0.64904433,1.8787161,126.9445,-62.048923,-25.63778,WAL
667317174000,2.920022,3.63475287916948,8.6970708849831,0.491077030799614,2.0485365,0.61850107,2.1105394,126.68917,-63.28442,-24.579872,WAL
667322153000,2.925001,3.62554324378561,8.60036961728633,0.297674538680831,2.0418172,0.6239988,2.3154848,126.44094,-64.56151,-23.47264,WAL
667327184000,2.930032,3.62795702967742,8.51081583991936,0.0928139340725807,2.0094411,0.6765333,2.5286767,126.1649,-65.87056,-22.336296,WAL
667332152000,2.935,3.64714152258065,8.43407776814516,-0.123011761330645,1.9559906,0.788627,2.751337,125.87194,-67.22041,-21.148932,WAL
667337113000,2.939961,3.6740596901344,8.38142329596814,-0.304015220350423,1.8881844,0.9401216,2.9620855,125.531944,-68.61314,-19.923029,WAL
667342639000,2.945487,3.71620714403186,8.3603496790443,-0.451531402512693,1.8078557,1.1453724,3.1813862,125.14839,-70.04674,-18.644821,WAL
667347108000,2.949956,3.77091728829484,8.33961913690418,-0.5076836811086,1.7192802,1.3475688,3.3948836,124.705475,-71.5287,-17.320675,WAL
667352134000,2.954982,3.86079718455037,8.31123545022113,-0.484031092949386,1.6511687,1.5323554,3.6187658,124.21768,-73.05126,-15.944279,WAL
667357126000,2.959974,3.81222411607402,8.23392140473512,-0.400007154912917,1.5711454,1.6044376,3.8487566,123.70275,-74.62296,-14.509368,WAL
667362167000,2.965015,3.52757378982221,8.07188997392054,-0.211700069473875,1.5448782,1.7214183,3.9449677,123.13788,-76.20089,-13.063283,WAL
667367142000,2.96999,3.24131936985065,7.90783378578489,0.0191453835371226,1.4819591,1.7427986,4.099211,122.5949,-77.841,-11.529223,WAL
667372181000,2.975029,2.92502961816912,7.72117091494574,0.475432334368755,1.4398094,1.5735888,4.125173,122.09224,-79.4541,-10.014121,WAL
667377094000,2.979942,2.64506063127124,7.57499358395649,0.880981611529572,1.4361442,1.2156218,4.08791,121.66789,-80.99866,-8.544885,WAL
667382150000,2.984998,2.42404910807031,7.50916040815772,1.20544538106245,1.5030339,0.65026605,4.0234637,121.36456,-82.52791,-7.084174,WAL
667387142000,2.98999,2.17043412000804,7.45554878942288,1.48556249370601,1.6276505,-0.046731193,3.890906,121.239555,-83.92841,-5.7237945,WAL
667392128000,2.994976,1.81036511192439,7.43634501942489,1.64399281916348,1.784032,-0.75869465,3.6972618,121.2872,-85.28654,-4.408211,WAL
667397114000,2.999962,1.39797834968037,7.39784225902619,1.73794960852335,1.9630154,-1.4902058,3.4147367,121.56318,-86.511505,-3.2125921,WAL
667402158000,3.005006,0.825605078219656,7.30164529887484,1.64175244747585,2.1310034,-2.137723,3.037833,122.02139,-87.65698,-2.110379,WAL
667407126000,3.009974,0.180895339230692,7.2210206328904,1.55639326843841,2.2305744,-2.7327056,2.5607471,122.68473,-88.61523,-1.202415,WAL
667412310000,3.015158,-0.746653184090319,7.18133949279648,1.49687142881407,2.3112087,-3.395189,1.9480493,123.55396,-89.44825,-0.45372394,WAL
667417178000,3.020026,-1.64233901624758,7.16217364603482,1.3786155794971,2.3958135,-3.9978075,1.2479976,124.57747,-90.103065,0.005730528,WAL
667422198000,3.025046,-2.63732661121857,7.19471989845261,1.07639973346228,2.4092526,-4.447099,0.42241332,125.745964,-90.573456,0.24062145,WAL
667427158000,3.030006,-3.61010887077107,7.23144525353656,0.712055341860928,2.346639,-4.7003026,-0.5311473,127.03998,-90.926216,0.03517718,WAL
667432149000,3.034997,-4.54340021470412,7.2885854414724,0.0549421364564653,2.252871,-4.6767845,-1.5726726,128.37749,-91.38181,-0.43977627,WAL
667437144000,3.039992,-5.42888883746556,7.33731141267218,-0.587403864600551,2.0412061,-4.4064765,-2.644741,129.72113,-92.18508,-1.4263828,WAL
667442142000,3.04499,-6.08393107900116,7.34581845015551,-1.15737575351018,1.7595973,-3.80172,-3.6890152,130.9502,-93.31285,-2.6951907,WAL
667447136000,3.049984,-6.73844907704612,7.35431867928552,-1.72689148244468,1.3289373,-3.0747902,-4.650517,132.04941,-94.94432,-4.438176,WAL
667452150000,3.054998,-7.03046917461312,7.44059392358143,-2.26904155818902,0.86498517,-2.659402,-5.4690766,133.04486,-96.81889,-6.4145966,WAL
667457131000,3.059979,-7.28971957988209,7.53286942623434,-2.80511870082903,0.40775254,-1.7767016,-5.8093286,133.68402,-98.80257,-8.487871,WAL
667462158000,3.065006,-7.66515923533629,7.8901315890199,-3.35591416296576,0.19120082,-0.8188649,-6.3529987,134.13649,-101.23662,-10.975549,WAL
667467129000,3.069977,-8.07381632498821,8.33022409912273,-3.90378405838128,-0.20952678,0.22235495,-6.81298,134.28809,-103.68722,-13.4843445,WAL
667472148000,3.074996,-8.53470463277118,9.02042811655523,-4.02988220421116,-0.54702985,1.2223413,-7.253414,134.09404,-106.31408,-16.129793,WAL
667477173000,3.080021,-9.02453507384493,9.85602128091009,-3.90502351545754,-0.83016586,1.9850066,-7.645284,133.62193,-109.00456,-18.835125,WAL
667482191000,3.085039,-8.95100879511426,10.5064058187549,-3.54107154751773,-1.0641272,2.4501805,-7.824878,132.83499,-111.76023,-21.583794,WAL
667487151000,3.089999,-8.55797520961387,11.0444876469661,-3.04510012907801,-1.2388347,2.751337,-7.8432045,131.80592,-114.517044,-24.327063,WAL
667492157000,3.095005,-8.21821912712805,11.5518809257957,-1.95970288555514,-1.3439035,2.7714956,-7.713701,130.69473,-117.22934,-27.027527,WAL
667497151000,3.099999,-7.91731168245744,12.0342182464841,-0.486141704988897,-1.3982705,2.4642303,-7.4339247,129.54059,-119.8324,-29.616392,WAL
667502136000,3.104984,-7.88825067605219,13.0377951886589,-0.425552945868733,-1.4239268,2.005165,-6.9403453,128.48117,-122.13487,-31.915854,WAL
667507236000,3.110084,-8.21887757686648,14.7580122297655,-2.23681238705386,-1.4052955,1.7986927,-6.1498857,127.4156,-124.21648,-33.98948,WAL
667512097000,3.114945,-8.21772834370658,15.9659046364731,-3.37319926924146,-1.4037683,2.0271564,-4.756502,126.678894,-125.81651,-35.620285,WAL
667517204000,3.120052,-7.71491517504862,16.5502557404835,-3.63140061844957,-1.3952162,2.6618452,-2.6294694,125.89911,-126.9472,-36.76883,WAL
667522143000,3.124991,-7.43306857974892,16.5624295054538,-3.58739228314468,-1.3197744,3.0854805,-0.569021,124.799286,-127.52094,-37.31126,WAL
667527161000,3.130009,-7.80395031261576,14.7970307013789,-2.59837360592715,-0.98990715,3.133128,1.0311406,123.658905,-127.616,-37.358627,WAL
667532108000,3.134956,-8.20788383476781,13.3258980157126,-1.84397910348279,-0.59223384,2.73576,1.8484782,122.54657,-127.2238,-36.90339,WAL
667537185000,3.140033,-8.71881793254604,12.4938050518415,-1.62500736180945,-0.22143865,2.2360723,2.0332649,121.521225,-126.59181,-36.194992,WAL
667542105000,3.144953,-9.1693262145359,11.9026236856392,-1.44829827105079,0.084910266,1.8020525,1.9578232,120.810394,-126.044464,-35.59277,WAL
667547142000,3.14999,-9.51992038047285,11.8308155608581,-1.35536972298599,0.3417791,1.432479,1.7318029,120.26929,-125.51547,-35.00702,WAL
667552473000,3.155321,-9.88635363128822,11.7854786764648,-1.26231533724601,0.5198463,1.0708468,1.473407,119.9078,-125.18501,-34.631077,WAL
667557181000,3.160029,-10.157644584928,12.0923485127244,-1.24007841951075,0.64812803,0.88178396,1.3451253,119.61817,-124.89838,-34.29476,WAL
667562590000,3.165438,-10.4385788359709,12.4267256060736,-1.23232677855004,0.6795876,0.31887165,1.0161743,119.5965,-124.80449,-34.179115,WAL
667567176000,3.170024,-10.3164760955945,12.4971691552609,-1.43426505096236,0.6835582,0.09987647,0.9492846,119.529434,-124.68032,-34.022125,WAL
667572214000,3.175062,-10.1350271049626,12.4452372224301,-1.56919123755416,0.6768387,-0.31429017,0.8894198,119.72026,-124.64967,-33.98764,WAL
667577151000,3.179999,-9.63689469397401,11.5188035334777,-1.1129577008271,0.6627888,-0.657291,0.8539896,119.95756,-124.629425,-33.968826,WAL
667582126000,3.184974,-9.11473442149588,10.5688466975854,-0.682141632494111,0.64996064,-1.0885619,0.75747293,120.33444,-124.61989,-33.970898,WAL
667587143000,3.189991,-8.35073878700432,9.41813707872006,-0.587821170720455,0.63163465,-1.4770721,0.61208695,120.80659,-124.63149,-34.00525,WAL
667592344000,3.195192,-7.53303805831158,8.26034999643168,-0.503086577119234,0.6200282,-1.7400496,0.47678033,121.42293,-124.6839,-34.102734,WAL
667597628000,3.200476,-6.40752929830771,7.48717458542694,-0.566702278533024,0.62125,-1.8616118,0.39706242,122.11388,-124.75899,-34.228786,WAL
667602468000,3.205316,-5.39207584609885,6.804784365688,-0.624561067940041,0.6114761,-1.9242256,0.41813725,122.86631,-124.84606,-34.37014,WAL
667607135000,3.209983,-4.74873773708594,6.70679244707593,-0.671426763406892,0.6038403,-1.9544634,0.5183192,123.64441,-124.93184,-34.50929,WAL
667612500000,3.215348,-4.00918150077689,6.59414478404747,-0.725301727233688,0.58062744,-1.9706513,0.6582073,124.41452,-124.923935,-34.54723,WAL
667617191000,3.220039,-3.36253503208617,6.49564894299128,-0.772408429062485,0.5448918,-1.9767599,0.8213083,125.19096,-124.88035,-34.547737,WAL
667622118000,3.224966,-2.68335635989705,6.39219786456794,-0.821885026783757,0.49663344,-1.9474384,0.99173975,125.957634,-124.79245,-34.501205,WAL
667627211000,3.230059,-2.36871907432868,6.69882444922371,-1.0780850987013,0.4560109,-1.8500054,1.1759156,126.70138,-124.654495,-34.40089,WAL
667632295000,3.235143,-2.1642854820623,7.12195463416659,-1.39186693766234,0.4266894,-1.6792686,1.3322971,127.40596,-124.47656,-34.256493,WAL
667637136000,3.239984,-2.18193898650445,7.67589205807206,-1.60600043700515,0.39095375,-1.4682146,1.475545,128.04384,-124.06709,-33.870304,WAL
667642111000,3.244959,-2.27111924878802,8.29569580982686,-1.79773824070192,0.32834008,-1.2302825,1.5928311,128.6103,-123.620926,-33.443542,WAL
667647163000,3.250011,-2.40909713428038,8.94751648963086,-1.91867805771464,0.22999077,-1.1184943,1.7018706,129.11092,-123.0712,-32.90583,WAL
667652139000,3.254987,-2.57710250748652,9.60471327934467,-1.98785668616757,0.08674286,-0.8723156,1.7504344,129.48172,-122.50624,-32.348495,WAL
667657146000,3.259994,-2.76708325018417,10.1181477509209,-2.08103772288701,0.014660766,-0.59956425,1.8432859,129.79015,-121.85808,-31.70241,WAL
667662172000,3.26502,-2.9683362485117,10.5589877425585,-2.18645603396715,-0.16187929,-0.29016098,1.9113973,130.00194,-121.202774,-31.050755,WAL
667667763000,3.270611,-3.15095106437649,10.8182602025417,-2.29979238055004,-0.3408628,0.16707164,1.9752327,130.07726,-120.4966,-30.342615,WAL
667672158000,3.275006,-3.28049761660048,10.9436276648133,-2.38754964777601,-0.5867361,0.31978795,1.9837849,130.15155,-119.78949,-29.640072,WAL
667677129000,3.279977,-3.35416990804839,10.8930949392122,-2.38923897312538,-0.66523224,0.6072,2.0030272,130.02748,-119.06453,-28.909126,WAL
667682177000,3.285025,-3.38800367129574,10.7335928764247,-2.33607145062987,-0.8188649,0.8338311,2.0073032,129.87558,-118.34386,-28.190212,WAL
667687134000,3.289982,-3.31764450083317,10.5260621501686,-2.18071725746876,-0.93951076,0.9645562,1.9843957,129.65219,-117.64766,-27.49267,WAL
667692138000,3.294986,-3.18930659220393,10.2883989519937,-1.96682072654235,-1.0433578,1.026559,1.9801197,129.38203,-116.95262,-26.79819,WAL
667697165000,3.300013,-2.97264366321887,9.95583959888291,-1.71496061976624,-1.1206323,1.0253373,1.988061,129.09499,-116.285805,-26.134987,WAL
667702046000,3.304894,-2.71155580268928,9.57871318287133,-1.44903785308233,-1.183246,0.9575313,2.0054705,128.81221,-115.625885,-25.48168,WAL
667707088000,3.309936,-2.51125382821055,9.1452661643454,-1.20011897314379,-1.2363913,0.84482664,2.02624,128.56259,-114.967186,-24.836206,WAL
667712075000,3.314923,-2.34610700718471,8.69569992200557,-0.966160988665834,-1.2797627,0.6942484,2.0387628,128.34663,-114.315605,-24.200298,WAL
667717076000,3.319924,-2.20625439094069,8.27717885828221,-0.737122300071575,-1.3225232,0.5119051,2.0131063,128.19627,-113.66173,-23.56837,WAL
667722110000,3.324958,-2.08301908554192,7.87789618466258,-0.510369373139059,-1.3662001,0.31245756,1.9828686,128.09593,-113.016594,-22.945757,WAL
667727075000,3.329923,-1.91483370431583,7.60998445783612,-0.424857464355609,-1.4089607,0.13561209,1.9929478,128.05789,-112.38247,-22.336185,WAL
667732072000,3.33492,-1.71971958809666,7.4101114146778,-0.415339699922434,-1.4227052,-0.005497787,2.0011945,128.0654,-111.77054,-21.74496,WAL
667737057000,3.339905,-1.63546661280996,7.30940986513771,-0.488139314182103,-1.4422529,-0.11178834,1.9960022,128.12506,-111.180084,-21.171423,WAL
667742078000,3.344926,-1.61661525034794,7.26699439802019,-0.610673278449476,-1.4468343,-0.17837265,2.005165,128.20956,-110.59892,-20.598366,WAL
667747072000,3.34992,-1.61167487575668,7.38128334844235,-0.795211511014322,-1.4450017,-0.18753563,2.0100522,128.30457,-69.98455,-20.013119,WAL
667752064000,3.354912,-1.61638055867415,7.604803287022,-1.02343727992027,-1.4419475,-0.20311269,2.0131063,128.41556,-70.55321,-19.431751,WAL
667757064000,3.359912,-1.62109378275014,7.82868143063143,-1.25202879525075,-1.4309518,-0.17470746,2.0158553,128.50026,-71.10888,-18.85384,WAL
667762100000,3.364948,-1.62584094203947,8.05417149687485,-1.48226616949161,-1.3982705,-0.12705997,2.0131063,128.57866,-71.64761,-18.282988,WAL
667767097000,3.369945,-1.5497997916318,8.4472240543933,-1.69830040251046,-1.3384057,-0.083383106,2.0137172,128.6423,-72.17012,-17.71904,WAL
667772141000,3.374989,-1.40061994907352,8.9958211119745,-1.90522736194461,-1.2366967,-0.099571034,2.0638082,128.70445,-72.69161,-17.14811,WAL
667777098000,3.379946,-1.23192977175451,9.38917171982174,-1.99913195756636,-1.1175779,-0.18234327,2.1218405,128.74954,-73.24769,-16.551159,WAL
667782098000,3.384946,-1.0417296409659,9.65359624995156,-1.99449293412129,-0.9786061,-0.36835176,2.1413882,128.82849,-73.79949,-15.95712,WAL
667787103000,3.389951,-0.849768295754145,9.84367136190861,-1.92762569882734,-0.799928,-0.6637051,2.1093178,128.96538,-74.41619,-15.30683,WAL
667792115000,3.394963,-0.65567629039628,9.9455696995552,-1.78690898544278,-0.5876524,-1.02717,2.0317378,129.17775,-75.02258,-14.669932,WAL
667797122000,3.39997,-0.369910197659979,9.85854931987449,-1.94378813091405,-0.3643811,-1.432479,1.8832976,129.5006,-75.65115,-14.014865,WAL
667802068000,3.404916,0.00946293304433984,9.5730416638593,-2.41311574939311,-0.11148291,-1.8026633,1.7424932,129.92062,-76.263245,-13.385441,WAL
667807187000,3.410035,0.394948677813718,9.28929332083026,-2.96245119582763,0.17989981,-2.087021,1.6325374,130.44745,-76.883675,-12.753162,WAL
667812130000,3.414978,0.67924695034243,9.15961339553261,-4.27421334884628,0.45753807,-2.2470677,1.5537357,131.04622,-77.47924,-12.159112,WAL
667817148000,3.419996,1.01306997332666,9.11146943711856,-5.58571305090545,0.73884153,-2.1951442,1.4908166,131.67099,-78.16617,-11.519537,WAL
667822144000,3.424992,1.56835802853427,9.4752792068034,-6.79202866647324,1.0580186,-1.9685133,1.4077389,132.29372,-78.831245,-10.920799,WAL
667827142000,3.42999,2.12170610213415,9.82862523037348,-7.98989103639482,1.3640621,-1.5824465,1.4138476,132.84612,-79.594635,-10.276605,WAL
667832130000,3.434978,2.66329569054878,10.129002533346,-9.14133728525152,1.5971072,-1.1346822,1.4844025,133.32051,-80.30782,-9.6550455,WAL
667837161000,3.440009,3.18752641356629,10.4020854182939,-10.2468330195272,1.8371773,-0.61483586,1.6371188,133.6815,-98.90643,-8.902344,WAL
667842144000,3.444992,3.42784918014388,10.2941852877698,-10.6342922532374,2.1273382,-0.3323107,1.8555032,133.99135,-98.25942,-8.130563,WAL
667847106000,3.449954,3.63266014900617,10.1351223095075,-10.877667230001,2.3457224,0.26328292,1.964848,134.08434,-97.805214,-7.24279,WAL
667852178000,3.455026,3.57558746031528,9.57390821609713,-10.0263340413199,2.3704627,0.79198676,2.1508565,134.13438,-97.64973,-6.289039,WAL
667857201000,3.460049,3.51422997412484,9.00640928468593,-9.16696823252145,2.3142629,1.0867293,2.2791383,134.105,-97.9081,-5.2944818,WAL
667862168000,3.465016,3.4063447357657,8.33095410077902,-8.15847621289814,2.1319196,1.1704178,2.3118196,134.00679,-98.48972,-4.2884784,WAL
667867272000,3.47012,3.2909433521712,7.64130396362015,-7.1358152325457,1.8600847,1.1285735,2.2904391,133.8812,-99.180244,-3.2907722,WAL
667872147000,3.474995,3.12859033389211,7.03352034792688,-6.3157237367811,1.5057828,0.97097033,2.1978931,133.78093,-99.98208,-2.3222132,WAL
667877099000,3.479947,2.96367297050379,6.41613686794472,-5.48267900098083,1.0552697,0.70463306,2.0066924,133.72346,-100.65867,-1.4310186,WAL
667882189000,3.485037,2.78095134765235,5.87535409118155,-4.78813654105894,0.6258314,0.3378085,1.7919732,133.74382,-101.32186,-0.5989041,WAL
667887200000,3.490048,2.59790217082917,5.36543170938153,-4.1431062037962,0.2706133,-0.0983493,1.5610662,133.85555,-101.93221,0.14328557,WAL
667892136000,3.494984,2.48117436215293,5.10949871550619,-3.74405690012815,0.063224554,-0.58184916,1.3423764,134.05942,-102.35749,0.76440614,WAL
667897158000,3.500006,2.40310523764203,5.00677596873131,-3.48930476271679,-0.008246681,-1.0482447,1.1673635,134.3725,-102.74131,1.3000143,WAL
667902117000,3.504965,2.30949950706498,4.97296475392499,-3.30127092115133,0.07269296,-1.4288138,1.0268645,134.76978,-103.014656,1.7222492,WAL
667907188000,3.510036,2.1665396575447,5.13180918474706,-3.29068131085914,0.28191432,-1.7366899,0.9071349,135.26793,-103.30957,2.0726373,WAL
667912107000,3.514955,2.00144642800059,5.38994818351339,-3.29588267310937,0.5564982,-1.9883664,0.7809912,135.8352,-103.596214,2.3429055,WAL
667917189000,3.520037,1.79496607917715,5.79810691638301,-3.32229297797839,0.8063421,-2.1813998,0.6469063,136.46251,-103.931694,2.5576913,WAL
667922718000,3.525566,1.57032423568152,6.24216626979429,-3.35102626715998,1.0195341,-2.3487768,0.5045747,137.1334,-104.31395,2.6879647,WAL
667927203000,3.530051,1.38809984282966,6.60237719402102,-3.37433406277934,1.1606439,-2.4330764,0.4166101,137.82643,-104.73907,2.7837462,WAL
667932182000,3.53503,1.1774102453058,7.06785122644094,-3.46788367949897,1.2205088,-2.4422393,0.3390302,138.53146,-105.19025,2.831757,WAL
667937128000,3.539976,0.954921683211665,7.63334276377336,-3.66719639589001,1.2125676,-2.3441954,0.27397305,139.22018,-105.65294,2.8557653,WAL
667942088000,3.544936,0.745900491518152,8.19444343564356,-3.90408175148515,1.1511755,-2.2589796,0.25167647,139.88121,-106.05602,2.7654495,WAL
667947159000,3.550007,0.562053133950689,8.75541358124636,-4.22463599382644,1.1007792,-1.988061,0.22999077,140.45482,-106.45062,2.6767037,WAL
667952134000,3.554982,0.370806651195841,9.27447322790295,-4.50584595840555,0.97005403,-1.6404786,0.20738874,140.96704,-106.79456,2.5361772,WAL
667957351000,3.560199,0.139901045742345,9.73147408954362,-4.70788842345465,0.81581056,-1.2321151,0.18203785,141.38274,-107.110855,2.4158704,WAL
667962169000,3.565017,-0.0556451628996283,10.1244364118959,-4.8635154266171,0.6575964,-0.8014552,0.15271631,141.68518,-107.403625,2.272205,WAL
667967162000,3.57001,-0.188963924107807,10.4177375751859,-4.90351107354089,0.514654,-0.39492437,0.129198,141.87843,-107.65138,2.1576989,WAL
667972227000,3.575075,-0.322230809440193,10.7073249136126,-4.92599429508659,0.40194935,-0.030848695,0.09987647,141.95122,-107.859726,2.0154407,WAL
667977194000,3.580042,-0.422807518425292,10.870163197644,-4.67215779049537,0.30451632,0.20066923,0.07727446,141.94653,-108.02805,1.8957745,WAL
667982218000,3.585066,-0.512242215909814,11.0274823272523,-4.38795145532791,0.24556783,0.3659083,0.07819075,141.85435,-108.15575,1.7716594,WAL
667987181000,3.590029,-0.445543247527365,11.0897350345215,-3.76098117667696,0.18417588,0.4538729,0.116980694,141.72124,-108.25383,1.6690816,WAL
667992925000,3.595773,-0.369402505350215,11.1594987263519,-3.04563603215451,0.1518,0.51068336,0.16646078,141.54916,-108.28032,1.5638701,WAL
667997170000,3.600018,-0.324038034101288,11.1874151581116,-2.62339743292704,0.16218472,0.54061574,0.21746802,141.36458,-108.303215,1.4783415,WAL
668002109000,3.604957,-0.271257086280687,11.2198955483262,-2.13212854209442,0.15149458,0.50976706,0.26511553,141.18568,-108.17924,1.4200939,WAL
668007185000,3.610033,-0.299314761205081,11.2187946596448,-1.56383401717266,0.13683382,0.4175264,0.31642818,141.02151,-108.06193,1.3754574,WAL
668012193000,3.615041,-0.383508379098513,11.1940318475836,-0.959620937453532,0.09040806,0.26816985,0.34972036,140.88509,-107.93651,1.3324099,WAL
668017175000,3.620023,-0.580400386060479,11.1129814962854,-0.392925623272994,0.032375857,0.04795292,0.36102137,140.79521,-107.694244,1.2932472,WAL
668022130000,3.624978,-0.833629132204667,11.003745444177,0.1532539736298,-0.05497787,-0.20738874,0.3567453,140.75887,-107.436485,1.2441193,WAL
668027153000,3.630001,-1.03798912492811,10.9432271869113,0.505301196261775,-0.14660765,-0.5006041,0.31215215,140.7838,-107.04978,1.1440474,WAL
668032153000,3.635001,-1.22316286811106,10.9004949112543,0.785435841774913,-0.28008172,-0.7837401,0.26206118,140.87799,-106.634476,1.0241101,WAL
668037152000,3.64,-1.38026597405281,10.9354448199388,0.815296675755836,-0.42424592,-0.915687,0.21838433,140.99608,-106.09092,0.8285205,WAL
668042140000,3.644988,-1.52651659655568,10.9994293300804,0.751312022445465,-0.58001655,-1.1157454,0.20708331,141.21419,-105.517395,0.6071537,WAL
668047168000,3.650016,-1.68819811092412,11.0661142235211,0.517960180025396,-0.6554584,-1.2473868,0.19333886,141.44092,-104.87643,0.33164677,WAL
668052155000,3.655003,-1.85665362358158,11.1334967703316,0.190675252785448,-0.7828238,-1.2928963,0.20311269,141.70561,-104.19162,0.061029453,WAL
668057178000,3.660026,-2.01876757256381,11.1752278828306,-0.166694213816125,-0.8793405,-1.2666291,0.21166481,141.99251,-103.51633,-0.23821035,WAL
668062575000,3.665423,-2.18865588712297,11.205207737819,-0.566431468063805,-0.9279043,-1.1664472,0.19639318,142.27463,-102.83664,-0.528536,WAL
668067197000,3.670045,-2.33838641130202,11.2036163344788,-0.960123320313097,-0.9379836,-1.0012082,0.18845193,142.53085,-102.22045,-0.82834625,WAL
668072166000,3.675014,-2.50191622027491,11.1854464716495,-1.41437254725086,-0.9083566,-0.77518797,0.17104226,142.74236,-101.622025,-1.1152062,WAL
668077155000,3.680003,-2.71103830176171,11.1124210159826,-1.77888224451507,-0.8338311,-0.50762904,0.15424347,142.89049,-101.13157,-1.4101323,WAL
668082149000,3.684997,-2.96728306302216,10.9821271387577,-2.04815648419906,-0.72692966,-0.23640485,0.11575896,142.97229,-100.680176,-1.6951959,WAL
668087125000,3.689973,-3.26221315515772,10.8259634202899,-2.24668785541347,-0.58551437,0.023823744,0.040317107,142.97102,-100.37997,-2.003561,WAL
668092163000,3.695011,-3.66325110850384,10.5997371413043,-2.26725389053708,-0.45020768,0.21197024,-0.099265605,142.90836,-100.13312,-2.3239856,WAL
668097139000,3.699987,-4.04295440746848,10.3957957255092,-2.25853800737148,-0.28985557,0.34972036,-0.27366763,142.77628,-100.02828,-2.7138052,WAL
668102135000,3.704983,-4.40028901895247,10.2194485553831,-2.20749022649855,-0.15363261,0.462425,-0.4813618,142.59018,-99.9898,-3.1370897,WAL
668107136000,3.709984,-4.74985637532308,10.1069039804615,-2.10310217005128,-0.025961773,0.5177083,-0.70707655,142.36026,-100.06449,-3.6815212,WAL
668112161000,3.715009,-5.08548679378462,10.1167753996923,-1.89580107774359,0.06994407,0.50701815,-0.90377516,142.11038,-100.217,-4.264225,WAL
668117108000,3.719956,-5.45217949955362,10.1300526422974,-1.70355439826406,0.110872045,0.4529566,-1.1102476,141.83267,-100.473885,-4.9837284,WAL
668122152000,3.725,-5.88343499504017,10.1492196921932,-1.52626052515623,0.09132435,0.37598756,-1.323745,141.55807,-100.80933,-5.749255,WAL
668127102000,3.72995,-6.3111851022523,10.1987104997583,-1.32650029887095,0.019242255,0.22937989,-1.5549575,141.30215,-101.21906,-6.6430564,WAL
668132140000,3.734988,-6.7542546298695,10.3013162242629,-1.0793140357564,-0.08307768,0.047647487,-1.7993035,141.0731,-101.70828,-7.5890636,WAL
668137099000,3.739947,-7.39165257642885,10.313488774931,-0.91547403620812,-0.23151793,-0.043676864,-2.0885482,140.84055,-102.30575,-8.691514,WAL
668142171000,3.745019,-8.51648383098147,10.1172414095388,-0.934620081505716,-0.34116822,-0.22449298,-2.2950208,140.68607,-102.98507,-9.829425,WAL
668147114000,3.749962,-9.59534956060023,9.87420619079454,-1.01251515364082,-0.54702985,-0.3924809,-2.8463266,140.52882,-103.85592,-11.225084,WAL
668152147000,3.754995,-10.6478139592151,9.48938429857638,-1.24897182120046,-0.72112644,-0.5036584,-3.499036,140.4075,-104.8609,-12.684361,WAL
668157129000,3.759977,-11.6208800980163,9.0034604941657,-1.4494278987748,-0.9104946,-0.4016439,-4.20092,140.2137,-106.25209,-14.531502,WAL
668162178000,3.765026,-12.3261493978997,8.08190831441074,-1.51525308252625,-1.1688906,-0.12217305,-4.9544225,139.99167,-107.86482,-16.532173,WAL
668167149000,3.769997,-12.9976851243109,7.27644091929438,-1.55941720071665,-1.5112807,0.24556783,-5.72564,139.63585,-109.93473,-18.934782,WAL
668172187000,3.775035,-13.5429349869533,7.06366049864021,-1.48184102690187,-1.9462167,0.61483586,-6.4828076,139.19267,-112.21183,-21.478691,WAL
668182170000,3.785018,-14.6233695599504,6.6420275213892,-1.3281207126516,-2.996294,1.7324139,-6.978219,137.76907,-117.57264,-27.230679,WAL
668187116000,3.789964,-15.158662497749,6.43313272969497,-1.25196117400772,-3.7223074,2.1536055,-6.3740735,136.90344,-120.460236,-30.259607,WAL
668192132000,3.79498,-14.6413987661992,6.82430154662709,-0.115003019838264,-4.540561,2.084883,-5.390275,136.02518,-123.19594,-33.096287,WAL
668197090000,3.799938,-13.8442839163681,7.37353314474358,1.29452968440987,-5.0943108,1.5167783,-4.4125853,135.22495,-125.71837,-35.683765,WAL
668202135000,3.804983,-12.9319129022983,6.43381017205384,1.6846499295852,-5.283984,0.8210029,-3.7018435,134.57281,-128.00969,-38.007175,WAL
668207140000,3.809988,-12.0058403324787,5.19173241543815,1.85581964636938,-5.174945,0.15943582,-3.3530393,134.16583,-49.903378,-40.08806,WAL
668212253000,3.815101,-10.8307619915102,4.97595462588435,1.88489917632299,-4.7494774,-0.6441574,-3.0876184,134.38783,-48.143932,-41.779522,WAL
668217193000,3.820041,-9.58119689010471,5.29280849061409,1.84027183795868,-4.103182,-1.5833627,-2.7473664,134.9686,-46.5186,-43.268692,WAL
668222144000,3.824992,-8.63465761784371,5.55414956727957,1.44938948561429,-3.4593298,-2.420248,-2.3887885,136.01627,-44.80875,-44.747486,WAL
668227161000,3.830009,-7.94196411773924,5.7699890627873,0.751676286225449,-2.8359418,-2.9798007,-2.125811,137.37878,-43.207283,-46.047188,WAL
668232150000,3.834998,-7.43035252636282,6.48734942895442,-0.0444606920017873,-2.237294,-3.1816916,-1.990199,138.85187,-42.03643,-46.88513,WAL
668237144000,3.839992,-7.02669267838348,7.51312030175752,-0.904018813111905,-1.6588045,-3.492011,-1.9230038,140.61015,-40.954704,-47.57403,WAL
668242129000,3.844977,-6.70016318372549,8.81410599921569,-1.85420505309804,-1.3652838,-3.6184602,-1.7391334,142.17444,-40.145508,-48.015373,WAL
668247731000,3.850579,-6.38983902068627,10.4814413419608,-2.9903073492549,-0.79809546,-3.4455855,-1.4856243,143.7292,-39.43507,-48.384518,WAL
668252151000,3.854999,-6.22429970471919,11.9103227920701,-3.81562991280196,-0.27000242,-2.9712486,-1.1545353,144.96208,-39.04314,-48.520382,WAL
668257161000,3.860009,-6.08736804535725,13.6024047164407,-4.7056842688309,0.11759156,-2.3399193,-0.786489,146.00778,-38.77056,-48.592823,WAL
668262147000,3.864995,-5.92865775276433,15.0694667935835,-5.75766571452785,0.37690386,-1.5613716,-0.3811799,146.50711,-38.872505,-48.45882,WAL
668267216000,3.870064,-5.75234502502018,16.4163019346247,-6.93798297820823,0.4972443,-0.5830709,0.05955936,146.60725,-39.1049,-48.292885,WAL
668272138000,3.874986,-5.44879615588061,17.3066761701917,-7.19200588784345,0.36254853,0.48716503,0.4709771,146.12259,-39.65968,-47.940517,WAL
668277133000,3.879981,-5.06111425155169,17.9591155860842,-6.9130642152797,0.048258353,1.5598444,0.8384125,145.21716,-40.303207,-47.56298,WAL
668282255000,3.885103,-4.58091315759437,18.4269035914,-6.71453340966016,-0.42760566,2.483778,1.2932017,143.70914,-41.21719,-47.00118,WAL
668287151000,3.889999,-4.06989717170316,18.7474506731398,-6.57981084756762,-1.0082331,3.3790011,1.8277088,141.80867,-42.19741,-46.373222,WAL
668292159000,3.895007,-3.87739321363321,18.9184840039631,-5.96321358098682,-1.5515977,4.212221,2.4129176,139.68518,-43.376045,-45.503708,WAL
668297207000,3.900055,-3.92529144646785,18.9759615832755,-4.99087875423561,-2.0485365,4.788267,2.8008173,137.38232,-44.588455,-44.55702,WAL
668302145000,3.904993,-3.88004692907593,18.1896001695115,-3.72232261833431,-2.4263568,5.0607133,3.040887,135.00948,-45.958744,-43.40057,WAL
668307178000,3.910026,-3.76183995766137,16.7285618408868,-2.18090396189916,-2.6768115,4.9522843,3.1444287,132.65616,-47.35312,-42.172768,WAL
668312151000,3.914999,-3.6746307222976,15.199410109905,-0.794467773948439,-2.821892,4.5011606,3.154508,130.58632,-48.755863,-40.87024,WAL
668317813000,3.920661,-3.60596190435097,13.3698757837178,0.642673511696065,-2.8802297,3.801109,3.0445523,128.72475,-50.117706,-39.575848,WAL
668322155000,3.925003,-3.48249622243976,12.0367486054217,1.68172483027108,-2.8591547,2.8747318,2.81334,127.375374,-51.30589,-38.39583,WAL
668327169000,3.930017,-3.19323043950086,10.6420745163511,2.75097494724613,-2.802039,1.8414533,2.5274549,126.34297,-52.42052,-37.26432,WAL
668332153000,3.935001,-2.74812610435835,9.58464475302664,3.47005054116223,-2.769663,1.3075571,2.2406538,125.63799,-53.294235,-36.328068,WAL
668337146000,3.939994,-2.11133801613196,8.92373566918886,3.77397206346852,-2.7403414,0.27397305,2.1114557,125.46566,-54.101685,-35.404842,WAL
668342118000,3.944966,-1.45446741762541,8.50341789502325,4.01920686082913,-2.7406468,-0.60231316,1.8930714,125.54214,-54.67472,-34.65359,WAL
668347224000,3.950072,-0.752935784535471,8.35343527050559,4.20305660781636,-2.7073548,-1.2134838,1.6371188,125.86434,-55.16393,-33.93029,WAL
668352106000,3.954954,-0.142674866122449,8.25286202040816,4.14558476734694,-2.6493225,-1.6346754,1.3768903,126.45982,-55.558804,-33.21696,WAL
668357184000,3.960032,0.414739730274905,8.20301187503495,3.78757038807194,-2.5497515,-1.7846428,1.0189233,127.1601,-55.8161,-32.583897,WAL
668362087000,3.964935,0.983657102282844,8.1717322733898,3.30574308150483,-2.2977695,-1.6673567,0.64965516,127.952225,-56.04091,-31.927622,WAL
668367200000,3.970048,1.65396477058992,8.18137693022454,2.46183064854245,-2.02624,-1.2501358,0.27183503,128.69649,-56.138893,-31.37518,WAL
668372134000,3.974982,2.35326120327967,8.17795780831917,1.77174274880512,-1.59558,-0.5213735,-0.079107046,129.28609,-56.249817,-30.865234,WAL
668377163000,3.980011,3.21045483155684,8.13943222882712,1.41056566106389,-0.9810496,0.35827246,-0.34269542,129.70558,-56.316216,-30.47226,WAL
668382125000,3.984973,4.01908536278534,7.97544791713025,1.10546808065222,-0.34513888,1.2980887,-0.5018258,129.81483,-56.496643,-30.120962,WAL
668387562000,3.99041,4.79318003690773,7.41610233167082,0.925678370074813,0.27214047,2.2934935,-0.57726765,129.6398,-56.70005,-29.888899,WAL
668392157000,3.995005,5.31994316303446,6.93141391755367,0.985021131338625,0.8744536,3.3414328,-0.56779927,129.15431,-57.08212,-29.633955,WAL
668397154000,4.000002,5.34584345332852,6.35297172704312,1.95628609213422,1.4208726,4.207029,-0.5222898,128.41022,-57.519497,-29.443932,WAL
668402708000,4.005556,5.3578359918396,5.72539924443108,3.15896083461654,1.8127426,4.670981,-0.48899764,127.47416,-58.053303,-29.230968,WAL
668407173000,4.010021,5.1906522470777,5.3824582834787,5.42237058604511,1.9776763,4.533842,-0.47250426,126.44242,-58.62264,-29.013947,WAL
668412489000,4.015337,4.99679640870161,4.99706225923261,8.04580680130181,1.8414533,3.9840631,-0.47678033,125.53061,-59.069134,-28.825094,WAL
668417205000,4.020053,4.94264278588558,5.17499597793765,8.75367371599863,1.5916094,3.3249395,-0.47342056,124.688385,-59.52178,-28.605358,WAL
668422145000,4.024993,4.88591698081535,5.36138117098321,9.49516280815348,1.3200798,2.7519479,-0.46578476,124.3619,-59.642788,-28.475931,WAL
668427164000,4.030012,4.88142874719222,6.19041582870279,8.87669022248014,1.1285735,2.3548856,-0.42455134,124.18309,-59.749695,-28.316624,WAL
668432139000,4.034987,4.9069503062048,7.37291754261227,7.49001545906615,1.0629056,2.2088888,-0.4034765,124.104065,-59.830456,-28.149828,WAL
668437131000,4.039979,4.92825712743091,8.19641330437564,6.4999170812436,1.0668762,1.9694295,-0.2941316,124.246086,-59.878216,-27.913963,WAL
668442161000,4.045009,4.94304872538383,8.46266235069089,6.12519636809109,1.1377366,1.7321084,-0.13744467,124.4197,-59.929085,-27.659138,WAL
668447152000,4.05,4.95772563699079,8.72684704058342,5.75338104416581,1.2321151,1.5027285,0.014966198,124.390076,-60.356903,-27.166737,WAL
668452139000,4.054987,4.9723907858956,8.99082000161208,5.38186370887922,1.3197744,1.2840388,0.1957823,124.40925,-60.828835,-26.618492,WAL
668457156000,4.060004,4.92727787227097,9.23441401693532,4.75976105733524,1.3933836,1.0638218,0.364992,124.46555,-61.34397,-26.020735,WAL
668462164000,4.065012,4.81963320628443,9.45459639277698,3.87903078759437,1.475545,0.8051204,0.54000485,124.578125,-61.906017,-25.365246,WAL
668467206000,4.070054,4.74684906296118,9.48298329650323,3.334887445853,1.5268577,0.5140431,0.71959925,124.63596,-62.635307,-24.600056,WAL
668472165000,4.075013,4.70567550967152,9.34573827810423,3.09242110337154,1.5522085,0.2180789,0.92057395,124.753204,-63.408108,-23.775911,WAL
668477156000,4.080004,4.67293145540629,9.18325529713593,2.78504604231738,1.5384641,-0.07360926,1.1355985,124.82397,-64.3055,-22.889853,WAL
668482189000,4.085037,4.65044781092453,8.98989728808657,2.39833035289673,1.4874569,-0.31948254,1.350623,124.95444,-65.23873,-21.944868,WAL
668487125000,4.089973,4.63295267368233,8.79189693982567,2.00677312610052,1.4349225,-0.4999932,1.5790867,125.10632,-66.22126,-20.950687,WAL
668492164000,4.095012,4.62557312522173,8.57050958701193,1.57875749684575,1.3674219,-0.5897904,1.8255708,125.288025,-67.23865,-19.894499,WAL
668497150000,4.099998,4.61827119455602,8.35145077750025,1.15524371882149,1.312444,-0.61850107,2.0879374,125.44587,-68.31922,-18.790524,WAL
668502129000,4.104977,4.61097951529718,8.13269951144357,0.73232452492201,1.2574661,-0.5852089,2.3380868,125.598434,-69.43143,-17.631073,WAL
668507144000,4.109992,4.60461280809491,7.94353006287509,0.383199239299372,1.2333369,-0.47494772,2.5836546,125.72243,-70.58308,-16.414505,WAL
668512156000,4.115004,4.59982764968597,7.80476341695743,0.15830133790649,1.2012665,-0.33628133,2.8393016,125.81439,-71.76362,-15.141514,WAL
668517094000,4.119942,4.590049526739,7.68822753896532,-0.0166383331156753,1.1856894,-0.15088372,3.0934217,125.7774,-73.04609,-13.839092,WAL
668522193000,4.125041,4.57112612110056,7.60307157140089,-0.115986802545631,1.1505647,0.063224554,3.3579264,125.68665,-74.35633,-12.480837,WAL
668527094000,4.129942,4.56820316487847,7.5479011970376,-0.159917761575199,1.1184943,0.18081611,3.6166277,125.55016,-75.71019,-11.072882,WAL
668532152000,4.135,4.60039796880934,7.55250046160273,-0.086329475705469,1.0983357,0.39187005,3.7555995,125.32961,-77.05322,-9.649415,WAL
668537106000,4.139954,4.63748145240075,7.56303272280191,0.0237568920089379,1.0436633,0.5870415,4.0402627,125.06699,-78.42449,-8.132726,WAL
668542170000,4.145018,4.69796420110164,7.59831441392642,0.290888297047391,1.0067059,0.7266242,4.3499713,124.766106,-79.752945,-6.587836,WAL
668547112000,4.14996,4.62746361848542,7.57717060903104,0.573260642158984,0.9764681,0.7641924,4.670981,124.44399,-81.00433,-4.970156,WAL
668552139000,4.154987,4.2153302491063,7.40959984383819,0.917459923292568,0.96944314,0.71593404,4.9507575,124.10803,-82.11708,-3.2930892,WAL
668557199000,4.160047,3.8165403713845,7.27419973914385,1.25299206775935,0.9850202,0.50671273,5.093089,123.822586,-82.9311,-1.5680367,WAL
668562159000,4.165007,3.50511865136907,7.3062578278442,1.52777587647513,1.0806206,0.18387043,5.1529536,123.58387,-83.38342,0.19970658,WAL
668567136000,4.169984,3.20022351897508,7.35307933036894,1.78602011385049,1.2098186,-0.26267207,5.1648655,123.4504,-83.31731,1.899448,WAL
668572977000,4.175825,2.9441010434974,7.60427627472044,1.85497616098441,1.3723087,-0.79381937,5.108055,123.4359,-82.86696,3.5903602,WAL
668577094000,4.179942,2.76357438170291,7.78133120022893,1.90357949021749,1.5726726,-1.357648,5.004819,123.56382,-82.11764,5.197693,WAL
668582148000,4.184996,2.37656027676496,8.01080128719624,1.56464658735952,1.7971655,-1.8903224,4.8185053,123.840096,-81.20975,6.7594185,WAL
