timestamp,rel_time,acc_x,acc_y,acc_z,gyro_x,gyro_y,gyro_z,azimuth,pitch,roll,label
10054607789000,0,-9.61250811686144,1.65881807345576,0.891962042445743,-1.1753048,0.74464476,0.03634648,99.03585,-118.3928,-28.221645,STD
10054613219000,0.00543,-9.57530167398044,1.66501912568567,0.808247788778917,-1.1753048,0.7623598,0.03390302,99.053085,-118.40158,-28.230251,STD
10054617794000,0.010005,-9.54395370414977,1.67024376913904,0.737715061241951,-1.1869112,0.7644979,0.036651913,98.80989,-118.75967,-28.617437,STD
10054623127000,0.015338,-9.50696476166156,1.67650204766769,0.659117155240041,-1.1850786,0.7635816,0.03634648,98.55956,-119.13028,-29.013287,STD
10054627766000,0.019977,-9.46914830337079,1.68406533932584,0.636427256573034,-1.1768318,0.76144356,0.03145956,98.30679,-119.511185,-29.416506,STD
10054632761000,0.024972,-9.42842978447395,1.69220904310521,0.611996119724208,-1.1908818,0.77763146,0.028405234,98.020355,-119.903946,-29.827717,STD
10054637787000,0.029998,-9.4068262124559,1.7046613165823,0.624863517294064,-1.2012665,0.77091193,0.03481932,97.74112,-120.304306,-30.244139,STD
10054642827000,0.035038,-9.39572027596257,1.71946943807332,0.658181813842614,-1.2040154,0.7510588,0.03634648,97.45986,-120.71484,-30.668554,STD
10054647879000,0.04009,-9.3836743516188,1.73627597042057,0.690807418704959,-1.1847731,0.7309003,0.032375857,97.173134,-121.13513,-31.100584,STD
10054652696000,0.044907,-9.35886449596644,1.78093376240723,0.710655303226847,-1.1420126,0.7031059,0.026267206,96.8949,-121.56308,-31.538258,STD
10054657709000,0.04992,-9.34287263715783,1.81175671406523,0.73253925237915,-1.1160508,0.84329945,0.07513642,96.57211,-121.986984,-31.969828,STD
10054662657000,0.054868,-9.37507065928946,1.76575976601631,0.760137426011454,-1.2681563,0.82924956,0.076358154,96.30973,-122.43213,-32.42275,STD
10054667656000,0.059867,-9.41017340590406,1.7166396501025,0.787693353132431,-1.2608259,0.82894415,0.07360926,95.9972,-122.87547,-32.870407,STD
10054672711000,0.064922,-9.46971888099631,1.64220736581591,0.812504112834153,-1.2660183,0.8347474,0.07971791,95.686646,-123.32123,-33.319584,STD
10054677660000,0.069871,-9.53097844394018,1.56926769044869,0.825184897637958,-1.2776246,0.82802784,0.089491755,95.37973,-123.79259,-33.79251,STD
10054682657000,0.074868,-9.60995578411552,1.49522647913357,0.770887995595668,-1.2910637,0.84238315,0.10262536,95.06312,-55.733234,-34.26626,STD
10054687652000,0.079863,-9.66953293888376,1.46085763187269,0.744568735405135,-1.3133603,0.82863873,0.10751228,94.75649,-55.228584,-34.768284,STD
10054692647000,0.084858,-9.65482326291513,1.57853573081181,0.825472433225707,-1.3384057,0.77763146,0.108123146,94.4578,-54.721397,-35.270565,STD
10054697709000,0.08992,-9.63991627998155,1.6977922947417,0.90746132579182,-1.3377949,0.7107417,0.080634214,94.15205,-54.16938,-35.81536,STD
10054702687000,0.094898,-9.57264978342732,1.78779199258339,0.876908906542101,-1.280679,0.627664,0.06383542,93.870445,-53.61685,-36.358494,STD
10054707679000,0.09989,-9.47212751639109,1.86089900479786,0.776386758783332,-1.2067643,0.5699373,0.05009095,93.60429,-53.054195,-36.909702,STD
10054712679000,0.10489,-9.31998347693128,2.02184359136812,0.615426248023824,-1.1093313,0.47311515,0.04428773,93.39713,-52.46532,-37.481773,STD
10054717694000,0.109905,-9.11931660432039,2.26520550531603,0.397681394543515,-1.0595458,0.37904188,0.047647487,93.211205,-51.87331,-38.05404,STD
10054722709000,0.11492,-8.96923649387229,2.48722085222533,0.113888028484197,-0.9550878,0.18906279,0.03726278,93.07089,-51.249245,-38.65422,STD
10054728175000,0.120386,-8.95235371102989,2.66730022599441,-0.386957767271555,-0.65118235,-0.015271631,-0.0015271631,92.97398,-50.62255,-39.257565,STD
10054732671000,0.124882,-9.00040184609878,2.74456746921976,-0.716293054745884,-0.20830505,0.065973446,0.0018325958,92.788124,-49.990456,-39.869953,STD
10054737677000,0.129888,-9.13767190500051,2.73476253814296,-0.971222778005931,-0.15057829,0.16035213,-0.017104227,92.67788,-49.34118,-40.49288,STD
10054742657000,0.134868,-9.26699682564013,2.72565834811879,-1.12397033287755,-0.096516706,0.19456059,-0.026572637,92.47084,-48.673237,-41.149048,STD
10054747688000,0.139899,-9.38868726005922,2.71726588472392,-1.1533438452186,-0.013744468,0.21197024,-0.033292156,92.24062,-48.008366,-41.805412,STD
10054752662000,0.144873,-9.49579734038442,2.71245689432523,-1.18090809243364,0.10262536,0.2415972,-0.010079277,91.939674,-47.29722,-42.512676,STD
10054757848000,0.150059,-9.53115317095495,2.7276095287603,-1.20111160501373,0.18967366,0.31520647,0.01282817,91.62118,-46.59304,-43.21531,STD
10054762799000,0.15501,-9.57095022304758,2.71953236938366,-1.1917058774744,0.25228736,0.41538838,0.046120327,91.270424,-45.78796,-44.013435,STD
10054767828000,0.160039,-9.63379959777153,2.62767593266412,-1.07567672081911,0.32406402,0.5222898,0.070249505,90.89474,-45.00052,-44.7979,STD
10054772666000,0.164877,-9.70330570720012,2.54533628834303,-0.961610168809936,0.39553526,0.58093286,0.089491755,90.49448,-44.080357,-45.70372,STD
10054777654000,0.169865,-9.81219599772048,2.48525888262066,-0.833945519918252,0.46761733,0.58276546,0.09254608,90.0833,-43.18118,-46.591496,STD
10054783033000,0.175244,-9.92962199465493,2.4204721213174,-0.696273477739349,0.5369505,0.5476407,0.06536258,89.69905,-41.986366,-47.743534,STD
10054787807000,0.180018,-9.93845141649545,2.46568067640153,-0.444142358012915,0.58459806,0.56230146,0.039095376,89.312515,-40.824734,-48.864292,STD
10054792795000,0.185006,-9.90690454916349,2.55681631899031,-0.125167499148811,0.61117065,0.559858,0.03604105,88.96735,-39.69406,-49.953293,STD
10054798463000,0.190674,-9.87550865112878,2.65714505890686,0.215423446356823,0.61300325,0.4896085,0.05467244,88.722115,-38.302715,-51.26376,STD
10054802661000,0.194872,-9.89388147189471,2.70123979037565,0.263192814880724,0.5876524,0.34055737,0.058643065,88.55042,-36.95403,-52.525223,STD
10054807673000,0.199884,-9.91581681674436,2.75388457220547,0.320224752718216,0.5510005,0.26297748,0.06505715,88.56579,-35.31238,-54.004787,STD
10054812640000,0.204851,-10.0322747945863,2.7142543128138,0.23593731542458,0.52290064,0.1255328,0.054061573,88.73823,-33.739704,-55.394924,STD
10054817617000,0.209828,-10.1831422120716,2.64142182263698,0.100676676976643,0.46028697,0.018020526,0.014966198,88.991486,-32.228428,-56.70954,STD
10054822683000,0.214894,-10.1869506902437,2.55130152518252,-0.0414053663705319,0.3903429,-0.0571159,-0.029932396,89.36157,-30.78635,-57.937634,STD
10054827656000,0.219867,-10.1734037799374,2.46099053438893,-0.181387281865933,0.36346483,-0.06352998,-0.08368854,89.80806,-29.393831,-59.105553,STD
10054832653000,0.224864,-10.0778999498573,2.46525273269466,-0.21068975,0.3463606,0.0076358155,-0.111177474,90.27834,-28.031818,-60.24547,STD
10054837640000,0.229851,-9.96108105044843,2.49445748295964,-0.21068975,0.36071593,0.10873401,-0.101098195,90.78497,-26.726942,-61.327217,STD
10054842629000,0.23484,-9.92238480787109,2.56679487124264,-0.174008827601487,0.39187005,0.19364429,-0.06811147,91.26539,-25.488651,-62.36182,STD
10054847721000,0.239932,-9.89971775488069,2.64990863492408,-0.128674056520607,0.39492437,0.24007004,-0.04917465,91.75291,-24.302862,-63.34881,STD
10054852681000,0.244892,-9.87128625475536,2.73020071789995,-0.0638250170405718,0.40133846,0.26847526,-0.01740966,92.2333,-23.178032,-64.28084,STD
10054857692000,0.249903,-9.82379773227048,2.80934763095107,0.062809957891149,0.3998113,0.25778514,-0.006414085,92.74476,-22.102419,-65.16505,STD
10054862668000,0.254879,-9.78087572759365,2.85591316962149,0.176593391649343,0.38026363,0.24037547,0.008246681,93.25885,-21.095026,-65.9856,STD
10054867663000,0.259874,-9.74335004314571,2.86060390466758,0.275098896189449,0.35155296,0.20463985,0.016493361,93.8152,-20.133596,-66.75774,STD
10054872638000,0.264849,-9.720459,2.84654818441413,0.353985025063626,0.30909783,0.14630222,0.024740042,94.42565,-19.229324,-67.463,STD
10054877636000,0.269847,-9.720459,2.80269354556653,0.402712375555329,0.27122417,0.08735373,0.028710667,95.07601,-18.365253,-68.12347,STD
10054882614000,0.274825,-9.73706058006294,2.76251698644021,0.394063791140318,0.22876903,0.051618114,0.046120327,95.77832,-17.536665,-68.741684,STD
10054887629000,0.27984,-9.777068712699,2.72695407293595,0.305156567723066,0.17837265,0.05497787,0.046120327,96.51152,-16.738205,-69.32561,STD
10054892639000,0.28485,-9.80665,2.69829078257979,0.206257938244681,0.13897185,0.1160644,0.058643065,97.24734,-15.974516,-69.87692,STD
10054897664000,0.289875,-9.80665,2.68914884322758,0.0782700236360182,0.11362094,0.16462818,0.079107046,97.9906,-15.244524,-70.39452,STD
10054902726000,0.294937,-9.79605049658855,2.68395203859389,-0.043406712862652,0.115453534,0.21746802,0.09590584,98.67503,-14.542016,-70.90695,STD
10054907674000,0.299885,-9.73513720636804,2.69800894795807,-0.12774852132305,0.11942416,0.24831672,0.10293079,99.33659,-13.872809,-71.394714,STD
10054912689000,0.3049,-9.67378187751339,2.71561710105365,-0.201710807408025,0.13591751,0.2959642,0.1151481,99.89675,-13.243377,-71.87769,STD
10054917679000,0.30989,-9.61503797989288,2.75338109157081,-0.205906810735798,0.16615535,0.33108896,0.14935656,100.42212,-12.652131,-72.334885,STD
10054922710000,0.314921,-9.5558114169813,2.79145536738081,-0.210137290243217,0.20158553,0.36102137,0.17195857,100.876945,-12.094499,-72.78648,STD
10054927677000,0.319888,-9.49439108804402,2.77990883746873,-0.0909293604052026,0.22632557,0.36682457,0.1826487,101.30087,-11.570517,-73.215614,STD
10054932653000,0.324864,-9.4324093947974,2.76083763914957,0.0473369269784892,0.25625798,0.34330627,0.18875736,144.24965,-11.078943,-73.62231,STD
10054937700000,0.329911,-9.30833735823261,2.70050010804438,-0.00704550981176937,0.27550024,0.2968805,0.18417588,143.64352,-10.620289,-74.00136,STD
10054942647000,0.334858,-9.17691839677036,2.63479077434119,-0.0915290025708342,0.28955013,0.21655174,0.18387043,143.05646,-10.188264,-74.34994,STD
10054947756000,0.339967,-9.11403394284894,2.59447855562895,0.0602277129063757,0.29168814,0.13836098,0.17104226,142.48862,-9.770029,-74.66916,STD
10054952700000,0.344911,-9.06644155341758,2.56048390554279,0.250597689494543,0.2837469,0.050701816,0.17715092,141.93333,-9.377396,-74.950935,STD
10054957750000,0.349961,-9.02207624816613,2.52537991280091,0.418281551123463,0.28038713,-0.03970624,0.15790866,141.39919,-8.989449,-75.21757,STD
10054962703000,0.354914,-9.03187734425044,2.48617424914764,0.24675687575328,0.26083946,-0.13744467,0.14049901,140.86928,-8.620402,-75.44864,STD
10054967717000,0.359928,-9.04248660499881,2.44968094155659,0.0952726728890295,0.22968534,-0.21471913,0.116675265,140.357,-8.255394,-75.637764,STD
10054972771000,0.364982,-9.05780010907221,2.4343677972554,0.0914443752210709,0.19792034,-0.2932153,0.1255328,139.85025,-7.909951,-75.79035,STD
10054977684000,0.369895,-9.07268638637982,2.41948186968283,0.0877228820586886,0.15515977,-0.364992,0.14019357,139.35126,-7.567598,-75.94123,STD
10054982695000,0.374906,-9.1987300185961,2.34316004671503,0.0627928130788802,0.1301143,-0.40225476,0.1469131,138.85889,-7.2401757,-76.07195,STD
10054987704000,0.379915,-9.39968831439665,2.22552587990191,0.0235814311357924,0.099571034,-0.40958515,0.14538592,138.36307,-6.926494,-76.18341,STD
10054992695000,0.384906,-9.61872620280754,2.1410319164758,-0.154679407630033,0.07696902,-0.376293,0.14874569,137.87833,-6.6234465,-76.2949,STD
10054997755000,0.389966,-9.85144227595124,2.07390224045068,-0.414247317070373,0.0720821,-0.3032946,0.16920967,137.39908,-6.3381867,-76.40591,STD
10055002734000,0.394945,-10.0051417803783,2.0666242342631,-0.650705254965737,0.080634214,-0.25350907,0.20005837,136.9353,-6.0568542,-76.52439,WAL
10055007722000,0.399933,-10.0789091539909,2.12194996907634,-0.867397483630924,0.105374254,-0.15424347,0.21868975,136.4828,-5.7925014,-76.66683,WAL
10055012718000,0.404929,-10.1057293411594,2.18869179965217,-1.04120153887923,0.11728613,-0.050396383,0.27000242,136.0764,-5.5883846,-76.83034,WAL
10055017755000,0.409966,-10.0637828111594,2.27258456765217,-1.15305866021256,0.1441642,0.059864793,0.33078352,135.68419,-5.4046774,-77.013176,WAL
10055022728000,0.414939,-9.9816352159808,2.33149491259444,-1.222944045036,0.16157386,0.17165314,0.3830125,135.3516,-5.308371,-77.21405,WAL
10055027738000,0.419949,-9.81958480446183,2.34428846925607,-1.21441506663408,0.2003638,0.28160888,0.43218717,135.03125,-5.23603,-77.43262,WAL
10055032743000,0.424954,-9.6703917667757,2.35283805980771,-1.1983814046288,0.23182335,0.37048978,0.46822822,134.73424,-5.2214155,-77.65861,WAL
10055037713000,0.429924,-9.64680335563485,2.31981413642581,-1.10874534377044,0.2669481,0.44104472,0.5155703,134.4472,-5.228599,-77.8959,WAL
10055042757000,0.434968,-9.61893280804997,2.29016538570313,-1.01974532275147,0.30024028,0.4914411,0.5491679,134.16898,-5.2503834,-78.13696,WAL
10055047782000,0.439993,-9.54377718584511,2.30724628351672,-0.954838282040179,0.3323107,0.49571714,0.569021,133.89912,-5.285134,-78.37336,WAL
10055053741000,0.445952,-9.4546523395329,2.32750201885426,-0.877866927692198,0.3643811,0.47311515,0.5925393,133.62396,-5.313748,-78.602295,WAL
10055057733000,0.449944,-9.37545548790601,2.35480918521078,-0.812645337857637,0.39828414,0.45570546,0.63071835,133.35779,-5.356121,-78.82136,WAL
10055062750000,0.454961,-9.22366362434594,2.42596152838385,-0.694058019986178,0.41874814,0.4297437,0.6792821,133.09642,-5.410934,-79.020256,WAL
10055067775000,0.459986,-9.08752445651992,2.48897234733753,-0.567114819084277,0.4297437,0.37904188,0.72173727,132.8249,-5.465876,-79.191795,WAL
10055072801000,0.465012,-9.00276186213837,2.52529905308176,-0.413734929343396,0.41080686,0.30970868,0.7528914,132.55096,-5.533125,-79.33971,WAL
10055077811000,0.470022,-8.91826910490566,2.56151011471698,-0.260843316211321,0.37507126,0.1872302,0.75777835,132.239,-5.5906935,-79.44427,WAL
10055082770000,0.474981,-8.93281505602811,2.58166120298632,-0.186650343452293,0.3491095,0.07269296,0.74067414,131.92696,-5.653474,-79.527336,WAL
10055087724000,0.479935,-8.96352014589497,2.59920700134061,-0.125240484336169,0.30940324,-0.045814894,0.7290677,131.60352,-5.7196975,-79.57456,WAL
10055092751000,0.484962,-9.04515164715643,2.67410337290692,-0.243768656786846,0.27275133,-0.1414153,0.7125743,131.23581,-5.75165,-79.59685,WAL
10055097910000,0.490121,-9.15322176278473,2.77844704687736,-0.452456051422537,0.23671028,-0.21991149,0.71685034,130.86292,-5.78946,-79.59239,WAL
10055102834000,0.495045,-9.25303330619117,2.87263349343753,-0.646139599913652,0.1994475,-0.25503623,0.7144069,130.48701,-5.8278694,-79.57018,WAL
10055107760000,0.499971,-9.28969523452206,2.86448651640618,-0.735756900215871,0.15241088,-0.27152961,0.7199047,130.10416,-5.8718586,-79.53269,WAL
10055112717000,0.504928,-9.32658788144374,2.85628826932044,-0.825938174596321,0.13133603,-0.26389378,0.72326446,129.76025,-5.9731307,-79.49485,WAL
10055117755000,0.509966,-9.28662556587339,2.89663478290558,-0.889738825439415,0.07727446,-0.24678956,0.7244862,129.39745,-6.072804,-79.45557,WAL
10055123943000,0.516154,-9.19905607761705,2.97037718564318,-0.954263475960492,0.047647487,-0.17989981,0.7632761,129.03949,-6.1851816,-79.42329,WAL
10055127813000,0.520024,-9.12569061318428,3.02694160100279,-0.97092337211902,-0.015271631,-0.13958271,0.79229224,128.69206,-6.3185825,-79.38519,WAL
10055132819000,0.52503,-8.93654149958902,3.15304128438271,-0.872408040769357,-0.03756821,-0.11056661,0.86406887,128.35109,-6.475167,-79.34481,WAL
10055137723000,0.529934,-8.75124640309058,3.27657161744205,-0.775900013414434,-0.06994407,-0.11911872,0.9462303,128.00475,-6.666534,-79.28503,WAL
10055142753000,0.534964,-8.29728847016904,3.3164011724478,-0.354190250800464,-0.10293079,-0.18173242,1.0522153,127.65596,-6.882513,-79.19993,WAL
10055147819000,0.54003,-7.73043631736825,3.32042135493039,0.204621343932715,-0.13805555,-0.28985557,1.2525792,127.30254,-7.1451454,-79.06759,WAL
10055152771000,0.544982,-7.33021083467262,3.28768493875175,0.609518847997199,-0.18448131,-0.45937067,1.4553864,126.921425,-7.4533706,-78.85684,WAL
10055157836000,0.550047,-7.27925859285714,3.16879634495798,0.694439248067227,-0.20433442,-0.627664,1.6627752,126.54666,-7.815083,-78.58378,WAL
10055163119000,0.55533,-7.23631910568818,3.04196997048074,0.778121906750082,-0.24312437,-0.77946407,1.865277,126.1315,-8.203602,-78.19537,WAL
10055167776000,0.559987,-7.29873153118209,2.90245985192624,0.803821124991768,-0.27763826,-0.90316427,2.0451767,125.72386,-8.637246,-77.749504,WAL
10055172779000,0.56499,-7.36578099752223,2.75258458391505,0.831429711820876,-0.3118467,-1.0073168,2.2134702,125.33852,-9.108818,-77.24229,WAL
10055177767000,0.569978,-7.51152258789005,2.60859834770615,0.941740274430206,-0.36835176,-1.1071932,2.360994,124.95045,-9.612926,-76.691055,WAL
10055182770000,0.574981,-7.71305329392546,2.46799554888976,1.11046372109948,-0.42332962,-1.2168436,2.46759,124.56704,-10.140372,-76.10471,WAL
10055187756000,0.579967,-8.03063270341341,2.43257026788795,1.27629856172897,-0.5002986,-1.4004086,2.5396724,124.189926,-10.661984,-75.488785,WAL
10055192757000,0.584968,-8.44821917219182,2.48587909095631,1.44066771504499,-0.6078109,-1.604743,2.5702155,123.80209,-11.18522,-74.850624,WAL
10055197769000,0.58998,-8.89101528740418,2.61330086755938,1.41748349576985,-0.73823065,-1.7492126,2.5793786,74.60788,-11.686151,-74.19646,WAL
10055202796000,0.595007,-9.37394481522665,2.85932159105706,1.09401176852465,-0.8689558,-1.7776178,2.568383,74.05529,-12.170732,-73.54344,WAL
10055207731000,0.599942,-9.83978254482118,3.12563571062703,0.769761746143985,-0.9877691,-1.7614299,2.5506678,73.606674,-12.643551,-72.87462,WAL
10055212755000,0.604966,-10.2911993288435,3.46531565444496,0.421142853242917,-1.039998,-1.6707164,2.5185974,73.126396,-13.092435,-72.24116,WAL
10055217777000,0.609988,-10.7233456042475,3.79218829215179,0.0897717215631738,-1.1585059,-1.5537357,2.4602597,72.45312,-13.544164,-71.64553,WAL
10055222810000,0.615021,-11.0177976267069,4.02774998246371,-0.118076785518183,-1.2391402,-1.4486669,2.3634377,71.77359,-13.963455,-71.09788,WAL
10055227782000,0.619993,-11.3086808883139,4.2604566632169,-0.323406167041828,-1.2965615,-1.3671165,2.2272146,70.88661,-14.396188,-70.59241,WAL
10055232771000,0.624982,-11.454619965642,4.39378304544907,-0.420686785060277,-1.3243558,-1.3038919,2.0711386,70.02784,-14.78363,-70.14151,WAL
10055237750000,0.629961,-11.3157001633514,4.33150883070123,-0.305718918953185,-1.3203852,-1.2492194,1.885741,69.22603,-15.116102,-69.75104,WAL
10055242760000,0.634971,-11.1524069930604,4.20161310166551,-0.188309527261624,-1.2983941,-1.2483032,1.6826283,68.37233,-15.4436455,-69.38852,WAL
10055247895000,0.640106,-10.9391138459403,3.93712933197432,-0.06459941640805,-1.2696834,-1.2501358,1.4541647,67.60977,-15.708254,-69.08897,WAL
10055252860000,0.645071,-10.7280444890559,3.70984406344332,0.066405657309376,-1.2183707,-1.2363913,1.1927143,67.018486,-15.915723,-68.821144,WAL
10055257823000,0.650034,-10.4407855302189,3.93111109273113,0.376955746533812,-1.2403619,-1.2779301,0.93431836,66.57384,-16.055439,-68.597946,WAL
10055263156000,0.655367,-10.1321109327017,4.1688739513231,0.710657867394969,-1.3081679,-1.3716979,0.75900006,66.352325,-16.127268,-68.40274,WAL
10055267752000,0.659963,-9.80537419665343,4.47126178605594,1.03799942190822,-1.3768903,-1.491122,0.6789767,66.2358,-16.154346,-68.23343,WAL
10055272883000,0.665094,-9.40256489639145,4.86991850163103,1.4283508120071,-1.425454,-1.641395,0.6783658,66.21845,-16.154728,-68.063614,WAL
10055277751000,0.669962,-9.00511733768573,5.21646222197209,1.75349564106258,-1.4385877,-1.7525724,0.7315111,66.24805,-16.20486,-67.80087,WAL
10055282819000,0.67503,-8.53746575515533,5.46558511292211,1.93268935070689,-1.3897184,-1.7870862,0.8185594,66.27263,-16.265917,-67.52378,WAL
10055288077000,0.680288,-8.03598534269858,5.71987174688866,2.10821702593132,-1.2571607,-1.7027869,0.91629785,66.20638,-16.429993,-67.13271,WAL
10055292770000,0.684981,-7.37188107769684,5.89135406455775,2.12692417365245,-1.0800097,-1.4285084,0.9999864,65.99597,-16.618114,-66.76977,WAL
10055297769000,0.68998,-6.66447489386056,6.07401762859521,2.14685109277836,-0.83199847,-1.2363913,1.0552697,65.70896,-16.900507,-66.3228,WAL
10055302823000,0.695034,-6.007530599755,6.23158898520787,1.97213888686931,-0.5589417,-0.7993172,1.1023064,65.11103,-17.215195,-65.97499,WAL
10055307838000,0.700049,-5.73909628369956,6.20952590336115,0.515974448273486,-0.4166101,-0.3652974,1.1267409,64.40474,-17.543106,-65.66746,WAL
10055312797000,0.705008,-5.47365943956818,6.18770918892887,-0.923929729392849,-0.122478485,0.30115658,1.2147056,63.257317,-18.011337,-65.37287,WAL
10055317822000,0.710033,-5.35064285395095,6.29464133932788,-1.57604137247956,0.23243423,1.1450669,1.3979651,61.76144,-18.52495,-65.1673,WAL
10055322813000,0.715024,-5.3636667800545,6.52038952778383,-1.47619118168937,0.72295904,1.5861117,1.6841555,60.070873,-19.122633,-64.95617,WAL
10055327771000,0.719982,-5.46661058971088,6.70839710319992,-1.37594436364852,1.1893547,1.8234328,2.0341814,57.709232,-19.918089,-64.75068,WAL
10055332955000,0.725166,-5.7833162392633,6.82077639818911,-1.26867316751723,1.6053538,2.0277672,2.4061983,55.06094,-20.827642,-64.499825,WAL
10055337724000,0.729935,-6.12837564439593,6.75390699868996,-0.962266990356623,1.9468275,2.2204952,2.7931814,52.21055,-21.89128,-64.10641,WAL
10055342789000,0.735,-6.59123906789584,6.37734009985444,-0.264049142447032,2.2088888,2.3576343,3.130379,49.2902,-23.055208,-63.59345,WAL
10055347791000,0.740002,-7.04834525631571,6.00545705385735,0.425484060957464,2.3811526,2.4242187,3.399465,46.3815,-24.307434,-62.94523,WAL
10055352704000,0.744915,-7.17954802670277,5.94009777223495,0.904914493673193,2.4394903,2.4526238,3.6037996,43.5281,-25.623451,-62.176224,WAL
10055358171000,0.750382,-7.27711664029991,5.9071308022493,1.39642769165886,2.417194,2.460565,3.7534616,40.79963,-26.980846,-61.297565,WAL
10055362677000,0.754888,-7.25464815613871,5.8756746710403,1.53573267822555,2.334727,2.4251351,3.855476,38.51474,-28.203253,-60.426315,WAL
10055367896000,0.760107,-7.22760058058714,5.859184331559,1.67396311631583,2.2018638,2.4168882,3.9009855,36.4722,-29.40401,-59.497753,WAL
10055372759000,0.76497,-7.19003950437132,6.08455098495847,1.52371873301073,2.0503693,2.4061983,3.8664715,34.58618,-30.58062,-58.545376,WAL
10055377693000,0.769904,-7.15193003489798,6.31320800076619,1.37128077553028,1.779756,2.4947736,3.8386772,32.824398,-31.756067,-57.549988,WAL
10055382678000,0.774889,-7.03249628417035,6.66472127451327,1.4718471946792,1.4819591,2.6367998,3.9156463,31.144497,-32.92221,-56.53221,WAL
10055387659000,0.77987,-6.84780901400443,7.11324754141593,1.77790027661504,1.2211196,2.6929994,4.053091,29.560568,-34.069077,-55.5034,WAL
10055392668000,0.784879,-6.61371392323232,7.28264896858586,2.08283935373737,0.9624182,2.6477954,4.088521,28.005957,-35.244804,-54.423447,WAL
10055397751000,0.789962,-6.35892073002755,7.35416976584022,2.39127317988981,0.6582073,2.3127358,3.6166277,26.665184,-36.285915,-53.447174,WAL
10055402782000,0.794993,-6.20048709796906,8.05717624181837,2.09631184867936,0.44440445,1.8255708,3.1795535,25.4762,-37.40987,-52.365364,WAL
10055407695000,0.799906,-6.11136601210144,9.1860402275071,1.3882963322214,-0.062002823,1.4761559,2.2559254,24.462091,-38.226677,-51.56712,WAL
10055412675000,0.804886,-6.11389832410706,10.2583114246013,0.980153971951879,-0.59559363,1.3393221,1.6062702,23.629213,-39.025578,-50.768513,WAL
10055417707000,0.809918,-6.16333393473841,11.3054423275203,0.723988916023501,-1.0250319,1.2293663,1.2895365,22.971611,-39.631218,-50.14531,WAL
10055422711000,0.814922,-6.29763722923609,11.4840695963534,0.60333884,-1.2681563,1.0635164,1.1713341,22.25312,-40.264305,-49.493134,WAL
10055427735000,0.819946,-6.50939259069475,10.8840956510531,0.60333884,-1.3448198,0.8597928,0.98899084,21.6184,-40.765434,-48.962067,WAL
10055432706000,0.824917,-6.79183213000199,10.1676936326896,0.459187209058332,-1.2950343,0.59559363,0.68875057,20.984138,-41.347095,-48.351048,WAL
10055437711000,0.829922,-7.12104813637269,9.37089573949831,0.225396245719689,-1.1322387,0.31123585,0.376293,20.460371,-41.850597,-47.81161,WAL
10055442674000,0.834885,-7.31687342503241,8.87788781424496,0.0344745230823753,-0.88117313,0.14538592,0.09468412,20.071276,-42.16899,-47.455868,WAL
10055448480000,0.840691,-7.44664066164751,8.52703558535742,-0.157773519066471,-0.5858198,0.10903945,-0.050701816,19.753777,-42.431156,-47.15765,WAL
10055452716000,0.844927,-7.48696124399486,8.29830566002997,-0.238369401509313,-0.34238997,0.103847094,-0.099265605,19.561207,-42.51896,-47.043106,WAL
10055457713000,0.849924,-7.41524482633269,8.08827867972597,-0.202511224771997,-0.16187929,0.08735373,-0.0720821,19.391037,-42.592842,-46.949074,WAL
10055462709000,0.85492,-7.24749997650039,7.93044584413383,-0.164122558335809,-0.023823744,0.07513642,-0.03756821,19.238808,-42.616455,-46.919678,WAL
10055467763000,0.859974,-6.94729184668472,7.84165200466498,-0.121839704681576,0.083383106,0.07941248,-0.01863139,19.08661,-42.64863,-46.887215,WAL
10055472832000,0.865043,-6.61019175070125,7.77942699219981,-0.0698380113928915,0.15454891,0.09560041,-0.026572637,18.950367,-42.674984,-46.865143,WAL
10055477743000,0.869954,-6.09966504240154,7.85623182424592,0.0295565479010567,0.18051068,0.11911872,-0.044898596,18.8101,-42.7057,-46.84122,WAL
10055482822000,0.875033,-5.57288713190306,7.93402483810091,0.127820123778308,0.18936823,0.12095132,-0.0720821,18.664701,-42.75963,-46.795937,WAL
10055487723000,0.879934,-5.07872652586412,7.98996745545292,0.169777152508939,0.17562376,0.12095132,-0.089186326,18.512552,-42.81082,-46.754005,WAL
10055492887000,0.885098,-4.59508681415466,8.04629767964915,0.179833119340951,0.15057829,0.15454891,-0.08032878,18.321001,-42.933594,-46.640896,WAL
10055497798000,0.890009,-4.57237904094311,8.06900537382313,-0.213769252520319,0.109650314,0.17715092,-0.06291912,18.135645,-43.051296,-46.53126,WAL
10055502806000,0.895017,-4.54922275337571,8.09216158079182,-0.615145892365816,0.08307768,0.25625798,-0.05131268,17.883636,-43.238617,-46.35654,WAL
10055507765000,0.899976,-4.64318571576887,8.16019582031687,-0.876421527416589,0.046120327,0.38423425,-0.020158553,17.601416,-43.431927,-46.1763,WAL
10055512745000,0.904956,-4.8254217843616,8.26242598434296,-1.03643362894501,-0.0033597588,0.5180137,0.005192355,17.285906,-43.623154,-45.999325,WAL
10055518675000,0.910886,-5.0239641835751,8.18167879466542,-0.854337208550304,-0.06078109,0.643852,0.064751714,16.859486,-43.85074,-45.799168,WAL
10055522785000,0.914996,-5.1492110965372,7.99012471511465,-0.478596550440805,-0.1740966,0.6630942,0.09162979,16.428425,-44.07135,-45.602062,WAL
10055527790000,0.920001,-5.30989786912159,7.78301610332506,-0.297551147393548,-0.20647246,0.49938235,0.10354166,16.011738,-44.302223,-45.396088,WAL
10055532792000,0.925003,-5.490574776,7.64037644,-0.7967903116,-0.20830505,0.24801129,0.055588737,15.631213,-44.51922,-45.198208,WAL
10055537736000,0.929947,-5.61621107476742,7.57277583488389,-1.1686465389461,-0.1328632,0.226631,0.0290161,15.322323,-44.7022,-45.02947,WAL
10055542766000,0.934977,-5.59568498826788,7.70961641154747,-1.20627773325048,-0.08552113,0.2864958,0.087659165,15.082194,-44.892002,-44.848007,WAL
10055547779000,0.93999,-5.57522827422768,7.84599450514878,-1.243781744592,-0.03848451,0.30451632,0.22540927,14.825627,-45.062946,-44.693375,WAL
10055552824000,0.945035,-5.56182566203905,7.91772006203905,-1.1928698868402,-0.01038471,0.2669481,0.42302418,14.567262,-45.266754,-44.505856,WAL
10055557835000,0.950046,-5.55686870071274,7.91276310071274,-1.03920077300899,-0.00030543262,0.19914207,0.6414085,14.313046,-45.513847,-44.27454,WAL
10055562802000,0.955013,-5.53260986729789,7.88484796275309,-0.881333377264385,0.0061086523,0.110872045,0.8344419,14.058014,-45.83515,-43.96894,WAL
10055567837000,0.960048,-5.49046622053897,7.83568047265841,-0.716271203294975,0.009773844,0.015882496,1.0140363,13.8314705,-46.20847,-43.60888,WAL
10055572780000,0.964991,-5.44909262651129,7.78741137563001,-0.554225061104151,-0.017104227,-0.08155051,1.1869112,13.659042,-46.626503,-43.198906,WAL
10055577914000,0.970125,-5.50309005862304,7.90329472743208,-0.606743700296037,-0.040927973,-0.15118915,1.3634512,13.51012,-47.08703,-42.744766,WAL
10055582746000,0.974957,-5.57969718609407,8.05650851183173,-0.714894748647385,-0.099571034,-0.1957823,1.566564,13.384962,-47.59187,-42.243156,WAL
10055588314000,0.980525,-5.67382220967464,8.22303111360251,-0.700432090431987,-0.17989981,-0.20097467,1.7996091,13.293094,-48.141666,-41.692062,WAL
10055592753000,0.984964,-5.75047947642493,8.35301533500588,-0.650438245324971,-0.25259277,-0.18509217,2.05434,13.200762,-48.740166,-41.090603,WAL
10055597822000,0.990033,-5.83259579560586,8.47688791461385,-0.606873557145473,-0.33078352,-0.17654006,2.1905627,13.088501,-49.363674,-40.463852,WAL
10055602851000,0.995062,-5.88870965885486,8.4849043482024,-0.626914247703063,-0.39828414,-0.20677789,2.4898868,12.970866,-50.087803,-39.73443,WAL
10055607763000,0.999974,-5.94351802956059,8.49273427896139,-0.646488690339547,-0.48808134,-0.22204952,2.7925704,12.841344,-50.836155,-38.97733,WAL
10055612824000,1.005035,-5.87537455951719,8.27213636114119,-0.149260199275786,-0.5635232,-0.3136793,3.075401,12.738666,-51.642597,-38.158234,WAL
10055617728000,1.009939,-5.77230668569129,7.99041702291149,0.486325931463058,-0.6044512,-0.50885075,3.338684,12.664933,-52.50631,-37.277355,WAL
10055622876000,1.015087,-5.64137587689779,7.66365276990139,1.16520764663484,-0.63529986,-0.7849618,3.5750887,12.640304,-53.41088,-36.349575,WAL
10055627837000,1.020048,-5.09480746627015,6.77501451845359,2.03525511547973,-0.63132924,-1.1942415,3.758043,12.714418,-54.34918,-35.379185,WAL
10055632730000,1.024941,-4.5557308218031,5.89855675503209,2.89337691855533,-0.59223384,-1.7085901,3.8771617,12.954613,-55.269913,-34.401127,WAL
10055637815000,1.030026,-4.11913296515636,5.16425062810575,3.36687241742962,-0.4972443,-2.4932466,3.8444805,13.39592,-56.171207,-33.42232,WAL
10055642771000,1.034982,-3.82672479103174,4.63865621887234,3.3779764778523,-0.41386122,-3.2073479,3.7653735,13.948343,-57.062054,-32.436146,WAL
10055648295000,1.040506,-3.50082949664852,4.05461919185948,3.38650257777305,-0.30848694,-3.7501018,3.6960402,14.84148,-57.976048,-31.369654,WAL
10055652856000,1.045067,-3.23331101738687,3.68306587776455,3.1561394493195,-0.21074851,-4.1657953,3.6392298,15.884406,-58.84441,-30.313429,WAL
10055657959000,1.05017,-2.93400235707724,3.26735954980436,2.8984014435097,-0.11026118,-4.4556513,3.5760052,17.039156,-59.671806,-29.262913,WAL
10055662812000,1.055023,-2.64078309867036,2.83974877663435,2.55020677347645,-0.015271631,-4.667621,3.5005634,18.256557,-60.455444,-28.225475,WAL
10055667773000,1.059984,-2.33479425304709,2.37912023583795,2.11919018057479,0.07880162,-4.8295007,3.4101553,19.505798,-61.194187,-27.207418,WAL
10055672900000,1.065111,-2.01856671595568,1.90307860538781,1.67375134328255,0.16982053,-4.949536,3.3255503,20.761944,-61.915466,-26.192366,WAL
10055677828000,1.070039,-1.81809653772668,1.60034364630772,1.35870886922789,0.27122417,-5.021618,3.2394185,22.015398,-62.59307,-25.206852,WAL
10055682818000,1.075029,-1.66175052753786,1.36359118855861,1.09068714413909,0.35796702,-5.0546045,3.1456506,23.258581,-63.22594,-24.253475,WAL
10055687807000,1.080018,-1.53229570532749,1.17135214458026,0.872160861688192,0.45020768,-5.0503283,3.0595186,24.445965,-63.847507,-23.33939,WAL
10055692770000,1.084981,-1.42633317535363,1.01788911093173,0.69677453097786,0.5299256,-5.0384164,2.9691105,25.613838,-64.42843,-22.465887,WAL
10055698325000,1.090536,-1.30801126689242,0.847154495754103,0.499882353172701,0.56505036,-4.959004,2.8753426,26.685892,-64.95467,-21.681177,WAL
10055703885000,1.096096,-1.19705100779717,0.70383085591734,0.287208568298168,0.68325275,-4.922963,2.8344147,27.742352,-65.47134,-20.924519,WAL
10055707768000,1.099979,-1.11955843836068,0.603736306729183,0.13868117501259,0.7302894,-4.79743,2.7528641,28.613705,-65.85826,-20.356277,WAL
10055712807000,1.105018,-0.995354672040958,0.484416567834085,-0.135552874028115,0.8054258,-4.6520443,2.685058,29.451315,-66.241264,-19.819696,WAL
10055717776000,1.109987,-0.859084590098924,0.372922892650121,-0.453516333881465,0.9074403,-4.4700065,2.6083946,30.23093,-66.59667,-19.338053,WAL
10055722790000,1.115001,-0.752644673493976,0.344880437590361,-0.833874508433735,1.026559,-4.237572,2.5335636,31.165257,-67.13299,-18.643099,WAL
10055727796000,1.120007,-0.711056900269879,0.492748181871807,-1.33754898856867,1.1368202,-3.9907827,2.4556782,32.031357,-67.649376,-18.001886,WAL
10055732757000,1.124968,-0.677646071335247,0.651790673279224,-1.88267622503217,1.2788464,-3.6899316,2.3906212,33.000336,-68.36548,-17.165346,WAL
10055737820000,1.130031,-0.668047469256656,0.853361447225577,-2.58337472802138,1.4501941,-3.3017266,2.327702,33.87346,-69.083694,-16.37993,WAL
10055742769000,1.13498,-0.6607997,1.03471188819713,-3.18047236521308,1.6847663,-2.8319712,2.2782218,34.65043,-69.88573,-15.623964,WAL
10055747822000,1.140033,-0.6607997,1.16551183665195,-3.48567206283449,1.9929478,-2.3090706,2.235767,35.306984,-70.718025,-14.921034,WAL
10055753063000,1.145274,-0.654196422824616,1.38762600047256,-3.81288350359789,2.332589,-1.7635679,2.200642,35.83665,-71.65359,-14.274728,WAL
10055757840000,1.150051,-0.555928961557298,2.79776366794114,-4.26000034000644,2.6484063,-1.2690725,2.1719313,36.241997,-72.627266,-13.67614,WAL
10055762824000,1.155035,-0.409281187399724,4.47467763671575,-4.64522353966055,2.924212,-0.7684685,2.1087067,36.50722,-73.66082,-13.137413,WAL
10055767774000,1.159985,-0.0241806084485384,7.25634160784797,-4.58677077872634,3.1267138,-0.22602014,1.8005253,36.64212,-74.64942,-12.709514,WAL
10055773849000,1.16606,0.44844282935519,10.6702019360557,-4.51503329939798,3.3127222,0.25411993,1.352761,36.62553,-75.68181,-12.312075,WAL
10055777775000,1.169986,0.787447726313869,12.549907125,-4.33183605228102,3.3301318,0.62125,0.8729264,36.50274,-76.567154,-12.027953,WAL
10055782845000,1.175056,1.26984155246959,14.543473375,-3.91343332569951,3.11694,0.7779369,0.2828306,36.3202,-77.213135,-11.908052,WAL
10055787811000,1.180022,1.97418349702142,16.022648248563,-3.54744705147187,2.784629,0.57604593,-0.2660318,35.935863,-77.83205,-11.665771,WAL
10055792770000,1.184981,2.99167873562097,16.8581520742031,-3.24137119672531,2.3313673,0.42577308,-0.464563,35.49168,-78.26753,-11.48842,WAL
10055797825000,1.190036,3.98180232893025,17.6580136233285,-2.95388150394832,2.047315,0.012217305,-0.77182823,35.062355,-78.58612,-11.305988,WAL
10055802778000,1.194989,4.63322591890134,18.0908672482833,-2.83816813783881,1.3051136,-0.41508293,-0.97219205,34.687622,-78.79173,-11.159865,WAL
10055807763000,1.199974,5.28885818136971,18.5265174240152,-2.72170717881279,0.37690386,-0.66828656,-0.9896017,34.29705,-79.19177,-10.77815,WAL
10055812827000,1.205038,4.41693266401049,18.7947185157353,-2.89135237742586,-0.41538838,-0.7110472,-1.1337659,33.99199,-79.44309,-10.530532,WAL
10055817724000,1.209935,3.41407853338713,19.035972080694,-3.08530064577365,-0.84971356,-0.5858198,-1.4086553,33.731983,-79.60246,-10.363962,WAL
10055822943000,1.215154,2.27299423076604,15.7064398847206,-3.03843535118554,-1.0680978,-0.36651915,-1.724778,33.46132,-79.812836,-10.126847,WAL
10055827847000,1.220058,1.19446570713812,12.2644931644421,-2.97224403604709,-1.1517864,-0.08124508,-2.0167716,33.162395,-79.89127,-10.008101,WAL
10055833115000,1.225326,0.535277670481988,9.54148620107774,-2.83806634759006,-1.1911873,0.19242255,-2.2672265,32.900154,-79.74447,-10.112501,WAL
10055837824000,1.230035,0.31476453765692,7.82688413327013,-2.6715565117154,-1.1927143,0.4709771,-2.4791965,32.57268,-79.50475,-10.3086,WAL
10055843109000,1.23532,0.158943636286567,6.27111164535387,-2.50139934193548,-1.1691961,0.74128497,-2.6300802,32.3169,-78.96547,-10.820124,WAL
10055847826000,1.240037,0.089345103880597,5.16188490852191,-2.36220219354839,-1.1212431,1.01312,-2.740036,31.986227,-78.392296,-11.371526,WAL
10055852821000,1.245032,0.0775864071525905,4.19983211715502,-2.22836163550644,-1.0464121,1.2690725,-2.8099802,31.638332,-77.72852,-12.021801,WAL
10055857761000,1.249972,0.144739603149752,3.5187069907229,-2.1132418549123,-0.97097033,1.5137241,-2.82403,31.217676,-77.066605,-12.677776,WAL
10055862751000,1.254962,0.255699193671046,3.12372796787835,-1.98928039953212,-0.8765916,1.7455474,-2.7980683,30.757475,-76.363686,-13.383647,WAL
10055867766000,1.259977,0.419911190256433,3.08483559150621,-1.85531799040849,-0.7715228,1.9828686,-2.6957483,30.223307,-75.69517,-14.063452,WAL
10055872805000,1.265016,0.580022225795341,3.14087922252334,-1.70702997280885,-0.64599,2.1728477,-2.5213463,29.642744,-75.04937,-14.727339,WAL
10055877796000,1.270007,0.722986849070969,3.50045700047131,-1.51641050526602,-0.5308419,2.3331997,-2.288912,28.99724,-74.46345,-15.337344,WAL
10055882959000,1.27517,0.856733618377739,3.89294373134491,-1.31618440680913,-0.40683624,2.4587326,-2.0253236,28.321325,-73.98983,-15.835895,WAL
10055887749000,1.27996,0.777476998663272,4.55202525576066,-1.08675728417568,-0.28069258,2.511267,-1.765706,27.61678,-73.59611,-16.257809,WAL
10055892728000,1.284939,0.695093134454851,5.23711229335273,-0.848277609104301,-0.22571471,2.5711317,-1.6459764,26.93934,-73.35085,-16.523312,WAL
10055897907000,1.290118,0.541181233149705,6.26137845694867,-0.508648165494545,-0.12308934,2.5873199,-1.4141531,26.258636,-73.2283,-16.669407,WAL
10055903005000,1.295216,0.375266599753175,7.33545730252191,-0.154988051801109,-0.047647487,2.543643,-1.2067643,25.580648,-73.14368,-16.775703,WAL
10055907750000,1.299961,0.170642788685121,8.491637083391,0.259360803183391,0.0030543262,2.417194,-1.0149527,25.063166,-73.27172,-16.65869,WAL
10055913451000,1.305662,-0.112734589204152,9.99773541707036,0.820867833394848,0.019242255,2.189341,-0.75900006,24.586016,-73.4789,-16.461565,WAL
10055917760000,1.309971,-0.395914643459625,10.9730068373517,1.18847054686184,-0.01282817,1.8845193,-0.6795876,24.236673,-73.753914,-16.189169,WAL
10055922867000,1.315078,-0.788981533846154,11.9931090769231,1.57685809230769,-0.03970624,1.5555683,-0.5458081,23.951624,-74.10388,-15.840776,WAL
10055927765000,1.319976,-1.17096854423365,12.6966838662007,1.88053967775337,-0.10873401,1.1881329,-0.4361578,23.772587,-74.44305,-15.4952755,WAL
10055932818000,1.325029,-1.57201730858712,13.0397492663505,2.09797574204693,-0.18112154,0.79534656,-0.36987892,23.6883,-74.78525,-15.143632,WAL
10055937761000,1.329972,-1.88758213584207,13.0817758908081,2.155590935657,-0.2574797,0.43676865,-0.32406402,23.688059,-75.063126,-14.84867,WAL
10055942769000,1.33498,-2.09891836765665,12.7098243117123,1.99497536770071,-0.3323107,0.12858713,-0.3005457,23.77966,-75.32805,-14.560413,WAL
10055947782000,1.339993,-2.30231187857216,12.2916235876131,1.81615525202888,-0.36285394,-0.10751228,-0.2929099,23.951345,-75.5009,-14.356495,WAL
10055952839000,1.34505,-2.45991974046578,11.602089577545,1.53049122091935,-0.36926803,-0.27763826,-0.29565877,24.185205,-75.655716,-14.163657,WAL
10055957795000,1.350006,-2.60095702700641,10.8367778759536,1.18875055818737,-0.3481932,-0.3912592,-0.30634892,24.457731,-75.73707,-14.043748,WAL
10055962837000,1.355048,-2.68445467027769,9.6579861246567,0.564973181452548,-0.31764993,-0.44684792,-0.3313944,24.754614,-75.80003,-13.939318,WAL
10055967865000,1.360076,-2.79505355972886,8.71534456788257,0.0288649223349264,-0.2733622,-0.45723262,-0.35979962,25.034464,-75.78963,-13.916675,WAL
10055972849000,1.36506,-2.99523157154979,8.552409378182,-0.21786605082805,-0.21563543,-0.43310347,-0.40622538,25.315126,-75.76347,-13.911883,WAL
10055977880000,1.370091,-3.17201493040394,8.43468344092328,-0.458052391873995,-0.13775012,-0.36071593,-0.4541783,25.531641,-75.67581,-13.988757,WAL
10055983285000,1.375496,-3.24056813402706,8.53261640634755,-0.673505631633715,-0.053145275,-0.21899518,-0.4841107,25.718538,-75.58368,-14.0757675,WAL
10055987848000,1.380059,-3.29960497846708,8.61991663588503,-0.84909448345665,0.03848451,-0.12736541,-0.49327368,25.857647,-75.43526,-14.231716,WAL
10055992772000,1.384983,-3.38012214052362,8.78095063303927,-0.947504327433125,0.13713925,0.1282817,-0.4813618,25.90689,-75.29193,-14.392126,WAL
10055998282000,1.390493,-3.46824435347666,8.96277610299541,-1.04822751488711,0.19456059,0.59315014,-0.43066,25.83128,-75.14703,-14.56559,WAL
10056002851000,1.395062,-3.49973227230368,9.14776820149321,-0.934083726940721,0.34972036,0.7556403,-0.408058,25.771183,-75.01005,-14.738549,WAL
10056007797000,1.400008,-3.53381834070343,9.34802447620761,-0.810521640010794,0.39675698,0.9932669,-0.35308012,25.530798,-74.88065,-14.907278,WAL
10056012812000,1.405023,-3.5434184,9.47618282083108,-0.604126159357798,0.4822781,1.1670581,-0.28924468,25.264334,-74.77022,-15.061796,WAL
10056017767000,1.409978,-3.5434184,9.57434958014031,-0.369378943073394,0.52748215,1.2299771,-0.22876903,24.964031,-74.67473,-15.1965275,WAL
10056022821000,1.415032,-3.53005801968912,9.61578412629534,-0.133206928251295,0.56107974,1.2110404,-0.16126843,24.641983,-74.5947,-15.3108225,WAL
10056027785000,1.419996,-3.50366688245744,9.59819012666543,0.0955164172483346,0.5412266,1.1145236,-0.094989546,24.329731,-74.53208,-15.401134,WAL
10056032837000,1.425048,-3.47162726825345,9.53264506890556,0.295570581844365,0.5009095,0.96761054,-0.04337143,24.044369,-74.46727,-15.485515,WAL
10056037820000,1.430031,-3.43013508749049,9.37704884947289,0.430420266806869,0.46761733,0.786489,0.00030543262,23.803698,-74.4212,-15.546298,WAL
10056042748000,1.434959,-3.40346214920007,9.27555463304143,0.523478608544965,0.43066,0.5983425,0.03390302,23.617496,-74.37261,-15.603133,WAL
10056047816000,1.440027,-3.39120169446783,9.22651247271809,0.576607464779387,0.3717115,0.40225476,0.06963864,23.49156,-74.339005,-15.642083,WAL
10056052787000,1.444998,-3.38542356534884,9.18776501627907,0.624897770209302,0.32895094,0.19425514,0.099265605,23.420605,-74.29623,-15.688173,WAL
10056057772000,1.449983,-3.42579589996829,9.21804441215645,0.6450840007537,0.26358834,-0.004581489,0.11575896,23.407314,-74.260796,-15.72495,WAL
10056062758000,1.454969,-3.46268718658526,9.24889808663686,0.648059721798951,0.20647246,-0.19333886,0.12339478,23.445374,-74.218544,-15.767059,WAL
10056067758000,1.459969,-3.48739300823803,9.28183965512942,0.590412761613208,0.15027285,-0.3643811,0.12614368,23.537321,-74.17973,-15.8043165,WAL
10056072831000,1.465042,-3.51245953488692,9.31526217052197,0.531924155808754,0.10598512,-0.50518554,0.13439035,23.66836,-74.129974,-15.851359,WAL
10056077790000,1.470001,-3.54951141367211,9.38352700292398,0.444018935704779,0.045814894,-0.6221663,0.13958271,23.841707,-74.079346,-15.897475,WAL
10056082746000,1.474957,-3.58779553926195,9.45530930116959,0.353094294833636,0.005497787,-0.679893,0.13041973,24.037144,-74.0262,-15.944971,WAL
10056087761000,1.479972,-3.64211766714493,9.51270024401357,0.209258100097625,-0.0076358155,-0.75747293,0.12675454,24.258581,-73.96676,-15.997838,WAL
10056092717000,1.484928,-3.69733351296171,9.56791628201648,0.0620157422471159,-0.016798794,-0.81183994,0.12308934,24.487696,-73.90369,-16.05295,WAL
10056098749000,1.49096,-3.82379982540002,9.62299747750691,-0.310220490845187,-0.015882496,-0.84116143,0.10048734,24.721107,-73.831,-16.1176,WAL
10056102786000,1.494997,-3.91448626019938,9.65862433224428,-0.579040971728072,0.0033597588,-0.8503244,0.0842994,24.961773,-73.75899,-16.18116,WAL
10056107780000,1.499991,-3.97889523600973,9.7228358296837,-0.849236709002433,0.03970624,-0.84391034,0.064751714,25.18764,-73.671265,-16.262442,WAL
10056112815000,1.505026,-3.98867203811841,9.810826844485,-1.04966130536294,0.1133155,-0.79290307,0.054061573,25.400652,-73.58344,-16.345434,WAL
10056117754000,1.509965,-3.98689726157342,9.88547926649626,-1.21773863298305,0.17623462,-0.7244862,0.051923547,25.59514,-73.496765,-16.432415,WAL
10056122869000,1.51508,-3.97298492644135,9.95040340026508,-1.36149957461895,0.24923302,-0.6401868,0.069027774,25.76774,-73.41502,-16.517006,WAL
10056127796000,1.520007,-3.96062334853331,10.0053076639885,-1.47392890977791,0.3494149,-0.5540548,0.08979719,25.906397,-73.34723,-16.592478,WAL
10056132808000,1.525019,-3.94970871465171,10.0489663514743,-1.54669313565527,0.44073927,-0.45998153,0.113926366,26.016285,-73.28613,-16.66257,WAL
10056137725000,1.529936,-3.93900096229819,10.0917975099674,-1.61807815134541,0.5448918,-0.37507126,0.14263703,26.093523,-73.24679,-16.713713,WAL
10056142747000,1.534958,-3.88738170302148,10.1214677291591,-1.67607014572261,0.659429,-0.28588495,0.18661933,26.140997,-73.218285,-16.75432,WAL
10056147839000,1.54005,-3.81992358399709,10.1463204706225,-1.72932657108846,0.75625116,-0.20830505,0.22510384,26.16674,-73.19483,-16.788776,WAL
10056152934000,1.545145,-3.7518663456804,10.1649146374419,-1.78031138059785,0.8530733,-0.13316862,0.27550024,26.160791,-73.19318,-16.800093,WAL
10056157834000,1.550045,-3.66536960421542,9.94679277496394,-1.74270409657798,0.94897914,-0.06169739,0.31978795,26.133907,-73.19622,-16.802782,WAL
10056162825000,1.555036,-3.57726649469466,9.7246200778971,-1.70439839156916,1.0170907,-0.005497787,0.35430184,26.079897,-106.778305,-16.777721,WAL
10056168883000,1.561094,-3.51676999556084,9.46146920352755,-1.57967398117321,1.0671816,0.012217305,0.3662137,26.018118,-106.7543,-16.747454,WAL
10056172897000,1.565108,-3.49772457582243,9.2900600281411,-1.46159229924693,1.1050552,0.0027488936,0.35002577,25.949886,-106.73682,-16.716383,WAL
10056177815000,1.570026,-3.46221657775929,9.10430089369569,-1.32820520458495,1.1239921,-0.025961773,0.32589662,25.885859,-106.72402,-16.682882,WAL
10056182829000,1.57504,-3.41339070183028,8.94006852412646,-1.20392094608985,1.1194105,-0.056199603,0.30634892,25.827028,-106.72221,-16.65376,WAL
10056187721000,1.579932,-3.36523759279327,8.79357433140452,-1.10511111572856,1.1145236,-0.13530666,0.29749137,25.80367,-106.73978,-16.640331,WAL
10056192836000,1.585047,-3.31370109452168,8.67209586818968,-1.05357469433381,1.0965031,-0.21746802,0.29077184,25.79149,-106.76687,-16.632847,WAL
10056197772000,1.589983,-3.26396812180056,8.55486855745097,-1.0038417957992,1.0534371,-0.2996294,0.2770274,25.808126,-106.8043,-16.63672,WAL
10056202851000,1.595062,-3.1921380043028,8.44220362747724,-0.9864111,1.0085385,-0.36132678,0.25870144,25.843653,-106.84703,-16.645182,WAL
10056207757000,1.599968,-3.11244751899661,8.33734740305303,-0.9864111,0.9392053,-0.39920044,0.2406809,25.896648,-106.89283,-16.658888,WAL
10056212810000,1.605021,-3.00546680187573,8.27288318918523,-1.03370010479191,0.86162543,-0.39828414,0.2134974,25.960848,-106.94101,-16.677736,WAL
10056217750000,1.609961,-2.86681090504103,8.2694167193728,-1.14462493084701,0.7693848,-0.36102137,0.1994475,26.025108,-106.98731,-16.698545,WAL
10056222776000,1.614987,-2.72574116060961,8.2658899021102,-1.25748083686987,0.67011917,-0.24312437,0.1731803,26.060862,-107.03598,-16.72265,WAL
10056227844000,1.620055,-2.62980842768028,8.35601515940711,-1.3019920841866,0.57910025,-0.074830994,0.14630222,26.069927,-107.0843,-16.749584,WAL
10056232821000,1.625032,-2.55612606300809,8.48604307474766,-1.31499483046285,0.4831944,0.13194689,0.13683382,26.03234,-107.128784,-16.775988,WAL
10056238505000,1.630716,-2.4742851682219,8.64091874761205,-1.28551221539309,0.3735441,0.36041048,0.13225232,25.92125,-107.14401,-16.767733,WAL
10056242773000,1.634984,-2.41422086884644,8.7610471895665,-1.23670990110213,0.27947086,0.5839872,0.13988814,25.751198,-107.152954,-16.75416,WAL
10056247806000,1.640017,-2.34903412053446,8.89259457501172,-1.1560077258556,0.1881465,0.7684685,0.15699236,25.518274,-107.13222,-16.71246,WAL
10056252809000,1.64502,-2.296621303985,9.00116374058447,-1.02497576266604,0.0983493,0.89949906,0.17256944,25.237482,-107.10278,-16.664396,WAL
10056257733000,1.649944,-2.24503611336146,9.10801854195968,-0.896012863056728,0.015271631,0.95325524,0.1863139,24.928118,-107.03565,-16.583681,WAL
10056262760000,1.654971,-2.20316578633606,9.20841740341159,-0.752128370245318,-0.055588737,0.9401216,0.20677789,24.604013,-106.95643,-16.494276,WAL
10056267759000,1.65997,-2.16528046067001,9.30523616117119,-0.604796460300712,-0.124005646,0.86590147,0.22785273,24.286415,-106.86726,-16.400034,WAL
10056272818000,1.665029,-2.13783254020443,9.40323192738501,-0.472661115310903,-0.17012598,0.7675522,0.24190263,23.987913,-106.748665,-16.285542,WAL
10056277915000,1.670126,-2.12224066959114,9.50198033272998,-0.358320633128194,-0.19486602,0.65148777,0.26328292,23.720871,-106.62032,-16.165243,WAL
10056282797000,1.675008,-2.11925637824949,9.56075570979936,-0.302124722942716,-0.21471913,0.5919284,0.2828306,23.475338,-106.47842,-16.036348,WAL
10056287832000,1.680043,-2.12393013883881,9.59814559930212,-0.278755910235534,-0.22174409,0.46211955,0.30482176,23.287619,-106.33205,-15.906038,WAL
10056292812000,1.685023,-2.16341480576514,9.66346702307758,-0.325295005458571,-0.19883664,0.35033122,0.33200526,23.124035,-106.17272,-15.762997,WAL
10056297871000,1.690082,-2.23355301784893,9.75423434914417,-0.432565338376905,-0.16676621,0.2510656,0.36041048,22.996319,-106.01126,-15.6184435,WAL
10056302826000,1.695037,-2.30802294416612,9.825804,-0.527601853263019,-0.1160644,0.16798794,0.39461896,22.90462,-105.848045,-15.467387,WAL
10056308133000,1.700344,-2.41331824208494,9.825804,-0.585035642586873,-0.048258353,0.101098195,0.42302418,22.837423,-105.686195,-15.315152,WAL
10056312884000,1.705095,-2.5062963769371,9.82066123502113,-0.633354921915969,0.027183503,0.040317107,0.4538729,22.796879,-105.527824,-15.159053,WAL
10056317781000,1.709992,-2.5879115556062,9.7584782224248,-0.648900683181404,0.111177474,-0.0030543262,0.48349985,22.770409,-105.37129,-15.000474,WAL
10056322784000,1.714995,-2.67129336873291,9.69494920220436,-0.664782946528549,0.21074851,-0.05589417,0.49357912,22.766726,-105.24655,-14.865558,WAL
10056327847000,1.720058,-2.76431603590948,9.60588714018602,-0.661282686547128,0.301462,-0.13072516,0.50671273,22.781782,-105.12166,-14.726588,WAL
10056332823000,1.725034,-2.86027329815898,9.50536039361396,-0.64757447214498,0.3811799,-0.20708331,0.5137377,22.81169,-105.00568,-14.59167,WAL
10056337817000,1.730028,-2.94207270269215,9.43074388733342,-0.661796101346076,0.4636467,-0.29016098,0.5186246,22.877045,-104.91582,-14.476802,WAL
10056342760000,1.734971,-3.01216556050612,9.37658114281868,-0.696842530253062,0.5323691,-0.3640757,0.51343226,22.96048,-104.83554,-14.368155,WAL
10056347812000,1.740023,-3.08380406296944,9.32122403472877,-0.732661781484722,0.5897904,-0.44165558,0.51068336,23.078184,-104.786385,-14.286923,WAL
10056352825000,1.745036,-3.16980424644787,9.29047782329398,-0.77852901695017,0.6377433,-0.48380527,0.5002986,23.204998,-104.74882,-14.213809,WAL
10056357912000,1.750123,-3.26729705446268,9.27585409805883,-0.832150140254152,0.6640105,-0.49846604,0.4905248,23.344286,-104.71821,-14.146029,WAL
10056362809000,1.75502,-3.357885535388,9.31974577490369,-0.969091685525592,0.6942484,-0.45845437,0.4896085,23.487926,-104.71326,-14.098971,WAL
10056367772000,1.759983,-3.44757126494221,9.40195777820583,-1.16341075321959,0.70157874,-0.37873647,0.45662177,23.621044,-104.72291,-14.066368,WAL
10056372832000,1.765043,-3.53360899152442,9.48406290046709,-1.35381892713376,0.68691796,-0.24007004,0.4456262,23.733335,-104.7463,-14.041995,WAL
10056377922000,1.770133,-3.5294692113121,9.53787987031847,-1.41591563031847,0.6704246,-0.07727446,0.43401974,23.812733,-104.78088,-14.026698,WAL
10056382734000,1.774945,-3.52555553304459,9.58875752433121,-1.47462080433121,0.6337727,0.023823744,0.42485678,23.874517,-104.82499,-14.012874,WAL
10056387814000,1.780025,-3.53001548977136,9.62566453429603,-1.49973248977136,0.623388,0.24923302,0.41416663,23.851055,-104.874626,-13.996619,WAL
10056392778000,1.784989,-3.53818795585353,9.6542683362558,-1.50790495585353,0.56382865,0.47800204,0.40317106,23.796513,-104.919,-13.980621,WAL
10056397763000,1.789974,-3.54673513885643,9.67589177348913,-1.47499330142707,0.5170974,0.6994407,0.40317106,23.677105,-104.95988,-13.950775,WAL
10056402837000,1.795048,-3.55604328761613,9.68520001944258,-1.36795070841873,0.43096542,0.89827734,0.39828414,23.49815,-104.99439,-13.919025,WAL
10056407729000,1.79994,-3.56518467813363,9.68781020096183,-1.24584434585593,0.35155296,1.0619892,0.3912592,23.272608,-105.02055,-13.876381,WAL
10056412812000,1.805023,-3.57514658837614,9.67286702353423,-1.0665297794536,0.26725355,1.1682798,0.39095375,23.00844,-105.035,-13.827518,WAL
10056417719000,1.80993,-3.6060079145071,9.65532993715024,-0.904651615733965,0.1563815,1.2226468,0.37873647,22.720606,-105.03546,-13.781115,WAL
10056423901000,1.816112,-3.70285438668963,9.62474673422299,-0.7313472852613,0.05589417,1.2366967,0.3707952,22.417347,-105.02441,-13.729628,WAL
10056428062000,1.820273,-3.77635848440367,9.60530659252207,-0.610049378338238,-0.04550946,1.2321151,0.35796702,22.122297,-104.99676,-13.682024,WAL
10056432818000,1.825029,-3.99317536146789,9.60136480128094,-0.397174724729098,-0.15057829,1.1942415,0.32895094,21.83625,-104.961754,-13.640048,WAL
10056437726000,1.829937,-4.21692162568807,9.59729703185044,-0.177496675966765,-0.25167647,1.1417072,0.30115658,21.576908,-104.93076,-13.62164,WAL
10056442749000,1.83496,-4.3724125598709,9.57838887600861,-0.0936301622727273,-0.35246924,1.0781772,0.2782491,21.334843,-104.893196,-13.609578,WAL
10056447846000,1.840057,-4.49494820527165,9.55213114631522,-0.0761250563636364,-0.42638394,1.0173961,0.25503623,21.10995,-104.85434,-13.605082,WAL
10056452817000,1.845028,-4.59862969478121,9.50475711072173,-0.054384073567437,-0.5119051,0.96852684,0.23060162,20.94034,-104.84252,-13.656264,WAL
10056457819000,1.85003,-4.68483554996211,9.43216273129381,-0.0271611964424133,-0.5833763,0.9104946,0.20769419,20.793339,-104.8313,-13.712765,WAL
10056462721000,1.854932,-4.75516380476559,9.36837362121639,-0.00169141293150781,-0.63285637,0.8481864,0.18570304,20.680946,-104.84178,-13.795734,WAL
10056467773000,1.859984,-4.79943850714487,9.31728711157258,0.0221488089919048,-0.689056,0.7834347,0.16982053,20.58798,-104.85077,-13.881711,WAL
10056472825000,1.865036,-4.84371320952414,9.26620060192876,0.0459890309153175,-0.72051555,0.7131852,0.14782938,20.532434,-104.87785,-13.987328,WAL
10056477784000,1.869995,-4.89249568391185,9.20040153390712,0.0757793262271824,-0.7486154,0.6759224,0.11636983,20.48715,-104.909676,-14.097442,WAL
10056482961000,1.875172,-4.9487662415114,9.11599581991866,0.113293093315048,-0.76144356,0.57940567,0.08460484,20.480751,-104.94926,-14.213597,WAL
10056487741000,1.879952,-5.00947795684788,9.02788217583481,0.144413739077271,-0.75808376,0.46731192,0.070554934,20.499603,-105.004425,-14.34374,WAL
10056493732000,1.885943,-5.10203281823681,8.89830541821262,0.176807875328279,-0.7626653,0.2565634,0.022602014,20.57546,-105.078964,-14.492971,WAL
10056497815000,1.890026,-5.1651110187127,8.80999597047911,0.198885201035651,-0.75533485,0.18112154,0.0030543262,20.650595,-105.16678,-14.649056,WAL
10056502769000,1.89498,-5.171476,8.801085,0.20111294,-0.74036866,0.015577064,-0.03970624,20.813084,-105.27765,-14.827481,WAL
10056507889000,1.9001,-5.17624861199736,8.80612278510218,0.194749445524061,-0.70554936,-0.1386664,-0.08399397,20.994001,-105.39885,-15.008854,WAL
10056512815000,1.905026,-5.25621421301441,8.89053138854883,0.0881284462435258,-0.6563747,-0.27030787,-0.12980886,21.23435,-105.54926,-15.216569,WAL
10056517730000,1.909941,-5.33600124691591,8.97475150343724,-0.0182544631076373,-0.61636305,-0.3744604,-0.17073683,21.512493,-105.71328,-15.431999,WAL
10056522844000,1.915055,-5.37060861058347,9.17029763466345,-0.07458816182539,-0.5653558,-0.42241332,-0.23396139,21.81039,-105.9011,-15.66379,WAL
10056527846000,1.920057,-5.39950829821598,9.37259518943377,-0.124130370164613,-0.5039638,-0.44532076,-0.3051272,22.129332,-106.10588,-15.906422,WAL
10056532823000,1.925034,-5.40552802274846,9.66433961737833,-0.1436521,-0.4596761,-0.4279111,-0.3894266,22.446383,-106.336235,-16.169432,WAL
10056537821000,1.930032,-5.3966028230468,10.0168775500653,-0.1436521,-0.40530908,-0.36468655,-0.47525316,22.753614,-106.58854,-16.447882,WAL
10056542756000,1.934967,-5.35716520072397,10.4357866895075,-0.128524710319364,-0.34574974,-0.26206118,-0.56199604,23.034168,-106.85887,-16.73839,WAL
10056547817000,1.940028,-5.27809010757622,10.9547180042827,-0.093929265595595,-0.31764993,-0.1301143,-0.63255095,23.284716,-107.14552,-17.04161,WAL
10056552782000,1.944993,-5.15285149761431,11.4552196039761,-0.0256803106870775,-0.2843578,0.014049901,-0.7079928,23.490503,-107.4357,-17.34382,WAL
10056557825000,1.950036,-4.97522260039761,11.954500666004,0.0799368294145129,-0.27855456,0.18997909,-0.7678576,23.646181,-107.73511,-17.652824,WAL
10056562925000,1.955136,-4.72320593857494,12.4234708692875,0.264268112383292,-0.30604348,0.39492437,-0.81489426,23.73853,-108.00853,-17.933699,WAL
10056567777000,1.959988,-4.41266720933661,12.8344784246683,0.51543929555774,-0.37507126,0.6301075,-0.84635377,23.769297,-108.28614,-18.217478,WAL
10056572791000,1.965002,-4.03399357433509,13.2363153108765,0.877245625985719,-0.4642576,0.75136423,-0.8900307,23.749683,-108.52942,-18.46759,WAL
10056577766000,1.969977,-3.58530670095209,13.6061123174997,1.36537730403601,-0.6377433,0.9941832,-0.90102625,23.625427,-108.76159,-18.70672,WAL
10056582918000,1.975129,-3.1383169890123,13.886958709639,1.96136685323284,-0.7507534,1.2055426,-0.91507614,23.455156,-108.94427,-18.897242,WAL
10056587764000,1.979975,-2.73331787326458,14.0618443332011,2.60108123891313,-0.99112886,1.3637567,-0.929126,23.232466,-109.11956,-19.083563,WAL
10056592749000,1.98496,-2.29110222212348,14.1588969705966,3.25959213228704,-1.2953397,1.4517213,-0.95203346,22.935349,-109.25016,-19.227575,WAL
10056597810000,1.990021,-1.81453091060792,14.1680619884655,3.92862499112225,-1.6737708,1.4343116,-0.99082345,22.628279,-109.38552,-19.375715,WAL
10056602772000,1.994983,-1.37189868772361,14.1193109861411,4.4487732538333,-2.0879374,1.2718215,-1.0296134,22.334238,-109.497955,-19.497454,WAL
10056607771000,1.999982,-0.967219810713584,13.9734383579713,4.74522402651858,-2.4920247,0.96486163,-1.0662653,22.095737,-70.36792,-19.62707,WAL
10056612769000,2.00498,-0.613667630465841,13.8035594560144,4.89280983113484,-2.8099802,0.57940567,-1.1129965,21.941189,-70.23302,-19.730028,WAL
10056617741000,2.009952,-0.361707934069734,13.5875943429084,4.74883277585751,-3.0283644,0.18997909,-1.1753048,21.887932,-70.04815,-19.844011,WAL
10056622808000,2.015019,-0.12494256982585,13.3608859039026,4.5502690800042,-3.1728342,-0.17623462,-1.235475,21.941399,-69.83481,-19.932522,WAL
10056627788000,2.019999,0.0401699414414603,13.1157186021821,4.18001689473353,-3.211013,-0.45204028,-1.3029755,22.09299,-69.55625,-20.032925,WAL
10056633517000,2.025728,0.145377874527618,12.9125132450729,3.730214902943,-3.1899383,-0.65576386,-1.3542882,22.310387,-69.24595,-20.113106,WAL
10056637751000,2.029962,0.131043556205038,12.8480086386213,3.3718569261688,-3.1224377,-0.7825184,-1.3710871,22.594145,-68.89049,-20.192574,WAL
10056642896000,2.035107,0.102623551203898,12.768926647632,2.93306856360017,-3.009733,-0.8533788,-1.3820826,22.88819,-68.52282,-20.262758,WAL
10056647796000,2.040007,-0.0547154333937553,12.6853406773889,2.4758021449078,-2.8835895,-0.90194255,-1.3713925,23.216997,-68.140434,-20.322615,WAL
10056652787000,2.044998,-0.205515605671301,12.6046667063416,2.01892066015997,-2.7598891,-0.9807441,-1.3680327,23.530056,-67.769295,-20.379887,WAL
10056657808000,2.050019,-0.301667588336507,12.5497225659874,1.61141946517806,-2.6239717,-1.0598512,-1.3582588,23.857643,-67.407166,-20.425756,WAL
10056662863000,2.055074,-0.394616207953668,12.494079776834,1.20419289250965,-2.4941628,-1.1679744,-1.321607,24.189676,-67.08016,-20.466036,WAL
10056667743000,2.059954,-0.426193788262548,12.4354359312741,0.856839509111969,-2.3768766,-1.2748758,-1.2568552,24.540737,-66.77523,-20.48897,WAL
10056673163000,2.065374,-0.45944387620661,12.3686207576387,0.473360203905633,-2.2656991,-1.3933836,-1.1722504,24.886543,-66.52857,-20.49624,WAL
10056677770000,2.069981,-0.454858517902723,12.281498566826,0.189067783181251,-2.1600194,-1.4376713,-1.1178834,25.23459,-66.30507,-20.492474,WAL
10056683066000,2.075277,-0.450532329395111,12.1786030181467,-0.126464865633874,-2.107485,-1.5286902,-1.0070114,25.572145,-66.143616,-20.448286,WAL
10056687747000,2.079958,-0.454298522858943,12.0656172142317,-0.314774680399899,-2.0033326,-1.6084082,-0.88270026,25.907797,-66.01996,-20.385933,WAL
10056692721000,2.084932,-0.458300455413761,11.9455592375872,-0.514871458576829,-1.8894062,-1.6701056,-0.75625116,26.197956,-65.93533,-20.30151,WAL
10056697786000,2.089997,-0.487469448396991,11.7804923518519,-0.775577292905093,-1.788308,-1.7095064,-0.6377433,26.490747,-65.89019,-20.185448,WAL
10056702780000,2.094991,-0.528985575169753,11.595976382716,-1.0615772666358,-1.6832392,-1.6975945,-0.5235115,26.77129,-65.88893,-20.040468,WAL
10056707778000,2.099989,-0.610511007419865,11.2398857584092,-1.88610042819549,-1.5561792,-1.6227635,-0.42271876,26.999714,-65.92229,-19.882875,WAL
10056712756000,2.104967,-0.718988118322121,10.7682458674317,-3.07463254962406,-1.4443909,-1.4364496,-0.34574974,27.179636,-65.98695,-19.715311,WAL
10056717751000,2.109962,-0.814090043545235,10.4597563330231,-3.9067337846519,-1.319469,-1.1242975,-0.30451632,27.26194,-66.06817,-19.56096,WAL
10056722785000,2.114996,-0.899345383074274,10.2757838739762,-4.46762413560127,-1.2018774,-0.6966918,-0.2828306,27.249632,-66.17637,-19.416943,WAL
10056727770000,2.119981,-1.05016614958691,10.0976666448415,-5.00919127228132,-1.0845913,-0.19853121,-0.31642818,27.057816,-66.29693,-19.310637,WAL
10056732960000,2.125171,-1.30168720127543,9.91800945905195,-5.55329789058143,-0.95111716,0.37598756,-0.3484986,26.72343,-66.444824,-19.234005,WAL
10056737752000,2.129963,-1.53762321851408,9.78012827580611,-5.85554741921259,-0.8237518,1.029308,-0.4092797,26.191566,-66.60772,-19.223848,WAL
10056742752000,2.134963,-1.78763510731673,9.66525774733648,-5.96366055686869,-0.68752885,1.7397442,-0.4822781,25.48562,-66.78287,-19.264791,WAL
10056747824000,2.140035,-2.04124716731814,9.5487330832569,-6.07333052370705,-0.5519168,2.4468207,-0.56107974,24.569063,-66.95729,-19.389769,WAL
10056753025000,2.145236,-2.48654145708903,9.37695674093264,-5.93608169241639,-0.41996986,3.112053,-0.61636305,23.465092,-67.13669,-19.559048,WAL
10056757807000,2.150018,-2.9783715310975,9.19575610673575,-5.69879515836081,-0.28527406,3.7207801,-0.66614854,22.178265,-67.3133,-19.77109,WAL
10056762765000,2.154976,-3.58740690510663,8.94984720172178,-5.27774216249266,-0.16065755,4.2919393,-0.72051555,20.715473,-67.442856,-20.06276,WAL
10056767742000,2.159953,-4.28683607914302,8.65142439258462,-4.69954753767365,-0.07086037,4.5701885,-0.7834347,19.164019,-67.5593,-20.361422,WAL
10056772813000,2.165024,-5.04521411463053,8.3084916739539,-3.77685138639826,-0.020463986,5.07629,-0.82833326,17.425163,-67.56968,-20.757826,WAL
10056777774000,2.169985,-5.8347849675141,7.93250538994955,-2.52669774047878,-0.017715093,5.490457,-0.9642508,15.636472,-67.52995,-21.171043,WAL
10056783042000,2.175253,-6.4142562590552,7.67310727915519,-0.886800961993674,-0.10720685,5.7005944,-1.1313224,13.851213,-67.31166,-21.696268,WAL
10056787832000,2.180043,-6.69508201948781,7.57013767401286,0.901123694469952,-0.32803464,5.578116,-1.2819008,12.044808,-67.0419,-22.222696,WAL
10056792758000,2.184969,-6.70639092054367,7.57037279649187,2.59213884532097,-0.63163465,5.083926,-1.3710871,10.485002,-66.546,-22.876049,WAL
10056797800000,2.190011,-6.44032658548994,7.67679886389935,4.17522229177151,-0.93034774,4.2510114,-1.4034629,9.077853,-66.0194,-23.516615,WAL
10056802773000,2.194984,-5.89677256613188,7.87310263203915,5.44632773136531,-1.1902709,3.2000177,-1.3515394,8.276716,-65.40959,-24.123417,WAL
10056807817000,2.200028,-4.75365545071394,8.26447470872774,6.12444793062731,-1.3283265,2.05098,-1.2302825,7.7860327,-64.82066,-24.67806,WAL
10056812755000,2.204966,-3.6345610185304,8.64762207484358,6.78831738819188,-1.321607,0.91599244,-1.0928379,7.900237,-64.25019,-25.109179,WAL
10056817922000,2.210133,-2.99395259120624,8.81055098523312,6.29677358352414,-1.1667526,-0.12797627,-0.9447031,8.331847,-63.721313,-25.459774,WAL
10056822811000,2.215022,-2.48899733260328,8.91931075286212,5.60537334504729,-0.9089675,-1.0158689,-0.8304713,9.046705,-63.22947,-25.737501,WAL
10056827808000,2.220019,-1.96863057892791,8.97708581214126,4.721494499319,-0.5696318,-1.6603317,-0.73456544,9.799638,-62.901646,-25.821802,WAL
10056832840000,2.225051,-1.43885864251386,8.96302078713883,3.59162687219574,-0.22571471,-2.0402899,-0.6374379,10.723981,-62.620808,-25.838125,WAL
10056837779000,2.22999,-0.966572911913912,8.89221580784012,2.51792730338201,0.10048734,-2.2009475,-0.552833,11.636586,-62.511383,-25.71362,WAL
10056842847000,2.235058,-0.565532157955419,8.71967543620292,1.47801928032283,0.36132678,-2.2024746,-0.47494772,12.587443,-62.448048,-25.551733,WAL
10056847802000,2.240013,-0.234942196510726,8.52688429570965,0.577664191875247,0.56321776,-2.0955732,-0.40775254,13.445993,-62.560757,-25.268932,WAL
10056853771000,2.245982,-0.0177435871796089,8.22371092815642,-0.16443104092298,0.71593404,-1.9211712,-0.344528,14.2404785,-62.706005,-24.98259,WAL
10056857720000,2.249931,0.125951723299296,8.0231360197182,-0.65539000797277,0.8170323,-1.7174476,-0.30909783,14.79625,-62.952847,-24.68678,WAL
10056862760000,2.254971,0.248347641114165,7.70070557264065,-1.07495223357156,0.86620694,-1.5198327,-0.29138273,15.278592,-63.21463,-24.398478,WAL
10056867763000,2.259974,0.3493182842954,7.35828354846986,-1.42176443837456,0.8741482,-1.4337007,-0.2929099,15.715565,-63.479053,-24.121012,WAL
10056872816000,2.265027,0.400836038278094,7.01484861013924,-1.66338181955285,0.8735373,-1.2880094,-0.29840767,15.958914,-63.79886,-23.863768,WAL
10056877795000,2.270006,0.414863177048441,6.67819712341636,-1.82235604593057,0.84971356,-1.1707232,-0.32406402,16.183886,-64.106766,-23.619543,WAL
10056882751000,2.274962,0.433903741945572,6.39906767557645,-1.91875135224146,0.82772243,-1.067487,-0.33261612,16.334839,-64.426605,-23.392197,WAL
10056887749000,2.27996,0.457587495726868,6.16696678761999,-1.96138214070262,0.7867944,-0.98440933,-0.34269542,16.458054,-64.73113,-23.17937,WAL
10056892746000,2.284957,0.475705423088431,6.00315385031424,-1.98025170121271,0.7440339,-0.92057395,-0.33750305,16.550962,-65.01955,-22.991339,WAL
10056897815000,2.290026,0.48859685883863,5.90431965763477,-1.97595456044968,0.71837753,-0.8576548,-0.2947425,16.617987,-65.309944,-22.80032,WAL
10056902754000,2.294965,0.456196219635124,5.85854824105854,-1.93460713352045,0.7247916,-0.80970186,-0.24098633,16.668814,-65.58927,-22.62223,WAL
10056907758000,2.299969,0.288064513247795,5.96423095541299,-1.78088672141139,0.75686204,-0.7351763,-0.16737708,16.689905,-65.882645,-22.430948,WAL
10056912727000,2.304938,0.154999884700722,6.05424014113698,-1.64468153171568,0.77824235,-0.64812803,-0.09254608,16.69085,-66.179756,-22.234882,WAL
10056917740000,2.309951,0.123468335663431,6.09978589659199,-1.55709392598701,0.8078693,-0.57696223,-0.024740042,16.671963,-66.49556,-22.022913,WAL
10056923542000,2.315753,0.0869740114036343,6.15250013420419,-1.45572083832737,0.8570439,-0.49418998,0.031154128,16.633165,-66.79199,-21.82612,WAL
10056927777000,2.319988,0.0284935919121194,6.20292139832414,-1.3788234204578,0.9104946,-0.41080686,0.07269296,16.571629,-67.10143,-21.618067,WAL
10056932895000,2.325106,-0.066669689450235,6.27304155466994,-1.28366010457797,0.95203346,-0.32742378,0.112399206,16.48441,-67.423805,-21.398914,WAL
10056937750000,2.329961,-0.123320162189633,6.32441658254935,-1.21393668887659,0.98837996,-0.24831672,0.15821409,16.373363,-67.73801,-21.18375,WAL
10056942750000,2.334961,-0.155708058026809,6.36563745200762,-1.15799396613171,1.0091494,-0.17165314,0.20005837,16.238552,-68.058075,-20.962437,WAL
10056947799000,2.34001,-0.18841335524319,6.4072622859866,-1.10150300470393,1.0024298,-0.10415252,0.24312437,16.083504,-68.35873,-20.753405,WAL
10056952804000,2.345015,-0.204424175887366,6.46819503039773,-0.987838698871992,1.0082331,-0.03634648,0.28008172,15.906474,-68.66516,-20.53789,WAL
10056957786000,2.349997,-0.184491168078209,6.57184681420455,-0.748642567697193,0.98563105,0.016798794,0.31031954,15.715023,-68.972206,-20.314861,WAL
10056962726000,2.354937,-0.164726202486631,6.67462477727273,-0.511462943449198,0.9462303,0.028405234,0.36560285,15.515646,-69.26872,-20.091633,WAL
10056967746000,2.359957,-0.102188510106887,6.76947528903244,-0.334853555204945,0.91904676,0.046731193,0.3903429,15.3010645,-69.55818,-19.87151,WAL
10056972827000,2.365038,-0.0343479718983177,6.8644519252161,-0.162990862439818,0.9071349,0.050701816,0.44348818,15.087952,-69.86321,-19.629078,WAL
10056977767000,2.369978,-0.0229495915241868,7.09829868744787,0.148811914731026,0.8927795,0.03604105,0.5021312,14.86968,-70.13865,-19.394297,WAL
10056982737000,2.374948,-0.0279117189032527,7.37617775020851,0.506085116075897,0.90224797,0.027488936,0.5665775,14.648907,-70.42702,-19.144783,WAL
10056987776000,2.379987,-0.0966372222296919,7.76155911244498,1.09858507985594,0.9117164,-0.013133603,0.6414085,14.430883,-70.718834,-18.876223,WAL
10056993189000,2.3854,-0.183762019686275,8.19718322969188,1.78313710319328,0.9447031,-0.103847094,0.7180721,14.230055,-71.02763,-18.589952,WAL
10056997799000,2.39001,-0.332313202339227,8.60608583769634,2.56004234967895,1.001819,-0.24098633,0.79504114,14.030548,-71.30426,-18.312445,WAL
10057002794000,2.395005,-0.625293661689223,9.11643884816754,3.74614055268201,1.0396926,-0.4352415,0.8454375,13.873432,-71.59413,-18.019806,WAL
10057007761000,2.399972,-0.971193594405307,9.61373068195833,5.02438744096048,1.0656544,-0.6774496,0.8573494,13.75422,-71.80154,-17.766352,WAL
10057012752000,2.404963,-1.43564055399981,10.0915754478184,6.52044265207886,1.0421361,-0.9550878,0.83658,13.697767,-72.01508,-17.502419,WAL
10057017757000,2.409968,-1.9718000154564,10.5422493910761,8.08372158926801,0.94714653,-1.2767084,0.816116,13.848623,-72.232315,-17.199606,WAL
10057022860000,2.415071,-2.85543012805483,10.8652965249344,9.97925090580344,0.7296785,-1.6884315,0.7492262,14.095985,-72.413345,-16.91115,WAL
10057027783000,2.419994,-3.89723057987977,11.0945893260787,11.3594744405601,0.35918877,-2.0708332,0.61178154,14.583703,-72.49112,-16.652925,WAL
10057032764000,2.424975,-6.2857827270984,10.7461073312533,9.59528516617457,-0.057421334,-2.1930063,0.4071417,15.100813,-72.49125,-16.430737,WAL
10057037720000,2.429931,-8.66234655797884,10.3993743928164,7.83995048561753,-0.35430184,-1.9633209,0.15363261,15.788852,-72.1945,-16.387932,WAL
10057042747000,2.434958,-10.5022422412095,10.1457462614255,6.05559899701944,-0.41599923,-1.4633276,-0.13591751,16.420698,-71.79906,-16.40993,WAL
10057047813000,2.440024,-11.7471048409503,9.9948543025486,4.25327288194385,-0.22907446,-0.86651236,-0.40408736,16.949171,-71.330635,-16.501307,WAL
10057052815000,2.445026,-12.8968714196362,9.84600826537884,2.59547081872843,0.13133603,-0.3454443,-0.64476824,17.434834,-70.336945,-17.352358,WAL
10057057762000,2.449973,-13.692106540557,9.69940050609527,1.48036468184359,0.5919284,0.014966198,-0.8381071,17.804468,-69.38314,-18.233776,WAL
10057062877000,2.455088,-14.4703151173016,9.5475593568254,0.380776873498413,1.0177015,0.24098633,-0.98471475,18.156298,-68.39377,-19.356924,WAL
10057067748000,2.459959,-14.607299041627,9.39946858603175,0.0660837690730159,1.3316863,0.31795537,-1.0290025,18.439777,-67.459274,-20.457787,WAL
10057072982000,2.465193,-14.7544913758333,9.24034169333333,-0.272061110533333,1.4220943,0.42180246,-1.0586295,18.722525,-66.513214,-21.65439,WAL
10057077749000,2.46996,-14.6444014775036,9.02377072423803,-0.435932349317852,1.4666874,0.47250426,-1.0015136,18.965288,-65.62267,-22.787813,WAL
10057082802000,2.475013,-14.3127381540881,8.73112697484277,-0.482755398113208,1.3377949,0.5476407,-0.88056225,19.14118,-64.748344,-23.869146,WAL
10057087890000,2.480101,-13.9531033630513,8.42398860459966,-0.524237293885103,1.0711522,0.65057147,-0.73456544,19.27526,-63.891243,-24.91756,WAL
10057092780000,2.484991,-13.266113436873,7.96303987717206,-0.488779716911793,0.72173727,0.75319684,-0.59559363,19.355858,-63.0662,-25.895216,WAL
10057098312000,2.490523,-12.4633421069659,7.45664474054954,-0.450404942725232,0.38820487,0.8393288,-0.5170974,19.375074,-62.297157,-26.784824,WAL
10057102833000,2.495044,-11.2468774767802,7.37286630650155,-0.457107216749226,0.10445796,0.97066486,-0.49266282,19.326683,-61.5492,-27.625717,WAL
10057108739000,2.50095,-9.65775115386997,7.26342250391641,-0.465862720041796,-0.119729586,1.1279627,-0.50762904,19.208866,-60.87052,-28.373198,WAL
10057112730000,2.504941,-8.79193687780868,7.47098711081757,-0.424069303237857,-0.2660318,1.3451253,-0.54305923,19.019083,-60.195717,-29.105904,WAL
10057117776000,2.509987,-8.0528238874861,8.21457961888209,-0.289685085334631,-0.37690386,1.6218473,-0.5864306,18.749987,-59.520096,-29.832281,WAL
10057122788000,2.514999,-7.30093133905843,9.02520725260514,-0.0751175234304057,-0.45234573,1.9071213,-0.62980205,18.32843,-59.050907,-30.346529,WAL
10057127783000,2.519994,-6.47755150513584,10.1334322130629,0.476769574620395,-0.5009095,2.1670444,-0.63071835,17.82317,-58.586895,-30.856861,WAL
10057132882000,2.525093,-5.64741097239629,11.2393294632678,1.04288582117779,-0.48747048,2.3142629,-0.6105598,17.222942,-58.291164,-31.193834,WAL
10057137815000,2.530026,-4.99788731307016,11.9334555696583,1.63108099935682,-0.4279111,2.2635612,-0.52198434,16.605497,-58.02528,-31.500235,WAL
10057142740000,2.534951,-4.34941700652623,12.6264559900867,2.21832228306485,-0.32345316,1.971873,-0.39736784,16.043976,-58.012695,-31.527006,WAL
10057149813000,2.542024,-3.35893021141338,13.6257839329198,3.11347797175011,-0.1826487,1.46852,-0.24465153,15.577043,-58.044044,-31.506384,WAL
10057152848000,2.545059,-2.35444751659725,14.0945425740363,4.00463441202481,-0.022602014,0.8356637,-0.10415252,15.255584,-58.116474,-31.43816,WAL
10057157938000,2.550149,-0.669829092671688,14.8806979227293,5.49919331844927,0.12889257,0.12492194,0.010079277,15.094271,-58.432243,-31.098122,WAL
10057162757000,2.554968,0.348246715150584,15.1976832562999,6.38877781355255,0.22693644,-0.2519819,0.049785517,15.025215,-58.758564,-30.744696,WAL
10057167755000,2.559966,0.528438707544561,14.8777505860479,6.51380910401045,0.24709499,-1.0454959,0.08979719,15.315445,-59.105015,-30.341623,WAL
10057172784000,2.564995,0.709748337346343,14.5558335394899,6.63961589867087,0.25045475,-1.7739527,0.056505036,15.642483,-59.650513,-29.705204,WAL
10057178719000,2.57093,0.309505903606759,13.6772365102919,6.6654577,0.21594086,-2.5906794,-0.14813483,16.244577,-60.130955,-29.099222,WAL
10057182725000,2.574936,-0.048014474922683,13.0132698040963,6.6654577,0.08399397,-2.733622,-0.24190263,16.839712,-60.598907,-28.490677,WAL
10057187815000,2.580026,-0.632946304695401,12.2780391616564,5.60417360054748,0.008246681,-2.7827966,-0.42332962,17.668858,-60.954113,-27.95839,WAL
10057192721000,2.584932,-1.22223167651105,11.5905398843321,4.37415711297034,-0.17379116,-2.557082,-0.49418998,18.432835,-61.271564,-27.44098,WAL
10057197764000,2.589975,-1.05919398862593,10.4963902691691,2.1975514274052,-0.28405234,-2.2656991,-0.4089743,19.223194,-61.45767,-27.044561,WAL
10057202859000,2.59507,-0.724148203579767,9.30511652918288,-0.203609692607004,-0.19181168,-2.1997259,-0.1966986,19.993149,-61.64661,-26.636835,WAL
10057207748000,2.599959,-0.481470262409563,8.39886,-2.030283,0.058337633,-2.3109033,0.019547688,20.67469,-61.791183,-26.326818,WAL
10057212806000,2.605017,-0.542419623818811,8.39886,-2.030283,0.29626966,-2.4452937,0.21166481,21.31693,-61.98693,-25.971275,WAL
10057217714000,2.609925,-0.52944254903277,8.23828142306202,-2.24438773537703,0.4886922,-2.510656,0.36285394,21.79524,-62.33627,-25.593231,WAL
10057222859000,2.61507,-0.334122753591438,7.66534329660853,-3.00830511645525,0.61453044,-2.4767532,0.4550946,22.273142,-62.734665,-25.182676,WAL
10057227927000,2.620138,-0.141700697351803,7.14321576324098,-3.72520559414532,0.6899723,-2.3597724,0.5140431,22.740017,-63.16803,-24.754202,WAL
10057232820000,2.625031,0.0444628158086775,7.28038872904339,-3.87707582237324,0.7287622,-2.1862867,0.56138515,23.171598,-63.625725,-24.31677,WAL
10057237791000,2.630002,0.236486045045558,7.43148203200456,-4.00752274441913,0.73364913,-1.9520199,0.6059783,23.522966,-64.134834,-23.873346,WAL
10057242767000,2.634978,0.449712563561666,7.66796958957045,-3.96487746905304,0.7309003,-1.6685784,0.6921103,23.803791,-64.66659,-23.422556,WAL
10057247779000,2.63999,0.664481717661894,7.90616806998048,-3.92192366677514,0.72143185,-1.3487904,0.8155051,23.978966,-65.253914,-22.935175,WAL
10057252869000,2.64508,0.867969891262694,8.18910743830236,-3.80475766131443,0.7012733,-0.9978484,0.9636399,24.057934,-65.86372,-22.437153,WAL
10057257835000,2.650046,1.05933354516191,8.48526563381874,-3.65440052167082,0.6579019,-0.6389651,1.1053606,24.03785,-66.49512,-21.92622,WAL
10057262807000,2.655018,1.1565538054223,8.74110106920568,-3.50673361213563,0.59528816,-0.46578476,1.1756102,23.951038,-67.18471,-21.354078,WAL
10057267776000,2.659987,1.18565515554121,8.96744447203914,-3.36122692906842,0.5540548,-0.14874569,1.2846496,23.713083,-67.91232,-20.756832,WAL
10057272855000,2.665066,1.21540072955086,9.19879849558334,-3.2124991280424,0.46975538,0.11026118,1.3674219,23.43519,-68.66788,-20.113564,WAL
10057277957000,2.670168,1.06213357912501,9.53491587023656,-3.02498085421162,0.40225476,0.32895094,1.393689,23.082724,-69.425575,-19.47117,WAL
10057282823000,2.675034,0.822280188646937,9.9085339294269,-2.82664051720281,0.33383787,0.47952923,1.3518448,22.683352,-70.16948,-18.836607,WAL
10057287807000,2.680018,0.313736871639861,10.3650042601559,-2.55123683871663,0.301462,0.5479461,1.2284501,22.248463,-70.89234,-18.211472,WAL
10057292762000,2.684973,-0.355059615493285,10.8646343853424,-2.23257500473388,0.2874121,0.5155703,1.0418307,21.811598,-71.57096,-17.624512,WAL
10057297930000,2.690141,-0.946605701909608,11.2956334293126,-1.95664109445276,0.31429017,0.43035457,0.84879726,21.38225,-72.16504,-17.11298,WAL
10057302880000,2.695091,-1.14998029664172,11.399686153048,-1.88569647757159,0.36071593,0.32589662,0.72295904,20.978535,-72.71563,-16.640816,WAL
10057307796000,2.700007,-1.34863277515583,11.4819012279608,-1.80844736438112,0.42394048,0.22693644,0.66645396,20.6161,-73.08542,-16.335749,WAL
10057312815000,2.705026,-1.53767235242654,11.4783343711042,-1.70144385607747,0.5186246,0.12217305,0.6444628,20.29297,-73.427155,-16.05828,WAL
10057318152000,2.710363,-1.73868933268032,11.4745415209261,-1.5876606873553,0.62796944,-0.0067195175,0.6365216,20.019283,-73.723206,-15.8228855,WAL
10057322793000,2.715004,-1.92806659564743,11.4383035145843,-1.48762932952294,0.73364913,-0.15760323,0.6310238,19.78711,-74.01157,-15.593955,WAL
10057327784000,2.719995,-2.14523074268969,11.3688109258519,-1.3790472106497,0.8368854,-0.31978795,0.6258314,19.59975,-74.29549,-15.368379,WAL
10057332821000,2.725032,-2.37492405838802,11.2795277155005,-1.29573609525834,0.9401216,-0.47861293,0.6230826,19.47416,-74.53133,-15.184999,WAL
10057337791000,2.730002,-2.62568796022738,11.1475464002218,-1.2737392400037,1.0219775,-0.6374379,0.6038403,19.398819,-74.75662,-15.008803,WAL
10057342766000,2.734977,-2.88413879813765,11.0059296358974,-1.25400854609986,1.0946705,-0.7715228,0.5891795,19.381174,-74.93598,-14.872645,WAL
10057347791000,2.740002,-3.19586958963563,10.7981093794872,-1.24967895365722,1.1386528,-0.9166033,0.56230146,19.414894,-75.10052,-14.746513,WAL
10057352782000,2.744993,-3.50549115786775,10.5916952700855,-1.24537865596941,1.1429288,-1.0543534,0.5140431,19.51473,-75.21017,-14.6705065,WAL
10057357836000,2.750047,-3.86561411583494,10.3988166532488,-1.32185902570536,1.1285735,-1.0946705,0.44593164,19.628756,-75.2996,-14.610279,WAL
10057362773000,2.754984,-4.22192495130962,10.211970645437,-1.4044188600772,1.0873401,-1.0656544,0.41263947,19.762203,-75.377304,-14.55599,WAL
10057367777000,2.759988,-4.72418345674905,10.1831860270913,-1.97624971499525,1.0552697,-0.72021013,0.37751472,19.84828,-75.37953,-14.574655,WAL
10057372853000,2.765064,-5.28639307842205,10.2139918464829,-2.73869824836027,0.95386606,0.07574729,0.39858958,19.791374,-75.38126,-14.589706,WAL
10057377738000,2.769949,-5.7008487958821,10.252048083225,-3.19626865400954,0.83658,1.2247849,0.46395215,19.573027,-75.334236,-14.652182,WAL
10057382826000,2.775037,-5.61636340498483,10.3259729518856,-2.5467893135674,0.66645396,2.35794,0.5842926,19.125965,-75.30522,-14.690979,WAL
10057387898000,2.780109,-5.52523765791733,10.331406107522,-1.91882699166027,0.49357912,3.0692923,0.6713409,18.512877,-104.78913,-14.788437,WAL
10057392778000,2.784989,-5.42670791889165,10.2293571172351,-1.34524251362397,0.32375857,3.2895093,0.6789767,17.714924,-104.87691,-14.864293,WAL
10057397824000,2.790035,-5.32482655349748,10.1238367883443,-0.752146760310218,0.18845193,3.1731396,0.61300325,16.823658,-104.94662,-14.915256,WAL
10057402769000,2.79498,-5.16928404294127,9.92319793292982,-0.29224694009488,0.06841691,2.840829,0.50243664,15.940542,-105.0205,-14.966549,WAL
10057407982000,2.800193,-4.98144663962866,9.67002632381809,0.140595596141011,-0.013133603,2.4226916,0.3885103,15.125931,-105.10686,-15.029471,WAL
10057412751000,2.804962,-4.78308925336711,9.43209717049524,0.451172238551839,-0.06811147,2.0158553,0.29718593,14.43347,-105.18033,-15.097906,WAL
10057417744000,2.809955,-4.49908589571142,9.16479962590619,0.530526154581186,-0.08277224,1.6743816,0.2406809,13.855482,-105.267494,-15.183957,WAL
10057423400000,2.815611,-4.16345301817551,8.84063200520291,0.610563791536594,-0.05681047,1.4291192,0.2275473,13.392315,-105.324295,-15.253428,WAL
10057427786000,2.819997,-3.78464588961152,8.40718932049948,0.58870953865418,0.004886922,1.2797627,0.23487769,13.01227,-105.38812,-15.329194,WAL
10057432739000,2.82495,-3.35686848245751,7.91771334755463,0.564030077977801,0.10567969,1.1976013,0.24709499,12.697013,-105.40275,-15.355422,WAL
10057437829000,2.83004,-3.13422286897881,7.67362947624553,0.679787221056978,0.2275473,1.1276573,0.26145032,12.4301195,-105.41559,-15.377014,WAL
10057442767000,2.834978,-3.02574893179191,7.5651554031379,0.862023343104872,0.36774087,1.0479393,0.23671028,12.197019,-105.43729,-15.40437,WAL
10057447825000,2.840036,-2.92388590860971,7.50430999983459,1.03385635982963,0.50579643,0.92485,0.22602014,11.985522,-105.39928,-15.368546,WAL
10057452893000,2.845104,-2.83156016036722,7.49628176137623,1.19040877021752,0.63041294,0.7657196,0.21655174,11.812917,-105.369736,-15.339258,WAL
10057457927000,2.850138,-2.74142411757426,7.49450724570957,1.33787679933993,0.7305948,0.5861252,0.21074851,11.691643,-105.32874,-15.298143,WAL
10057462823000,2.855034,-2.66834970173267,7.55038780544554,1.40665276237624,0.80756384,0.47647488,0.21685717,11.599285,-105.28952,-15.2573185,WAL
10057467757000,2.859968,-2.59470812334984,7.6067020786762,1.47596252577924,0.8347474,0.27885997,0.2434298,11.586659,-105.23332,-15.200759,WAL
10057472881000,2.865092,-2.55954254240173,7.71460069185313,1.4394987022203,0.8713993,0.0983493,0.2883284,11.602097,-105.17359,-15.13947,WAL
10057477826000,2.870037,-2.53090302486393,7.82506682256587,1.39040260615119,0.8536842,-0.063224554,0.32834008,11.669967,-105.1097,-15.0753975,WAL
10057482797000,2.875008,-2.47413805727051,7.93062277741674,1.27757406872461,0.83108217,-0.18845193,0.3662137,11.774672,-105.023186,-14.988805,WAL
10057487817000,2.880028,-2.39603000751422,8.03313976157595,1.11647600901706,0.7852673,-0.27030787,0.3943135,11.91166,-104.93145,-14.898301,WAL
10057492750000,2.884961,-2.35456892007285,8.13593681844325,0.928070832971626,0.73945236,-0.30970868,0.41233405,12.056262,-104.83179,-14.799723,WAL
10057497875000,2.890086,-2.33574938163344,8.2441484029908,0.711647093995399,0.6872234,-0.32284227,0.42332962,12.213536,-104.73008,-14.700197,WAL
10057503785000,2.895996,-2.31354193174714,8.40930156236934,0.476695213503235,0.6356053,-0.31306845,0.4269948,12.353474,-104.61742,-14.588841,WAL
10057507775000,2.899986,-2.29832579167745,8.53863873310105,0.324534098799403,0.57635134,-0.29901853,0.44868052,12.492276,-104.50042,-14.474085,WAL
10057512809000,2.90502,-2.30665410171195,8.73480874874335,0.108821321982953,0.52687126,-0.27550024,0.47342056,12.608254,-104.379555,-14.353914,WAL
10057517768000,2.909979,-2.34125124600423,8.95968948218839,-0.126438688415531,0.47067168,-0.22602014,0.50854534,12.70917,-104.25315,-14.229048,WAL
10057522772000,2.914983,-2.37616233897428,9.18661087564654,-0.363833544643404,0.42302418,-0.160963,0.52870387,12.782237,-104.119995,-14.095897,WAL
10057527883000,2.920094,-2.46269097032464,9.31968435849432,-0.547771975323641,0.3912592,-0.09010262,0.5626069,12.836372,-103.976944,-13.953221,WAL
10057532732000,2.924943,-2.55980279436367,9.4167966654053,-0.705000583031269,0.36010507,0.01038471,0.59620446,12.86018,-103.831985,-13.808956,WAL
10057537933000,2.930144,-2.78465042090193,9.45038223192556,-0.819670439942734,0.3436117,0.12614368,0.61269784,12.843311,-103.68109,-13.655838,WAL
10057542715000,2.934926,-3.02817300071582,9.4597481840679,-0.908649845986297,0.35521814,0.24923302,0.6044512,12.793531,-103.53201,-13.504016,WAL
10057547827000,2.940038,-3.20833420935124,9.43073461029769,-0.922720142785148,0.35735616,0.36926803,0.59986967,12.709314,-103.39826,-13.364722,WAL
10057552802000,2.945013,-3.36249884290568,9.39219365313056,-0.915011915131856,0.36377025,0.4269948,0.59986967,12.6076145,-103.26914,-13.229032,WAL
10057557778000,2.949989,-3.52269766380114,9.31820861910927,-0.874663515142413,0.3662137,0.55680364,0.6084218,12.46955,-103.18338,-13.133614,WAL
10057562815000,2.955026,-3.69756498340756,9.1683222631797,-0.764746961945106,0.36743546,0.68477994,0.6081163,12.316183,-103.10229,-13.041576,WAL
10057567743000,2.959954,-3.84510671280938,9.01973035649153,-0.648008418506296,0.3643811,0.79504114,0.6059783,12.146263,-103.05855,-12.98507,WAL
10057573722000,2.965933,-3.97936737754234,8.83574331194095,-0.488884553479809,0.3484986,0.9306532,0.58184916,11.933153,-103.02137,-12.933514,WAL
10057577795000,2.970006,-4.0692064340399,8.714011569202,-0.377187273733375,0.30390546,0.95142263,0.57543504,11.743813,-103.01308,-12.912473,WAL
10057582828000,2.975039,-4.16436464962594,8.5988205074813,-0.20690440515586,0.27366763,0.9682214,0.54458636,11.5182495,-103.01725,-12.9024515,WAL
10057587801000,2.980012,-4.2477698311049,8.49746241268065,-0.0423147552512821,0.20952678,0.93370754,0.5183192,11.323579,-103.04607,-12.922175,WAL
10057592774000,2.984985,-4.27885393275524,8.45749711263403,0.104225120297436,0.15241088,0.8396343,0.4718934,11.144198,-103.0857,-12.954142,WAL
10057598147000,2.990358,-4.30808730952182,8.41580044502135,0.253055143469559,0.054367006,0.70829827,0.44593164,11.0060215,-103.13847,-13.005917,WAL
10057602812000,2.995023,-4.29312188325936,8.39335211029227,0.294210315720626,-0.030543262,0.54153204,0.41416663,10.908452,-103.20097,-13.070545,WAL
10057607797000,3.000008,-4.27712988970773,8.36936391123021,0.338188565167909,-0.116675265,0.40775254,0.3912592,10.847759,-103.271736,-13.150269,WAL
10057612813000,3.005024,-4.26275549174389,8.29679863331708,0.286337388309064,-0.20005837,0.3005457,0.3707952,10.830187,-103.34535,-13.236392,WAL
10057617763000,3.009974,-4.249544340765,8.19771413878632,0.180647550045287,-0.28313604,0.24587326,0.35002577,10.837767,-103.42098,-13.326931,WAL
10057622871000,3.015082,-4.23591150052254,8.09546694725841,0.0715841775500592,-0.33475417,0.24098633,0.33383787,10.869152,-103.49224,-13.41366,WAL
10057627860000,3.020071,-4.27113174186133,7.97605538164829,-0.000712310521771634,-0.38606682,0.31337386,0.31031954,10.894191,-103.56894,-13.506018,WAL
10057632763000,3.024974,-4.31939417634087,7.85320531519342,-0.062137385897963,-0.45020768,0.4166101,0.29046643,10.911971,-103.6477,-13.599549,WAL
10057637753000,3.029964,-4.33590542877102,7.73345231350824,-0.0479804929055316,-0.51251596,0.56199604,0.25717425,10.8943205,-103.73782,-13.700487,WAL
10057642724000,3.034935,-4.33203845835432,7.61744295873609,0.0138910781780522,-0.5644395,0.7012733,0.22876903,10.849059,-103.83019,-13.802481,WAL
10057647834000,3.040045,-4.32132603477825,7.49965204485091,0.0885380726509647,-0.6429357,0.8179486,0.19486602,10.77608,-103.942986,-13.923628,WAL
10057652830000,3.045041,-4.2773685787689,7.39175655446421,0.216414395941702,-0.70402217,0.8671232,0.16982053,10.683772,-104.05894,-14.046395,WAL
10057657730000,3.049941,-4.23425578164203,7.28593431609455,0.341833528072329,-0.766025,0.9236283,0.15943582,10.564357,-104.18206,-14.175177,WAL
10057662813000,3.055024,-4.05201154384237,7.12145929726327,0.625496010706076,-0.79717916,0.93676186,0.12583824,10.445981,-104.316246,-14.313365,WAL
10057667724000,3.059935,-3.83319947931034,6.9455516408046,0.947278305172414,-0.86132,0.9184359,0.1020145,10.323218,-104.4476,-14.44716,WAL
10057672807000,3.065018,-3.63747845656662,6.8771084584783,1.1523493162684,-0.92057395,0.88606006,0.08582657,10.216228,-75.42376,-14.576047,WAL
10057677803000,3.070014,-3.46826691640222,6.89540159279297,1.25753493408526,-0.96761054,0.82527894,0.06688975,10.126321,-75.28919,-14.708231,WAL
10057682760000,3.074971,-3.32241780508265,6.93074208910317,1.35728539908797,-1.0308352,0.75655663,0.05100725,10.0450535,-75.17438,-14.816385,WAL
10057687756000,3.079967,-3.19968977882386,6.98528767287669,1.4527404198746,-1.0604621,0.65209866,0.029626964,9.995443,-75.05175,-14.928208,WAL
10057692751000,3.084962,-3.08405773251222,7.06768854042873,1.52634628689357,-1.0931433,0.528093,0.0106901415,9.960343,-74.94839,-15.014473,WAL
10057697820000,3.090031,-2.97908115405228,7.20005063444904,1.56285991048326,-1.1120802,0.3827071,-0.015577064,9.964754,-74.83419,-15.106086,WAL
10057702890000,3.095101,-2.87442356274315,7.34148063277138,1.57900566845679,-1.1111639,0.2321288,-0.02565634,9.996206,-74.733765,-15.176523,WAL
10057707755000,3.099966,-2.774907796285,7.50141662636357,1.53991016624456,-1.1053606,0.07696902,-0.02443461,10.073092,-74.62514,-15.248512,WAL
10057712874000,3.105085,-2.67019634541155,7.66970282393775,1.49877350112137,-1.0778717,-0.0720821,0.004886922,10.175534,-74.53736,-15.292948,WAL
10057717754000,3.109965,-2.55511859010251,7.80436952209261,1.41898550996819,-1.0659598,-0.21013765,0.043066,10.320127,-74.4479,-15.332079,WAL
10057722779000,3.11499,-2.42753785441852,7.92769739192294,1.31266825983563,-1.028697,-0.3277292,0.10842858,10.500945,-74.372635,-15.353095,WAL
10057727776000,3.119987,-2.30435542245759,8.01750762152029,1.19818071355329,-0.9804387,-0.4184427,0.17928895,10.688077,-74.337204,-15.330299,WAL
10057732772000,3.124983,-2.18775695849658,8.04889967775799,1.06812859147999,-0.9294315,-0.5183192,0.23793201,10.909284,-74.314,-15.291679,WAL
10057737761000,3.129972,-2.07758794817349,8.06535485720891,0.937658232562656,-0.8597928,-0.6169739,0.29718593,11.128905,-74.343605,-15.202543,WAL
10057742743000,3.134954,-1.98933923381115,8.03005536224914,0.805285207093314,-0.7806858,-0.70738196,0.33933565,11.370909,-74.38323,-15.103313,WAL
10057747851000,3.140062,-1.90335938282599,7.99097467399611,0.664593606144214,-0.6954701,-0.8341365,0.38515055,11.628776,-74.468376,-14.963896,WAL
10057752850000,3.145061,-1.87235257808722,7.91862564281088,0.4682173667962,-0.59956425,-0.89369583,0.4288274,11.88722,-74.56488,-14.818275,WAL
10057757803000,3.150014,-1.83644554132736,7.82442325384476,0.265396146005808,-0.5516113,-1.0180069,0.45448375,12.177152,-74.681366,-14.653911,WAL
10057762761000,3.154972,-1.78186545726904,7.64919243397665,0.032712592657148,-0.42852196,-1.1114693,0.52534413,12.467098,-74.828926,-14.470821,WAL
10057767749000,3.15996,-1.72695511856737,7.47290132274185,-0.201378888606086,-0.3191771,-1.2064588,0.5934556,12.778463,-74.98518,-14.28098,WAL
10057772831000,3.165042,-1.67100998198318,7.29328796522476,-0.439881877334987,-0.19120082,-1.2638801,0.6609562,13.097573,-75.16491,-14.07826,WAL
10057777781000,3.169992,-1.62947647879017,7.13492025391304,-0.627731624986767,-0.046731193,-1.310306,0.7287622,13.432478,-75.36585,-13.863244,WAL
10057783210000,3.175421,-1.58524844781664,6.9629224526087,-0.829214781983932,0.09712757,-1.3350459,0.7828238,13.769328,-75.583694,-13.641852,WAL
10057787752000,3.179963,-1.59369186783431,6.84179424124268,-0.974004816380009,0.23335053,-1.3213016,0.84329945,14.078925,-75.83871,-13.402121,WAL
10057792792000,3.185003,-1.61107757589374,6.71140143079694,-1.13047632506979,0.37232238,-1.2779301,0.88056225,14.379746,-76.10475,-13.164223,WAL
10057797831000,3.190042,-1.79411077679081,6.69100704034073,-1.25198539677496,0.49602258,-1.1951579,0.8857546,14.659668,-76.38923,-12.918309,WAL
10057802791000,3.195002,-2.09522628487322,6.75123004763074,-1.34608394637876,0.5992588,-1.0873401,0.87109387,14.914613,-76.67796,-12.67875,WAL
10057807880000,3.200091,-2.40186171913761,6.8184120631621,-1.43132262411499,0.66859204,-0.96883225,0.8335256,15.147928,-76.96067,-12.450555,WAL
10057812761000,3.204972,-2.66314254556827,6.95942086624967,-1.3525236405909,0.7128797,-0.8173377,0.786489,15.338374,-77.23279,-12.240027,WAL
10057817725000,3.209936,-2.92886637724248,7.10282748344424,-1.27238470303434,0.70554936,-0.6462954,0.7305948,15.53114,-77.432556,-12.105273,WAL
10057822885000,3.215096,-3.18116446460733,7.19912148408377,-1.2003299008377,0.63224554,-0.44929138,0.66828656,15.672008,-77.605354,-11.994815,WAL
10057827855000,3.220066,-3.41790208790576,7.27803393844677,-1.13387722780105,0.5195409,-0.2134974,0.61453044,15.751657,-77.75182,-11.906144,WAL
10057832765000,3.224976,-3.66039256140645,7.32660595747175,-1.02192828063206,0.35430184,0.035430185,0.5717699,15.8039055,-77.82018,-11.883033,WAL
10057837757000,3.229968,-3.91553892624529,7.34661742067811,-0.861836454830473,0.17531833,0.3203988,0.5360342,15.77699,-77.861885,-11.879009,WAL
10057842749000,3.23496,-4.16774690634937,7.36639848210073,-0.743526226933019,-0.04428773,0.636827,0.49754974,15.699842,-77.829865,-11.935849,WAL
10057847776000,3.239987,-4.41959563590112,7.3861514105857,-0.65463844063904,-0.2941316,0.8020661,0.44776422,15.584393,-77.77238,-12.006996,WAL
10057852772000,3.244983,-4.80621643323562,7.51597214668377,-0.580670672008062,-0.43004912,1.185384,0.40683624,15.347509,-77.65767,-12.1306715,WAL
10057857775000,3.249986,-5.27147407561378,7.70909793801759,-0.514832328636863,-0.7089091,1.649947,0.267559,15.040977,-77.48364,-12.296689,WAL
10057862915000,3.255126,-5.80776916530203,8.03422696100743,-0.393330398836043,-1.0189233,2.1343632,0.022602014,14.656437,-77.22515,-12.54134,WAL
10057867743000,3.259954,-6.37378293780855,8.4749753038531,-0.221670505189645,-1.3231341,2.6047294,-0.33322698,14.145591,-76.88814,-12.857092,WAL
10057872814000,3.265025,-6.93514242241624,8.97451808243655,-0.0403917645888325,-1.5894713,2.9886582,-0.7415904,13.578686,-76.38186,-13.333922,WAL
10057877835000,3.270046,-7.45260698826396,9.51150969959391,0.140232644431472,-1.8368717,3.3029485,-1.1749994,12.902512,-75.76649,-13.912516,WAL
10057882830000,3.275041,-7.99922253317479,10.0274178454221,0.279742963820848,-2.0561724,3.6297612,-1.5986344,12.174688,-74.957924,-14.675502,WAL
10057887838000,3.280049,-8.57900839952438,10.5264135362663,0.379542171462545,-2.2559254,4.039652,-2.0066924,11.339776,-74.044106,-15.542266,WAL
10057892748000,3.284959,-9.13156065505289,10.9837960735935,0.553920077442005,-2.4620924,4.5503354,-2.4226916,10.435261,-72.963486,-16.571955,WAL
10057898884000,3.291095,-9.80009669771576,11.5113131910052,0.877742282757088,-2.667954,5.1111097,-2.8377745,9.405366,-71.794785,-17.695086,WAL
10057902781000,3.294992,-10.184599744186,11.8718996744186,1.2296174255814,-2.864958,5.7009,-3.211013,8.260308,-70.478134,-18.971804,WAL
10057907835000,3.300046,-10.5530542703698,12.4225569464614,2.16087658087669,-3.0509665,6.199977,-3.531412,6.982341,-69.09933,-20.320549,WAL
10057912739000,3.30495,-10.910573264514,12.9568710070269,3.06449646563493,-3.2473598,6.4033947,-3.7836993,5.684411,-67.60931,-21.777933,WAL
10057917748000,3.309959,-10.993109706017,13.6935631218976,5.1123325136551,-3.4352007,6.157827,-3.935194,4.3798385,-66.10971,-23.246151,WAL
10057922784000,3.314995,-11.0151944961993,14.4753653400495,7.41356917265317,-3.6609154,5.374087,-3.997502,3.1894197,-64.610916,-24.699358,WAL
10057927781000,3.319992,-10.8539606329508,15.3426016430656,9.55034892151333,-3.774231,4.099517,-3.9752057,2.4712367,-63.156815,-26.05086,WAL
10057933015000,3.325226,-10.5809598354406,16.3029810848084,11.7051101611554,-3.6868773,2.5042422,-3.9110646,2.1274343,-61.749687,-27.321688,WAL
10057937759000,3.32997,-9.78212521344929,16.6984310436897,11.6529797176608,-3.30753,0.8958339,-3.8340957,2.4663086,-60.394882,-28.424316,WAL
10057942744000,3.334955,-8.58559139711018,16.806316029309,10.2995237134151,-2.758973,0.1386664,-3.726278,3.053787,-59.114143,-29.435434,WAL
10057948727000,3.340938,-7.14951079065945,16.9357996539752,8.67510500260221,-2.1523838,-1.6786577,-3.6257906,4.432993,-57.816917,-30.292904,WAL
10057952785000,3.344996,-6.54833689970758,16.6317817378821,7.5531975194506,-1.6264287,-2.1358902,-3.5647042,5.61781,-56.602814,-31.12113,WAL
10057957774000,3.349985,-5.90479586475853,16.1575930926451,6.16873741984936,-1.3979651,-2.8961122,-3.4235942,7.477015,-55.48386,-31.733252,WAL
10057962754000,3.354965,-5.32953274784703,15.6938380003513,4.95301431534678,-1.0097603,-3.490484,-3.2614095,9.102108,-54.723495,-32.0974,WAL
10057968286000,3.360497,-4.79777628569708,15.1939871247114,3.868231148108,-0.7174612,-3.9385536,-3.025921,10.902858,-54.043526,-32.33352,WAL
10057972782000,3.364993,-4.53332315482603,14.9935986059619,2.9684649540784,-0.5390886,-4.2363505,-2.7458394,12.722651,-53.589527,-32.39381,WAL
10057977781000,3.369992,-4.45072566440142,15.030308410045,1.94517310397776,-0.44226643,-4.313014,-2.4077253,14.558017,-53.23776,-32.348797,WAL
10057982766000,3.374977,-4.42251052722337,15.2628441447295,0.778066697303876,-0.3998113,-4.0894375,-2.01219,16.197954,-53.036526,-32.21119,WAL
10057987746000,3.379957,-4.50287603480622,15.887909669912,-0.681907716101853,-0.42577308,-3.4910948,-1.5683966,17.664412,-52.9335,-32.00332,WAL
10057992781000,3.384992,-4.61970397301362,16.5793415657138,-2.31439342940389,-0.5552765,-2.6426032,-1.1554517,18.749302,-52.948326,-31.768454,WAL
10057997804000,3.390015,-4.8810787584298,17.5111996339082,-4.57964036986377,-0.7150178,-1.4492778,-0.768163,19.464296,-53.05132,-31.527975,WAL
10058002801000,3.395012,-5.14110061841877,18.4382342281282,-6.83316196283172,-0.9627236,-0.10598512,-0.408058,19.512562,-53.25136,-31.325314,WAL
10058007757000,3.399968,-5.5298694248765,18.4145647501764,-7.51710377494707,-1.215011,1.3115277,-0.16982053,19.146276,-53.485508,-31.183846,WAL
10058012748000,3.404959,-5.98946404845625,17.9001553772054,-7.39904276183839,-1.3341297,2.7638597,-0.118507855,18.344532,-53.73975,-31.131607,WAL
10058017747000,3.409958,-6.55474038805284,17.0226776425426,-6.73420022668964,-1.2513574,4.123646,-0.2049453,16.749195,-54.154503,-31.175959,WAL
10058022817000,3.415028,-7.2984418268811,15.5445712209458,-5.17242715661497,-0.9202685,5.2622986,-0.31520647,14.8064375,-54.572044,-31.308214,WAL
10058027744000,3.419955,-7.96621084692241,14.1501832125545,-3.36314734172624,-0.3885103,6.053064,-0.38973203,12.6181965,-54.9034,-31.5921,WAL
10058032868000,3.425079,-8.52666181585004,12.802533687184,-0.770526281987794,0.21013765,6.308711,-0.462425,10.265454,-55.235485,-31.905731,WAL
10058038082000,3.430293,-9.07950759287227,11.4676687398471,1.90530920060779,0.7874053,6.008165,-0.56230146,8.090578,-55.352966,-32.35854,WAL
10058042755000,3.434966,-9.35150898434478,10.7382112451423,4.78604789280781,1.2186762,5.6517253,-0.6731735,5.8640094,-55.47509,-32.786438,WAL
10058047780000,3.439991,-9.64399924587899,9.95380638511834,7.88378209531264,1.3475688,4.4779477,-0.71776664,4.531856,-55.37358,-33.19828,WAL
10058052773000,3.444984,-9.3419422444523,9.69507557934754,8.49174562673504,1.4202617,3.0133982,-0.81489426,3.46927,-55.25121,-33.585503,WAL
10058057784000,3.449995,-8.9219131449916,9.53809496207232,8.61478426142693,1.1957687,1.7663169,-0.88147855,2.7618933,-55.107666,-33.906963,WAL
10058062762000,3.454973,-8.27190610965894,9.56433936720079,7.82622623745412,0.8155051,0.8738427,-0.86651236,2.6998293,-54.74639,-34.29983,WAL
10058067751000,3.459962,-7.44643941589831,9.72686661552233,6.35492838009131,0.44990227,0.20311269,-0.7635816,2.9872806,-54.38521,-34.634975,WAL
10058072786000,3.464997,-6.6108965467969,9.86663413530595,4.813155626027,0.22937989,-0.31520647,-0.60139686,3.456065,-54.039623,-34.90855,WAL
10058077786000,3.469997,-5.77637643763286,9.95833934453701,3.17162694652878,0.2012801,-0.71837753,-0.43401974,4.100435,-53.719917,-35.11814,WAL
10058082842000,3.475053,-4.8742063041926,9.92096753933848,1.6640838640051,0.31764993,-1.01312,-0.31398472,4.6978674,-53.55601,-35.17989,WAL
10058087762000,3.479973,-3.83523083010575,9.52516732183305,0.61804054958224,0.5152648,-1.1746938,-0.21044308,5.358111,-53.441,-35.18221,WAL
10058092716000,3.484927,-2.78907544420611,9.12663189957249,-0.435231519452486,0.72173727,-1.2663237,-0.17715092,5.863728,-53.460434,-35.09424,WAL
10058097806000,3.490017,-2.13371110343588,8.62439063523771,-0.82578630621654,0.9242391,-1.3228287,-0.21013765,6.391814,-53.50344,-34.991592,WAL
10058102825000,3.495036,-1.78805063842389,8.06269274930084,-0.715367022892529,1.0836749,-1.3271047,-0.28985557,6.916458,-53.5529,-34.89439,WAL
10058107802000,3.500013,-1.53777845129409,7.61776933898271,-0.555332314809633,1.1911873,-1.3298537,-0.42332962,7.225638,-53.74526,-34.73173,WAL
10058112753000,3.504964,-1.35299023050864,7.25293085648046,-0.361067730608574,1.244027,-1.3252722,-0.5558874,7.5368266,-53.922085,-34.593155,WAL
10058117910000,3.510121,-1.21454148235773,7.09444118197746,-0.236305726414641,1.2794572,-1.3402383,-0.66675943,7.874674,-54.05801,-34.494553,WAL
10058122836000,3.515047,-1.11843524242836,7.09123770977862,-0.169031356457015,1.319469,-1.3784174,-0.6914995,8.219245,-54.184364,-34.40851,WAL
10058127936000,3.520147,-1.01893426320793,7.08792108204536,-0.0993806689247589,1.3796391,-1.4407257,-0.64843345,8.602388,-54.281956,-34.34241,WAL
10058132806000,3.525017,-0.94720210387445,7.13475917511717,-0.0635447846822895,1.4443909,-1.5396858,-0.5555819,9.0061655,-54.389065,-34.26544,WAL
10058137777000,3.529988,-0.898549645516817,7.18049050036173,-0.0587403998060494,1.5063937,-1.6432275,-0.44501534,9.42543,-54.516037,-34.16849,WAL
10058142765000,3.534976,-0.89119657416455,7.12901900857385,-0.106535247658278,1.5745052,-1.706452,-0.3894266,9.855775,-54.664272,-34.047558,WAL
10058147867000,3.540078,-0.8836754494574,7.07637114347726,-0.155422439667513,1.6071864,-1.8127426,-0.28802297,10.314326,-54.862858,-33.870167,WAL
10058153596000,3.545807,-0.813555831269166,6.93433746245919,-0.273648084845187,1.675298,-1.9126191,-0.20097467,10.784837,-55.077534,-33.680866,WAL
10058157803000,3.550014,-0.741816472529429,6.80281538106638,-0.381257135439707,1.7201965,-2.005165,-0.1160644,11.27754,-55.317352,-33.46176,WAL
10058162762000,3.554973,-0.626511155092461,6.6367884487909,-0.48488202874111,1.7351627,-2.0723603,-0.042455133,11.781217,-55.576294,-33.225395,WAL
10058167746000,3.559957,-0.490719389900427,6.4628052859175,-0.573995368278805,1.7357736,-2.147802,0.019547688,12.308814,-55.85357,-32.967842,WAL
10058172786000,3.564997,-0.332090297445248,6.25590887991198,-0.651851060351043,1.7189748,-2.2385156,0.06352998,12.845778,-56.150257,-32.69423,WAL
10058177811000,3.570022,-0.135421043908624,5.9936831804464,-0.707321873695903,1.6988163,-2.3414464,0.10842858,13.403009,-56.459724,-32.40367,WAL
10058182936000,3.575147,0.0844798761061947,5.75670203388978,-0.760518250432422,1.670411,-2.4727826,0.13775012,13.98662,-56.785458,-32.09606,WAL
10058187851000,3.580062,0.31642177079646,5.56262823712792,-0.807853348129525,1.6511687,-2.6148088,0.19028452,14.598583,-57.125168,-31.76905,WAL
10058192746000,3.584957,0.652084739447344,5.34743700637351,-1.02432097504491,1.6484199,-2.756224,0.2706133,15.247593,-57.49107,-31.412994,WAL
10058197848000,3.590059,1.12861297982719,5.09663261190008,-1.45486844978185,1.6627752,-2.8802297,0.39095375,15.9264555,-57.879005,-31.030035,WAL
10058202824000,3.595035,1.56411384394835,4.87582400852145,-1.84672265820075,1.6820174,-2.9721649,0.5525276,16.628986,-58.326252,-30.58705,WAL
10058207763000,3.599974,1.8044546761516,4.81278385498542,-2.05160323947522,1.7150042,-3.0387492,0.7467828,17.349142,-58.81463,-30.101566,WAL
10058212725000,3.604936,2.04591473069554,4.74945013523532,-2.25743791132861,1.7547104,-3.076012,0.9819659,18.049067,-59.46395,-29.476963,WAL
10058217753000,3.609964,2.22321312547309,4.59218236524414,-2.50704845543961,1.7928895,-3.097087,1.2382239,18.751705,-60.173546,-28.79376,WAL
10058223608000,3.615819,2.39787920642473,4.36511647368585,-2.81708094177245,1.8664987,-3.1172454,1.4807373,19.452843,-60.947296,-28.05192,WAL
10058227896000,3.620107,2.50648965505026,4.18990147058823,-3.02184152092602,2.005165,-3.1041117,1.6930131,20.118313,-61.845592,-27.20517,WAL
10058232775000,3.624986,2.54498471583457,3.95123227058824,-3.15657411308288,2.1551325,-3.037833,1.858863,20.765526,-62.800533,-26.310856,WAL
10058237722000,3.629933,2.58401629314549,3.70923667058823,-3.29318451140221,2.264172,-2.9798007,1.9663752,21.393242,-63.83238,-25.361637,WAL
10058242754000,3.634965,2.45821301389183,3.40763708780488,-3.32663549597031,2.2996023,-2.807842,1.9828686,21.96714,-64.88357,-24.404951,WAL
10058247791000,3.640002,2.26638490474549,3.08366072865854,-3.31810980816543,2.3124304,-2.5998425,1.9669861,22.51605,-65.952644,-23.43778,WAL
10058252789000,3.645,2.05122014374528,2.99096505485849,-3.05587154634906,2.2562308,-2.3344216,1.9147571,23.004059,-67.0003,-22.499903,WAL
10058257774000,3.649985,1.80801436218868,3.16210974566038,-2.50190293403774,2.149024,-2.068695,1.8732183,23.437061,-68.03188,-21.575285,WAL
10058263140000,3.655351,1.62194801376297,3.53150359601311,-1.96781157755325,2.02624,-1.8124372,1.8246545,23.824858,-68.96654,-20.74214,WAL
10058267745000,3.659956,1.56574769003277,4.10153540308575,-1.59448084066084,1.8955148,-1.5879441,1.7718146,24.150517,-69.867,-19.931273,WAL
10058272759000,3.66497,1.49394474526112,4.81063178529981,-0.908462950870406,1.7800614,-1.4019357,1.7095064,24.441448,-70.669785,-19.190828,WAL
10058277782000,3.669993,1.35682574276698,6.06429174072076,1.49601749077675,1.6701056,-1.2498302,1.627345,24.679861,-71.43335,-18.47858,WAL
10058282865000,3.675076,0.231824527169275,7.71046797439545,4.26315023909774,1.5818355,-1.1753048,1.4947872,24.85228,-72.13086,-17.811096,WAL
10058287767000,3.679978,-4.8052060485064,10.8109132446657,8.26987918195489,1.5231925,-5.889352,1.2895365,26.41538,-72.77453,-17.159632,WAL
10058293251000,3.685462,-9.64003730341436,13.762160688168,9.97038885968978,-0.39767328,10.002308,1.0332786,21.31814,-72.83,-17.125988,WAL
10058297855000,3.690066,-11.9628434817932,15.1174780478578,5.36230802963208,-3.4327571,10.002308,0.5519168,22.387054,-72.61991,-17.115967,WAL
10058302795000,3.695006,-14.311244420563,16.2899343958384,0.50123858631579,-2.9449813,-9.962296,-0.20861048,25.3968,-71.809204,-17.483898,WAL
10058307769000,3.69998,-15.3918277576499,14.9566978347613,-3.65006443157895,-1.7864754,-5.1938815,-1.0980303,21.05205,-70.810074,-18.417974,WAL
10058312782000,3.704993,-16.4808837023256,13.6130076697674,-7.83391687,-0.8020661,0.2657264,-1.8322903,22.342724,-69.407425,-19.552486,WAL
10058317761000,3.709972,-16.5371221003983,12.5667288130962,-10.1092263988145,0.1282817,3.7659843,-2.4266622,22.783222,-68.00477,-20.876787,WAL
10058322786000,3.714997,-16.024553484116,11.6708486172085,-11.3616754193758,1.0183123,5.1960196,-2.6936102,22.207727,-66.6767,-22.31905,WAL
10058327859000,3.72007,-15.5523346939869,11.6014371018419,-11.1882182929539,1.636508,4.722599,-2.6459627,21.273882,-65.39927,-23.97696,WAL
10058332757000,3.724968,-15.1409079447422,12.3557195550141,-9.60651179748563,1.7971655,2.9422324,-2.4110851,20.222908,-64.11828,-25.54826,WAL
10058337744000,3.729955,-14.4458088935035,12.8918987373864,-8.60765349642232,1.4278975,1.8674151,-2.1413882,18.980486,-62.885986,-26.9922,WAL
10058342802000,3.735013,-13.3672215024602,13.1221590095905,-8.4218293845384,1.0186177,0.05131268,-2.051591,18.47846,-61.66805,-28.300562,WAL
10058347831000,3.740042,-12.294818183054,13.3510990864815,-8.23707069362021,-0.01863139,-1.1090258,-1.9065105,18.126606,-60.647755,-29.344572,WAL
10058352827000,3.745038,-11.229451910683,13.5785368721541,-8.05352437828371,-1.0726794,-1.7018706,-1.5393804,18.160894,-59.74564,-30.252535,WAL
10058357820000,3.750031,-10.1647253698607,13.8058380858978,-7.87008827890918,-1.8961257,-1.6530013,-0.86254174,18.350561,-59.004467,-30.994009,WAL
10058362791000,3.755002,-8.60846144795102,12.8700463128163,-7.46465419005714,-2.47095,-1.2266175,-0.21838433,18.598263,-58.385937,-31.609434,WAL
10058367842000,3.760053,-6.74858993845714,11.2668448937143,-6.9276211908,-2.82403,-0.75411314,0.24281894,18.801758,-57.926327,-32.060436,WAL
10058372791000,3.765002,-4.55117810460411,9.68289386001858,-7.07205996072055,-2.9727757,-0.41416663,0.5516113,18.905634,-57.9252,-32.045162,WAL
10058377828000,3.770039,-0.711827523712191,8.01469374543202,-10.0847799284195,-2.91566,-0.10720685,0.8005389,18.853422,-58.031563,-31.918198,WAL
10058382750000,3.774961,2.63461830274952,6.49481017657367,-11.7629963110082,-2.7565293,1.7055358,1.0375546,18.214088,-58.317127,-31.622389,WAL
10058387769000,3.77998,4.79853187064156,5.28456762120052,-9.5748776059019,-2.4770586,6.8881164,1.2425,16.338884,-58.665512,-31.30054,WAL
10058392721000,3.784932,6.46158206432387,4.33212791141411,-7.10781046837222,-1.9862283,9.877385,1.4743233,14.452603,-59.41903,-30.57576,WAL
10058397759000,3.78997,6.7554736125574,4.07892906015369,-3.68510416952488,-1.5635096,9.963212,1.8270979,11.843383,-119.7318,-29.723011,WAL
10058402772000,3.794983,6.99023693731156,3.94772241044508,-0.598347602135678,-1.2666291,9.963212,2.2293527,8.456427,-118.63462,-28.547043,WAL
10058407797000,3.800008,6.83477726237437,4.63433662482053,0.334411394409548,-0.9437868,9.963212,2.6487117,5.1211195,-117.43805,-27.173084,WAL
10058412840000,3.805051,6.6787607169598,5.32341035279971,1.27051161721106,-0.50579643,9.574702,3.0983086,2.2222536,-116.03235,-25.584782,WAL
10058417768000,3.809979,6.31739549927982,5.83237620890567,1.98592157437204,-0.028710667,7.830987,3.3970215,359.81497,-114.56073,-23.904417,WAL
10058422794000,3.815005,5.92847584147198,6.33543524082206,2.69612260994203,0.3640757,5.948911,3.3368514,357.62137,-113.08716,-22.173851,WAL
10058427783000,3.819994,5.53556619881975,7.01945555473515,2.82633801438013,0.6462954,4.2891903,3.0014863,356.093,-111.472595,-20.375198,WAL
10058432832000,3.825043,5.13380142723067,7.82298485955056,2.61175908982155,0.8970556,2.976441,2.5744915,355.02963,-109.94155,-18.668995,WAL
10058437755000,3.829966,4.83870780328228,8.95626306673961,2.23538801958425,1.1111639,2.4330764,2.3606887,354.4998,-108.20678,-16.91877,WAL
10058442744000,3.834955,4.63396684868709,10.4460804483042,1.6908643696663,1.2137892,1.5012014,1.9498819,354.3959,-106.68943,-15.436516,WAL
10058447790000,3.840001,4.43329041228814,12.3560697966102,1.14158789322034,1.4049901,0.70829827,1.6084082,354.3649,-105.292465,-14.061749,WAL
10058452780000,3.844991,4.2487970029661,15.1234692919021,0.601607457137477,1.5735888,-0.09621128,1.3564262,354.54868,-104.03153,-12.840286,WAL
10058457847000,3.850058,4.098873,17.372328,0.16280572,1.6581937,-0.9117164,1.2321151,354.8247,-102.98805,-11.767396,WAL
10058462757000,3.854968,4.098873,17.372328,0.16280572,1.704925,-1.6679676,1.2345587,355.28525,-102.03274,-10.780247,WAL
10058467720000,3.859931,3.78846699859593,17.165390534772,0.103680761405013,1.7330247,-2.359467,1.3387111,355.8819,-101.17948,-9.841569,WAL
10058472795000,3.865006,2.7305016143611,16.4600798322654,-0.0978364749076517,1.7486018,-2.9483411,1.4749341,356.6489,-100.38292,-8.953025,WAL
10058478616000,3.870827,1.60560989432497,15.4697815282606,-0.256806343498491,1.7418822,-3.4993415,1.5894713,357.57852,-99.63481,-8.105087,WAL
10058482805000,3.875016,0.941652199585719,14.4592296449464,-0.252630511792443,1.6939293,-3.9956696,1.6530013,358.64105,-98.9239,-7.284742,WAL
10058487748000,3.879959,0.204490658153527,13.3044298609959,-0.247824707323651,1.6187929,-4.42297,1.674687,359.83664,-98.39687,-6.654319,WAL
10058492753000,3.884964,-0.410252908288382,12.242189409751,-0.243304541919087,1.5167783,-4.7601676,1.6600263,1.1253543,-97.895744,-6.0514126,WAL
10058497781000,3.889992,-1.00859104333437,11.2044034734931,-0.235086324003527,1.4220943,-5.0081787,1.6148223,2.4937608,-97.524254,-5.613039,WAL
10058502789000,3.895,-1.49123269205312,10.3436093761801,-0.205232196313933,1.344209,-5.1993794,1.5372424,3.9159422,-97.17472,-5.211033,WAL
10058507822000,3.900033,-1.95502998025592,9.56016167879636,-0.188444714349695,1.2626585,-5.399438,1.4364496,5.3945293,-96.928925,-4.9615984,WAL
10058512910000,3.905121,-2.34959865797261,9.05355496641008,-0.217672026636009,1.2012665,-5.55979,1.320996,6.8901315,-96.70535,-4.7530365,WAL
10058517778000,3.909989,-2.72814226781497,8.65737360700693,-0.259644839104128,1.1530081,-5.713117,1.1801916,8.4221115,-96.56329,-4.676598,WAL
10058522847000,3.915058,-3.12608953699619,8.56736187957451,-0.354394189380306,1.1273518,-5.825822,1.0115929,9.963056,-96.45086,-4.6514606,WAL
10058527804000,3.920015,-3.6469109725463,8.47911175160939,-0.783745477419035,1.1123856,-5.8933225,0.838718,11.530949,-96.42433,-4.7328215,WAL
10058532776000,3.924987,-4.79757713596118,8.38951037298207,-2.82099029754382,1.0961977,-5.915619,0.6249151,13.095332,-96.44338,-4.880975,WAL
10058537777000,3.929988,-5.85888006012976,8.37311373079585,-4.67376409466263,1.0995574,-5.6404243,0.5122105,14.606392,-96.55054,-5.097728,WAL
10058542754000,3.934965,-6.36190592371972,8.78130694948097,-5.38707148032872,1.1001683,-3.2641585,0.26816985,15.499472,-96.73868,-5.376209,WAL
10058548827000,3.941038,-6.95102965450652,9.27744294691764,-6.15585923169007,0.93218035,2.0949624,0.07819075,15.595243,-97.24115,-5.690457,WAL
10058552792000,3.945003,-6.92077608454337,9.56863371576536,-4.94949718169505,0.49693888,3.474296,0.083383106,16.14341,-97.704475,-6.051521,WAL
10058557751000,3.949962,-6.88293813915945,9.93282413763569,-3.44070792421074,0.3481932,5.2064047,0.16432275,15.065887,-98.33236,-6.373169,WAL
10058562764000,3.954975,-6.69251430858826,10.0471549340637,-1.92121866692228,0.064446285,5.7494636,0.2782491,13.932014,-98.8419,-6.6639996,WAL
10058567716000,3.959927,-6.47195874868747,10.1059699138074,-0.421440869832575,-0.17959438,5.5497108,0.38728857,12.51677,-99.30553,-6.8893814,WAL
10058572794000,3.965005,-6.26519701880546,9.91675090630665,0.423284650270012,-0.355829,4.996267,0.4529566,11.036795,-99.54929,-7.0936227,WAL
10058577746000,3.969957,-6.06610606618643,9.6995607504055,1.15630102719588,-0.5158757,4.316374,0.48349985,9.659764,-99.72806,-7.277422,WAL
10058582814000,3.975025,-5.87262118561637,9.33165726650539,1.52136282376777,-0.61269784,3.6025777,0.49418998,8.419805,-99.6687,-7.4702973,WAL
10058587724000,3.979935,-5.68777470612841,8.93826584930954,1.77730418300575,-0.66706485,2.9248228,0.5039638,7.382876,-99.60051,-7.6656656,WAL
10058592747000,3.984958,-5.63311022372881,8.45248946440678,1.77411158,-0.6713409,2.3115141,0.49571714,6.525421,-99.40263,-7.865842,WAL
10058597831000,3.990042,-5.61139369776985,7.93997917966102,1.70461865157895,-0.6236934,1.8512272,0.4914411,5.8434772,-99.254456,-8.063691,WAL
10058602810000,3.995021,-5.67866414933308,7.40515352483803,1.53662039334032,-0.5375614,1.6074919,0.52442783,5.312896,-99.113235,-8.214665,WAL
10058607804000,4.000015,-5.81080693092607,6.84468584036776,1.29511809953316,-0.39492437,1.5396858,0.5864306,4.879686,-99.02329,-8.357661,WAL
10058612750000,4.004961,-5.96480629638405,6.36352514412519,1.22742646609495,-0.15302174,1.4526376,0.65209866,4.5568476,-98.97591,-8.47676,WAL
10058618427000,4.010638,-6.17149035263018,5.90689764919989,1.37162462502873,0.0983493,1.2137892,0.6908886,4.3089247,-98.95761,-8.584525,WAL
10058622821000,4.015032,-6.32141403924888,5.52947621654988,1.51457864432722,0.35124752,0.799928,0.6728681,4.1565495,-99.03254,-8.718904,WAL
10058627776000,4.019987,-6.45591620927486,5.02135725434218,1.78358282832848,0.5858198,0.24648413,0.5888741,4.1195717,-99.13655,-8.863984,WAL
10058632868000,4.025079,-6.59413720821983,4.49918939247303,2.06002466585308,0.8185594,-0.061391957,0.46731192,4.152483,-99.317085,-9.06383,WAL
10058637758000,4.029969,-6.45529268131488,4.37398554514168,2.09464106093706,0.9126327,-0.6771441,0.41050145,4.4384336,-99.510345,-9.278536,WAL
10058642762000,4.034973,-6.18191152145329,4.42776527820069,2.01845287958478,1.0934488,-1.2718215,0.30207285,4.809271,-99.772606,-9.546358,WAL
10058647769000,4.03998,-5.9052282358209,4.59160040298507,1.89981414845006,1.2308935,-1.8164078,0.23335053,5.3652973,-100.08024,-9.86713,WAL
10058652788000,4.044999,-5.62505912755454,4.85478961768083,1.742749589932,1.3405437,-2.277611,0.21319197,6.0712776,-100.41509,-10.212504,WAL
10058657764000,4.049975,-5.34517568131758,5.16448584334393,1.57671829234893,1.4065173,-2.6551259,0.22937989,6.9078975,-100.70895,-10.515221,WAL
10058662744000,4.054955,-5.05915077282144,5.61085810867787,1.3817013113403,1.4312572,-2.968805,0.2828306,7.8597236,-101.004486,-10.820997,WAL
10058667857000,4.060068,-4.76826669386162,6.06433903393188,1.18032022237728,1.4407257,-3.220787,0.32834008,8.89703,-101.22812,-11.053522,WAL
10058672821000,4.065032,-4.51774261949839,6.44940402751049,0.971550087742754,1.4263704,-3.3964107,0.36774087,9.999286,-101.443436,-11.28066,WAL
10058678012000,4.070223,-4.26039218022331,6.85140795577155,0.75504451340188,1.385137,-3.5317173,0.36743546,11.145683,-101.57772,-11.428634,WAL
10058682775000,4.074986,-4.09184373202667,7.2104893741425,0.582832017744397,1.3432927,-3.6187658,0.34880406,12.319894,-101.713326,-11.579597,WAL
10058688233000,4.080444,-3.89870129443329,7.62196667447185,0.385490887931561,1.3066407,-3.6490035,0.3381139,13.492329,-101.78997,-11.669625,WAL
10058692747000,4.084958,-3.75534700918437,8.00264361705669,0.170146090158621,1.2754866,-3.6004398,0.3481932,14.655239,-101.87343,-11.767546,WAL
10058697793000,4.090004,-3.60866508074023,8.46161597851757,-0.113754226686576,1.2253957,-3.472769,0.36163223,15.792122,-101.96537,-11.874912,WAL
10058702790000,4.095001,-3.48228535502685,8.83966881503425,-0.428279714250139,1.1829406,-3.2766812,0.3998113,16.867151,-101.99935,-11.91848,WAL
10058707765000,4.099976,-3.37642802166266,9.13518713108684,-0.776726710801703,1.1533136,-2.993545,0.42577308,17.86751,-102.040085,-11.968211,WAL
10058712763000,4.104974,-3.27648469382197,9.37407166426354,-1.15729480944228,1.1316279,-2.643214,0.45265114,18.76294,-102.041214,-11.970862,WAL
10058717753000,4.109964,-3.19035395616301,9.48891261449885,-1.60230422858716,1.1148291,-2.214081,0.46578476,19.54247,-102.04541,-11.97523,WAL
10058722794000,4.115005,-3.1073891527027,9.53846080675676,-2.02086159432432,1.1304061,-1.720502,0.48258355,20.1775,-102.0269,-11.945087,WAL
10058727774000,4.119985,-3.03373274150579,9.45099402876448,-2.37072937926641,1.1325442,-1.461495,0.47983465,20.748919,-102.01557,-11.9214,WAL
10058732918000,4.125129,-2.98772692594068,9.34621271453867,-2.648056535572,1.1279627,-0.95630956,0.49571714,21.088345,-101.994316,-11.868484,WAL
10058737758000,4.129969,-3.01997066741921,9.21137526686903,-2.69788759988617,1.1178834,-0.4447099,0.50976706,21.34658,-101.98216,-11.81863,WAL
10058742719000,4.13493,-3.05302050243471,9.07316688300765,-2.7489644408082,1.1078042,0.037873644,0.5503896,21.4603,-101.965546,-11.74111,WAL
