timestamp,rel_time,acc_x,acc_y,acc_z,gyro_x,gyro_y,gyro_z,azimuth,pitch,roll,label
407766414000,0,1.4050937596497,-9.56086593469561,0.359447926340694,-0.038789943,-0.18173242,-0.021991149,79.17928,121.15386,28.258821,STD
407771736000,0.005322,1.45788770396911,-9.53206915123123,0.285056439526814,-0.05497787,-0.17531833,-0.024740042,80.39277,120.43915,27.72619,STD
407777074000,0.01066,1.5108403673996,-9.50318579344602,0.210441302996845,-0.04734206,-0.16584991,-0.013133603,81.55945,119.72717,27.182234,STD
407781531000,0.015117,1.55391651248986,-9.47821180048662,0.166304784505272,-0.047647487,-0.14263703,-0.0036651916,82.70195,119.02923,26.637835,STD
407786362000,0.019948,1.58674889748581,-9.44068927068126,0.33984750355738,-0.035430185,-0.11942416,0.0125227375,83.80758,118.33501,26.086128,STD
407791401000,0.024987,1.61998111465481,-9.39872189114782,0.51417431570521,-0.026572637,-0.07849618,0.02565634,84.85513,117.68929,25.560865,STD
407796394000,0.02998,1.64023399998306,-9.32176074925879,0.603286892721728,-0.030848695,-0.07422013,0.01863139,85.86289,117.0552,25.035755,STD
407801375000,0.034961,1.66043821024142,-9.24498457306226,0.692185299715375,-0.013744468,-0.03023783,0.033292156,86.82098,116.43378,24.529074,STD
407806388000,0.039974,1.68857478664304,-9.19390852355191,0.400969036949911,-0.03145956,0.0070249503,0.056199603,87.74394,115.8258,24.022224,STD
407811320000,0.044906,1.71941420863725,-9.1542574701054,-0.0395944472176103,-0.03176499,0.030848695,0.06811147,88.64328,115.22314,23.516941,STD
407816363000,0.049949,1.74721680409212,-9.255080528686,-0.109561197522106,-0.04550946,0.03390302,0.062308256,89.49643,114.653885,23.03973,STD
407821391000,0.054977,1.77197120002056,-9.46796871622455,0.123129808856673,-0.061086524,0.030543262,0.05375614,90.315636,114.091805,22.562037,STD
407826388000,0.059974,1.82739316744883,-9.55729827868513,0.373601387249328,-0.10140363,0.006414085,0.056505036,91.17417,113.56067,22.07678,STD
407831369000,0.064955,1.90135751622907,-9.57209093218937,0.634942084556543,-0.14294247,-0.062002823,0.06414085,91.97935,113.04269,21.59464,STD
407836382000,0.069968,1.94438323902776,-9.54439860162039,0.763632291571979,-0.14752395,-0.08124508,0.054061573,92.69528,112.526276,21.123331,STD
407841387000,0.074973,1.97279854423476,-9.49703975960874,0.829934719839937,-0.15454891,-0.11636983,0.052839845,93.36785,112.01986,20.650167,STD
407846918000,0.080504,1.99278348192771,-9.50180803614458,0.848874306024096,-0.16310102,-0.10873401,0.008552114,93.98194,111.54778,20.22403,STD
407851400000,0.084986,2.00490411942771,-9.52604939551958,0.844834093524096,-0.1695151,-0.10995574,0.003970624,94.5634,111.07537,19.791227,STD
407856388000,0.089974,2.00103689002452,-9.57382373222168,0.857897780770966,-0.16401732,-0.101098195,-0.003970624,95.116165,110.63498,19.392586,STD
407861383000,0.094969,1.98226842862187,-9.63951324914174,0.886050502271702,-0.15088372,-0.07819075,-0.011911872,95.659584,110.20336,19.000704,STD
407866393000,0.099979,1.97528244009881,-9.73654129394813,0.892839124289831,-0.13255776,-0.04062254,-0.002443461,96.198204,109.77698,18.613241,STD
407871384000,0.10497,1.9802019346233,-9.86444825432277,0.878080609895018,-0.15515977,-0.0290161,0.0018325958,96.74063,109.36244,18.233858,STD
407876381000,0.109967,1.99804443521542,-9.84073719693095,0.858451526429274,-0.15485434,-0.0076358155,-0.023823744,97.270226,108.93446,17.846928,STD
407881362000,0.114948,2.02619830544954,-9.69527543606138,0.834989948302184,-0.14538592,0.07513642,0.012217305,97.80838,108.49913,17.450136,STD
407886378000,0.119964,2.02058009186677,-9.59818135098761,0.818785432966692,-0.14813483,0.15118915,0.020158553,98.337204,108.079056,17.065962,STD
407891381000,0.124967,1.98346721006971,-9.54715104163439,0.809507212517428,-0.1386664,0.1863139,0.025045475,98.85801,107.65866,16.681343,STD
407896384000,0.12997,1.93152023278562,-9.55666970320924,0.826845999463415,-0.13133603,0.21410827,0.03023783,99.37768,107.26857,16.323692,STD
407901488000,0.135074,1.86040681448866,-9.64033249687634,0.87704371497561,-0.13408493,0.20769419,0.03176499,99.88528,106.88621,15.971649,STD
407906360000,0.139946,1.79754165425324,-9.70460293198366,0.909713306757237,-0.13194689,0.19150625,0.0290161,100.36835,106.50552,15.620076,STD
407911385000,0.144971,1.77190313334221,-9.64905307849405,0.824251652188777,-0.12675454,0.16768251,0.027183503,100.84141,106.1315,15.273363,STD
407916660000,0.150246,1.74498906412715,-9.59073955070147,0.734538174009945,-0.12095132,0.15699236,0.03390302,101.31228,105.72973,14.901434,STD
407921357000,0.154943,1.72551737186441,-9.57328765540254,0.596876497817797,-0.12492194,0.15210545,0.042455133,101.763145,105.33799,14.53684,STD
407926701000,0.160287,1.7038951027027,-9.55454702702703,0.437232984459459,-0.12156218,0.1881465,0.021380283,102.20808,104.960815,14.187338,STD
407931363000,0.164949,1.68640703313749,-9.48459511398355,0.362908643155112,-0.12675454,0.20677789,0.01038471,102.65029,104.590004,13.834638,STD
407936357000,0.169943,1.66767356694085,-9.40966164042303,0.283291362916177,-0.1591304,0.22602014,0.009468411,103.12563,104.23381,13.485771,STD
407941391000,0.174977,1.60340922460756,-9.49098800666491,0.230511047215645,-0.17348573,0.2171626,0.02443461,103.58357,103.884964,13.143775,STD
407946379000,0.179965,1.53638245516092,-9.58314943190388,0.18024100075068,-0.17501289,0.22999077,0.013133603,104.038216,103.55501,12.818918,STD
407951364000,0.18495,1.52918882934391,-9.57658605118962,0.105013452476568,-0.18509217,0.1881465,0.014049901,104.4801,103.2332,12.491547,STD
407956365000,0.189951,1.55385340696261,-9.51739149757956,0.0162210930649913,-0.17837265,0.16768251,0.025045475,104.91663,102.91997,12.1736355,STD
407961379000,0.194965,1.53821682068966,-9.48716264485624,-0.0291219461654408,-0.1826487,0.13591751,0.049480084,105.35682,102.58742,11.827359,STD
407966414000,0.2,1.50597545862069,-9.46873865211577,-0.056757378824243,-0.17898351,0.12156218,0.062002823,105.78755,102.26463,11.49145,STD
407971372000,0.204958,1.49099962295347,-9.50661765569799,-0.102823799470072,-0.17898351,0.113926366,0.059253927,106.210266,101.96302,11.168022,STD
407976400000,0.209986,1.48613920603614,-9.57952390945796,-0.161148843079641,-0.19700404,0.12644911,0.032375857,106.61989,101.677704,10.85827,STD
407981360000,0.214946,1.45090373988248,-9.64056112344935,-0.198709963238913,-0.21380283,0.13133603,0.004886922,107.01751,101.39213,10.5434,STD
407986373000,0.219959,1.39785831443423,-9.69601782934057,-0.225232680998443,-0.22999077,0.13988814,0.00061086525,107.40594,101.12137,10.240222,STD
407991364000,0.22495,1.34504568359198,-9.75123115850535,-0.251639001432876,-0.23396139,0.16310102,0.011911872,107.79972,100.86301,9.943276,STD
407996393000,0.229979,1.29183095297574,-9.80686486565215,-0.278246371792477,-0.21685717,0.14813483,0.00030543262,108.17654,100.62287,9.664015,STD
408001425000,0.235011,1.26732884303505,-9.7683256872552,-0.296883892116099,-0.1966986,0.14813483,-0.015882496,108.55631,100.39259,9.394228,STD
408006393000,0.239979,1.25777224116702,-9.68231597107562,-0.311218804897057,-0.16187929,0.15027285,-0.009162978,108.92417,100.16663,9.131261,STD
408011390000,0.244976,1.25764704272991,-9.61639708054211,-0.312949277270087,-0.13622294,0.17134771,0.0106901415,109.31319,99.91888,8.840865,STD
408016369000,0.249955,1.26226300470474,-9.56100582604066,-0.308333315295257,-0.13988814,0.20097467,0.0290161,109.68947,99.68266,8.561066,STD
408021365000,0.254951,1.24404546796048,-9.55859285220284,-0.297846514559935,-0.12583824,0.22021692,0.023518313,110.05149,99.458786,8.296614,STD
408026393000,0.259979,1.2100637104446,-9.59257430557516,-0.283282894057869,-0.10598512,0.2284636,0.013133603,110.40927,99.24296,8.039775,STD
408032175000,0.265761,1.24532285308741,-9.5536057850842,-0.325949345340818,-0.07971791,0.20769419,0.008552114,110.75263,99.03893,7.797195,STD
408036368000,0.269954,1.2976506608761,-9.49725289063753,-0.378277144723336,-0.07544186,0.1853976,0.0036651916,111.08498,98.848274,7.5670347,STD
408041356000,0.274942,1.31287797590504,-9.48599770682493,-0.361525876605341,-0.05497787,0.19792034,0.023823744,111.41147,98.64325,7.3274794,STD
408046374000,0.27996,1.29861792178042,-9.50976446369931,-0.294978917649852,-0.06872234,0.18387043,0.032375857,111.71466,98.45684,7.1013107,STD
408051431000,0.285017,1.31578609450853,-9.54226327398206,-0.199399264726215,-0.07391469,0.1572978,0.03604105,112.01648,98.29602,6.8985076,STD
408056493000,0.290079,1.35402153696145,-9.58049901587302,-0.0846928510294784,-0.07147124,0.1423316,0.046731193,112.30757,98.14129,6.6991353,STD
408061384000,0.29497,1.37212999749296,-9.61713389048683,0.0278584473706151,-0.08246681,0.087659165,0.058948494,112.55827,97.98567,6.5010347,STD
408066399000,0.299985,1.37679690551939,-9.65446934962589,0.144532447711204,-0.062002823,0.05375614,0.07544186,112.80243,97.82896,6.306192,STD
408071386000,0.304972,1.39580661788006,-9.62652204850714,0.253445775041492,-0.048258353,0.051618114,0.0580322,113.009674,97.68143,6.1335964,STD
408076383000,0.309969,1.42855900529558,-9.53645292967748,0.355796920521858,-0.029321533,0.04795292,0.0711658,113.202354,97.525185,5.953345,STD
408081327000,0.314913,1.45484403612037,-9.46354617979581,0.438871954895218,-0.006414085,0.018325957,0.09315695,113.361496,97.35826,5.7806606,STD
408086373000,0.319959,1.4496506961741,-9.4739331850618,0.428485166544868,0.007941248,0.032986723,0.09896017,113.52737,97.19575,5.6153564,STD
408091341000,0.324927,1.44245492892272,-9.48893206490465,0.437772853997993,0.010079277,0.06414085,0.07544186,113.669106,97.03408,5.4689975,STD
408096407000,0.329993,1.43028125380562,-9.5153082303446,0.492554339059886,0.004581489,0.09743301,0.05131268,113.81209,96.874466,5.3257685,STD
408102392000,0.335978,1.41589920769906,-9.54646917589495,0.557273483966209,0.002443461,0.13622294,0.05009095,113.9598,96.71838,5.1862025,STD
408106397000,0.339983,1.40627513173302,-9.56732123720308,0.600581783941117,-0.009468411,0.19120082,0.06414085,114.117744,96.57123,5.0541534,STD
408111356000,0.344942,1.39435857924473,-9.59314030637337,0.654206218292071,-0.017715093,0.14660765,0.03359759,114.257256,96.436104,4.934907,STD
408116399000,0.349985,1.35057894406057,-9.61369246193218,0.663642696892728,0.004886922,0.07360926,0.036651913,114.40132,96.29139,4.807124,STD
408121390000,0.354976,1.27922366337172,-9.62898318714011,0.633061847866283,0.014966198,0.031154128,0.018325957,114.53676,96.1659,4.698183,STD
408126393000,0.359979,1.21795697464347,-9.62300507543278,0.585887710523814,0.015882496,0.014966198,0.010079277,114.63791,96.01309,4.578945,STD
408131363000,0.364949,1.16245804693695,-9.60592858516459,0.530388791732891,0.016493361,0.013439035,0.008246681,114.72912,95.865425,4.4677424,STD
408136393000,0.369979,1.12347263631074,-9.58277982674281,0.484812811151816,0.012217305,0.013744468,0.0076358155,114.81865,95.7156,4.3494105,STD
408141382000,0.374968,1.10802861458895,-9.55189167578925,0.453924740830729,-0.0015271631,0.0070249503,0.00580322,114.903114,95.5726,4.236851,STD
408146371000,0.379957,1.11987165313631,-9.53055462315295,0.445829915576867,-0.003970624,0.0070249503,0.0125227375,114.949757719255,95.5007308545944,4.17490928838948,STD
408151416000,0.385002,1.15296737644584,-9.51637046667971,0.455285837227713,-0.0143553335,-0.008246681,0.023823744,114.996925,95.428055,4.1122723,STD
408156391000,0.389977,1.17573604706743,-9.51467946725871,0.435134888496145,-0.020158553,-0.016798794,0.030848695,115.08688,95.29212,3.9963899,STD
408161417000,0.395003,1.18982787788621,-9.5240742173319,0.388162084766273,-0.022907447,-0.0290161,0.03940081,115.17645,95.16183,3.8806882,STD
408166386000,0.399972,1.21392157433319,-9.51995202677119,0.321306284241976,-0.028710667,-0.03145956,0.043066,115.25667,95.03929,3.7701247,STD
408171736000,0.405322,1.25181235651531,-9.49974372918208,0.22531630095548,-0.034513887,-0.03481932,0.03940081,115.32994,94.92102,3.6632924,STD
408176383000,0.409969,1.28472421909481,-9.48219083966869,0.141939580893359,-0.018020526,-0.05222898,0.030848695,115.40223,94.81315,3.5643513,STD
408181362000,0.414948,1.31998743488636,-9.46338390252921,0.05260609925159,0.0012217305,-0.040011674,0.026572637,115.479225,94.709335,3.4698603,STD
408186391000,0.419977,1.35032067489281,-9.47335772491663,-0.0382707255464507,-0.0036651916,-0.01985312,0.03145956,115.55094,94.61035,3.3790615,STD
408191382000,0.424968,1.37309237989519,-9.52345509547403,-0.129357607378752,0.0070249503,0.015271631,0.03359759,115.627785,94.509476,3.2945879,STD
408196377000,0.429963,1.38590715645306,-9.56038290055645,-0.19972566634177,0.00580322,0.002443461,0.011911872,115.72882,94.45817,3.2361894,STD
408201476000,0.435062,1.3771417457189,-9.56914849434572,-0.226021916849758,0.029626964,-0.08032878,-0.009162978,115.81617,94.401924,3.1794987,STD
408206424000,0.44001,1.36766153528844,-9.57726247568976,-0.259472699225352,0.04062254,-0.15485434,-0.019547688,115.91237,94.37041,3.1337023,STD
408211383000,0.444969,1.34933571966043,-9.58184402527494,-0.36484621084507,0.04184427,-0.21197024,-0.032986723,115.986435,94.342995,3.0962887,STD
408216666000,0.450252,1.33087526844929,-9.58337468449289,-0.47257376957166,0.042760566,-0.24404067,-0.04550946,116.0479,94.31948,3.0615025,STD
408221396000,0.454982,1.32701779897811,-9.54479998978115,-0.51500596597803,0.046120327,-0.26236662,-0.042760566,116.095406,94.29643,3.0287788,STD
408226384000,0.45997,1.32294992208124,-9.5041212208124,-0.559752645824747,0.036957346,-0.2678644,-0.043982297,116.150986,94.291985,2.9970803,STD
408231367000,0.464953,1.31851647657475,-9.46286975355588,-0.596188863976778,0.0290161,-0.26511553,-0.041233405,116.20221,94.28675,2.9668264,STD
408236390000,0.469976,1.31386197571359,-9.42097934300919,-0.628770370004838,0.02321288,-0.26145032,-0.027488936,116.25084,94.28234,2.937036,STD
408241643000,0.475229,1.33686147492063,-9.39200546527778,-0.635436290996032,0.01985312,-0.25045475,-0.03023783,116.30813,94.29139,2.9155579,STD
408246370000,0.479956,1.37278967619048,-9.37404122395833,-0.626454254747024,0.01740966,-0.22602014,-0.022907447,116.36836,94.297935,2.8899355,STD
408251498000,0.485084,1.42444161498913,-9.35510060911067,-0.586687792003591,0.0067195175,-0.1826487,-0.014966198,116.438416,94.31447,2.8694537,STD
408256430000,0.490016,1.48247262423211,-9.33724477412343,-0.528656745471128,-0.005497787,-0.1704314,-0.016493361,116.50418,94.33312,2.8514214,STD
408261379000,0.494965,1.53734798590347,-9.33221237610359,-0.458373367213066,-0.021685716,-0.14996742,-0.0106901415,116.575836,94.359245,2.8400168,STD
408266405000,0.499991,1.58928672117913,-9.34165597076712,-0.373382735933883,-0.023518313,-0.14263703,-0.010995574,116.64497,94.3868,2.8323233,STD
408271385000,0.504971,1.636487304508,-9.36497094183228,-0.271590449457101,-0.03023783,-0.15118915,-0.019547688,116.70849,94.418884,2.8366761,STD
408276385000,0.509971,1.67826689733398,-9.40675038923897,-0.146251724299564,-0.048563786,-0.17531833,-0.03359759,116.76796,94.45491,2.84327,STD
408281356000,0.514942,1.70824575451829,-9.45281288717156,-0.0277219223080886,-0.05955936,-0.2098322,-0.05955936,116.80955,94.48772,2.8622553,STD
408286395000,0.519981,1.71819062730551,-9.50750979134467,0.0816717562339001,-0.07086037,-0.23060162,-0.08307768,116.84718,94.52626,2.8845518,STD
408291382000,0.524968,1.6821860464974,-9.59471266809422,0.193619066811461,-0.06047566,-0.25411993,-0.10323623,116.857605,94.54972,2.9147744,STD
408296370000,0.529956,1.58476761419394,-9.72622710920771,0.310521144886306,-0.065973446,-0.28619036,-0.116675265,116.85947,94.58164,2.9490283,STD
408301352000,0.534938,1.49101434084507,-9.78469077464789,0.381750396140845,-0.08155051,-0.28924468,-0.1282817,116.8483,94.59942,2.9852583,STD
408306390000,0.539976,1.40040792131455,-9.75750922723005,0.399871689507981,-0.09682214,-0.28221974,-0.12858713,116.8316,94.61837,3.0214157,STD
408311394000,0.54498,1.31049398220033,-9.72504378433685,0.383785073873474,-0.12034045,-0.2489276,-0.11789699,116.80606,94.6068,3.0366516,STD
408316394000,0.54998,1.22081106044673,-9.68186294360433,0.300745340244173,-0.13133603,-0.18448131,-0.10415252,116.79228,94.59545,3.0512116,STD
408321391000,0.554977,1.13118194844617,-9.63870801137625,0.21775543045505,-0.12492194,-0.10415252,-0.079107046,116.78324,94.565895,3.0434704,STD
408326383000,0.559969,1.05308555708113,-9.61303584157465,0.147445122323572,-0.087659165,-0.06383542,-0.030848695,116.78208,94.525604,3.0260465,STD
408331360000,0.564946,0.989015176192991,-9.60845929534326,0.0925276762016323,-0.0711658,-0.010079277,-0.020158553,116.80736,94.491646,3.014518,STD
408336360000,0.569946,0.964288582299289,-9.63251153818407,0.123998079253839,-0.004581489,0.004886922,-0.003970624,116.84569,94.431244,2.9718494,STD
408341383000,0.574969,1.00890763297949,-9.70687657951149,0.307431972103473,0.053450707,-0.017715093,0.01038471,116.88725,94.36944,2.9295902,STD
408346371000,0.579957,1.05012979630844,-9.74215140210454,0.443472065268242,0.06414085,-0.083383106,0.014049901,116.913895,94.31164,2.8917704,STD
408351396000,0.584982,1.08748629816284,-9.72554861833707,0.518185051640504,0.03145956,-0.18295415,0.02565634,116.92271,94.24878,2.8486776,STD
408356373000,0.589959,1.12934511036393,-9.6971018204222,0.561546322307766,0.01038471,-0.2837469,0.03390302,116.892784,94.15877,2.804513,STD
408361385000,0.594971,1.21187272438628,-9.56872587238514,0.350642501725093,0.01282817,-0.3463606,0.062002823,116.84564,94.06676,2.752125,STD
408366668000,0.600254,1.30456802959422,-9.44485910302044,0.150742423905217,0.041233405,-0.43066,0.09162979,116.74465,93.96804,2.698531,STD
408371369000,0.604955,1.45565906839215,-9.47233028790806,0.242312788406387,0.10262536,-0.6389651,0.10140363,116.59169,93.862015,2.6416166,STD
408376504000,0.61009,1.6186394810294,-9.51369772111518,0.342097644156912,0.19700404,-0.91446525,0.0888809,116.42599,93.79411,2.608418,STD
408381354000,0.61494,1.74730299054597,-9.6921661064248,0.433407208628362,0.23548855,-1.1239921,0.03756821,116.22177,93.73137,2.582686,STD
408386382000,0.619968,1.8806885835046,-9.87718446546332,0.528067928249486,0.19303341,-1.2473868,-0.032070424,115.961235,93.67871,2.5829217,STD
408391414000,0.625,1.73802890054054,-9.99587262124884,0.356241154403728,0.07513642,-1.2996159,-0.09896017,115.665436,93.643936,2.595309,STD
408396367000,0.629953,1.53467746162162,-10.0975480637465,0.126365653611184,-0.05589417,-1.2980887,-0.12370021,115.355095,93.625725,2.6141648,STD
408401417000,0.635003,1.36913703767773,-10.1190039205646,0.0279982955276118,-0.099571034,-1.2284501,-0.13713925,115.04689,93.62541,2.66251,STD
408406344000,0.63993,1.22815595308057,-10.0995583622502,-0.00117021402864208,-0.08827003,-1.144456,-0.1423316,114.74899,93.642006,2.7136257,STD
408411381000,0.644967,1.11270916319294,-10.0503120566055,-0.0501015594460943,-0.029626964,-1.0421361,-0.15088372,114.50761,93.661865,2.7434113,STD
408416412000,0.649998,1.00864669510439,-9.98960909359251,-0.106468722718503,-0.0030543262,-0.9211848,-0.14110987,114.30115,93.68025,2.7688594,STD
408421386000,0.654972,0.944762714144454,-9.91337439767842,-0.183163637618229,0.00580322,-0.8445212,-0.1337795,114.10637,93.68271,2.7863896,STD
408426982000,0.660568,0.91596229627687,-9.8096932205503,-0.292605206268272,0.00580322,-0.7153232,-0.12583824,113.96522,93.67833,2.8017976,STD
408431361000,0.664947,0.936200197600154,-9.72882249922958,-0.345371888765408,0.016493361,-0.5925393,-0.09468412,113.84129,93.66235,2.801596,STD
408436400000,0.669986,0.97802585807396,-9.63587663020031,-0.391844852395994,0.03359759,-0.5009095,-0.055588737,113.74794,93.641045,2.7974176,STD
408441380000,0.674966,1.02789674511931,-9.55341585466378,-0.491574784468547,0.06841691,-0.4279111,0.0061086523,113.694214,93.6147,2.7812846,STD
408446372000,0.679958,1.08446242510353,-9.4779949152041,-0.632988969662788,0.09162979,-0.35124752,0.060170226,113.668655,93.58058,2.7576344,STD
408451359000,0.684945,1.13454647499302,-9.41200406991348,-0.748744325144665,0.10873401,-0.28680122,0.099265605,113.64593,93.55137,2.7319717,STD
408456397000,0.689983,1.17943248185878,-9.35365227504884,-0.843004916128012,0.109650314,-0.21624629,0.14202617,113.6475,93.509125,2.692044,STD
408461312000,0.694898,1.23692281550454,-9.32327432334184,-0.871655022451814,0.089186326,-0.1563815,0.16798794,113.66881,93.49767,2.663416,STD
408466378000,0.699964,1.31943318445767,-9.33702597172619,-0.793728545866402,0.040927973,-0.073303826,0.17256944,113.71643,93.48785,2.6311998,STD
408471314000,0.7049,1.39982623245465,-9.35042473533163,-0.71780176173186,-0.011301007,0.01282817,0.1554652,113.78828,93.50986,2.6168025,STD
408476389000,0.709975,1.48248318516629,-9.36420081420068,-0.639736844899849,-0.0720821,0.08735373,0.12308934,113.878975,93.54613,2.6074314,STD
408481359000,0.714945,1.56662694920293,-9.37949006031883,-0.528296431844895,-0.11056661,0.12217305,0.0870483,113.973526,93.59852,2.6115048,STD
408486396000,0.719982,1.67054415468548,-9.40546934812581,-0.211348899783391,-0.11728613,0.10415252,0.05589417,114.07195,93.66278,2.6244047,STD
408491343000,0.724929,1.72257379326376,-9.43105984479945,0.0224999776725357,-0.112704635,0.06352998,0.011911872,114.15266,93.73862,2.6630812,STD
408497140000,0.730726,1.64020065673871,-9.46126336450863,0.0746696297537959,-0.1020145,0.035430185,-0.023518313,114.23014,93.81834,2.7079847,STD
408501363000,0.734949,1.5801934537811,-9.48326603204906,0.112674190861121,-0.08307768,0.008857546,-0.04734206,114.266914,93.86813,2.7630012,STD
408506389000,0.739975,1.50877593020426,-9.50945248884712,0.157905288214996,-0.06841691,-0.0012217305,-0.08124508,114.299225,93.92514,2.8297367,STD
408511378000,0.744964,1.41437419325598,-9.53327038614938,0.19697039673314,-0.051618114,0.0076358155,-0.09590584,114.32891,93.97809,2.8962822,STD
408516385000,0.749971,1.24920555382524,-9.55065645839376,0.218703123197063,-0.05375614,-0.008857546,-0.105374254,114.34773,94.0371,2.9691894,STD
408521537000,0.755123,1.07870980531533,-9.57197408430454,0.237048144039865,-0.05375614,-0.023823744,-0.118202426,114.35398,94.06297,3.0235174,STD
408526405000,0.759991,0.91114021237338,-9.63290865526631,0.2065809380928,-0.06169739,-0.026572637,-0.11881329,114.359,94.09057,3.0767367,STD
408531365000,0.764951,0.760407989282178,-9.69521341831683,0.181058541410891,-0.07574729,0.0009162979,-0.12186762,114.34668,94.102615,3.116475,STD
408551412000,0.784998,0.46119946622158,-9.95042029258343,0.163458045459754,-0.048258353,0.0852157,-0.10293079,114.3018,94.092285,3.1977062,STD
408556323000,0.789909,0.436525309212706,-9.9417662857629,0.203559563448667,-0.016493361,0.08735373,-0.099265605,114.29342,94.06773,3.2009342,STD
408561343000,0.794929,0.420325665143082,-9.91665411476055,0.244430352531222,0.0030543262,0.08002335,-0.094989546,114.28584,94.04041,3.202533,STD
408566367000,0.799953,0.406131385461697,-9.85041428783558,0.182921810538893,0.01282817,0.070554934,-0.090713486,114.26296,94.011086,3.1990507,STD
408571505000,0.805091,0.393336356235294,-9.78302968294118,0.12278029812,0.024740042,0.06688975,-0.09682214,114.235535,93.97284,3.194009,STD
408576303000,0.809889,0.40234605945098,-9.72446632980392,0.100256023146667,0.025045475,0.050701816,-0.105068825,114.202255,93.935776,3.1883044,STD
408581563000,0.815149,0.411397867183092,-9.662087173751,0.0758048282182384,0.023518313,0.043676864,-0.105068825,114.1763,93.90571,3.1839242,STD
408586309000,0.819895,0.402820895624853,-9.64278904260037,0.0586508819671652,0.0070249503,0.04153884,-0.11789699,114.14735,93.88387,3.1854668,STD
408591296000,0.824882,0.393808388848422,-9.62251095999434,0.0406258651205359,-0.004886922,0.029932396,-0.12767084,114.109,93.869804,3.1903903,STD
408596283000,0.829869,0.384795882071991,-9.60223287738831,0.0226008482739067,-0.016493361,0.012217305,-0.14721853,114.068825,93.86411,3.2016158,STD
408601325000,0.834911,0.375683979291409,-9.58173115440864,0.00437703938264848,-0.014660766,0.007941248,-0.17348573,114.02987,93.86235,3.2174053,WAL
408606361000,0.839947,0.355445161734503,-9.55875670927368,0.00722012156795112,-0.01160644,-0.0106901415,-0.1740966,113.982796,93.860825,3.2307413,WAL
408611295000,0.844881,0.332161456730068,-9.53547301399428,0.0165336064872376,0.004276057,-0.027488936,-0.18753563,113.93563,93.86625,3.2546322,WAL
408616347000,0.849933,0.31474672136237,-9.5216797080194,0.0227751866271029,0.010079277,-0.048563786,-0.20311269,113.88566,93.877556,3.279764,WAL
408621309000,0.854895,0.300033093120033,-9.51187042450201,0.0276797290331304,0.015271631,-0.08124508,-0.21197024,113.82861,93.88774,3.3055978,WAL
408626357000,0.859943,0.267513122448057,-9.51711112100808,0.032401406523182,0.022907447,-0.10873401,-0.23640485,113.76624,93.90017,3.3363955,WAL
408631316000,0.864902,0.230967224340131,-9.52624777799154,0.0369696429519046,0.018020526,-0.14477506,-0.24190263,113.69354,93.91072,3.362793,WAL
408636351000,0.869937,0.137991344199396,-9.55689662000671,0.092608866574114,0.011911872,-0.17165314,-0.258396,113.62323,93.927216,3.4000416,WAL
408641342000,0.874928,0.0233847150755287,-9.59586294360524,0.168249247013523,0.003970624,-0.19914207,-0.27000242,113.54401,93.94423,3.4356625,WAL
408646347000,0.879933,-0.0915433912688822,-9.63493856965425,0.244101802433127,-0.002443461,-0.21624629,-0.27275133,113.45967,93.95803,3.4675097,WAL
408651391000,0.884977,-0.207367041299094,-9.67431868110104,0.320545416726131,-0.014966198,-0.22876903,-0.27214047,113.37062,93.974945,3.4999669,WAL
408656385000,0.889971,-0.295258006471986,-9.71007093902198,0.398886989629776,-0.009468411,-0.23243423,-0.25809056,113.28299,93.98641,3.5279489,WAL
408661383000,0.894969,-0.361592237255989,-9.74323773035043,0.47943567193427,-0.027183503,-0.23793201,-0.23823744,113.19331,93.99998,3.5525022,WAL
408666365000,0.899951,-0.421753037601171,-9.7772867984942,0.575355460727805,-0.037873644,-0.21838433,-0.22113322,113.08837,93.96233,3.5409625,WAL
408671391000,0.904977,-0.477118855505594,-9.81251977852138,0.686087107047997,-0.038789943,-0.20555615,-0.20219639,112.98235,93.920715,3.5228097,WAL
408676383000,0.909969,-0.508769386262489,-9.85813009782016,0.78710216428247,-0.035430185,-0.17806722,-0.19333886,112.87886,93.86545,3.4972627,WAL
408681359000,0.914945,-0.526082454019074,-9.91006896212534,0.882323980449591,-0.026267206,-0.16157386,-0.17806722,112.77812,93.804565,3.4648519,WAL
408686359000,0.919945,-0.534145035163156,-9.95581824391575,1.00536821622831,-0.02107485,-0.1441642,-0.16523905,112.6727,93.727,3.4213395,WAL
408691388000,0.924974,-0.528888926115901,-9.99261122678162,1.16830773390265,0.0021380284,-0.13713925,-0.13622294,112.57105,93.64079,3.3697412,WAL
408696371000,0.929957,-0.497122513596449,-10.0535111578693,1.28115642646917,0.023518313,-0.13255776,-0.121256754,112.465675,93.5445,3.3131044,WAL
408701428000,0.935014,-0.445715666225996,-10.1329577355978,1.36060329698929,0.057421334,-0.1386664,-0.093767814,112.36106,93.438095,3.2460911,WAL
408706433000,0.940019,-0.378562648475126,-10.2043709905371,1.43877705333454,0.110872045,-0.15607607,-0.06719518,112.24394,93.31647,3.1711817,WAL
408711384000,0.94497,-0.297372977123288,-10.2684685034247,1.51569362260274,0.18784106,-0.1600467,-0.026267206,112.13049,93.18712,3.0863194,WAL
408716391000,0.949977,-0.205013748216543,-10.31721292386,1.58555562251326,0.25350907,-0.1695151,0.0067195175,112.00233,93.06594,3.007015,WAL
408721389000,0.954975,-0.0882701324299046,-10.3273647469777,1.63631373108165,0.33475417,-0.18753563,0.030543262,111.871925,92.94521,2.9207492,WAL
408726312000,0.959898,0.0308699214034673,-10.303731213554,1.6756280107171,0.37812558,-0.1863139,0.07696902,111.74177,92.83014,2.8264742,WAL
408731361000,0.964947,0.159469122142829,-10.2275237401497,1.69944265965327,0.44012842,-0.17379116,0.12797627,111.61059,87.27127,2.7263234,WAL
408736331000,0.969917,0.294974806662381,-10.1350572870655,1.72310493665917,0.52412236,-0.15149458,0.18417588,111.480995,87.34578,2.6253147,WAL
408741377000,0.974963,0.448076197234951,-10.0108013616328,1.74751241016116,0.6068946,-0.11178834,0.23793201,111.36026,87.39695,2.512879,WAL
408746364000,0.97995,0.599387460569356,-9.88799828986638,1.77163450099637,0.6942484,-0.062308256,0.29840767,111.25095,87.40736,2.3973258,WAL
408752214000,0.9858,0.77688312740438,-9.74394415514946,1.79993091795767,0.7816021,-0.010079277,0.3555236,111.15272,87.37755,2.2699156,WAL
408756650000,0.990236,0.911784270953475,-9.64299467623971,1.83030738648286,0.8866709,0.03573562,0.41599923,111.06356,87.29206,2.1351724,WAL
408761378000,0.994964,1.0591603760425,-9.63215820524603,1.96684701152594,0.98563105,0.081855945,0.46975538,110.987045,87.155,1.9889014,WAL
408766768000,1.000354,1.22717162951752,-9.61980444495501,2.1225044943902,1.1071932,0.13836098,0.5158757,110.92948,86.937744,1.8612262,WAL
408771389000,1.004975,1.37121244627226,-9.60921321558491,2.25595407292744,1.2119566,0.172264,0.569021,110.87419,86.67612,1.7187485,WAL
408776351000,1.009937,1.52588254641011,-9.59784042178824,2.39925136976833,1.2916746,0.1704314,0.6133087,110.82599,86.35879,1.5748538,WAL
408781361000,1.014947,1.69494987340669,-9.59964055387437,2.62163436817973,1.3723087,0.1423316,0.6603453,110.774025,85.99828,1.4181296,WAL
408786333000,1.019919,1.8652404858597,-9.60400684071527,2.85742140335626,1.4501941,0.09712757,0.70524395,110.710724,85.60423,1.2533902,WAL
408791382000,1.024968,2.03816834231087,-9.60844074704264,3.09686000766162,1.539075,0.049785517,0.75502944,110.629196,85.1252,1.0974174,WAL
408796366000,1.029952,2.20886995382852,-9.61281757198533,3.33321611854654,1.63437,-0.0033597588,0.8060367,110.527435,84.618355,0.9333728,WAL
408801391000,1.034977,2.3765004603928,-9.69569924604473,3.47233691391162,1.7440202,-0.038789943,0.84849185,110.40663,84.08204,0.76455975,WAL
408806392000,1.039978,2.53849750144026,-9.86292199105292,3.50369113767594,1.8500054,-0.05467244,0.88453287,110.27045,83.52074,0.5884072,WAL
408811380000,1.044966,2.59016567735661,-10.1249586094763,3.50696446603491,1.9474384,-0.07360926,0.8903361,110.09871,82.84047,0.4363167,WAL
408816375000,1.049961,2.58221287336658,-10.4390946992519,3.49503526004988,2.0066924,-0.09254608,0.8530733,109.91838,82.14668,0.2920106,WAL
408821889000,1.055475,2.49997233512191,-10.8196334022226,3.42473449982584,2.0186043,-0.15424347,0.7877107,109.72603,81.44662,0.17533635,WAL
408826400000,1.059986,2.29933747326256,-11.1922409547189,3.26351009533919,1.9926424,-0.16371189,0.76144356,109.53917,80.75077,0.061509278,WAL
408831367000,1.064953,2.07842118887875,-11.6025140013269,3.08598812303035,1.96271,-0.14844026,0.66981375,109.35233,80.077515,-0.008647019,WAL
408836396000,1.069982,1.72892515167374,-11.5324362916955,2.92118138979955,1.8551978,-0.13927728,0.54641896,109.16176,79.446724,-0.05856717,WAL
408841319000,1.074905,1.36113772406438,-11.3648369932853,2.76289320673447,1.6914859,-0.116980694,0.45753807,108.98013,78.85346,-0.0915297,WAL
408846397000,1.079983,0.901882274451044,-11.2553025159992,2.53683359225905,1.4856243,-0.071776666,0.39828414,108.82245,78.372894,-0.11697903,WAL
408851430000,1.085016,0.426254140484767,-11.1629471106534,2.29671059915693,1.2330315,0.07360926,0.36254853,108.70201,77.96383,-0.13179542,WAL
408856396000,1.089982,0.0937535147301628,-11.0561333853352,2.18944573966158,1.0241156,0.3145956,0.3726278,108.607704,77.63243,-0.18565851,WAL
408861439000,1.095025,-0.191031586486348,-10.9416002033073,2.13063140469171,0.88239485,0.52473325,0.39522982,108.54686,77.36099,-0.24082632,WAL
408866376000,1.099962,-0.469830722854762,-10.8294744210999,2.07305330202538,0.8176431,0.7312057,0.44806966,108.570946,77.15697,-0.36253524,WAL
408871398000,1.104984,-0.715748344658819,-10.7326530191687,2.06438700602146,0.73548174,0.915687,0.51159966,108.64329,77.001564,-0.5023002,WAL
408876389000,1.109975,-0.934844592690905,-10.6480025602667,2.08928439556204,0.6411031,1.0323622,0.5726862,108.74781,76.870544,-0.6608234,WAL
408881360000,1.114946,-1.02091538943803,-10.5623465660719,2.1710039554241,0.55771995,1.0503827,0.66431594,108.8621,76.75817,-0.88538474,WAL
408886367000,1.119953,-1.04379065789524,-10.4754208230131,2.28080501471234,0.48075095,1.0122037,0.75686204,108.98485,76.66986,-1.1233956,WAL
408891896000,1.125482,-0.965277409332227,-10.3437657196184,2.30681674020116,0.38698313,0.956615,0.8530733,109.11439,76.580666,-1.399744,WAL
408896370000,1.129956,-0.849763850958109,-10.2193658805475,2.28015974449399,0.27672195,0.9114109,0.9098838,109.228386,76.51459,-1.6795006,WAL
408901471000,1.135057,-0.68839705271831,-10.0093813507042,2.23746573647887,0.18875736,0.82802784,0.94989544,109.30678,76.43079,-1.9692683,WAL
408906397000,1.139983,-0.517540660587525,-9.77208145995976,2.19000570877264,0.1432479,0.75228053,0.9914343,109.36775,76.36044,-2.2626886,WAL
408911378000,1.144964,-0.394706728614783,-9.51746433643642,2.21823968191212,0.08124508,0.6960809,1.0253373,109.424965,76.30905,-2.5418277,WAL
408916388000,1.149974,-0.296442373969466,-9.25393703053435,2.28523800801527,0.022907447,0.54275376,1.0387764,109.43058,76.26475,-2.8059506,WAL
408921383000,1.154969,-0.177909878265528,-8.90290418207044,2.29125859302028,0.0061086523,0.3417791,1.0348058,109.424385,76.21865,-3.0514174,WAL
408926381000,1.159967,-0.0399854665850587,-8.46869746467449,2.24017556589114,0.04886922,0.13652839,1.0345002,109.37243,76.167656,-3.2828295,WAL
408931359000,1.164945,0.0679885355035461,-8.14035358156028,2.12543985390071,0.10873401,-0.012217305,1.0412198,109.284004,76.0845,-3.4981575,WAL
408936398000,1.169984,0.160489069736534,-7.86747729164271,1.97281398180947,0.14202617,-0.15577064,1.0421361,109.141426,75.99527,-3.6920726,WAL
408941380000,1.174966,0.0921021257286875,-7.73595725121856,1.89150937106293,0.19120082,-0.30848694,1.0369438,108.97059,75.86933,-3.8635435,WAL
408946358000,1.179944,-0.103873256518548,-7.71495985525105,1.86584592229128,0.2144137,-0.47036624,1.022283,108.759895,75.74166,-4.017278,WAL
408951386000,1.184972,-0.301817053613585,-7.69375155735539,1.83992470484976,0.23762658,-0.634689,1.0064005,108.52842,75.618225,-4.15577,WAL
408956391000,1.189977,-0.498855379878634,-7.67264027434668,1.81412206099638,0.226631,-0.7834347,0.97524637,108.26173,75.500114,-4.271992,WAL
408961510000,1.195096,-0.651486922671098,-7.72029322018432,1.84680451028101,0.22632557,-0.8772025,0.9392053,107.9831,75.36822,-4.38169,WAL
408966433000,1.200019,-0.747646359178124,-7.83782134763559,1.93940246606738,0.20799962,-0.9288206,0.87689704,107.68357,75.2491,-4.465211,WAL
408971327000,1.204913,-0.843239347653724,-7.95465715014353,2.03145495349751,0.20097467,-0.9761627,0.8219192,107.37197,75.10979,-4.5789013,WAL
408976383000,1.209969,-0.853990703500454,-8.07254267527489,2.13657754421467,0.20861048,-1.0262536,0.7626653,107.05481,74.97692,-4.6673326,WAL
408981344000,1.21493,-0.844405208736003,-8.18756851235751,2.24201808671442,0.20189096,-1.0525209,0.7174612,106.739204,74.85319,-4.7404447,WAL
408986432000,1.220018,-0.703105467064031,-8.25121415963411,2.39578989341989,0.20250183,-1.0338894,0.68539083,106.42896,74.70169,-4.822594,WAL
408991322000,1.224908,-0.541890694623783,-8.30188171643553,2.5523986004131,0.2049453,-1.0250319,0.6747007,106.11546,74.553894,-4.89368,WAL
408996371000,1.229957,-0.318540492283962,-8.41966655417209,2.67846983200149,0.20799962,-1.0225884,0.6826419,105.80389,74.39438,-4.9602046,WAL
409001459000,1.235045,-0.0785739502731834,-8.55549705407917,2.79618928340457,0.2275473,-1.0170907,0.69058317,105.5012,74.231514,-5.0230303,WAL
409006414000,1.24,0.200035421232228,-8.68356971563981,2.90340380196209,0.26145032,-1.0164797,0.7079928,105.2068,74.03406,-5.0935054,WAL
409011354000,1.24494,0.50048388,-8.80913,3.006542714,0.2706133,-1.029308,0.72204274,104.91391,73.83949,-5.162683,WAL
409016414000,1.25,0.770767417050691,-8.93130990552995,3.02203415898617,0.29138273,-1.063211,0.7254025,104.61703,73.633415,-5.212616,WAL
409021388000,1.254974,1.00525077901131,-9.04605677230834,2.96216611977377,0.31490102,-1.0983357,0.74036866,104.31831,73.42425,-5.266815,WAL
409026382000,1.259968,1.16522874254906,-9.0501833285409,2.85779023571012,0.33964106,-1.1099422,0.73273283,104.022766,73.21909,-5.2944813,WAL
409031414000,1.265,1.28226414631824,-8.98932516495046,2.72671059522052,0.35155296,-1.073901,0.7315111,103.733284,73.011734,-5.3276877,WAL
409036396000,1.269982,1.32249314083561,-8.84522246430821,2.60535891929456,0.3475823,-1.0167851,0.7141015,103.459816,72.842445,-5.331808,WAL
409041383000,1.274969,1.30745235721184,-8.63966498341382,2.49004614014277,0.34238997,-0.958753,0.679893,103.20212,72.673996,-5.332782,WAL
409046389000,1.279975,1.22862430385666,-8.44000371484642,2.345031446843,0.3222314,-0.91446525,0.6392705,102.97284,72.54438,-5.3325806,WAL
409051404000,1.28499,1.11798031008532,-8.24330317687713,2.1852123399744,0.28130344,-0.8790351,0.61208695,102.762215,72.42519,-5.3296165,WAL
409056387000,1.289973,0.962979941152744,-8.04221904313767,2.01873611580512,0.24007004,-0.7965683,0.60139686,102.586716,72.32276,-5.328809,WAL
409061382000,1.294968,0.714177087740155,-7.82895974232035,1.8359422324594,0.18112154,-0.66706485,0.5751296,102.4405,72.241135,-5.322712,WAL
409066428000,1.300014,0.465422500203228,-7.63225716437537,1.66489322546324,0.11636983,-0.5516113,0.5534439,102.32613,72.18473,-5.3479853,WAL
409071388000,1.304974,0.224084682470612,-7.46190097868101,1.51346563112174,0.03970624,-0.419359,0.54702985,102.25512,72.14918,-5.3814616,WAL
409077110000,1.310696,-0.0263058176825397,-7.31517547428571,1.38853066246032,-0.028405234,-0.28619036,0.53969944,102.2358,72.12989,-5.45322,WAL
409081359000,1.314945,-0.191818311821429,-7.24251150428571,1.33201419919643,-0.080634214,-0.1777618,0.5329799,102.2474,72.128006,-5.529958,WAL
409086358000,1.319944,-0.355885261518225,-7.18822782829601,1.32054836708505,-0.13469578,-0.11056661,0.53023106,102.29138,72.14643,-5.6454396,WAL
409091384000,1.32497,-0.47671323869264,-7.17856164785621,1.38821203389899,-0.1704314,-0.049785517,0.52839845,102.363556,72.17451,-5.7633624,WAL
409096366000,1.329952,-0.586354897598929,-7.19832652137539,1.48428653931231,-0.2049453,-0.03268129,0.5345071,102.43213,72.21523,-5.9047575,WAL
409101407000,1.334993,-0.683287933606626,-7.25890957398979,1.6216082630051,-0.24923302,-0.0580322,0.54458636,102.505,72.26712,-6.0428295,WAL
409106583000,1.340169,-0.792159464957845,-7.33551569192751,1.76693891175502,-0.29352075,-0.0888809,0.54183745,102.56927,72.306694,-6.188561,WAL
409111378000,1.344964,-1.0057652142068,-7.58027239868204,1.95384400624091,-0.32650748,-0.0983493,0.54458636,102.63073,72.35227,-6.3326716,WAL
409116841000,1.350427,-1.24030704947683,-7.84903877578475,2.16041539113104,-0.34574974,-0.14172074,0.54733527,102.64832,72.3716,-6.4895854,WAL
409121549000,1.355135,-1.31519099147982,-7.93515506278027,2.24653191270553,-0.39095375,-0.18509217,0.5476407,102.663284,72.40488,-6.6401305,WAL
409126413000,1.359999,-1.39255621958146,-8.0241248206278,2.33550191290483,-0.3930918,-0.2452624,0.5311473,102.64168,72.39396,-6.7998276,WAL
409131367000,1.364953,-1.46706798787515,-8.0984448907563,2.46599525378151,-0.3933972,-0.28771752,0.5149594,102.61335,72.392815,-6.9518757,WAL
409136363000,1.369949,-1.53886524597839,-8.16066923109244,2.62873575546218,-0.41263947,-0.33536503,0.50885075,102.56818,72.39631,-7.091743,WAL
409141383000,1.374969,-1.59850039370761,-8.2084633935569,2.74885751375283,-0.4269948,-0.39003745,0.49693888,102.49236,72.38232,-7.230833,WAL
409147177000,1.380763,-1.65599552846647,-8.25027805190279,2.84816736143557,-0.4266894,-0.4605924,0.46975538,102.40203,72.37061,-7.354248,WAL
409151357000,1.384943,-1.69666689661913,-8.26685661294505,2.92407039323826,-0.41447207,-0.5174029,0.44593164,102.27936,72.32778,-7.481422,WAL
409156390000,1.389976,-1.74473714135833,-8.27166373780792,3.02021088271667,-0.40775254,-0.55863625,0.4175264,102.146164,72.28936,-7.59137,WAL
409161381000,1.394967,-1.77548488160648,-8.27813654361867,3.104360314864,-0.3912592,-0.61544675,0.38515055,101.980385,72.23055,-7.6980844,WAL
409166400000,1.399986,-1.78422975746384,-8.28688109988174,3.17431900212863,-0.37507126,-0.659429,0.35521814,101.81154,72.173004,-7.791831,WAL
409171357000,1.404943,-1.7908629,-8.2940845024605,3.22624291890702,-0.3484986,-0.70524395,0.31031954,101.62,72.09294,-7.8721223,WAL
409176384000,1.40997,-1.7908629,-8.29657834234654,3.22125534329448,-0.3200934,-0.7535023,0.2782491,101.42014,72.010826,-7.9412093,WAL
409181359000,1.414945,-1.7908629,-8.29904638559959,3.2163193598705,-0.2959642,-0.79259765,0.23182335,101.19599,71.921875,-7.998567,WAL
409186368000,1.419954,-1.7908629,-8.3015312958819,3.21134964309246,-0.26725355,-0.8005389,0.17867808,100.97404,71.830055,-8.041826,WAL
409191318000,1.424904,-1.79237304588317,-8.31366224194534,3.17953749668209,-0.24098633,-0.7877107,0.13622294,100.74775,71.740974,-8.073818,WAL
409196383000,1.429969,-1.79660831105387,-8.34330971727931,3.0990673699904,-0.21624629,-0.75808376,0.09040806,100.53248,71.6527,-8.090047,WAL
409201393000,1.434979,-1.79769919797192,-8.38246220904836,3.01987640639626,-0.19914207,-0.68203104,0.049785517,100.33259,71.568504,-8.110241,WAL
409206391000,1.439977,-1.76569679344774,-8.52647244461778,2.94520425912637,-0.18906279,-0.64476824,0.025045475,100.13624,71.48422,-8.120905,WAL
409211356000,1.444942,-1.71659694130717,-8.67518537493057,2.90350221086836,-0.18509217,-0.56016344,0.013133603,99.98458,71.42285,-8.135015,WAL
409217012000,1.450598,-1.61129292382892,-8.86072123421589,2.94863250407332,-0.17470746,-0.43127087,-0.020158553,99.862274,71.363495,-8.142996,WAL
409221373000,1.454959,-1.52314452365357,-9.00617153129549,2.9938045779476,-0.16432275,-0.4071417,-0.03145956,99.74303,71.32787,-8.148362,WAL
409226382000,1.459968,-1.37476497457242,-9.18946392885735,3.11599943370633,-0.16065755,-0.3885103,-0.053450707,99.66338,71.29729,-8.151584,WAL
409231373000,1.464959,-1.22691863209607,-9.37209765938865,3.23775517838428,-0.18203785,-0.3827071,-0.06414085,99.585106,71.28574,-8.144256,WAL
409236364000,1.46995,-1.03461211136816,-9.57182227938898,3.4232705903033,-0.18570304,-0.37843102,-0.08093964,99.51544,71.272316,-8.130917,WAL
409241347000,1.474933,-0.852267614933148,-9.76462098819239,3.60384108411183,-0.20341812,-0.41416663,-0.09407325,99.43834,71.26874,-8.1131735,WAL
409246371000,1.479957,-0.768722089112693,-9.89829393418996,3.7124502982115,-0.22357668,-0.4642576,-0.099571034,99.35283,71.26915,-8.077685,WAL
409251377000,1.484963,-0.685475890415003,-10.031487956416,3.82067038694218,-0.26145032,-0.5338962,-0.099571034,99.24634,71.27141,-8.02014,WAL
409256398000,1.489984,-0.684357899603098,-10.1026753525653,3.8593651268151,-0.30482176,-0.559858,-0.1001819,99.1406,71.28027,-7.9623904,WAL
409261352000,1.494938,-0.701198126598903,-10.1593197626331,3.88232905091965,-0.33353242,-0.6123924,-0.09560041,99.010155,71.29326,-7.9001718,WAL
409266369000,1.499955,-0.718252510700226,-10.2166845194579,3.9055850071636,-0.3555236,-0.68203104,-0.10170906,98.85224,71.31584,-7.8243504,WAL
409271397000,1.504983,-0.735344287312036,-10.2741750511133,3.92889195314618,-0.38148534,-0.7302894,-0.10415252,98.68807,71.3438,-7.750785,WAL
409276381000,1.509967,-0.752286493881897,-10.3311624834463,3.95199494017425,-0.4025602,-0.7654142,-0.12156218,98.503006,71.37841,-7.67683,WAL
409281365000,1.514951,-0.769228700451759,-10.3881499157793,3.97509792720232,-0.41691554,-0.75716746,-0.1160644,98.31862,71.41282,-7.610684,WAL
409286590000,1.520176,-0.840313686012207,-10.3873819140387,4.01301807980671,-0.4361578,-0.7675522,-0.10476339,98.11804,71.45567,-7.538689,WAL
409291382000,1.524968,-0.933685099155646,-10.3547022289929,4.05503514503561,-0.45265114,-0.784351,-0.10995574,97.92282,71.49987,-7.4664836,WAL
409296362000,1.529948,-1.00811101783142,-10.3312796359809,4.09640568663112,-0.46914452,-0.8005389,-0.12308934,97.717384,71.542564,-7.4061346,WAL
409301404000,1.53499,-1.07135432053513,-10.3132102287398,4.1370621123585,-0.47739118,-0.79198676,-0.1160644,97.517136,71.58279,-7.352667,WAL
409306388000,1.539974,-1.098911295058,-10.2876941114144,4.19507812964227,-0.4822781,-0.7901542,-0.10873401,97.29604,71.61627,-7.3029084,WAL
409311385000,1.544971,-1.09424658411151,-10.2550404528707,4.26971360220294,-0.47891834,-0.78954333,-0.10873401,97.08157,71.64711,-7.255409,WAL
409316370000,1.549956,-1.10160874271548,-10.2189952967833,4.34131070112487,-0.48563787,-0.81489426,-0.11728613,96.850555,71.670815,-7.213056,WAL
409321382000,1.554968,-1.12292162423899,-10.1787377031181,4.4099854866397,-0.48441613,-0.84116143,-0.12217305,96.62387,71.688934,-7.1728945,WAL
409326380000,1.559966,-1.14417497257388,-10.1385925608318,4.4784684431447,-0.46089783,-0.8885035,-0.14294247,96.37388,71.69422,-7.119688,WAL
409331359000,1.564945,-1.16534752586709,-10.0986000311313,4.54669106027924,-0.44165558,-0.93401295,-0.1591304,96.12224,71.69817,-7.065847,WAL
409336379000,1.569965,-1.1696256064632,-10.0394334165171,4.56232528456014,-0.41355577,-0.9850202,-0.18234327,95.85379,71.69955,-6.9990106,WAL
409341384000,1.57497,-1.14937763555814,-9.95337981766818,4.50158153041504,-0.37293324,-1.0516045,-0.21105394,95.57579,71.692635,-6.9231057,WAL
409346369000,1.579955,-1.17308423061442,-9.82360664238026,4.41264697899371,-0.32406402,-1.1044444,-0.2275473,95.26411,71.65026,-6.848727,WAL
409351416000,1.585002,-1.23855864175133,-9.65056706095791,4.29572862138365,-0.27152961,-1.1215485,-0.2434298,94.95254,71.597534,-6.7662196,WAL
409356418000,1.590004,-1.33027634011893,-9.44453087433102,4.16115988007929,-0.22052236,-1.1258247,-0.25717425,94.64107,71.5377,-6.6774826,WAL
409361382000,1.594968,-1.45277590519326,-9.19953164578791,4.00567943012884,-0.16218472,-1.0980303,-0.25809056,94.34005,71.460785,-6.591632,WAL
409366364000,1.59995,-1.58192397866005,-8.93715200406948,3.8699529422531,-0.11575896,-1.0198395,-0.26908615,94.05177,71.391884,-6.4974527,WAL
409371410000,1.604996,-1.72102203970223,-8.64936322312655,3.75963380938958,-0.08827003,-0.93431836,-0.26908615,93.77797,71.31004,-6.4117,WAL
409376371000,1.609957,-1.77290583733524,-8.43686671209952,3.63764629065508,-0.08368854,-0.86009824,-0.27488935,93.52855,71.232925,-6.3361897,WAL
409381361000,1.614947,-1.70685104180777,-8.32127075218443,3.49610036006319,-0.090713486,-0.77640975,-0.2947425,93.31095,71.1523,-6.267093,WAL
409386320000,1.619906,-1.64120660673348,-8.20639292348324,3.35543377292788,-0.11881329,-0.6957755,-0.3115413,93.115524,71.07126,-6.2201033,WAL
409391383000,1.624969,-1.57418547852594,-8.08910588038703,3.21181713032532,-0.15851954,-0.589485,-0.3313944,92.9555,70.99738,-6.1778407,WAL
409396363000,1.629949,-1.45585540325918,-8.17464910812209,3.04710408497155,-0.2098322,-0.4859433,-0.35643986,92.81078,70.94282,-6.131771,WAL
409403070000,1.636656,-1.17340904880152,-8.76169492584928,2.77019583423004,-0.25167647,-0.37598756,-0.39706242,92.702736,70.899536,-6.087445,WAL
409406510000,1.640096,-1.0122496380361,-9.07591753455532,2.64222068956327,-0.30879238,-0.321926,-0.43096542,92.63014,70.91826,-6.0259333,WAL
409411385000,1.644971,-0.588735861733845,-9.67844255092117,2.62912233549986,-0.38056904,-0.23304509,-0.46395215,92.60188,70.954666,-5.9685907,WAL
409417042000,1.650628,-0.0915976805773737,-10.3674709149873,2.61647270285875,-0.43096542,-0.17195857,-0.55924714,92.63818,71.08609,-5.8592277,WAL
409421390000,1.654976,0.407972513952573,-10.6875075965882,2.65940444487768,-0.5900958,-0.17959438,-0.57360244,92.67557,71.25906,-5.7677836,WAL
409426321000,1.659907,0.97452739647952,-11.0504562803449,2.70809267392445,-0.63438356,-0.1994475,-0.559858,92.76444,71.47524,-5.6171455,WAL
409431364000,1.66495,1.41240958314686,-11.6254372359641,2.53370194151799,-0.70432764,-0.1908954,-0.535118,92.85836,71.73579,-5.4727025,WAL
409436331000,1.669917,1.80077846703961,-12.2535401947384,2.29396811696402,-0.7150178,-0.1695151,-0.5177083,92.94921,71.98539,-5.334362,WAL
409441382000,1.674968,2.11428014233929,-12.8508928106208,1.86583239691708,-0.7012733,-0.10720685,-0.47861293,93.03974,72.293175,-5.131093,WAL
409446366000,1.679952,2.40130362420598,-13.4289823568222,1.3928499104599,-0.6591236,-0.009468411,-0.4392121,93.14324,72.58638,-4.942991,WAL
409451395000,1.684981,2.68194259869817,-13.9699689819495,0.910126666561646,-0.61086524,0.09560041,-0.37965274,93.299706,72.95523,-4.7277226,WAL
409456390000,1.689976,2.94883291852095,-14.4514184584838,0.42344446715239,-0.5531385,0.20463985,-0.3210097,93.47808,73.29706,-4.5365443,WAL
409461382000,1.694968,3.02515393775222,-14.4367195208373,0.224416564030737,-0.47647488,0.32925636,-0.2874121,93.75914,73.74922,-4.3190613,WAL
409466422000,1.700008,2.9750938027343,-14.0908489268339,0.21531471654818,-0.3885103,0.49632803,-0.2611449,94.0722,74.16576,-4.132344,WAL
409472180000,1.705766,2.80288861333889,-13.4811778798458,0.354266983352439,-0.27977628,0.67164636,-0.23823744,94.47257,74.640045,-3.938648,WAL
409476380000,1.709966,2.61007499933306,-12.9111206685077,0.542888935207378,-0.17195857,0.86162543,-0.20463985,94.912476,75.0738,-3.772795,WAL
409481754000,1.71534,2.31012880359948,-11.9400534833115,0.27748605039267,-0.009468411,1.0754282,-0.15485434,95.388084,75.43292,-3.642118,WAL
409486413000,1.719999,2.01812396620419,-10.9530769585079,-0.256882833141361,0.17715092,1.3109168,-0.09987647,95.912445,75.74448,-3.538852,WAL
409491387000,1.724973,1.70637636774869,-9.8993698895288,-0.827380971518325,0.3277292,1.505172,-0.080634214,96.41939,75.95392,-3.4733887,WAL
409496410000,1.729996,1.54509629642161,-9.10914554672035,-1.23307763280296,0.41691554,1.6401732,-0.080634214,96.96563,76.12472,-3.429575,WAL
409501477000,1.735063,1.53249056261852,-8.57970571419665,-1.47573753958956,0.40011674,1.6942347,-0.099571034,97.53526,76.28315,-3.3928351,WAL
409506446000,1.740032,1.52012863420574,-8.06050568897259,-1.71370420168204,0.3100141,1.733941,-0.10445796,98.161415,76.49976,-3.4279637,WAL
409511457000,1.745043,1.57120126813653,-7.39606222955268,-1.8460903991732,0.23915374,1.6789632,-0.10476339,98.7686,76.72088,-3.452478,WAL
409516389000,1.749975,1.70137438706805,-6.56495707653169,-1.84108374477422,0.08827003,1.5653422,-0.11026118,99.36289,76.99341,-3.4684985,WAL
409521390000,1.754976,1.85997250769997,-5.78825504047216,-1.68426258168144,-0.059253927,1.3848315,-0.09773844,99.920876,77.31916,-3.4848783,WAL
409526385000,1.759971,2.04104377037554,-5.06873526654049,-1.39836070320749,-0.17592919,1.1502593,-0.102319926,100.42814,77.68287,-3.4794335,WAL
409531385000,1.764971,2.05520308012159,-5.02184935128871,-1.27863015502501,-0.27183503,0.89369583,-0.1282817,100.8699,78.056114,-3.4400985,WAL
409536356000,1.769942,1.92255298448483,-5.56651864076373,-1.30576311816224,-0.35063666,0.63163465,-0.19394971,100.972488331038,78.4366721921979,-3.17348662329861,WAL
409571323000,1.804909,0.989465900572056,-9.39783045832014,-1.49662176270449,-0.57451874,-1.1414018,-1.317331,101.694115,81.113594,-1.2980858,WAL
409576467000,1.810053,0.835226224063071,-9.96458883957952,-1.55935618647166,-0.52442783,-1.2562444,-1.4239268,101.54197,81.53328,-0.86107326,WAL
409581283000,1.814869,0.482144942436015,-10.5337347170932,-2.04418431517367,-0.45998153,-1.2928963,-1.4526376,101.36709,81.91682,-0.4079023,WAL
409586290000,1.819876,0.151161803676471,-11.0458336034156,-2.45332536508539,-0.45081854,-1.3329079,-1.4184291,101.201385,82.38585,-0.042507682,WAL
409591313000,1.824899,-0.0907288867647059,-11.3607480626186,-2.62675630656546,-0.48472157,-1.3793337,-1.3359623,101.028595,82.81864,0.30437687,WAL
409596289000,1.829875,-0.305278305498351,-11.6620301490553,-2.80963658396481,-0.5852089,-1.4049901,-1.2119566,100.89368,83.32487,0.5914228,WAL
409601329000,1.834915,-0.406608833140058,-11.9177687074878,-3.0460745069879,-0.70066243,-1.3814718,-1.142318,100.76201,83.81321,0.85939133,WAL
409606304000,1.83989,-0.518666727309704,-12.1528060947124,-3.22267608773969,-0.75808376,-1.2534955,-0.99112886,100.663795,84.32518,1.0347409,WAL
409611304000,1.84489,-0.685606999438311,-12.3104721803215,-3.14384323862096,-0.90041536,-1.0827587,-0.82527894,100.58504,84.86671,1.1776055,WAL
409616325000,1.849911,-0.85252206300784,-12.431095180837,-3.05774541129213,-1.0580186,-0.8784242,-0.68019843,100.56212,85.44748,1.2734551,WAL
409621307000,1.854893,-1.01284019529579,-12.2756350692394,-2.92171783900825,-1.2043208,-0.6414085,-0.54702985,100.59516,86.042725,1.3193197,WAL
409626302000,1.859888,-1.14284131256596,-12.0562592940199,-2.80175397504397,-1.3451253,-0.34972036,-0.4266894,100.6864,86.6468,1.311364,WAL
409631290000,1.864876,-1.10083215626344,-11.4821338654485,-2.77374787084229,-1.4514158,0.006414085,-0.30024028,100.86147,87.26003,1.2624731,WAL
409636276000,1.869862,-1.02513663534137,-10.8900073910643,-2.68914999332329,-1.5262468,0.39400807,-0.16157386,101.10253,87.85935,1.1719388,WAL
409641295000,1.874881,-0.642511457028112,-10.1282038895582,-2.08935922871486,-1.5506815,0.7162395,-0.0021380284,101.42327,88.44465,1.0437908,WAL
409646288000,1.879874,-0.261868397590361,-9.37034677000861,-1.49267556908348,-1.5378532,0.95142263,0.13439035,101.80804,88.94346,0.91915566,WAL
409651400000,1.884986,0.157976031896552,-8.8223439375,-0.899352998068966,-1.5082263,1.1123856,0.27000242,102.25948,90.763824,0.7571603,WAL
409656388000,1.889974,0.62785346010168,-8.74315144391026,-0.355562243607427,-1.4654657,1.2119566,0.4083634,102.756226,90.90314,0.5657247,WAL
409661380000,1.894966,1.03975126462666,-8.80754406652745,-0.0297467087804296,-1.4083499,1.2351695,0.5311473,103.24485,91.21952,0.36973262,WAL
409666375000,1.899961,1.39856316413229,-9.00325955131265,0.0966529345011933,-1.3356569,1.2550226,0.6224717,103.755455,91.607544,0.15692893,WAL
409671323000,1.904909,1.73422098969109,-9.2183579287979,0.215340644937041,-1.2739595,1.282817,0.6585127,104.213036,91.95891,-0.012309708,WAL
409676383000,1.909969,1.97565820900444,-9.54759070894103,0.303135994914394,-1.1887437,1.3063353,0.64721173,104.67077,92.29532,-0.18430443,WAL
409681750000,1.915336,2.23078082805065,-9.88834633166365,0.390616545887482,-1.0665708,1.2293663,0.5726862,105.08219,92.59253,-0.28839567,WAL
409686390000,1.919976,2.43069406918046,-10.0016991149297,0.345275400300543,-0.8949176,1.0931433,0.4633413,105.4793,92.84827,-0.3734039,WAL
409692446000,1.926032,2.69161531665507,-10.1496440406753,0.286097387870692,-0.70249504,0.9419542,0.36835176,105.829544,93.04882,-0.4108342,WAL
409696365000,1.929951,2.86046445285933,-10.2453831694727,0.247801709087241,-0.5384777,0.8915578,0.30268374,106.16571,93.20296,-0.42241856,WAL
409701389000,1.934975,3.07692223808265,-10.3681168727332,0.198708192831038,-0.41538838,0.7535023,0.26389378,106.42544,93.31207,-0.41740158,WAL
409706409000,1.939995,3.06685189748201,-10.4369627553957,0.0950446419496403,-0.37751472,0.66859204,0.19792034,106.681725,93.39475,-0.38438705,WAL
409711371000,1.944957,2.94089934343052,-10.4774478655812,-0.0354062600787581,-0.34300083,0.57451874,0.11728613,106.892555,93.4418,-0.33766764,WAL
409716366000,1.949952,2.8315257113504,-10.4639114954224,-0.222156611364128,-0.3436117,0.45998153,0.037873644,107.08579,93.51332,-0.2165619,WAL
409721387000,1.954973,2.73647591427382,-10.403879934665,-0.457279581469829,-0.39095375,0.36896262,-0.047647487,107.255615,93.59112,-0.07299084,WAL
409726380000,1.959966,2.6256577785938,-10.3572585945045,-0.665880732321447,-0.47983465,0.32253686,-0.09315695,107.4118,93.705894,0.065588616,WAL
409731357000,1.964943,2.50528255529852,-10.318738756339,-0.858481054399434,-0.5919284,0.24617869,-0.15057829,107.53046,93.84546,0.2274339,WAL
409736391000,1.969977,2.3568396286199,-10.2800798659814,-1.00878534845824,-0.7089091,0.1957823,-0.17562376,107.64501,94.05911,0.38223898,WAL
409741381000,1.974967,2.19470008296577,-10.2419285996408,-1.1327744991917,-0.79901177,0.1563815,-0.20952678,107.7389,94.299706,0.55164695,WAL
409746363000,1.979949,2.02535802459299,-10.2164217075273,-1.08218654623635,-0.86742866,0.12644911,-0.22907446,107.83334,94.59705,0.70833415,WAL
409751503000,1.985089,1.84622159172572,-10.1975653600843,-0.926620719957863,-0.895223,0.118507855,-0.24251351,107.92214,94.90652,0.86937636,WAL
409756417000,1.990003,1.64772259472064,-10.1475665977054,-0.75776382515437,-0.9129381,0.12797627,-0.2406809,108.01385,95.24331,1.00807,WAL
409762032000,1.995618,1.39693556711128,-10.0622990963063,-0.547102668541181,-0.91354895,0.12675454,-0.26297748,108.09966,95.57958,1.1541289,WAL
409766367000,1.999953,1.21355756410189,-9.99844569111417,-0.380375311089811,-0.8765916,0.15577064,-0.26633725,108.16418,95.871414,1.2623004,WAL
409771388000,2.004974,1.01494274133658,-9.92714796970981,-0.181760530866342,-0.80664754,0.1908954,-0.26633725,108.23027,96.14958,1.3737782,WAL
409776385000,2.009971,0.826136003538813,-9.9002019997022,-0.0641087066885051,-0.70280045,0.19425514,-0.28527406,108.27224,96.356705,1.4507674,WAL
409781372000,2.014958,0.645982905707763,-9.91442489994044,-0.021440867337701,-0.5714644,0.23090707,-0.28924468,108.334625,96.53152,1.5241963,WAL
409786351000,2.019937,0.484106104066095,-9.90643734836589,-0.0562141233165967,-0.4392121,0.26419923,-0.28771752,108.37665,96.63215,1.5679189,WAL
409791390000,2.024976,0.338725562694906,-9.8755988891729,-0.170756366499909,-0.32498032,0.31856623,-0.28130344,108.434975,96.69939,1.612344,WAL
409796384000,2.02997,0.204082680534941,-9.81162423758173,-0.346175090893267,-0.23609942,0.33444872,-0.26939157,108.46768,96.722374,1.6095015,WAL
409801488000,2.035074,0.0878696668302624,-9.67050862715463,-0.665760869913391,-0.21746802,0.3848451,-0.25534168,108.52502,96.732796,1.6078138,WAL
409806835000,2.040421,-0.0276551405564296,-9.52480108710773,-0.989816152943612,-0.21197024,0.3998113,-0.24678956,108.58083,96.737,1.5756702,WAL
409811381000,2.044967,-0.00602584697027407,-9.4418886268941,-1.05830894357042,-0.25259277,0.3857614,-0.24007004,108.64141,96.74925,1.5434098,WAL
409816406000,2.049992,0.0178824680914134,-9.35023989997516,-1.13401863844498,-0.27305678,0.35888332,-0.2012801,108.73882,96.81239,1.4874953,WAL
409821384000,2.05497,0.0775996055584743,-9.24892692361038,-1.16294056592414,-0.3735441,0.3555236,-0.17806722,108.8372,96.91027,1.4381466,WAL
409826384000,2.05997,0.168165182946307,-9.13823552926342,-1.1528776784596,-0.49021935,0.3662137,-0.15241088,108.932106,97.016266,1.38053,WAL
409832017000,2.065603,0.273791048125829,-9.03913159882509,-1.04193007136631,-0.5644395,0.40317106,-0.13408493,109.04669,97.15678,1.3244166,WAL
409836396000,2.069982,0.357235577617965,-8.97158156139852,-0.918750054405913,-0.589485,0.4428773,-0.12186762,109.165054,97.313995,1.2675695,WAL
409841380000,2.074966,0.464391686252227,-8.90283464116017,-0.772763555949317,-0.5729916,0.48258355,-0.12186762,109.29258,97.48595,1.2165055,WAL
409846362000,2.079948,0.582466427673728,-8.84143551049297,-0.621627864046723,-0.5375614,0.50915617,-0.13530666,109.42678,97.657715,1.1709771,WAL
409851441000,2.085027,0.693589193316146,-8.79885673999809,-0.451435850953881,-0.49174652,0.51893,-0.15393804,109.557396,97.799995,1.1422777,WAL
409856390000,2.089976,0.79315033340972,-8.77622922963812,-0.270415635760527,-0.4538729,0.5018258,-0.16798794,109.68608,97.93332,1.1186494,WAL
409861380000,2.094966,0.867951484076433,-8.77839379617835,-0.133526309859873,-0.4474588,0.47891834,-0.19211712,109.808136,98.03958,1.1215236,WAL
409866467000,2.100053,0.906739074358081,-8.81718166490844,-0.0607995718799761,-0.4538729,0.44684792,-0.21319197,109.92072,98.13819,1.1271341,WAL
409871375000,2.104961,0.914891582988411,-8.85345158443709,-0.0560576157770419,-0.44806966,0.4343252,-0.24740042,110.01594,98.20161,1.1586993,WAL
409876380000,2.109966,0.879621593818985,-8.88872136644592,-0.148641339533481,-0.43249258,0.4456262,-0.27672195,110.10705,98.26393,1.1940308,WAL
409881353000,2.114939,0.83651913812279,-8.92278558791385,-0.254159394014786,-0.39706242,0.46639562,-0.30818152,110.189156,98.30713,1.2431763,WAL
409886394000,2.11998,0.764101524568735,-8.95382179288546,-0.409339981370406,-0.3735441,0.5198463,-0.32375857,110.282196,98.34948,1.2967741,WAL
409891311000,2.124897,0.69481668490933,-8.96174602775808,-0.529340002864958,-0.3387248,0.54092115,-0.3463606,110.37344,98.39786,1.350624,WAL
409896363000,2.129949,0.626196665304427,-8.92743582858879,-0.593058610045588,-0.32284227,0.54367006,-0.35369098,110.47324,98.444885,1.4048101,WAL
409902041000,2.135627,0.578753102244002,-8.89375514299298,-0.641122793556905,-0.2959642,0.5656612,-0.36132678,110.58761,98.50472,1.4570004,WAL
409906388000,2.139974,0.569618284903452,-8.87244078964306,-0.656347490184318,-0.29779682,0.5723807,-0.36132678,110.69686,98.56794,1.507631,WAL
409911318000,2.144904,0.559258347132826,-8.84826785152136,-0.673614054337332,-0.29932398,0.57940567,-0.35827246,110.81343,98.633705,1.5480628,WAL
409916370000,2.149956,0.517190842785252,-8.83301554616412,-0.641689342785252,-0.29840767,0.5907067,-0.3549127,110.931366,98.69902,1.588417,WAL
409921375000,2.154961,0.458118940916093,-8.82317003214543,-0.582617440916093,-0.28863382,0.5720753,-0.35735616,111.040924,98.762184,1.6281364,WAL
409926385000,2.159971,0.365440414646371,-8.83275437404864,-0.493067771227028,-0.28130344,0.5448918,-0.35308012,111.14689,98.83121,1.6651921,WAL
409931357000,2.164943,0.25937199658437,-8.85043233989233,-0.391418863085205,-0.2929099,0.5183192,-0.36346483,111.24546,98.90334,1.7058526,WAL
409936392000,2.169978,0.184109500861579,-8.8465849241355,-0.322171829009477,-0.30848694,0.49663344,-0.37384954,111.333496,98.9601,1.7278917,WAL
409941383000,2.174969,0.135921333970965,-8.82490031474947,-0.281211888561347,-0.32070425,0.4718934,-0.38453966,111.41133,99.01937,1.7516938,WAL
409946366000,2.179952,0.0878104071795544,-8.80325046330275,-0.240317602195282,-0.33108896,0.45875978,-0.3912592,111.46855,99.05684,1.7522645,WAL
409951388000,2.184974,0.0393229349045267,-8.78143116690191,-0.199103252179151,-0.344528,0.4373795,-0.40042216,111.51489,99.09892,1.7558382,WAL
409956383000,2.189969,0.0030466202751037,-8.82872949387479,-0.206119822970001,-0.35246924,0.41325033,-0.40591997,111.55551,99.14186,1.7616565,WAL
409961379000,2.194965,-0.0246445499415453,-8.9256486168612,-0.247656582391241,-0.3885103,0.376293,-0.41996986,111.58499,99.196785,1.7713025,WAL
409966360000,2.199946,-0.0457972015381826,-9.07583108589784,-0.363023594827479,-0.40194935,0.35735616,-0.4251622,111.60043,99.229195,1.7600666,WAL
409971538000,2.205124,-0.0612117834772562,-9.28649724598487,-0.558274933148897,-0.4098906,0.3494149,-0.44593164,111.6071,99.27084,1.7570274,WAL
409976382000,2.209968,-0.0445936177971588,-9.45308797219685,-0.665735273763572,-0.38331795,0.3555236,-0.47616947,111.61307,99.30947,1.7562976,WAL
409981352000,2.214938,-0.00595598702191781,-9.60280852876712,-0.723691712109589,-0.35613444,0.35796702,-0.4990769,111.61533,99.34967,1.7596257,WAL
409986368000,2.219954,0.0252106989509245,-9.75253744158143,-0.751254700599921,-0.31398472,0.3594942,-0.5198463,111.62936,99.404686,1.7815441,WAL
409991391000,2.224977,0.0512309240236526,-9.90156216492919,-0.758351145402242,-0.27855456,0.34972036,-0.5369505,111.640236,99.45377,1.808521,WAL
409996360000,2.229946,0.0769714174312549,-10.0489847909127,-0.765371299537766,-0.2443461,0.30451632,-0.5390886,111.64902,99.4981,1.838037,WAL
410001451000,2.235037,0.103343897193401,-10.2000269702006,-0.772563814068647,-0.23396139,0.2556471,-0.5329799,111.653656,99.53893,1.8691803,WAL
410006477000,2.240063,0.0917508259583895,-10.3178270197457,-0.811764941770372,-0.2275473,0.19333886,-0.5342017,111.64587,99.56868,1.9064951,WAL
410011383000,2.244969,0.0510212631034483,-10.4083375689655,-0.875122023793103,-0.22571471,0.1423316,-0.5290093,111.628456,99.59551,1.9382616,WAL
410016365000,2.249951,-0.00291476743321003,-10.4759560923757,-0.930139989046445,-0.22357668,0.10842858,-0.5222898,111.59458,99.6165,1.9732304,WAL
410021395000,2.254981,-0.0722118039108097,-10.5155546795109,-0.974688071372791,-0.22327125,0.09162979,-0.5036584,111.553116,99.635895,2.0009432,WAL
410026382000,2.259968,-0.156362502496483,-10.5414448470412,-0.965841118887743,-0.22968534,0.070554934,-0.48655418,111.5052,99.66208,2.0215235,WAL
410031359000,2.264945,-0.254702822854731,-10.5548546951139,-0.907730921523023,-0.21960606,0.048563786,-0.45142943,111.45539,99.68057,2.0305624,WAL
410036403000,2.269989,-0.367308809703853,-10.5513854620529,-0.820215212355376,-0.20861048,0.046120327,-0.410196,111.40825,99.700935,2.0268698,WAL
410041387000,2.274973,-0.499035903252309,-10.5209868181722,-0.68848812409723,-0.20616703,0.061086524,-0.37598756,111.36264,99.71842,2.015439,WAL
410046371000,2.279957,-0.599626620112327,-10.4919191942481,-0.511788368048804,-0.19608775,0.089186326,-0.33628133,111.306786,99.71126,1.9870523,WAL
410051694000,2.28528,-0.673671369633001,-10.4623017274136,-0.274845174737097,-0.18936823,0.124005646,-0.2950479,111.26032,99.70223,1.9507318,WAL
410056388000,2.289974,-0.756313935451887,-10.4540125450973,-0.052303563406744,-0.17104226,0.14782938,-0.26206118,111.2059,99.65806,1.8909329,WAL
410061381000,2.294967,-0.865554985342228,-10.4671212803619,0.201135696065064,-0.15210545,0.17104226,-0.20525073,111.16533,99.60943,1.8165762,WAL
410066371000,2.299957,-0.974911567431544,-10.49234567092,0.456476973695509,-0.1328632,0.18967366,-0.17256944,111.10882,99.51407,1.7281855,WAL
410071388000,2.304974,-1.08542456525739,-10.5554958533406,0.719603138584885,-0.10629055,0.17684549,-0.13347405,111.05355,99.41086,1.6246413,WAL
410076324000,2.30991,-1.16248772751092,-10.6222819439592,0.956802457350801,-0.08032878,0.17531833,-0.087659165,110.97792,99.24806,1.5048139,WAL
410081356000,2.314942,-1.19522268203785,-10.6971044390587,1.16724133214944,-0.04550946,0.17440203,-0.0571159,110.900536,99.078705,1.3813039,WAL
410086326000,2.319912,-1.20789105022624,-10.7719400742081,1.3877530400905,0.0036651916,0.17898351,-0.019547688,110.794624,98.85522,1.2312175,WAL
410091384000,2.32497,-1.18353737782805,-10.8498719276018,1.63616065113122,0.042455133,0.18051068,0.0009162979,110.68899,98.63069,1.0816863,WAL
410096363000,2.329949,-1.18224454147415,-10.9153631841584,1.84558828626183,0.06383542,0.17806722,0.014966198,110.56444,98.36277,0.91741556,WAL
410101485000,2.335071,-1.22109792607261,-10.9628507168317,1.99884330454125,0.13194689,0.16554448,0.039095376,110.43929,98.07787,0.74920434,WAL
410106595000,2.340181,-1.25986028360836,-11.0102269940594,2.15173927162596,0.22327125,0.13775012,0.06078109,110.284454,97.744736,0.5881511,WAL
410111383000,2.344969,-1.29618008162816,-11.0546179168317,2.29500069831903,0.33658674,0.10170906,0.08460484,110.12551,97.394966,0.42373338,WAL
410116593000,2.350179,-1.3357009980198,-11.1029213227723,2.45088875869307,0.48197266,0.04520403,0.09865474,109.94937,97.02125,0.26094654,WAL
410121394000,2.35498,-1.43274390773659,-11.1810891022119,2.50281292294718,0.63224554,-0.0076358155,0.12675454,109.766045,96.6244,0.09133843,WAL
410126373000,2.359959,-1.54351119422281,-11.2677768061812,2.54134065727704,0.8038987,-0.07147124,0.16890424,109.56498,96.1922,-0.08334883,WAL
410131360000,2.364946,-1.69805740908206,-11.4615859405237,2.5787535137253,0.977079,-0.17745635,0.21135938,109.30484,95.67105,-0.2816884,WAL
410136361000,2.369947,-1.86123040511048,-11.6760418475616,2.61605027363964,1.138042,-0.3005457,0.27488935,109.02391,95.12571,-0.49345827,WAL
410141383000,2.374969,-2.00115055047161,-11.8304525400407,2.55408323621232,1.3087788,-0.4184427,0.33475417,108.70849,94.547676,-0.7252625,WAL
410146367000,2.379953,-2.13356451673756,-11.9672797936009,2.46580730479009,1.4715744,-0.51923543,0.42271876,108.3658,93.96762,-0.976918,WAL
410151519000,2.385105,-2.2646059467459,-11.958822433049,2.29434887056455,1.6392568,-0.5925393,0.5109888,107.99736,93.38794,-1.2521281,WAL
410157145000,2.390731,-2.40404193219592,-11.8555365578453,2.05679114189591,1.8096883,-0.6420194,0.6200282,107.61037,92.87118,-1.5489391,WAL
410161380000,2.394966,-2.44457869652912,-11.6553390312379,1.84239593015812,1.9978348,-0.6722572,0.71593404,107.2212,92.49564,-1.8657073,WAL
410166374000,2.39996,-2.44918981677593,-11.3371713490166,1.56572857090243,2.1954496,-0.66737026,0.8512407,106.830635,92.37465,-2.212705,WAL
410171400000,2.404986,-2.27707910382609,-10.9696260315528,1.3363607853913,2.3570235,-0.6728681,0.99296147,106.455734,92.58092,-2.5800555,WAL
410176390000,2.409976,-1.90605220991304,-10.5511079129193,1.16420426669565,2.4941628,-0.7012733,1.1404854,106.07589,86.92927,-2.97464,WAL
410181430000,2.415016,-1.53130761165217,-10.1283962259627,0.990322732782609,2.5757134,-0.7473936,1.284955,105.723404,86.264885,-3.3914647,WAL
410186346000,2.419932,-1.12256635913852,-9.76489546472852,0.86313477819581,2.6239717,-0.7583892,1.4217888,105.36993,85.485405,-3.8348136,WAL
410191487000,2.425073,-0.554234661174647,-9.54387752265926,0.868397104916631,2.6395488,-0.7706065,1.527774,104.99919,84.643425,-4.2957997,WAL
410196365000,2.429951,-0.0557115449220356,-9.40790640618575,0.935483016886566,2.7021625,-0.77274454,1.5738943,104.61632,83.848274,-4.7013745,WAL
410201385000,2.434971,0.389127510269877,-9.39143098295065,1.10847599306888,2.720183,-0.8335256,1.638646,104.206184,83.03376,-5.125571,WAL
410206558000,2.440144,0.863838811671388,-9.39107658073654,1.24148513994334,2.731484,-0.91996306,1.7098118,103.78913,82.24203,-5.4954033,WAL
410211383000,2.444969,1.49964427282072,-9.58742830574666,0.830081641865641,2.7433958,-0.86834496,1.7702875,103.38726,81.44315,-5.8684397,WAL
410216436000,2.450022,2.16105904699374,-9.81022769565612,0.413833209359935,2.7522533,-0.72204274,1.7681495,103.02031,80.62876,-6.208043,WAL
410221392000,2.454978,2.75504160210393,-10.2406495764941,0.185709453413258,2.7650816,-0.5531385,1.7614299,102.66648,79.80886,-6.553687,WAL
410227286000,2.460872,3.45159057471429,-10.7660132214286,-0.08337294314,2.7711902,-0.39278635,1.7498235,102.42904,79.09001,-6.8382535,WAL
410231377000,2.464963,3.7351697724381,-11.4040670104762,-0.225162579405333,2.7769935,-0.20586158,1.7033978,102.243225,78.38596,-7.109314,WAL
410236348000,2.469934,4.07974865092381,-12.1793702090476,-0.397452064097333,2.7690523,0.032070424,1.6291776,102.16937,77.783264,-7.3101673,WAL
410241410000,2.474996,4.2775917309244,-12.8368800465439,-0.755270399796428,2.6859746,0.29779682,1.5161675,102.15519,77.220345,-7.4905205,WAL
410246378000,2.479964,4.42287357476636,-13.4400192429907,-1.16470085420561,2.5512786,0.5170974,1.4480561,102.19106,76.68573,-7.6663713,WAL
410251455000,2.485041,4.3505176013318,-13.5129404302175,-1.22895448409318,2.4211645,0.79779,1.3054191,102.3642,76.28476,-7.7570596,WAL
410256464000,2.49005,4.13516845366121,-13.2305937838188,-1.06146067481045,2.21683,1.0048733,1.1820242,102.57551,75.94749,-7.839536,WAL
410261382000,2.494968,3.92373161831604,-12.953376613328,-0.897009775618516,2.032654,1.142318,1.0693196,102.911385,75.76247,-7.8727546,WAL
410266404000,2.49999,3.70782356888468,-12.6702971846568,-0.729081264894254,1.8839084,1.2678508,0.96883225,103.30154,75.63697,-7.8857975,WAL
410271386000,2.504972,3.40860014643304,-12.3232050638298,-0.499288463454318,1.706452,1.2977833,0.88239485,103.71223,75.57361,-7.8788724,WAL
410276384000,2.50997,3.04916429536921,-11.9288238723404,-0.224719361326658,1.5457945,1.2947289,0.81092364,104.1469,75.55568,-7.853038,WAL
410281357000,2.514943,2.69369726045949,-11.6476623974514,-0.000872076917496079,1.4016303,1.271516,0.73273283,104.53576,75.49785,-7.848432,WAL
410286398000,2.519984,2.33446231221282,-11.418650203516,0.201197573265743,1.2705997,1.2709051,0.66798115,104.92803,75.48708,-7.8270316,WAL
410291474000,2.52506,2.0255293125237,-11.2812225995261,0.447914866760664,1.212262,1.2687671,0.6374379,105.293335,75.42154,-7.835568,WAL
410296723000,2.530309,1.75453121651659,-11.2246403696682,0.742736979682464,1.1178834,1.2571607,0.5726862,105.657295,75.415016,-7.8135962,WAL
410301409000,2.534995,1.51259997668246,-11.1741270663507,1.00593690750711,1.0354166,1.1927143,0.5589417,105.97508,75.35612,-7.836071,WAL
410306393000,2.539979,1.21480507935135,-11.1444002,1.34503233783784,1.0118983,1.0830641,0.53786683,106.276955,75.32062,-7.8327866,WAL
410311402000,2.544988,0.677686702250965,-11.2555284428571,2.03340818416988,0.96669424,0.9297369,0.5308419,106.54436,75.3134,-7.820959,WAL
410316385000,2.549971,0.143356322316602,-11.3660798571429,2.71821090772201,0.9443977,0.68416905,0.54733527,106.70098,75.20656,-7.840776,WAL
410321556000,2.555142,-0.393877590709616,-11.475562751208,3.38538995513027,0.90469146,0.44012842,0.6291912,106.808235,75.10976,-7.8662343,WAL
410326380000,2.559966,-0.674001233282804,-11.5105779985789,3.45104384102321,0.8570439,0.13072516,0.7648033,106.82129,75.01287,-7.891081,WAL
410331378000,2.564964,-0.96422883808811,-11.5468562337281,3.51906583971577,0.7861836,-0.13072516,0.9425651,106.64116,74.71884,-8.012899,WAL
410336363000,2.569949,-1.0617489152852,-11.4837085529801,3.16170155472121,0.7131852,-0.23090707,1.110553,106.41243,74.423874,-8.15875,WAL
410341476000,2.575062,-1.13507935272413,-11.4103417947535,2.76404747042375,0.70829827,-0.22602014,1.2226468,106.13396,74.11658,-8.325856,WAL
410346366000,2.579952,-1.072080581032,-11.3383426883828,2.44905370593831,0.8145888,-0.17806722,1.2589933,105.835785,73.763275,-8.545029,WAL
410351746000,2.585332,-0.997357552692055,-11.2484500381758,2.1086580661213,0.95417154,-0.13988814,1.239751,105.59449,73.440704,-8.7953205,WAL
410356536000,2.590122,-0.816195176631876,-10.9421999131171,1.93612240124118,1.0839803,-0.089491755,1.1899655,105.37048,73.09901,-9.043683,WAL
410361367000,2.594953,-0.633482141402915,-10.6333284404325,1.76210991751763,1.1679744,-0.032986723,1.1276573,105.223816,72.78455,-9.289576,WAL
410366443000,2.600029,-0.365433719035468,-10.1586035018142,1.71853294078374,1.1939361,0.021991149,1.0650436,105.093445,72.46687,-9.51775,WAL
410371383000,2.604969,-0.0907781225024492,-9.66937321879536,1.70136697851959,1.2507466,-0.054061573,1.0650436,104.940735,72.12838,-9.733839,WAL
410376393000,2.609979,0.266169342033333,-9.26000726243386,1.59440655391534,1.2208142,-0.18387043,1.0937542,104.829056,71.82595,-9.933452,WAL
410381406000,2.614992,0.667510489653333,-8.89930785481481,1.43691819896296,1.1472049,-0.22204952,1.1016954,104.72174,71.53051,-10.122768,WAL
410386387000,2.619973,0.922864497685514,-8.67216554461476,1.29980817758603,1.1071932,-0.28527406,1.105666,104.5818,71.21459,-10.294529,WAL
410391393000,2.624979,1.13213105101005,-8.48723269434575,1.16840832557101,1.0928379,-0.3191771,1.1078042,104.43827,70.91555,-10.4620905,WAL
410396358000,2.629944,1.35170364937315,-8.34745447765336,1.06162692288736,1.0500773,-0.33169982,1.1120802,104.30813,70.65378,-10.6019535,WAL
410401444000,2.63503,1.58011533014643,-8.21693328079242,0.959074710378984,0.9257663,-0.36957347,1.1404854,104.15924,70.416565,-10.73969,WAL
410406385000,2.639971,1.66191768500401,-8.14917909141941,0.946598610505212,0.8005389,-0.47158796,1.1612549,104.007355,70.212975,-10.8556595,WAL
410411403000,2.644989,1.68332750535507,-8.10635954014078,0.972290363628263,0.69913524,-0.6230826,1.1917981,103.828445,70.03222,-10.970329,WAL
410416374000,2.64996,1.67639535271865,-8.04776350888938,0.885901628829822,0.6169739,-0.7504479,1.2095132,103.645454,69.89757,-11.058839,WAL
410421397000,2.654983,1.63395191679718,-7.96818200421308,0.657768292323812,0.5348125,-0.7742717,1.2247849,103.4484,69.7864,-11.146956,WAL
410426382000,2.659968,1.463214111724,-7.90931392916172,0.505932968291815,0.45845437,-0.72326446,1.212873,103.24303,69.687584,-11.2286415,WAL
410431360000,2.664946,1.21815542902333,-7.86218743542902,0.397541624270463,0.3662137,-0.6918049,1.1881329,103.02763,69.614746,-11.303546,WAL
410436403000,2.669989,0.968013599682428,-7.79688785344037,0.336251863357445,0.28802297,-0.6771441,1.1624765,102.8539,69.58456,-11.387933,WAL
410441387000,2.674973,0.719591096647848,-7.72109790298165,0.306778001550812,0.21624629,-0.6713409,1.1059716,102.69393,69.58543,-11.4554615,WAL
410446421000,2.680007,0.451357442562222,-7.60926970112169,0.312005268497355,0.15454891,-0.6582073,1.0332786,102.56096,69.60764,-11.542607,WAL
410451395000,2.684981,0.153953504655556,-7.43284355280423,0.382575696243386,0.14202617,-0.6575964,0.9663888,102.43342,69.64386,-11.612056,WAL
410456386000,2.689972,-0.101808507417968,-7.28762203019307,0.484264750334724,0.1151481,-0.65148777,0.9068295,102.324005,69.68695,-11.699774,WAL
410461384000,2.69497,-0.306140971375861,-7.1808120013389,0.623582339507131,0.09132435,-0.66645396,0.8481864,102.21749,69.74272,-11.764813,WAL
410466403000,2.699989,-0.442634996485062,-7.09221022573142,0.770970067703918,0.04886922,-0.69058317,0.7840455,102.12604,69.761246,-11.867572,WAL
410471390000,2.704976,-0.472259441739895,-7.03296112899824,0.928967074692443,-0.008246681,-0.7556403,0.7165449,102.026505,69.798485,-11.945502,WAL
410476381000,2.709967,-0.424235774738344,-6.9792518462227,1.01728087761165,-0.07666359,-0.8176431,0.6441574,101.91539,69.804474,-12.036542,WAL
410481909000,2.715495,-0.268007398495967,-6.92717581325005,1.02248848634665,-0.15577064,-0.84971356,0.5647449,101.80285,69.83794,-12.101498,WAL
410486347000,2.719933,-0.0878577510018033,-6.82738725773392,1.04061377480465,-0.19028452,-0.89980453,0.52503866,101.64853,69.84837,-12.159688,WAL
410491340000,2.724926,0.185190611464636,-6.64056457389301,1.0789363753356,-0.2678644,-0.9767735,0.4560109,101.489235,69.90413,-12.181971,WAL
410496363000,2.729949,0.43486191793804,-6.44742818557643,1.078808573032,-0.35063666,-1.1142182,0.40775254,101.29548,69.98097,-12.174071,WAL
410501351000,2.734937,0.648355137489081,-6.24849154598273,1.02543525041138,-0.45020768,-1.2244794,0.35705075,101.09674,70.08964,-12.142768,WAL
410506351000,2.739937,0.910689257503949,-5.95380112954186,0.87695106842812,-0.5564982,-1.2837334,0.3042109,100.85679,70.236115,-12.060197,WAL
410511347000,2.744933,1.23192840718799,-5.54280396619273,0.612401241678515,-0.65026605,-1.3158038,0.24831672,100.60163,70.40909,-11.957877,WAL
410516377000,2.749963,1.42956681363277,-5.23642137208152,0.451553833721805,-0.7247916,-1.3191634,0.17867808,100.34212,70.62825,-11.8133135,WAL
410521407000,2.754993,1.45816073142066,-5.07438874000792,0.432491173759399,-0.79168135,-1.3176364,0.1142318,100.082924,70.87253,-11.655029,WAL
410526326000,2.759912,1.46453208009838,-4.94998716096901,0.440099731686178,-0.8686504,-1.2892311,0.04734206,99.85601,71.19889,-11.446664,WAL
410531409000,2.764995,1.43819328922774,-4.87336524889326,0.487988477363502,-0.97402465,-1.2495248,-0.012217305,99.640976,71.553665,-11.226107,WAL
410536335000,2.769921,1.41266803173635,-4.79910997860305,0.534398070361043,-1.0595458,-1.1765264,-0.07696902,99.447395,71.92706,-10.992698,WAL
410541426000,2.775012,1.38628778693556,-4.7223674733153,0.582362186875553,-1.1652255,-1.072374,-0.13591751,99.28155,72.33454,-10.752401,WAL
410546361000,2.779947,1.34225227178489,-4.68351450044224,0.641579987695029,-1.2663237,-0.93767816,-0.17989981,99.13346,72.74869,-10.51724,WAL
410552354000,2.78594,1.24580064566602,-4.71904923752875,0.743108023000177,-1.3704761,-0.75533485,-0.22113322,99.035576,73.192894,-10.27966,WAL
410556334000,2.78992,1.16915709263216,-4.7569732790985,0.834298142577629,-1.4645494,-0.54000485,-0.2574797,98.981224,73.64408,-10.053793,WAL
410561301000,2.794887,0.915037522726767,-4.98462208350584,1.24724238286477,-1.5482379,-0.33628133,-0.28771752,98.9804,74.11738,-9.831465,WAL
410566319000,2.799905,0.659953254752246,-5.23152033856853,1.63566920921472,-1.6206255,-0.19792034,-0.33444872,99.007576,74.58845,-9.621501,WAL
410571307000,2.804893,0.410795331502946,-5.52220453016517,1.94480962714189,-1.6807957,-0.11484267,-0.4025602,99.081825,75.078735,-9.407813,WAL
410576305000,2.809891,0.151754356089698,-5.82039331282416,2.24815956953117,-1.7238617,-0.08277224,-0.47433686,99.1331,75.49587,-9.225694,WAL
410581295000,2.814881,-0.144704933842164,-6.14601250737313,2.52517886384623,-1.7611245,-0.047647487,-0.5112942,99.21187,75.92425,-9.04129,WAL
410586309000,2.819895,-0.440422806777166,-6.47092705478217,2.7824694924687,-1.7745636,-0.03023783,-0.5696318,99.26692,76.280136,-8.883949,WAL
410591301000,2.824887,-0.727698228197296,-6.78692990385578,2.96919858963445,-1.7938058,-0.047036625,-0.6337727,99.32511,76.64638,-8.717359,WAL
410596286000,2.829872,-1.0055536355391,-7.09427302491103,3.14437883702991,-1.7867808,-0.081855945,-0.6933321,99.35916,76.92712,-8.598256,WAL
410601401000,2.834987,-1.2599741143551,-7.38167413523132,3.28572350101952,-1.7684549,-0.15271631,-0.7425067,99.381134,77.2135,-8.464243,WAL
410606355000,2.839941,-1.49684347154356,-7.66207799474321,3.44771865102928,-1.7373008,-0.25320363,-0.7910705,99.37276,77.42815,-8.375126,WAL
410611391000,2.844977,-1.68922276089465,-7.95751761255075,3.73972292694636,-1.6777414,-0.38881573,-0.83108217,99.33628,77.636215,-8.271651,WAL
410616469000,2.850055,-1.88320648435074,-8.25542118269107,4.03416250460859,-1.5897768,-0.5626069,-0.8512407,99.24745,77.77004,-8.215968,WAL
410621684000,2.85527,-2.11058832408304,-8.67050334570292,4.42968573550608,-1.4886786,-0.77518797,-0.8738427,99.11164,77.89488,-8.140952,WAL
410626398000,2.859984,-2.35338209041626,-9.19008177444337,4.91041739690223,-1.3952162,-0.9859365,-0.8912524,98.92903,78.00391,-8.055139,WAL
410631354000,2.86494,-2.647044012888,-9.83198017698312,5.3653430510982,-1.2852604,-1.2315043,-0.8546005,98.62567,77.97465,-8.032297,WAL
410636424000,2.87001,-2.98636956925032,-10.5855474650572,5.77958455273189,-1.1795808,-1.4672983,-0.81489426,98.26996,77.93287,-7.994217,WAL
410641340000,2.874926,-3.33977867182847,-11.355936681358,6.04132790339488,-1.0775663,-1.6392568,-0.7602218,97.80296,77.76042,-8.014341,WAL
410646364000,2.87995,-3.76007063291642,-12.2395048783006,5.96968732908477,-0.9779953,-1.6920967,-0.6719518,97.307816,77.56257,-8.04242,WAL
410651411000,2.884997,-4.15069703848642,-13.0746666324154,5.82576044545371,-0.8958339,-1.6197093,-0.54336464,96.758514,77.245865,-8.152302,WAL
410656395000,2.889981,-4.45943456138422,-13.7715313361671,5.50820204390131,-0.799928,-1.4746287,-0.410196,96.223015,76.90926,-8.2737255,WAL
410661370000,2.894956,-4.74318295939156,-14.4138518743867,5.19944878494603,-0.6462954,-1.2702943,-0.26908615,95.752464,76.54329,-8.475075,WAL
410666390000,2.899976,-4.84697705085378,-14.6639010794897,4.94939923499509,-0.48288897,-1.0027353,-0.10903945,95.34629,76.15502,-8.706679,WAL
410671374000,2.90496,-4.9268763840797,-14.8738580248577,4.71435692616698,-0.32406402,-0.7119634,0.05100725,95.02469,75.8133,-8.978487,WAL
410676388000,2.909974,-4.744644456926,-14.6506241840607,4.62779659070209,-0.18845193,-0.5766568,0.16676621,94.74062,75.445885,-9.264501,WAL
410681712000,2.915298,-4.52935585863381,-14.3856790985686,4.54524712975177,-0.060170226,-0.25228736,0.26450464,94.59136,75.10182,-9.585506,WAL
410686390000,2.919976,-3.85966481299148,-13.5374040255481,4.67918537278492,0.038179077,-0.1704314,0.30451632,94.417366,74.746216,-9.8947315,WAL
410691323000,2.924909,-3.15346859064142,-12.6428890757384,4.82042465300779,0.07971791,-0.05589417,0.3491095,94.33587,74.395386,-10.219536,WAL
410696359000,2.929945,-2.77686551664016,-12.1239600084183,4.95449375942381,0.13561209,-0.010995574,0.3827071,94.26054,74.03482,-10.533968,WAL
410701463000,2.935049,-2.50711331609765,-11.7261893572163,5.08708365821719,0.17684549,-0.01985312,0.3979787,94.20408,73.68255,-10.841305,WAL
410706388000,2.939974,-2.31160276699171,-11.3596801788936,5.1909196015128,0.18692477,-0.06963864,0.40286562,94.09454,73.34208,-11.079321,WAL
410711350000,2.944936,-2.15136901104529,-11.0002370229655,5.28186325327622,0.16310102,-0.16310102,0.38881573,93.97044,73.014175,-11.301898,WAL
410716388000,2.949974,-2.01449673947284,-10.5949617781453,5.50344469140967,0.13347405,-0.27672195,0.36193767,93.78709,72.69626,-11.4795475,WAL
410721388000,2.954974,-1.91230054909828,-10.1401885415644,5.89179017214812,0.09468412,-0.4147775,0.312763,93.57345,72.40203,-11.631445,WAL
410726384000,2.95997,-1.80947089305569,-9.79307261811217,6.05420851163933,0.081855945,-0.6035349,0.25992316,93.27937,72.113045,-11.743714,WAL
410731352000,2.964938,-1.70666110721933,-9.531375496022,6.04018895324624,0.050701816,-0.80909103,0.19120082,92.9483,71.85502,-11.821618,WAL
410736462000,2.970048,-1.67984707681332,-9.71444690844233,5.4645872508918,0.030543262,-0.9315695,0.12889257,92.53101,71.55457,-11.878695,WAL
410741400000,2.974986,-1.72202029774078,-10.2814425321046,4.42431388085612,0.05497787,-0.86651236,0.059864793,92.118935,71.26938,-11.909263,WAL
410746361000,2.979947,-1.72947214861368,-10.9780654519409,3.70666680979667,0.11209377,-0.60903263,-0.014049901,91.71618,70.99971,-11.914285,WAL
410751395000,2.984981,-1.70235109433416,-11.8110698688017,3.30372514873423,0.13805555,-0.34788775,-0.14844026,91.34812,70.75662,-11.886547,WAL
410756684000,2.99027,-1.63452761434844,-12.6400218211756,2.91776548774788,0.09285152,-0.1908954,-0.30024028,91.15107,70.70588,-11.823081,WAL
410761432000,2.995018,-1.12643535420995,-12.8582865367879,2.99648398755902,0.071776666,-0.13591751,-0.40744713,91.00814,70.65976,-11.747846,WAL
410766378000,2.999964,-0.597154747924142,-13.0856532771876,3.07848518807838,0.07391469,-0.13194689,-0.42455134,90.992805,70.747375,-11.634388,WAL
410771491000,3.005077,0.0524026806368292,-13.0871378196393,3.03721884992207,0.13164146,-0.18112154,-0.3830125,90.98084,70.83162,-11.512026,WAL
410776386000,3.009972,0.777865507112002,-12.8522759158317,2.87020572255622,0.21288654,-0.20586158,-0.34116822,90.97731,70.90891,-11.391537,WAL
410781359000,3.014945,1.28439770824629,-12.7162828521165,2.1498376846619,0.25809056,-0.20066923,-0.32345316,90.96789,71.02914,-11.190011,WAL
410786386000,3.019972,1.6858066521532,-12.6280611669415,1.15734312766172,0.3643811,-0.096516706,-0.32345316,90.97594,71.107544,-11.005782,WAL
410791458000,3.025044,2.12693631381239,-12.5244937834758,0.0432406794660758,0.44868052,0.074830994,-0.3399465,91.02594,71.22695,-10.763498,WAL
410796371000,3.029957,2.58865727511871,-12.410305025641,-1.14333244055081,0.4990769,0.30726522,-0.38331795,91.122086,71.32865,-10.531025,WAL
410801385000,3.034971,3.05353619784151,-12.1132954264015,-1.72589998802838,0.5155703,0.5183192,-0.3930918,91.36103,71.57379,-10.27124,WAL
410806973000,3.040559,3.56692268322174,-11.648039004297,-1.90772441712801,0.46517387,0.6704246,-0.38362336,91.64468,71.82104,-10.022305,WAL
410811383000,3.044969,3.9885797277506,-11.0732986860432,-1.72232601041727,0.36346483,0.8362745,-0.3481932,92.094,72.23854,-9.753114,WAL
410816405000,3.049991,4.47760045822542,-10.3074733122302,-1.33480016489209,0.23854288,0.91782504,-0.30298916,92.552086,72.663826,-9.497637,WAL
410821421000,3.055007,4.75460337954455,-9.65672282980423,-0.78529430563324,0.15454891,0.9089675,-0.25992316,93.03229,73.12311,-9.2154875,WAL
410826411000,3.059997,4.83642787358028,-9.11395345819303,-0.0897855936875748,0.13225232,0.7165449,-0.23365596,93.47416,73.587906,-8.935883,WAL
410831384000,3.06497,4.91797360681468,-8.57303320067348,0.60335364970036,0.1695151,0.48441613,-0.2770274,93.84432,74.00634,-8.595957,WAL
410836768000,3.070354,4.9684694855375,-7.99621125545034,1.27170273829764,0.22296582,0.26083946,-0.3930918,94.160835,74.42974,-8.231551,WAL
410841500000,3.075086,4.63686657836006,-7.5768310467341,1.04250651318197,0.26053402,0.0870483,-0.56199604,94.42753,74.85751,-7.830166,WAL
410846407000,3.079993,4.28764540409262,-7.12740525163192,0.758828566349966,0.2574797,-0.02076942,-0.7144069,94.518875,75.091545,-7.3804717,WAL
410851436000,3.085022,3.90083697303486,-6.58834238465482,0.219765793902939,0.19272798,-0.10903945,-0.8573494,94.575485,75.34224,-6.8787003,WAL
410856331000,3.089917,3.52433522914388,-6.06364309377136,-0.304933404969241,0.10323623,-0.19425514,-0.960891,94.61952,75.60046,-6.3852277,WAL
410861422000,3.095008,3.00762881683437,-5.66469058626161,-0.870790787612229,-0.003970624,-0.29046643,-1.0433578,94.64196,75.88118,-5.854912,WAL
410866340000,3.099926,2.47904402298762,-5.31381973986068,-1.42215950115325,-0.12797627,-0.3912592,-1.1255192,94.64432,76.18528,-5.294414,WAL
410871438000,3.105024,2.05752565035765,-5.12973522077253,-1.88428261336195,-0.21991149,-0.5161811,-1.1737776,94.6561,76.550896,-4.7838798,WAL
410876913000,3.110499,1.65246363676681,-4.99971517141631,-2.33935218560801,-0.28527406,-0.68386364,-1.1945469,94.62918,76.934135,-4.254268,WAL
410881419000,3.115005,1.3641823406326,-5.06878137913625,-2.60082533716545,-0.33933565,-0.77824235,-1.183246,94.62274,77.38344,-3.818088,WAL
410886383000,3.119969,1.0653751054339,-5.21818514770884,-2.84179890257502,-0.37018433,-0.97341377,-1.1410962,94.53989,77.83283,-3.3761914,WAL
410891421000,3.125007,0.740263718179619,-5.60279991895978,-3.07883477484125,-0.45723262,-1.1209377,-1.0586295,94.458595,78.34808,-3.0702846,WAL
410896372000,3.129958,0.410496636667675,-6.09028153714343,-3.30823804486443,-0.5674938,-1.219287,-0.96577793,94.33898,78.86638,-2.7799854,WAL
410901442000,3.135028,-0.0235628389164517,-6.86411682595753,-3.49395328900575,-0.6805039,-1.287093,-0.8888089,94.196526,79.4234,-2.6336148,WAL
410906416000,3.140002,-0.491499770914864,-7.74327107918238,-3.65465884627902,-0.8029824,-1.2718215,-0.8344419,94.06206,79.99826,-2.510488,WAL
410911379000,3.144965,-0.923536211189898,-9.09028281544439,-3.53709009290918,-0.8772025,-1.0937542,-0.8063421,94.00122,80.613045,-2.470131,WAL
410916405000,3.149991,-1.34432035180185,-10.6799121491015,-3.2846196378339,-0.96486163,-0.8240572,-0.79045963,93.986595,81.2474,-2.443908,WAL
410921403000,3.154989,-1.44204454854772,-11.3459221084766,-2.94594958180202,-1.0384709,-0.5390886,-0.75655663,94.054955,81.9292,-2.4217186,WAL
410926391000,3.159977,-1.34293857676349,-11.4497471165778,-2.55424478026082,-1.138042,-0.2660318,-0.68966687,94.20084,82.6191,-2.421297,WAL
410931362000,3.164948,-1.26002841324877,-11.4638897815363,-2.14535327082452,-1.2443326,-0.018020526,-0.58551437,94.41775,83.25536,-2.5234861,WAL
410936388000,3.169974,-1.18734181733615,-11.4154321183932,-1.71892548097252,-1.3784174,0.1777618,-0.48747048,94.697495,83.88296,-2.638593,WAL
410941396000,3.174982,-1.16123059694708,-11.3622821954206,-1.3442999697811,-1.5045611,0.34666604,-0.3933972,95.00889,84.42534,-2.768118,WAL
410946872000,3.180458,-1.1656290792418,-11.3007037188627,-0.970432603044536,-1.627345,0.49021935,-0.3032946,95.36696,84.940506,-2.913855,WAL
410951329000,3.184915,-1.15633503539068,-11.2251235311884,-0.695837052488509,-1.749518,0.60231316,-0.20738874,95.71648,85.36007,-3.0663857,WAL
410956413000,3.189999,-1.09772555064566,-11.0439672252134,-0.493367982039834,-1.8533652,0.6835582,-0.13775012,96.096085,85.72242,-3.224533,WAL
410961323000,3.194909,-0.963732065742746,-10.8783978938935,-0.312028039125162,-1.9666806,0.8063421,-0.0711658,96.47451,85.967224,-3.39122,WAL
410966371000,3.199957,-0.699924823147683,-10.7234638646167,-0.148718807242962,-2.0124955,0.98746365,-0.002443461,96.890236,86.11076,-3.5655642,WAL
410971369000,3.204955,-0.421957470944361,-10.5681272337845,0.0281044478095238,-2.0476203,1.0781772,0.07971791,97.28792,86.147736,-3.7368715,WAL
410976423000,3.210009,0.0535629162556391,-10.3885934471178,0.38231861047619,-2.0583105,1.2296717,0.122478485,97.75181,86.08216,-3.9048903,WAL
410981359000,3.214945,0.508761879020629,-10.2324175375526,0.744986576026437,-2.0320432,1.3246613,0.22602014,98.18528,94.04313,-4.0342712,WAL
410986366000,3.219952,0.868899128554977,-10.2852382287202,1.29719700358502,-1.9636264,1.3326025,0.27458394,98.63436,94.23469,-4.151319,WAL
410991362000,3.224948,1.22054928705524,-10.336260938408,1.83074223409308,-1.8478674,1.2415836,0.28588495,99.02605,94.412636,-4.20715,WAL
410996419000,3.230005,1.49440262040017,-10.3699657664202,2.18464503988691,-1.7009543,1.0934488,0.24129178,99.40103,94.61637,-4.255936,WAL
411001339000,3.234925,1.76083694906481,-10.4027574915181,2.52896020787299,-1.5085317,0.90102625,0.17287487,99.677444,94.75107,-4.2600317,WAL
411006362000,3.239948,1.97718116748879,-10.26393182287,2.65870195022422,-1.2452488,0.70066243,0.08368854,99.90699,94.85052,-4.2446923,WAL
411011320000,3.244906,2.17558661365675,-10.080043685691,2.72645009959234,-0.9245446,0.52381694,-0.013744468,100.08605,94.90036,-4.207968,WAL
411016441000,3.250027,2.34268267218296,-9.7140400961916,2.58481007097566,-0.56596667,0.29168814,-0.13316862,100.13985,94.820404,-4.1084614,WAL
411021329000,3.254915,2.49430979475854,-9.328080008245,2.40561444608363,-0.20341812,0.1001819,-0.21166481,100.15395,94.67884,-3.9956713,WAL
411026418000,3.260004,2.44925630919823,-9.00831928539105,2.10959489611412,0.08827003,-0.09132435,-0.24862215,100.09225,94.45566,-3.8418803,WAL
411031330000,3.264916,2.35207312611904,-8.72139808204624,1.79490651677324,0.30818152,-0.29077184,-0.25595254,99.97366,94.18423,-3.6784894,WAL
411036366000,3.269952,2.08019783245597,-8.58343085800514,1.30979651744607,0.4709771,-0.4633413,-0.2687807,99.83041,93.87738,-3.4831254,WAL
411041325000,3.274911,1.75594439722937,-8.49884276212151,0.778772719303384,0.56077427,-0.61086524,-0.30085114,99.63805,93.55803,-3.2833061,WAL
411046419000,3.280005,1.38893127408012,-8.47200637806301,0.188176226355504,0.5861252,-0.70280045,-0.29779682,99.43459,93.27852,-3.0981348,WAL
411051396000,3.284982,1.0181512881233,-8.46737201866978,-0.405071754079152,0.516792,-0.70524395,-0.2602286,99.21558,93.01771,-2.9157667,WAL
411056347000,3.289933,0.716812496540019,-8.54370701180322,-1.15509971427242,0.31123585,-0.537256,-0.1908954,99.066414,92.84863,-2.782045,WAL
411061389000,3.294975,0.442246010030154,-8.66018950512622,-1.99543954612561,-0.069027774,-0.25961772,-0.112704635,98.9492,92.714165,-2.663818,WAL
411066365000,3.299951,0.103811209339033,-8.81808512857613,-2.83828080536008,-0.56321776,0.0852157,-0.034208454,98.95512,92.69604,-2.6210377,WAL
411071372000,3.304958,-0.358722421374548,-9.05460783952647,-3.71078729970404,-1.0861185,0.269697,-0.010079277,98.99558,92.72505,-2.585756,WAL
411076421000,3.310007,-0.705833627501486,-9.20874581414702,-4.18235281983356,-1.3384057,0.65118235,0.036651913,99.2607,92.96537,-2.6445055,WAL
411081360000,3.314946,-0.944816444105409,-9.28840688349515,-4.29950131019417,-1.7702875,0.93523467,0.07574729,99.55564,93.369514,-2.6999469,WAL
411086420000,3.320006,-1.00639483643529,-9.30742275632683,-4.12639359800253,-2.1035144,1.1349876,0.12186762,100.007454,93.99959,-2.7893727,WAL
411091446000,3.325032,-0.897634340571222,-9.26826865365148,-3.68265099256146,-2.3338106,1.2925909,0.16982053,100.52963,94.76317,-2.874324,WAL
411096533000,3.330119,-0.595992030045099,-9.23280713704556,-2.96944041992637,-2.477975,1.3747523,0.19608775,101.068,95.64537,-2.960587,WAL
411101445000,3.335031,0.0750984121748735,-9.20682937063967,-1.75714796967326,-2.5488353,1.3860532,0.23396139,101.629845,96.5896,-3.0479941,WAL
411106351000,3.339937,0.704379593731373,-9.20005784691039,-0.640215152063382,-2.5350907,1.3692545,0.2947425,102.16648,97.484985,-3.1496353,WAL
411111403000,3.344989,1.0600591141367,-9.32983341814028,-0.159567154364196,-2.435825,1.3735305,0.3213151,102.71223,98.366844,-3.2352505,WAL
411116369000,3.349955,1.41009662734291,-9.46838241590931,0.293843149907163,-2.2727242,1.3393221,0.29352075,103.11288,98.98622,-3.2425082,WAL
411121392000,3.354978,1.76736500027362,-9.69402521645656,0.604102511157041,-2.082745,1.2388347,0.25686884,103.49496,99.56682,-3.251097,WAL
411126424000,3.36001,2.11636924204545,-9.91284071877388,0.895674722463713,-1.881465,1.0650436,0.18387043,103.800545,99.99686,-3.2022488,WAL
411132034000,3.36562,2.38828211704545,-10.0616230402024,0.967500743892284,-1.6801848,0.86162543,0.060170226,104.063354,100.362785,-3.132599,WAL
411136704000,3.37029,2.60740002789724,-10.1760238545099,1.0189845182072,-1.4996742,0.65484756,-0.105068825,104.245125,100.60173,-2.9972038,WAL
411141394000,3.37498,2.6659323454994,-10.0798637930746,0.885196276375314,-1.3228287,0.47586402,-0.28496864,104.36957,100.774475,-2.8324926,WAL
411146396000,3.379982,2.7283584974495,-9.97730672968445,0.742507835939682,-1.1695015,0.36651915,-0.43554693,104.43787,100.88461,-2.615392,WAL
411151429000,3.385015,2.55801000242923,-9.93173003854648,0.605665254636619,-1.0241156,0.2602286,-0.52442783,104.45078,100.94274,-2.377858,WAL
411156324000,3.38991,2.34625216484642,-9.89878976450512,0.47390486112628,-0.8924741,0.17256944,-0.59864795,104.43172,100.95807,-2.111558,WAL
411161416000,3.395002,1.99546745014016,-9.9417936996823,0.288190123027098,-0.7892379,0.14660765,-0.6356053,104.41407,100.97698,-1.8273202,WAL
411166512000,3.400098,1.61696974032891,-10.0010767219211,0.092100927130256,-0.7180721,0.15424347,-0.66675943,104.37841,100.97121,-1.5323288,WAL
411171388000,3.404974,1.21222082639668,-10.1003507948079,-0.0862091627680166,-0.6646214,0.16982053,-0.6789767,104.3409,100.971756,-1.2698565,WAL
411176319000,3.409905,0.785593522647975,-10.2180409124611,-0.26274461933676,-0.6273586,0.204029,-0.67011917,104.31093,100.962,-1.0088949,WAL
411181362000,3.414948,0.486009117092486,-10.2401303421965,-0.35229916783815,-0.5580254,0.24190263,-0.65270954,104.28953,100.96353,-0.8144283,WAL
411186366000,3.419952,0.232085336017341,-10.2308965641618,-0.412317510219653,-0.48899764,0.27000242,-0.6230826,104.276566,100.957825,-0.62954944,WAL
411191384000,3.42497,0.0166553134782609,-10.2846575217391,-0.520895013043478,-0.44929138,0.27275133,-0.58184916,104.26188,100.966545,-0.5291866,WAL
411196420000,3.430006,-0.181896832042374,-10.3669846682398,-0.651648869535094,-0.45265114,0.2724459,-0.5458081,104.2558,100.9694,-0.43707827,WAL
411202086000,3.435672,-0.396525361882433,-10.5204475264184,-0.819141872489764,-0.47739118,0.32986724,-0.5198463,104.25944,100.9791,-0.41149512,WAL
411206413000,3.439999,-0.558111794496003,-10.653756077598,-0.952450676759602,-0.44532076,0.43890667,-0.49663344,104.2797,100.97431,-0.39202344,WAL
411211398000,3.444984,-0.616385081120563,-10.7282458597829,-0.941437458644764,-0.39858958,0.5296202,-0.52412236,104.31326,100.99154,-0.40649015,WAL
411216428000,3.450014,-0.606964668712232,-10.7612175171605,-0.842523007857632,-0.33628133,0.571159,-0.5815437,104.362946,100.99564,-0.41260338,WAL
411221417000,3.455003,-0.615369676280218,-10.7348075528238,-0.705197191094538,-0.26175576,0.58551437,-0.589485,104.42585,101.01029,-0.4687475,WAL
411226421000,3.460007,-0.635088741051332,-10.6707202165415,-0.542514628761444,-0.22571471,0.5656612,-0.56291234,104.48899,101.01908,-0.51263463,WAL
411231401000,3.464987,-0.695018605057835,-10.5866177616411,-0.37539283899654,-0.22876903,0.5103779,-0.5476407,104.53462,100.99993,-0.54573685,WAL
411236422000,3.470008,-0.775834000110727,-10.4915409197232,-0.204254399446367,-0.2312125,0.43799037,-0.539394,104.57006,100.97282,-0.58222723,WAL
411241476000,3.475062,-0.858741819703903,-10.3704055006729,-0.0561847896366083,-0.24587326,0.39187005,-0.535118,104.56869,100.929955,-0.62400985,WAL
411246423000,3.480009,-0.940723787150548,-10.2383231688137,0.0758972568736781,-0.27366763,0.35094208,-0.52320606,104.549706,100.89373,-0.6702429,WAL
411251385000,3.484971,-0.990345520926696,-10.0936733553686,0.204333693965325,-0.31429017,0.30940324,-0.5235115,104.496666,100.84088,-0.732544,WAL
411256398000,3.489984,-1.01468319627902,-9.93791253807158,0.330889687119538,-0.3368922,0.27214047,-0.5183192,104.43532,100.79289,-0.79748446,WAL
411261376000,3.494962,-1.0171999437972,-9.81855328317152,0.360517180924128,-0.36041048,0.26511553,-0.50579643,104.34096,100.74394,-0.8818738,WAL
411266380000,3.499966,-1.00427591272923,-9.72377687540453,0.321745069726717,-0.37232238,0.2678644,-0.49968776,104.24125,100.698944,-0.9621097,WAL
411271803000,3.505389,-0.962055781211992,-9.63585246559266,0.242589627577083,-0.3643811,0.31612277,-0.49235737,104.13989,100.6409,-1.0459307,WAL
411276385000,3.509971,-0.891831314957858,-9.579673225008,0.130230476681959,-0.30726522,0.33841935,-0.4804455,104.035,100.5732,-1.129223,WAL
411281401000,3.514987,-0.804321473149961,-9.54579055687157,0.00759132715152702,-0.3036,0.408058,-0.4550946,103.96179,100.52978,-1.1980852,WAL
411286377000,3.519963,-0.706363584504698,-9.54112580041112,-0.113689895683242,-0.28069258,0.462425,-0.40683624,103.8942,100.46669,-1.2726201,WAL
411291317000,3.524903,-0.599256403192507,-9.57447669021368,-0.189954172772953,-0.27122417,0.49174652,-0.37568212,103.84951,100.43048,-1.3296977,WAL
411296474000,3.53006,-0.473968313413992,-9.66121432061665,-0.209229256541126,-0.2321288,0.4999932,-0.34513888,103.817604,100.38188,-1.3950962,WAL
411301350000,3.534936,-0.363732779211705,-9.76403906389967,-0.256926645350851,-0.22632557,0.4841107,-0.32253686,103.79887,100.3637,-1.4432366,WAL
411306340000,3.539926,-0.263846885850503,-9.90197653080522,-0.352056065944063,-0.20891592,0.4541783,-0.29932398,103.78056,100.33313,-1.4979814,WAL
411311315000,3.544901,-0.176437081868439,-10.0873125871239,-0.461154403624913,-0.19272798,0.41813725,-0.28680122,103.76715,100.29823,-1.5276606,WAL
411316372000,3.549958,-0.108655542177347,-10.3584391705488,-0.596717503229031,-0.16737708,0.37720928,-0.29229903,103.74442,100.256874,-1.5591948,WAL
411321318000,3.554904,-0.0785826746632367,-10.5793374353601,-0.721185526019644,-0.13439035,0.31215215,-0.3042109,103.71946,100.2188,-1.5727974,WAL
411326392000,3.559978,-0.110402041931712,-10.7293427221703,-0.83482610984565,-0.096516706,0.22693644,-0.2996294,103.67814,100.17353,-1.592151,WAL
411331342000,3.564928,-0.172538497974264,-10.8511264039409,-0.925029804554137,-0.05589417,0.10934488,-0.2770274,103.61267,100.13112,-1.5903214,WAL
411336421000,3.570007,-0.338797717132804,-10.8951360640394,-0.949479697984317,0.005192355,-0.0009162979,-0.26542094,103.52599,100.0727,-1.5907743,WAL
411341558000,3.575144,-0.513590097557981,-10.9217456951861,-0.945696148473982,0.03634648,-0.1142318,-0.24953845,103.4117,100.02955,-1.6041634,WAL
411346446000,3.580032,-0.696055236493861,-10.9034992894173,-0.872710077657377,0.070554934,-0.20677789,-0.24098633,103.27457,99.96905,-1.6226788,WAL
411351371000,3.584957,-0.860542877757041,-10.8726618537496,-0.802711552560231,0.062308256,-0.2687807,-0.22296582,103.10823,99.92145,-1.679258,WAL
411356421000,3.590007,-0.950802759840516,-10.7906074933831,-0.745273474599593,0.05589417,-0.2846632,-0.17592919,102.93443,99.86586,-1.7463776,WAL
411361367000,3.594953,-1.03920382455039,-10.7102429653885,-0.689018279828639,0.03970624,-0.26725355,-0.14110987,102.740685,99.803474,-1.8328507,WAL
411366441000,3.600027,-1.04940576638042,-10.6689920179647,-0.578877375076498,0.03359759,-0.21288654,-0.090713486,102.56057,99.744,-1.9320917,WAL
411371341000,3.604927,-1.04477381297009,-10.6365686342908,-0.463078443085579,0.029626964,-0.15271631,-0.071776666,102.391525,99.689285,-2.0271826,WAL
411376375000,3.609961,-1.03102628749897,-10.5852961906797,-0.312076223136352,0.046120327,-0.08307768,-0.044593163,102.23915,99.626686,-2.1435604,WAL
411381392000,3.614978,-1.01523046896523,-10.5300110526013,-0.154118342934166,0.06841691,-0.009162978,-0.008857546,102.10961,99.56682,-2.2602057,WAL
411386379000,3.619965,-1.00011161318812,-10.4689155659406,0.0225178235148515,0.086437434,0.035430185,0.02443461,101.98054,99.48796,-2.3758569,WAL
411391354000,3.62494,-0.985959757742574,-10.3981562887129,0.230078517821782,0.12736541,0.05131268,0.051923547,101.867744,99.40133,-2.4935312,WAL
411396408000,3.629994,-0.957474749437531,-10.3630885978099,0.441356845710304,0.19181168,0.0571159,0.0983493,101.75093,99.28099,-2.6218665,WAL
411401407000,3.634993,-0.905048750920856,-10.3916841717272,0.651060794987556,0.26358834,0.071776666,0.14966199,101.643776,99.15448,-2.7538602,WAL
411406352000,3.639938,-0.86983512203524,-10.4976658357751,0.861395013382498,0.35094208,0.07849618,0.21991149,101.51972,98.98527,-2.90247,WAL
411411347000,3.644933,-0.86509981061176,-10.7486376378935,1.07921950203326,0.46089783,0.071776666,0.29046643,101.39851,98.802925,-3.0607314,WAL
411416345000,3.649931,-0.869667333929915,-10.9842507254009,1.28011440188082,0.5842926,0.043066,0.36254853,101.25097,98.5734,-3.2270012,WAL
411421392000,3.654978,-0.893590403700257,-11.1899891673926,1.44757578036032,0.73639804,-0.00030543262,0.43982297,101.09978,98.32784,-3.4098873,WAL
411426397000,3.659983,-0.913617745628512,-11.3128048940042,1.57885123381971,0.9092729,-0.051923547,0.50243664,100.91848,98.02843,-3.6085477,WAL
411431395000,3.664981,-0.925659224803354,-11.2606249357652,1.63504480609644,1.0885619,-0.1001819,0.58123827,100.727844,97.72343,-3.8279247,WAL
411436433000,3.670019,-0.937797074359748,-11.2080273708176,1.69168810684277,1.2721269,-0.14844026,0.6704246,100.50508,97.38722,-4.065746,WAL
411441385000,3.674971,-0.949727727595807,-11.1563276602935,1.74736449137945,1.4355333,-0.21410827,0.7611381,100.26402,97.0658,-4.3195424,WAL
411446456000,3.680042,-0.961945082716981,-11.1033855698113,1.80437881811321,1.5894713,-0.28130344,0.8564331,100.00884,96.77136,-4.5916824,WAL
411451427000,3.685013,-0.938104524172086,-10.9584527543772,1.8530225397999,1.7519615,-0.3417791,0.9502009,99.73611,96.51995,-4.880153,WAL
411457198000,3.690784,-0.877279569904952,-10.7040942693847,1.90278842197099,1.8866574,-0.39736784,1.0491611,99.44452,96.340324,-5.187248,WAL
411461385000,3.694971,-0.77494905423762,-10.5093870745253,1.92815014887454,2.0292943,-0.4184427,1.149343,99.14105,96.23039,-5.5124016,WAL
411466372000,3.699958,-0.616031061303582,-10.2710098899002,1.95152042759836,2.1664336,-0.4269948,1.1994339,98.82153,96.21807,-5.839208,WAL
411471393000,3.704979,-0.409185711872695,-10.0700610425756,1.95053386074402,2.248595,-0.4089743,1.29198,98.50428,96.33435,-6.188767,WAL
411476382000,3.709968,-0.15742740688376,-9.90893563821267,1.92535804917273,2.4132233,-0.40744713,1.3701707,98.17365,96.55529,-6.5351143,WAL
411481379000,3.714965,0.363768856516213,-9.84260395975232,1.90594842812449,2.5714374,-0.39675698,1.452943,97.84771,83.10669,-6.885221,WAL
411486384000,3.71997,1.06279227530389,-9.83869913003096,1.8903277635897,2.7171285,-0.35735616,1.5231925,97.522354,82.659615,-7.2400293,WAL
411491359000,3.724945,1.73673941287879,-9.87604618181818,1.87912182537879,2.8344147,-0.33169982,1.5610662,97.2219,82.127235,-7.5830507,WAL
411496478000,3.730064,2.30359998092105,-10.1643634473684,1.89378205559211,2.9486465,-0.30909783,1.591304,96.92218,81.504005,-7.93076,WAL
411501351000,3.734937,2.84321198259635,-10.4712910604462,1.88127535296146,3.0558534,-0.32375857,1.6013832,96.65546,80.866585,-8.206824,WAL
411506385000,3.739971,3.40060556381339,-10.9944584450304,1.70036692247464,3.1383202,-0.364992,1.6166549,96.37851,80.16398,-8.481084,WAL
411511371000,3.744957,3.97070914857593,-11.5173144412142,1.44813361662955,3.1942143,-0.41996986,1.6102408,96.09886,79.45798,-8.688356,WAL
411516384000,3.74997,4.63309165476495,-12.0661453091554,0.833064216467922,3.176194,-0.410196,1.5986344,95.81816,78.71973,-8.887927,WAL
411521407000,3.754993,5.27730438914575,-12.6242513706717,0.235610921704534,3.120605,-0.32070425,1.5519031,95.58324,78.031006,-9.012154,WAL
411527118000,3.760704,5.8796398024308,-13.3134102460562,-0.317886528590138,3.0680707,-0.1881465,1.4895949,95.3586,77.3356,-9.122179,WAL
411531387000,3.764973,6.28248631237698,-13.7974227781092,-0.694444667173675,3.0579915,-0.007941248,1.3976597,95.25634,76.78619,-9.144901,WAL
411541378000,3.774964,6.54269597629035,-14.4532969511716,-1.07468943922661,3.0286698,0.31856623,1.1417072,95.24487,75.86032,-9.067472,WAL
411546412000,3.779998,6.30176620403081,-14.2992596855645,-1.26427344253646,2.9162707,0.4896085,0.95172805,95.35433,75.50216,-8.956649,WAL
411551390000,3.784976,6.06351661994101,-14.1469359850893,-1.45174844620678,2.7262917,0.6649268,0.7510588,95.54227,75.24081,-8.795949,WAL
411556306000,3.789892,5.62240894048111,-13.4941844096005,-1.39324554513987,2.4382687,0.7538077,0.5907067,95.75587,75.0453,-8.602435,WAL
411561295000,3.794881,5.07113649619027,-12.5788644669642,-1.21122166020464,2.1658227,0.8872818,0.5354234,96.03035,74.89855,-8.400285,WAL
411566323000,3.799909,4.3799898616346,-11.9580104030946,-0.712686583825828,2.058616,0.95264435,0.4877759,96.35551,74.808464,-8.205922,WAL
411571279000,3.804865,3.66913277054156,-11.411921337433,-0.152474701085499,1.9147571,1.0015136,0.48472157,96.70772,74.7889,-8.019371,WAL
411576304000,3.80989,2.92648475168749,-11.2476638665748,0.415702962944406,1.8206838,1.0821478,0.4746423,97.055756,74.71209,-7.8835807,WAL
411581300000,3.814886,2.18264686342615,-11.1817538305618,0.980643164429401,1.7220291,1.2272283,0.47158796,97.43035,74.67107,-7.757021,WAL
411586313000,3.819899,1.44260786643371,-11.2994575101837,1.47638771220048,1.6484199,1.3732251,0.46028697,97.77417,74.5071,-7.710456,WAL
411591301000,3.824887,0.708138710922524,-11.4711520796725,1.9485464336861,1.5995506,1.4590516,0.52503866,98.133026,74.35552,-7.689258,WAL
411596545000,3.830131,-0.032167651103701,-11.8817436445144,2.19837997335149,1.5830573,1.5109752,0.63529986,98.46538,74.09251,-7.7623324,WAL
411601372000,3.834958,-0.705211346045463,-12.32030760774,2.36338425335337,1.5971072,1.5445728,0.7244862,98.80888,73.83517,-7.8506627,WAL
411606346000,3.839932,-1.27658878584178,-12.5801112287024,2.50953267470333,1.5677856,1.5021176,0.7492262,99.091644,73.50482,-8.023927,WAL
411611341000,3.844927,-1.78425656261457,-12.7370267561987,2.64337236240232,1.4999796,1.3637567,0.8491027,99.338646,73.16728,-8.234113,WAL
411616327000,3.849913,-2.20350104356691,-12.6519979629789,2.43432171577422,1.3805555,1.1533136,1.0311406,99.5244,72.82364,-8.544179,WAL
411621360000,3.854946,-2.56038535412598,-12.3830416584397,1.96364823683872,1.2544118,1.0164797,1.1722504,99.679276,72.498085,-8.856384,WAL
411626341000,3.859927,-2.68960032441277,-12.1427086401325,1.62140377159205,1.2470814,0.99204516,1.2324207,99.77623,72.14032,-9.246061,WAL
411631319000,3.864905,-2.72788445241919,-11.9130035722746,1.32948709566352,1.3176364,0.98715824,1.2147056,99.82847,71.79075,-9.627984,WAL
411636367000,3.869953,-2.55011524341597,-11.5567205804506,1.23521672648694,1.3295482,0.9569204,1.1652255,99.97371,71.472176,-10.062868,WAL
411641340000,3.874926,-2.28974421663682,-11.1571855697992,1.22174926685833,1.3341297,0.82986045,1.104139,100.083984,71.14781,-10.465519,WAL
411646438000,3.880024,-1.67222443173177,-10.4359999747037,1.24081417016864,1.3475688,0.64660084,1.0458013,100.235634,70.84293,-10.85902,WAL
411651446000,3.885032,-0.837904411566469,-9.52517054535096,1.28089068636433,1.3503176,0.44806966,0.9660834,100.346016,70.55807,-11.204993,WAL
411656753000,3.890339,0.019011161957023,-8.58446595311133,1.32311757098152,1.3509285,0.2406809,0.91721416,100.387375,70.27158,-11.500586,WAL
411661356000,3.894942,0.216403597716918,-8.26001624025426,1.35488184838129,1.318858,0.14263703,0.89919364,100.402954,70.00647,-11.765604,WAL
411666681000,3.900267,0.444757871108498,-7.88467521897164,1.39162848691132,1.2904528,-0.034513887,0.9104946,100.31874,69.7123,-11.913215,WAL
411671356000,3.904942,0.645237913945237,-7.55515047258737,1.42388962026867,1.1468995,-0.22296582,0.9251554,100.20361,69.461426,-12.043276,WAL
411676347000,3.909933,0.858234260078087,-7.18082451420205,1.43336143552953,1.0943651,-0.37965274,0.98440933,100.075066,69.17726,-12.189124,WAL
411681416000,3.915002,1.06198515185944,-6.52692633443631,1.13958109604685,0.98715824,-0.47525316,0.981355,99.91478,68.95271,-12.307156,WAL
411686577000,3.920163,1.2542410868983,-5.90568386898299,0.856782787024973,0.9257663,-0.46822822,0.9615019,99.724075,68.68671,-12.405338,WAL
411691355000,3.924941,1.25010084527687,-5.86428145276873,0.790538877850163,0.88331115,-0.4260785,0.9459248,99.51687,68.44608,-12.494742,WAL
411696755000,3.930341,1.24542162703583,-5.81748927035831,0.71567133713355,0.86376345,-0.43951756,0.9266826,99.32117,68.23316,-12.571002,WAL
411701391000,3.934977,1.14653799992428,-5.82596270957274,0.644479213553272,0.82741696,-0.48716503,0.9166033,99.128845,68.03984,-12.642073,WAL
411706709000,3.940295,1.02058870857635,-5.84147658676738,0.567659522028875,0.7996226,-0.47067168,0.87964594,98.9556,67.86141,-12.7012205,WAL
411711379000,3.944965,0.926514601510661,-5.83292449019983,0.627524867759824,0.7473936,-0.4437936,0.85918194,98.78873,67.70481,-12.763472,WAL
411716347000,3.949933,0.826437478619371,-5.82382667098193,0.691210314781528,0.70280045,-0.40591997,0.8426886,98.65274,67.56519,-12.8348675,WAL
411721389000,3.954975,0.683820879049764,-5.90950362697112,0.647023829432726,0.64996064,-0.39584067,0.82833326,98.5195,67.44669,-12.898054,WAL
411726351000,3.959937,0.53784471256195,-6.00682096629121,0.588633364869957,0.5742133,-0.4007276,0.80481493,98.396385,67.35196,-12.9533205,WAL
411731354000,3.96494,0.512746255473153,-6.00025639092016,0.662063446685902,0.50762904,-0.39095375,0.75594574,98.28418,67.2558,-13.013862,WAL
411736406000,3.969992,0.497477588197556,-5.98498776236418,0.747131706183671,0.46639562,-0.3857614,0.71837753,98.17199,67.17656,-13.067457,WAL
411741381000,3.974967,0.482441638138948,-5.96995185043506,0.830903398780939,0.42149702,-0.37598756,0.64812803,98.0957,67.13294,-13.122983,WAL
411746399000,3.979985,0.467275729115008,-5.95478597987016,0.915399148218746,0.35369098,-0.39064834,0.5708536,98.01997,67.11403,-13.16222,WAL
411751395000,3.984981,0.488218828305177,-5.87975748555858,0.999181933405995,0.2773328,-0.42455134,0.5103779,97.95504,67.114456,-13.188132,WAL
411756389000,3.989975,0.545558586428338,-5.7442271293733,1.08258521695913,0.18478674,-0.43127087,0.43310347,97.90436,67.15179,-13.188129,WAL
411761381000,3.994967,0.645214036067363,-5.57050209427039,1.15248568324396,0.14202617,-0.47494772,0.39064834,97.81278,67.16208,-13.175494,WAL
411766374000,3.99996,0.766679722743438,-5.37705681414056,1.21546789915326,0.04795292,-0.5204572,0.31398472,97.73133,67.22534,-13.131224,WAL
411771386000,4.004972,0.885521044210102,-5.12386889090634,1.21918669824579,-0.061391957,-0.5653558,0.24465153,97.62412,67.28991,-13.066317,WAL
411776383000,4.009969,1.00131171561649,-4.81991849433411,1.17094058515979,-0.16798794,-0.64721173,0.17012598,97.50387,67.389595,-12.9719095,WAL
411781346000,4.014932,1.08021916740352,-4.54920668509742,1.1321811116523,-0.2733622,-0.7156286,0.11362094,97.36896,67.498215,-12.853251,WAL
411786435000,4.020021,1.13043457459723,-4.29812931545523,1.10022585252904,-0.3885103,-0.76144356,0.059864793,97.22685,67.64529,-12.71078,WAL
411791337000,4.024923,1.15618805258921,-4.07295642844111,1.05612370684733,-0.52015173,-0.79626286,0.0036651916,97.06672,67.82431,-12.538662,WAL
411796380000,4.029966,1.14970887330292,-3.86562255596995,0.991331866625973,-0.65270954,-0.7965683,-0.05100725,96.91105,68.03784,-12.352884,WAL
411801378000,4.034964,1.14328750941776,-3.66013877754226,0.927118180838476,-0.7987063,-0.7626653,-0.106901415,96.75526,68.28216,-12.154581,WAL
411806399000,4.039985,1.11131459947587,-3.51320466047352,0.92274518585216,-0.94897914,-0.70952,-0.17165314,96.61334,68.567085,-11.942606,WAL
411811381000,4.044967,1.04664129727092,-3.44421985281041,0.996041607023315,-1.105666,-0.63529986,-0.22449298,96.49344,68.89265,-11.725704,WAL
411816396000,4.049982,0.956315706436782,-3.41352619448276,1.07445172528736,-1.2632693,-0.5519168,-0.26328292,96.39679,69.253975,-11.512762,WAL
411821389000,4.054975,0.778343323273125,-3.51821587665025,1.16867239551177,-1.4379768,-0.46761733,-0.3136793,96.3293,69.66381,-11.290784,WAL
411826342000,4.059928,0.572167589679233,-3.67814902054463,1.30261279068708,-1.5989398,-0.38148534,-0.36285394,96.27407,70.08271,-11.079996,WAL
411831362000,4.064948,0.31592604611881,-3.92973143589495,1.50294703354007,-1.7583756,-0.28924468,-0.41141775,96.25044,70.54657,-10.865,WAL
411836385000,4.069971,0.00319226666666668,-4.23933288333333,1.74617103333333,-1.9107865,-0.21960606,-0.453262,96.24733,71.019035,-10.675172,WAL
411841377000,4.074963,-0.422278296440129,-4.66480359789644,2.07494370906149,-2.057394,-0.16249016,-0.49388456,96.27199,71.52942,-10.480681,WAL
411846372000,4.079958,-0.840557201909091,-5.14087950817273,2.43639089764545,-2.1911736,-0.14294247,-0.5348125,96.30399,72.01279,-10.325955,WAL
411851942000,4.085528,-1.29154643009091,-5.77614393262727,2.90677754955455,-2.3060162,-0.13713925,-0.5852089,96.352974,72.52558,-10.162935,WAL
411856341000,4.089927,-1.66026780025456,-6.29394159678241,3.30019426431117,-2.4028385,-0.14660765,-0.61850107,96.400566,72.95452,-10.078279,WAL
411861411000,4.094997,-2.15960544591182,-6.98609287567458,3.88357894316261,-2.4443772,-0.19517145,-0.6826419,96.44446,73.39999,-9.970523,WAL
411866381000,4.099967,-2.62025620591041,-7.61857593202125,4.42301216431418,-2.4926357,-0.25320363,-0.7498371,96.46376,73.73342,-9.943119,WAL
411871445000,4.105031,-2.96281498615673,-8.06068171999517,4.82998371606496,-2.516154,-0.3399465,-0.80573124,96.463264,74.070206,-9.8955555,WAL
411876339000,4.109925,-3.29387396532842,-8.48794588396523,5.22329311066771,-2.4868324,-0.45723262,-0.8210029,96.41184,74.24441,-9.928552,WAL
411881379000,4.114965,-3.63480924424656,-8.92795638384448,5.62833588729172,-2.4049764,-0.5928447,-0.8381071,96.332504,74.42033,-9.934634,WAL
411886352000,4.119938,-4.13211934258497,-9.92830610824854,6.18768717720286,-2.2467623,-0.6969972,-0.8219192,96.22692,74.5675,-9.937336,WAL
411891604000,4.12519,-4.6817496362178,-11.0720320096254,6.77699033542512,-2.0341814,-0.7703011,-0.7816021,96.0915,74.68192,-9.933478,WAL
411896433000,4.130019,-5.18362158648674,-12.1281452918751,6.99083141539115,-1.7916678,-0.79320854,-0.6743952,95.813416,74.622894,-10.002915,WAL
411901367000,4.134953,-5.69640605586487,-13.2072223129188,7.20932217715391,-1.5531249,-0.7733554,-0.5500842,95.46824,74.443596,-10.123098,WAL
411906375000,4.139961,-6.14761805145303,-14.1623226986465,7.13550253059315,-1.325883,-0.7122689,-0.41722095,95.13512,74.214676,-10.2640705,WAL
411911324000,4.14491,-6.58629178669387,-15.0915555678742,7.03173000922572,-1.1557571,-0.60139686,-0.2733622,94.8262,73.943474,-10.434053,WAL
411916361000,4.149947,-6.61312797208383,-15.2377242816435,6.64221283358765,-0.990518,-0.43799037,-0.1001819,94.53464,73.616554,-10.676247,WAL
411921961000,4.155547,-6.58354958436437,-15.2870216803015,6.16896249072525,-0.80909103,-0.2434298,0.059864793,94.29086,73.2549,-10.944578,WAL
411926384000,4.15997,-6.17860686223862,-14.9360494895449,5.99760176752767,-0.6224717,-0.093767814,0.2134974,94.10517,72.90334,-11.267249,WAL
411931343000,4.164929,-5.62853248124231,-14.4443897496925,5.8564323652214,-0.44348818,0.021380283,0.33169982,93.96984,72.519844,-11.612209,WAL
411936361000,4.169947,-5.01828848675889,-13.9061403488142,5.78279881227273,-0.2855795,0.09621128,0.41233405,93.90131,72.175354,-11.966689,WAL
411941374000,4.17496,-4.39209048339921,-13.3558447134387,5.73061576090909,-0.122783914,0.12980886,0.47739118,93.854294,71.79407,-12.334317,WAL
411946403000,4.179989,-3.71990704603305,-12.7029512387355,5.82070032556707,-0.007330383,0.105374254,0.48472157,93.824615,71.43462,-12.648538,WAL
411951409000,4.184995,-3.03594219342092,-12.0189866430258,5.95847707810736,0.07880162,0.06291912,0.44990227,93.8003,71.062,-12.954375,WAL
411956427000,4.190013,-2.41015475718578,-11.3235215672509,6.18292535431147,0.11056661,-0.087659165,0.42363504,93.735596,70.71211,-13.196586,WAL
411961366000,4.194952,-1.8085442438658,-10.6366439303956,6.42451704631948,0.12034045,-0.3136793,0.34574974,93.64152,70.382065,-13.394746,WAL
411966391000,4.199977,-1.37536850984864,-10.0405292772356,6.48923731354312,0.13561209,-0.59315014,0.27672195,93.43865,70.07601,-13.504738,WAL
411971391000,4.204977,-0.989130041416053,-9.47309251165106,6.50831080487951,0.1423316,-0.9071349,0.20280726,93.16802,69.79425,-13.567463,WAL
411976415000,4.210001,-0.906323744957358,-8.98493822010524,6.3038534161223,0.1423316,-1.1716396,0.1459968,92.78485,69.51889,-13.541982,WAL
411981363000,4.214949,-0.902024524634368,-8.52492056813645,6.04589997228271,0.1459968,-1.3616186,0.11209377,92.34076,69.25318,-13.482274,WAL
411986421000,4.220007,-0.9973441233468,-8.07079981005741,5.7706878031044,0.16737708,-1.4306464,0.094989546,91.84656,68.99104,-13.369336,WAL
