timestamp,rel_time,acc_x,acc_y,acc_z,gyro_x,gyro_y,gyro_z,azimuth,pitch,roll,label
6843381992000,0,-1.9632454,9.55379807677037,-1.75740606001814,-0.03390302,0.008552114,0.016798794,291.49033,-99.186775,-4.0903807,STD
6843386961000,0.004969,-1.9632454,9.55425006148279,-1.75627606283915,-0.049480084,-0.00061086525,0.014966198,291.62564,-99.22353,-4.076408,STD
6843391979000,0.009987,-1.9632454,9.5547065032793,-1.75513492260084,-0.04062254,-0.002443461,0.010995574,291.7539,-99.26903,-4.06364,STD
6843396921000,0.014929,-1.9632454,9.55515603204741,-1.75401106547494,-0.036957346,-0.00061086525,0.017715093,291.88242,-99.30856,-4.049915,STD
6843401930000,0.019938,-1.9632454,9.55561165519583,-1.75287197192099,-0.027183503,-0.0012217305,0.01160644,292.00974,-99.35444,-4.0424194,STD
6843406930000,0.024938,-1.9632454,9.55606645969615,-1.75173492505141,-0.032986723,-0.00580322,0.018325957,292.13684,-99.395164,-4.030751,STD
6843411917000,0.029925,-1.9632454,9.55652008170476,-1.75060083450369,-0.03756821,-0.005497787,0.015577064,292.2605,-99.440895,-4.024529,STD
6843416903000,0.034911,-1.9632454,9.55697361275248,-1.74946697136534,-0.03726278,-0.0070249503,0.022296581,292.385,-99.48467,-4.0152035,STD
6843421926000,0.039934,-1.9632454,9.55743050935349,-1.74832469408016,-0.040011674,0.004886922,0.013133603,292.50323,-99.528984,-4.011691,STD
6843426947000,0.044955,-1.9632454,9.55788722403271,-1.74718287161372,-0.03604105,0.004276057,0.01282817,292.62454,-99.57348,-4.005521,STD
6843432038000,0.050046,-1.9632454,9.55835030597493,-1.74602513049111,-0.03940081,0.0076358155,0.013439035,292.73944,-99.61651,-4.0020165,STD
6843437004000,0.055012,-1.9632454,9.55880201780465,-1.74489581554024,-0.044593163,0.009773844,0.018020526,292.85352,-99.65978,-3.9985363,STD
6843441983000,0.059991,-1.9632454,9.55925491212606,-1.74376354426751,-0.036957346,0.003970624,0.011911872,292.96704,-99.70681,-3.999055,STD
6843446959000,0.064967,-1.9632454,9.55970753356478,-1.7426319552229,-0.028099801,0.010995574,0.0143553335,293.0754,-99.751366,-3.9961362,STD
6843451933000,0.069941,-1.9632454,9.56015997308169,-1.74150082099704,-0.044593163,0.0061086523,0.009773844,293.18683,-99.79288,-3.9985807,STD
6843456924000,0.074932,-1.9632454,9.56061395893391,-1.74036582081182,-0.041233405,0.004276057,0.012217305,293.29443,-99.84074,-3.998764,STD
6843461917000,0.079925,-1.9632454,9.56106812670792,-1.73923036580786,-0.03726278,0.0070249503,0.010079277,293.40033,-99.885544,-4.002314,STD
6843466937000,0.084945,-1.9632454,9.56152475042624,-1.7380887707508,-0.040011674,0.011911872,0.013744468,293.50513,-99.92851,-4.004269,STD
6843471998000,0.090006,-1.9632454,9.56198510354146,-1.7369378519094,-0.038179077,0.0030543262,0.013133603,293.61142,-99.97441,-4.009255,STD
6843476942000,0.09495,-1.9632454,9.56243481423137,-1.73581353996476,-0.03940081,0.0070249503,0.010995574,293.7115,-100.018486,-4.0135384,STD
6843481981000,0.099989,-1.9632454,9.56289316620679,-1.7346676241296,-0.0421497,0.0067195175,0.014660766,293.81418,-100.06198,-4.017634,STD
6843486928000,0.104936,-1.9632454,9.5633431497794,-1.73354262995683,-0.04520403,0.0106901415,0.0143553335,293.91296,-100.10569,-4.023704,STD
6843491951000,0.109959,-1.9632454,9.56380004638042,-1.73240035267165,-0.03634648,0.009468411,0.009468411,294.012,-100.15184,-4.030931,STD
6843496976000,0.114984,-1.9632454,9.56425712490324,-1.73125762056772,-0.03756821,0.009162978,0.019547688,294.10907,-100.192795,-4.0343666,STD
6843501935000,0.119943,-1.9632454,9.56470820000665,-1.73012989748246,-0.035430185,-0.00061086525,0.01160644,294.20688,-100.23944,-4.0453653,STD
6843506922000,0.12493,-1.9632454,9.56516182201526,-1.72899580693474,-0.035124753,0.00061086525,0.018020526,294.30154,-100.28236,-4.049509,STD
6843511909000,0.129917,-1.9632454,9.56561544402388,-1.72786171638702,-0.03573562,-0.005192355,0.0143553335,294.39896,-100.327515,-4.060091,STD
6843516936000,0.134944,-1.9632454,9.5660727044685,-1.72671852946434,-0.039095376,-0.007941248,0.008552114,294.49408,-100.3714,-4.0698004,STD
6843521922000,0.13993,-1.9632454,9.56652623551621,-1.72558466632599,-0.032375857,-0.012217305,0.013744468,294.59036,-100.416794,-4.0782757,STD
6843526917000,0.144925,-1.9632454,9.56698058521203,-1.72444875650328,-0.03176499,-0.007941248,0.0106901415,294.68317,-100.46112,-4.090848,STD
6843531938000,0.149946,-1.9632454,9.56823812854504,-1.72987385547806,-0.035124753,0.00030543262,0.010079277,294.849,-100.47831,-4.0459795,STD
6843536929000,0.154937,-1.9632454,9.5704459256351,-1.74312038443418,-0.026572637,0.005497787,0.019547688,295.0123,-100.49952,-4.0016828,STD
6843541963000,0.159971,-1.9632454,9.57267274401848,-1.75648103896536,-0.03634648,0.0036651916,0.014049901,295.23633,-100.4897,-3.9257495,STD
6843547013000,0.165021,-1.9632454,9.57490664009238,-1.76988415882679,-0.039095376,-0.0012217305,0.016493361,295.4577,-100.48479,-3.84838,STD
6843551940000,0.169948,-1.96139267824221,9.57804217363311,-1.77943337179356,-0.027183503,0.002443461,0.0143553335,295.7096,-100.47249,-3.7545354,STD
6843556922000,0.17493,-1.9467646912417,9.58779436862545,-1.76480533387839,-0.030543262,0.009162978,0.014660766,295.96027,-100.457726,-3.6627383,STD
6843561907000,0.179915,-1.93524313414383,9.59414066464042,-1.75219153292808,-0.03176499,0.003970624,0.008246681,296.2603,-100.43907,-3.5547824,STD
6843566941000,0.184949,-1.9397516547835,9.58286936304124,-1.74993727260825,-0.032986723,0.0070249503,0.014660766,296.5551,-100.42138,-3.44592,STD
6843571976000,0.189984,-1.94426107103713,9.57159582240718,-1.74768256448144,-0.03634648,-0.003970624,0.007941248,296.91058,-100.38508,-3.3075256,STD
6843576908000,0.194916,-1.94867823905359,9.56055290236603,-1.74547398047321,-0.032986723,-0.013439035,0.01038471,297.26352,-100.3533,-3.168955,STD
6843581986000,0.199994,-1.95322616670719,9.54918308323202,-1.7432000166464,-0.02321288,-0.0061086523,0.004276057,297.66284,-100.31413,-3.002347,STD
6843586930000,0.204938,-1.95781460252943,9.55429591720985,-1.73261379367643,-0.025961773,-0.0030543262,0.008857546,298.06464,-100.27693,-2.8378658,STD
6843592036000,0.210044,-1.96257179104971,9.56143160064208,-1.72072082237572,-0.020463986,0.0021380284,0.010079277,298.46112,-100.25074,-2.6807497,STD
6843596937000,0.214945,-1.96713798394785,9.56828079462983,-1.70930534013036,-0.027794369,0.005497787,0.013439035,298.9388,-100.204834,-2.4761028,STD
6843601863000,0.219871,-1.97172746899504,9.5751649263547,-1.6978316275124,-0.03390302,0.00061086525,0.009468411,299.5284,-100.14199,-2.209209,STD
6843606921000,0.224929,-1.9757071274166,9.57392201233514,-1.68644001775019,-0.029626964,0.01282817,0.015271631,300.10577,-100.09099,-1.9477829,STD
6843611893000,0.229901,-1.97940114212568,9.57022792048099,-1.67535797362296,-0.034208454,0.009162978,0.0125227375,300.6815,-100.04764,-1.7009174,STD
6843616879000,0.234887,-1.98063499907031,9.56634798111563,-1.66812840092969,-0.035124753,0.0018325958,0.005497787,301.35336,-99.99582,-1.3938887,STD
6843621927000,0.239935,-1.97127151148557,9.56166613955065,-1.67749188851443,-0.026267206,0.006414085,0.01160644,302.01315,-99.959724,-1.0965701,STD
6843626921000,0.244929,-1.96447950463679,9.55888713040958,-1.68613505231839,-0.032986723,0.0036651916,0.01282817,302.84836,-99.912445,-0.69649136,STD
6843631942000,0.24995,-1.9737695187017,9.56817733848532,-1.69078005935085,-0.036651913,-0.0070249503,0.012217305,303.6655,-99.89065,-0.31556827,STD
6843636978000,0.254986,-1.98136677005988,9.57577478443114,-1.69681518323353,-0.03481932,-0.0033597588,0.0076358155,304.58282,-99.88366,0.12244148,STD
6843641928000,0.259936,-1.96763145230829,9.56203965790999,-1.71970737948619,-0.03268129,-0.0015271631,0.014660766,305.4806,-99.89965,0.53977567,STD
6843647326000,0.265334,-1.95383002904251,9.54759270275872,-1.74168736765993,-0.03970624,-0.0012217305,0.014966198,306.44302,-99.9353,0.9829722,STD
6843651926000,0.269934,-1.95585891864781,9.54150590683001,-1.72545625081748,-0.03176499,0.0036651916,0.0125227375,307.37903,-99.99724,1.4040108,STD
6843657528000,0.275536,-1.95832975333671,9.53409324796205,-1.70568957330631,-0.036957346,0.0036651916,0.016187929,307.951786787575,-100.042970955912,1.65996281206413,STD
6843661906000,0.279914,-1.96026072696541,9.52830020609773,-1.6902417842767,-0.034513887,-0.008552114,0.01160644,308.3994,-100.07871,1.859991,STD
6843666911000,0.284919,-1.96246824706858,9.521677507484,-1.67258162345139,-0.040927973,-0.01038471,0.01985312,309.3876,-100.180435,2.2935567,STD
6843671914000,0.289922,-1.95691877774154,9.50985619873624,-1.68218095564615,-0.03726278,-0.008857546,0.010079277,310.40695,-100.30198,2.7268791,STD
6843676927000,0.294935,-1.94713310746025,9.49517789767631,-1.70664513134937,-0.025045475,-0.014660766,0.012217305,311.40353,-100.43909,3.1423879,STD
6843681938000,0.299946,-1.94736463159145,9.51025305789786,-1.72406689477435,-0.027488936,-0.0033597588,0.01160644,312.34644,-100.57401,3.519817,STD
6843686930000,0.304938,-1.95209616223278,9.53864234055819,-1.73826148669834,-0.032986723,-0.005192355,0.004886922,313.27298,-100.718376,3.8750951,STD
6843691926000,0.309934,-1.95665726376134,9.55405414027869,-1.74596746376134,-0.026267206,-0.007330383,0.009773844,314.1939,-100.87301,4.220748,STD
6843696981000,0.314989,-1.96118459229402,9.56310851370055,-1.75049479229402,-0.021380283,-0.002443461,0.014660766,315.09235,-101.02862,4.545464,STD
6843701928000,0.319936,-1.9619430300149,9.56853239718353,-1.75516033997019,-0.02443461,0.0030543262,0.01038471,315.97748,-101.187386,4.8523345,STD
6843706927000,0.324935,-1.95948250561752,9.57099297296603,-1.76008138876497,-0.022296581,0.00580322,0.0106901415,316.84332,-101.35029,5.1436076,STD
6843711911000,0.329919,-1.95702936426993,9.57344616554454,-1.76498767146014,-0.039095376,0.008246681,0.011301007,317.69217,-101.50703,5.4169006,STD
6843716935000,0.334943,-1.95455653478954,9.57591904666701,-1.76993333042093,-0.034513887,0.008246681,0.008552114,318.5233,-101.66743,5.6721945,STD
6843721926000,0.339934,-1.94805755824984,9.57961257946502,-1.76329263737476,-0.038789943,0.011911872,0.009773844,319.3473,-101.81597,5.9141116,STD
6843727729000,0.345737,-1.93784077906058,9.58472107574226,-1.74796746859086,-0.037873644,0.01740966,0.008552114,320.15375,-101.96314,6.1385684,STD
6843731975000,0.349983,-1.93217999248991,9.58404894372608,-1.73830878497983,-0.03573562,0.011911872,0.00061086525,320.95038,-102.11301,6.3529034,STD
6843736963000,0.354971,-1.92723853408503,9.57910738212476,-1.72842586817006,-0.029932396,0.004276057,0.008246681,321.73062,-102.26162,6.5556784,STD
6843741952000,0.35996,-1.92746229581974,9.57175870293507,-1.73139748745924,-0.028099801,-0.0018325958,0.009162978,322.49115,-102.400734,6.738716,STD
6843746942000,0.36495,-1.93218491979445,9.56231325773298,-1.74556535938334,-0.022296581,0.0070249503,0.010079277,323.2358,-102.53837,6.9101467,STD
6843752071000,0.370079,-1.93331941297571,9.55645751284932,-1.74896883892712,-0.04886922,-0.0067195175,0.011301007,323.96954,-102.66156,7.0648417,STD
6843756922000,0.37493,-1.93114476256144,9.55428304409493,-1.74244488768431,-0.03634648,0.0015271631,0.016187929,324.6819,-102.79084,7.2095656,STD
6843761910000,0.379918,-1.92890869654075,9.55204716486448,-1.73573668962224,-0.03604105,-0.0030543262,0.019547688,325.39328,-102.91081,7.3433657,STD
6843766943000,0.384951,-1.92665245751065,9.54979111430979,-1.72896797253195,-0.02107485,0.00061086525,0.013744468,326.0871,-103.03071,7.4643245,STD
6843771906000,0.389914,-1.9238743705564,9.54435357473058,-1.72542094416541,-0.03481932,0.0012217305,0.0067195175,326.77148,-103.139854,7.5745296,STD
6843776913000,0.394921,-1.91919781741844,9.52798554108353,-1.73243577387234,-0.030848695,-0.007330383,0.013439035,327.44608,-103.252045,7.6750846,STD
6843782021000,0.400029,-1.91442692997513,9.51128733539767,-1.7395921050373,-0.024129177,-0.005192355,0.020463986,328.09995,-103.3565,7.7641115,STD
6843786930000,0.404938,-1.90984190913347,9.49523966669918,-1.7464696362998,-0.02443461,0.006414085,0.016798794,328.74286,-103.45398,7.8415594,STD
6843791911000,0.409919,-1.9067629371983,9.48250648536605,-1.7496205884051,-0.028405234,0.005497787,0.017104227,329.38162,-103.541985,7.908261,STD
6843797411000,0.415419,-1.91521011865929,9.49517708114826,-1.72427904402213,-0.022602014,0.014660766,0.022296581,330.0037,-103.627014,7.9666643,STD
6843802100000,0.420108,-1.92241172481758,9.50597933998877,-1.70267422554727,-0.034208454,0.018325957,0.011911872,330.6162,-103.701935,8.012738,STD
6843806930000,0.424938,-1.9397432518141,9.5208728275088,-1.7154517655685,-0.029321533,0.03634648,0.015577064,331.2131,-103.78006,8.056432,STD
6843811958000,0.429966,-1.96311524569834,9.53840188393399,-1.74758828766533,-0.03573562,0.04062254,0.016187929,331.80243,-103.845695,8.087148,STD
6843816970000,0.434978,-1.98641286569591,9.55587515975003,-1.77962254557093,-0.036651913,0.045814894,0.014660766,332.37665,-103.90596,8.109866,STD
6843821912000,0.43992,-2.0023255514777,9.56413821023136,-1.80430445738851,-0.040317107,0.06688975,0.016798794,332.9363,-103.96033,8.126976,STD
6843826915000,0.444923,-2.00462055221536,9.55495825520908,-1.81577946107678,-0.039095376,0.084910266,0.01740966,333.4864,-104.01074,8.135738,STD
6843831953000,0.449961,-2.00693160832495,9.54571407903434,-1.82733474162475,-0.042455133,0.100792766,0.014966198,334.0325,-104.0589,8.134149,STD
6843836919000,0.454927,-2.00920963624084,9.53660201494468,-1.8387248812042,-0.04886922,0.12308934,0.020463986,334.56726,-104.10288,8.130139,STD
6843841914000,0.459922,-2.01332857066717,9.53332135664336,-1.84685758622189,-0.051618114,0.13988814,0.012217305,335.0897,-104.14024,8.115443,STD
6843846916000,0.464924,-2.02690912829333,9.56048256643357,-1.83780388113778,-0.05131268,0.15790866,0.004581489,335.5976,-104.174095,8.097401,STD
6843852075000,0.470083,-2.03945844520577,9.58517991047188,-1.82475519307261,-0.045814894,0.17562376,0.009162978,336.09448,-104.20749,8.07452,STD
6843856848000,0.474856,-2.03453385283344,9.57040582482224,-1.77058462555484,-0.030848695,0.17959438,0.009162978,336.5818,-104.23784,8.0428095,STD
6843861841000,0.479849,-2.02533519920107,9.55641606702175,-1.72052666182867,-0.027183503,0.17654006,0.0033597588,337.05545,-104.26223,8.002449,STD
6843866861000,0.484869,-1.9968839277112,9.54930334817774,-1.70155912274498,-0.012217305,0.16157386,0.0018325958,337.52463,-104.29041,7.957746,STD
6843871843000,0.489851,-1.9686480244119,9.54224447063175,-1.6827351626424,-0.013744468,0.15699236,0.00030543262,337.9821,-104.308525,7.908978,STD
6843876838000,0.494846,-1.94033844252108,9.53516717369433,-1.66386208341471,-0.022907447,0.14049901,-0.0030543262,338.44028,-104.32496,7.8529534,STD
6843881838000,0.499846,-1.91026300190524,9.52665705975062,-1.65060963403491,-0.018936822,0.13652839,-0.0009162979,338.88992,-104.34208,7.7940083,STD
6843886839000,0.504847,-1.8672662247182,9.50754750294264,-1.67927416878803,-0.0290161,0.12064589,-0.0076358155,339.34045,-104.349236,7.7256384,STD
6843891835000,0.509843,-1.82748083096375,9.49112277312604,-1.70754335612688,-0.029932396,0.10293079,-0.0009162979,339.77768,-104.35905,7.6653056,STD
6843896876000,0.514884,-1.8124089633324,9.49564426574256,-1.73316552008367,-0.03940081,0.09132435,-0.002443461,340.21112,-104.360016,7.59645,STD
6843901847000,0.519855,-1.79754638567013,9.50010297230808,-1.75843189124598,-0.03359759,0.06811147,0.0061086523,340.64093,-104.36416,7.5291553,STD
6843906894000,0.524902,-1.78245657889857,9.50462984658612,-1.78408455172801,-0.032070424,0.05009095,0.009162978,341.06647,-104.362206,7.4561086,STD
6843911886000,0.529894,-1.76753121424557,9.50910738896694,-1.80945766072867,-0.03970624,0.03634648,0.0033597588,341.49164,-104.35772,7.3784695,STD
6843916909000,0.534917,-1.75251316403484,9.51361273659892,-1.83498833510974,-0.0421497,0.032375857,0.007330383,341.9142,-104.35841,7.302013,STD
6843921907000,0.539915,-1.73756986024164,9.51809566064125,-1.86039194063563,-0.03390302,0.03481932,-0.0015271631,342.33197,-104.35552,7.216634,STD
6843926887000,0.544895,-1.73836860308523,9.51769043106441,-1.89065479835133,-0.028405234,0.0290161,0.0076358155,342.74887,-104.35305,7.1335263,STD
6843931909000,0.549917,-1.74532406340147,9.51537189587351,-1.92311363736984,-0.03176499,0.022907447,0.005497787,343.15826,-104.346016,7.0419073,STD
6843936866000,0.554874,-1.75218949884304,9.51308336960085,-1.95515235999325,-0.02321288,0.02321288,0.006414085,343.55676,-104.350365,6.9548426,STD
6843941882000,0.55989,-1.75913664917084,9.51076760446394,-1.98757241903683,-0.0106901415,0.04734206,0.01160644,343.94473,-104.35369,6.866771,STD
6843946951000,0.564959,-1.78044778613579,9.52197949117034,-2.01071027713063,-0.013133603,0.07086037,0.0106901415,344.3269,-104.35322,6.7746453,STD
6843952150000,0.570158,-1.81321505816606,9.54382475737633,-2.0270938846331,-0.013439035,0.082161374,0.010079277,344.70065,-104.35571,6.6823425,STD
6843956923000,0.574931,-1.8438434119169,9.55846976041166,-2.00949718978551,-0.0106901415,0.092240654,0.011301007,345.06628,-104.36168,6.58618,STD
6843961921000,0.579929,-1.87606943142253,9.57228071934212,-1.98187488735212,-0.003970624,0.096516706,0.01038471,345.425,-104.36696,6.4875965,STD
6843966975000,0.584983,-1.8898731545887,9.5897759506442,-1.91446158354807,0.005497787,0.09712757,0.008552114,345.78308,-104.37473,6.3847666,STD
6843971996000,0.590004,-1.89463877528246,9.60883833389495,-1.82868036129832,-0.009468411,0.10415252,0.0018325958,346.13278,-104.37602,6.279268,STD
6843976910000,0.594918,-1.8845883362943,9.60930450013952,-1.80334454092643,0.0021380284,0.10781772,0.01282817,346.47906,-104.37681,6.167702,STD
6843982716000,0.600724,-1.86390080925495,9.59896106064552,-1.80851642268626,-0.0027488936,0.10598512,0.008857546,346.8188,-104.36628,6.048998,STD
6843986930000,0.604938,-1.87221198621776,9.56972327111636,-1.8219427177594,0.0012217305,0.110872045,0.008857546,347.15167,-104.35773,5.9355154,STD
6843991924000,0.609932,-1.90046161553455,9.5179322758417,-1.84548403455405,0.009162978,0.12461651,0.008246681,347.47787,-104.347984,5.8200054,STD
6843996922000,0.61493,-1.90814136151802,9.4882092786223,-1.83864713106198,0.004276057,0.12675454,0.010079277,347.80286,-104.34048,5.709211,STD
6844001915000,0.619923,-1.89289193167854,9.48312604687998,-1.79798212636335,0.0012217305,0.13561209,0.0012217305,348.1172,-104.33363,5.5954657,STD
6844006952000,0.62496,-1.8814194039898,9.48625060484606,-1.76044008875023,-0.018325957,0.13591751,-0.002443461,348.43283,-104.32314,5.4776855,STD
6844011900000,0.629908,-1.87278650065586,9.49488368846784,-1.7259084303425,-0.015882496,0.1423316,-0.003970624,348.73978,-104.31653,5.358199,STD
6844016895000,0.634903,-1.8562396002104,9.50768476074542,-1.70092570007013,-0.016493361,0.13744467,-0.004581489,349.0443,-104.30555,5.241065,STD
6844021927000,0.639935,-1.8272702839495,9.5269975374211,-1.6912692613165,-0.018936822,0.119729586,-0.01740966,349.346,-104.293076,5.1189094,STD
6844026902000,0.64491,-1.8065269705904,9.54373422123975,-1.70296566526665,-0.026267206,0.099571034,-0.016798794,349.64337,-104.27837,5.000421,STD
6844031992000,0.65,-1.79754734233214,9.55720347609837,-1.74786385344018,-0.025045475,0.09621128,-0.026572637,349.93588,-104.26293,4.8747797,STD
6844036895000,0.654903,-1.79407180972529,9.56616039693202,-1.7967958359234,-0.025350908,0.08399397,-0.02687807,350.2306,-104.246414,4.7543225,STD
6844041924000,0.659932,-1.80855799195909,9.56133182078404,-1.86681240859735,-0.024740042,0.09315695,-0.021380283,350.51648,-104.23015,4.633429,STD
6844046910000,0.664918,-1.82292031142972,9.55654453093042,-1.93623031103369,-0.020158553,0.102319926,-0.019547688,350.80194,-104.21896,4.511289,STD
6844052616000,0.670624,-1.83935661205133,9.55106593568277,-2.0156724593092,-0.026572637,0.10903945,-0.01740966,351.08237,-104.20551,4.3908095,STD
6844056922000,0.67493,-1.85375028041227,9.55024756416833,-2.05575745175264,-0.014660766,0.118507855,-0.023518313,351.3556,-104.197754,4.268998,STD
6844061915000,0.679923,-1.87646186129952,9.55933191194072,-2.04213050322029,-0.020158553,0.1432479,-0.031154128,351.6193,-104.183685,4.1485486,STD
6844066923000,0.684931,-1.89285485653924,9.5644359637827,-2.02301850583501,-0.008552114,0.15515977,-0.036651913,351.8804,-104.1812,4.0167203,STD
6844071920000,0.689928,-1.86773617771848,9.54350373143207,-1.96859470172338,-0.01985312,0.16920967,-0.03573562,352.13058,-104.17116,3.886777,STD
6844078020000,0.696028,-1.83566149197949,9.51872893837074,-1.89961378395898,-0.03023783,0.16523905,-0.040927973,352.3807,-104.161385,3.749454,STD
6844081954000,0.699962,-1.79921105608553,9.51143908717105,-1.82671291217105,-0.02565634,0.17592919,-0.049480084,352.61957,-104.15303,3.6140213,STD
6844086860000,0.704868,-1.75375456434791,9.50234808310758,-1.73579992869582,-0.023823744,0.17959438,-0.051618114,352.85284,-104.13916,3.4837468,STD
6844091923000,0.709931,-1.72076771852859,9.49067376629003,-1.69203728539631,-0.039095376,0.17592919,-0.051923547,353.082,-104.12197,3.3524318,STD
6844096904000,0.714912,-1.69240018088523,9.478515996262,-1.66366970543709,-0.03390302,0.16737708,-0.051618114,353.3087,-104.11151,3.221258,STD
6844101908000,0.719916,-1.66179630551951,9.47752421519114,-1.61285884354726,-0.047647487,0.15118915,-0.04642576,353.53018,-104.085815,3.100231,STD
6844106926000,0.724934,-1.62822058153508,9.49191409022857,-1.53131787113484,-0.04642576,0.14844026,-0.053450707,353.74704,-104.06578,2.976631,STD
6844111905000,0.729913,-1.60457682564518,9.51100968588705,-1.46060826845913,-0.051618114,0.14110987,-0.04734206,353.95242,-104.03888,2.856916,STD
6844116901000,0.734909,-1.59424409855307,9.53684150361732,-1.40377821550588,-0.05589417,0.12950343,-0.051618114,354.1567,-104.01267,2.732596,STD
6844122446000,0.740454,-1.61212455350886,9.5736478609324,-1.35988188754825,-0.057421334,0.1151481,-0.03756821,354.3509,-103.97736,2.6163259,STD
6844126903000,0.744911,-1.64169864327428,9.60744659378403,-1.33453274967831,-0.062002823,0.105374254,-0.03481932,354.54456,-103.94058,2.496138,STD
6844131892000,0.7499,-1.65936629800655,9.64789922820589,-1.32933549401964,-0.0580322,0.09010262,-0.036651913,354.73618,-103.9005,2.3767705,STD
6844136891000,0.754899,-1.66411433164733,9.69063143181593,-1.34357959494198,-0.06261369,0.09162979,-0.023823744,354.92572,-103.85912,2.2636054,STD
6844141927000,0.759935,-1.6789649553034,9.7234825553034,-1.36041024424272,-0.06566802,0.09285152,-0.021991149,355.1149,-103.81922,2.1381838,STD
6844146951000,0.764959,-1.70270143443513,9.74721903443513,-1.3793994275481,-0.059253927,0.102319926,-0.014049901,355.3015,-103.78307,2.019748,STD
6844151939000,0.769947,-1.73108226721943,9.77800482736156,-1.36218376932188,-0.0580322,0.10415252,-0.014966198,355.4805,-103.7435,1.8942901,STD
6844156957000,0.774965,-1.7642868056263,9.81595311183496,-1.3100051877406,-0.04337143,0.10445796,-0.014966198,355.65683,-103.711555,1.7730516,STD
6844161974000,0.779982,-1.77547448488845,9.85862735121467,-1.30072684533466,-0.048563786,0.09193522,-0.014660766,355.827486729705,-103.678853153355,1.64173274790766,STD
6844176839000,0.794847,-1.74018459165592,9.99978626085771,-1.40659652503223,-0.036957346,0.13347405,-0.026572637,356.33313,-103.58196,1.2526447,WAL
6844181836000,0.799844,-1.6962296350262,10.014525783555,-1.43520479919387,-0.048563786,0.15057829,-0.021991149,356.49362,-103.54528,1.1220689,WAL
6844186845000,0.804853,-1.6092219826179,9.98552340099758,-1.45453977137243,-0.06291912,0.15027285,-0.024129177,356.6533,-103.51226,0.9908234,WAL
6844191790000,0.809798,-1.52817930938272,9.94893090765432,-1.43856877995062,-0.09560041,0.14569137,-0.019242255,356.80893,-103.48183,0.8730957,WAL
6844196877000,0.814885,-1.45119403303704,9.90081517274074,-1.37601832456296,-0.100792766,0.12705997,-0.018020526,356.9671,-103.4566,0.75425833,WAL
6844201832000,0.81984,-1.36982234567827,9.86678473525602,-1.28552653965115,-0.13775012,0.08979719,-0.018936822,357.1229,-103.42179,0.6524751,WAL
6844206882000,0.82489,-1.27794923627493,9.85008062075814,-1.15189279515586,-0.17592919,0.0711658,-0.025045475,357.27728,-103.38643,0.55060005,WAL
6844211860000,0.829868,-1.18913780243577,9.83936251017684,-1.02405683340007,-0.19914207,0.04337143,-0.027183503,357.42902,-103.3413,0.45808703,WAL
6844216891000,0.834899,-1.11411468661995,9.87687370437104,-0.927598557624291,-0.20525073,0.03023783,-0.027794369,357.58054,-103.29202,0.36491174,WAL
6844221910000,0.839918,-1.05133752314691,9.91848911520782,-0.839997469249186,-0.24465153,0.024129177,-0.029626964,357.7105,-103.21053,0.28165096,WAL
6844226887000,0.844895,-1.01482053727255,9.9687000005746,-0.771528162440146,-0.27091873,0.02565634,-0.029321533,357.84155,-103.133354,0.19929132,WAL
6844231925000,0.849933,-0.976276067139976,10.0291591470351,-0.702494893590157,-0.28313604,0.02107485,-0.02443461,357.96414,-103.03928,0.12739305,WAL
6844236882000,0.85489,-0.933189139277935,10.1201202969948,-0.635470784693425,-0.29749137,0.024740042,-0.023823744,358.0834,-102.9399,0.055773087,WAL
6844241880000,0.859888,-0.879181572838227,10.2085458759355,-0.559825118631741,-0.3210097,0.02321288,-0.019242255,358.19653,-102.829834,-0.008682398,WAL
6844246942000,0.86495,-0.790803307599309,10.2876217763385,-0.457492393016695,-0.34055737,0.027794369,-0.009162978,358.3071,-102.719696,-0.0701196,WAL
6844251996000,0.870004,-0.702605353723066,10.3634875803255,-0.357057553548504,-0.3857614,0.032375857,0.00061086525,358.4118,-102.58533,-0.123235,WAL
6844256919000,0.874927,-0.616876449249932,10.4234976926084,-0.267042188186199,-0.40866885,0.03604105,0.01160644,358.516,-102.455025,-0.17244498,WAL
6844262296000,0.880304,-0.522110586795138,10.4891206100953,-0.167139551205518,-0.44898596,0.03359759,0.01863139,358.60754,-102.294044,-0.2052684,WAL
6844266942000,0.88495,-0.414931706046206,10.5475814626081,-0.045345386109712,-0.49021935,0.00061086525,0.03145956,358.70755,-102.13001,-0.23482022,WAL
6844271927000,0.889935,-0.30983428777192,10.5979353636009,0.0745433154901387,-0.52748215,-0.016798794,0.051618114,358.79156,-101.9444,-0.24374549,WAL
6844276912000,0.89492,-0.265552545426674,10.5722987769967,0.128147531060828,-0.58276546,-0.048258353,0.07238753,358.88934,-101.746216,-0.25186026,WAL
6844282028000,0.900036,-0.220107130413982,10.5459884907245,0.183160403048721,-0.6414085,-0.07696902,0.10170906,358.9787,-101.523224,-0.23570584,WAL
6844286909000,0.904917,-0.176749219804726,10.5208867496583,0.235646295967584,-0.69027776,-0.0983493,0.11453723,359.07474,-101.29242,-0.2203651,WAL
6844292124000,0.910132,-0.135883655814573,10.4932876287329,0.282783310123679,-0.75961095,-0.1142318,0.14477506,359.17447,-101.04224,-0.196065,WAL
6844296980000,0.914988,-0.157249533759993,10.4591022008178,0.229368611244326,-0.8237518,-0.13255776,0.172264,359.2807,-100.78558,-0.17099155,WAL
6844301888000,0.919896,-0.178844206115042,10.4245507015988,0.175381926297896,-0.8897252,-0.13225232,0.2098322,359.37793,-100.49907,-0.11950659,WAL
6844307705000,0.925713,-0.204438380746118,10.3835999943949,0.111396484909676,-0.9419542,-0.12644911,0.25595254,359.47964,-100.20528,-0.059854683,WAL
6844311918000,0.929926,-0.222975127818616,10.3539411789488,0.065054613744372,-0.99296147,-0.11636983,0.2764165,359.5795,-99.90065,0.0018967381,WAL
6844316929000,0.934937,-0.324141112288161,10.3462037124299,-0.036658784002362,-1.0177015,-0.11056661,0.31978795,359.68106,-99.59682,0.08145202,WAL
6844321945000,0.939953,-0.461241844310599,10.3509314195453,-0.159576686920579,-1.0650436,-0.09987647,0.355829,359.77762,-99.28058,0.1636179,WAL
6844326908000,0.944916,-0.608610303736885,10.3967337114609,-0.21058539889427,-1.1139128,-0.07269296,0.38515055,359.87598,-98.98401,0.24789304,WAL
6844331920000,0.949928,-0.763570613849879,10.4645286973366,-0.225112927651332,-1.1722504,-0.0421497,0.42363504,359.9706,-98.68062,0.3432952,WAL
6844336930000,0.954938,-0.913116017081316,10.5569238737279,-0.207468777654382,-1.2162327,-0.009773844,0.44501534,0.07269616,-98.39673,0.41759592,WAL
6844341919000,0.959927,-1.0594592152396,10.6607799572177,-0.174423546357079,-1.2660183,0.007330383,0.47616947,0.1705519,-98.10446,0.5039588,WAL
6844346926000,0.964934,-1.19772943780511,10.742199780319,-0.222681470857198,-1.3051136,0.063224554,0.5131268,0.26982686,-97.80576,0.5739758,WAL
6844351933000,0.969941,-1.33136206242552,10.8113200536229,-0.314841902625408,-1.3655893,0.18936823,0.537256,0.34279433,-97.497086,0.6504093,WAL
6844356914000,0.974922,-1.41258603969421,10.8888432461041,-0.309104748900323,-1.4153748,0.34513888,0.5467244,0.40302876,-97.17433,0.7075198,WAL
6844361923000,0.979931,-1.45490023363717,10.9734719285504,-0.229177874297756,-1.4724907,0.4529566,0.5476407,0.4397691,-96.84342,0.7700456,WAL
6844366898000,0.984906,-1.49476885585514,11.0332685257188,-0.121743877712267,-1.5326608,0.48991394,0.55833083,0.47751477,-96.521835,0.81900305,WAL
6844371925000,0.989933,-1.53308753971744,11.0715869595065,0.0123714327810168,-1.5830573,0.47250426,0.5635232,0.4987873,-96.19775,0.86734164,WAL
6844377658000,0.995666,-1.58057860022459,11.1084831204459,0.118993934323573,-1.6190983,0.43218717,0.56779927,0.52169555,-95.84788,0.9114273,WAL
6844381945000,0.999953,-1.6181441954916,11.1323886191981,0.173634786097155,-1.6783522,0.37751472,0.56505036,0.5524567,-95.48952,0.9530238,WAL
6844386893000,1.004901,-1.66883863746224,11.1604948529383,0.236371007695156,-1.7348573,0.33475417,0.5513059,0.5979257,-95.104744,0.98627365,WAL
6844391922000,1.00993,-1.78148671812689,11.1933502347724,0.297388740518468,-1.7950275,0.29077184,0.548557,0.65802926,-94.71664,1.0193999,WAL
6844397004000,1.015012,-1.89601139847521,11.2292701039079,0.364097573242452,-1.8347337,0.2782491,0.5329799,0.7301552,-94.313286,1.0371761,WAL
6844401938000,1.019946,-2.01529845898213,11.2960711726749,0.488156050402908,-1.8732183,0.27122417,0.5204572,0.81146693,-93.90892,1.0533241,WAL
6844406882000,1.02489,-2.13117708613978,11.3625354591566,0.61529925681215,-1.890628,0.27030787,0.52564955,0.90270054,-93.50181,1.0507573,WAL
6844411909000,1.029917,-2.20216284268161,11.4240567874767,0.78093290781677,-1.8897116,0.29871312,0.539394,0.98573446,-93.10538,1.0472758,WAL
6844417062000,1.03507,-2.28945093410738,11.4816045887052,0.931286179899684,-1.8661933,0.32589662,0.5656612,1.076074,-92.70403,1.0294517,WAL
6844421923000,1.039931,-2.54889477625859,11.4686321392346,0.836156802716887,-1.847562,0.36132678,0.61208695,1.1547762,-92.32529,1.0220114,WAL
6844427827000,1.045835,-2.85502590530057,11.4279990958704,0.709364526161004,-1.8338175,0.5183192,0.70463306,1.2064314,-91.9328,1.0304711,WAL
6844432013000,1.050021,-2.97656970852065,11.1346171698902,0.499806175781495,-1.8500054,0.6062838,0.7281514,1.2653846,-91.57656,1.0313586,WAL
6844437410000,1.055418,-3.1259917007237,10.7527094074046,0.236574187747391,-1.8845193,0.83260936,0.7666359,1.2812384,-91.28616,1.0235317,WAL
6844441922000,1.05993,-3.17207590140931,10.3939110565247,0.0917380287712349,-1.9782871,1.0146471,0.7663304,1.2827125,-91.07186,1.0107622,WAL
6844447613000,1.065621,-3.2302020508113,9.94135755145883,-0.0909442807884513,-2.0677788,1.0375546,0.6945538,1.3160856,-89.02498,0.97499466,WAL
6844451929000,1.069937,-3.18504860060582,9.55687273835535,-0.294209316337273,-2.1022928,0.93767816,0.5849035,1.3321371,-88.999855,0.92873245,WAL
6844456923000,1.074931,-2.98555360151952,9.04388517980932,-0.63620089638693,-2.0491474,0.8127562,0.45845437,1.3491259,-88.87838,0.85802495,WAL
6844461900000,1.079908,-2.77109217640733,8.63908029965401,-0.771589360763045,-1.9416351,0.84574294,0.32253686,1.3638343,-88.706245,0.7472495,WAL
6844466933000,1.084941,-2.523195747709,8.44076273312138,-0.501156961548532,-1.8716911,0.86590147,0.19456059,1.417642,-88.499405,0.604173,WAL
6844471904000,1.089912,-2.28923844391403,8.27163689080894,-0.162252351377039,-1.8185458,0.82558435,0.089186326,1.4495368,-88.26264,0.46034095,WAL
6844476900000,1.094908,-2.09804159405983,8.20962746041689,0.468180580732261,-1.7510452,0.7458665,0.01740966,1.4879138,-88.03478,0.29212055,WAL
6844481941000,1.099949,-1.93141340332009,8.2190517299114,1.02427160533659,-1.6468927,0.6407976,-0.041233405,1.5515878,-87.782745,0.14666261,WAL
6844486938000,1.104946,-1.81444350111009,8.36039064589062,1.42879247049598,-1.5549575,0.5131268,-0.065973446,1.6445575,-87.54304,-0.0068093794,WAL
6844491860000,1.109868,-1.73796037779439,8.49860106439252,1.64583063183178,-1.4563028,0.37812558,-0.071776666,1.7416619,-87.22028,-0.14398725,WAL
6844496925000,1.114933,-1.72436042676636,8.63913398635514,1.56423083099065,-1.3518448,0.28955013,-0.073303826,1.8624661,-86.92946,-0.28502747,WAL
6844501888000,1.119896,-1.70461746398075,8.76288679890018,1.46503487420759,-1.2605205,0.25992316,-0.076052725,1.9665926,-86.57367,-0.41501144,WAL
6844506923000,1.124931,-1.66410638389979,8.84390865141679,1.30299063079508,-1.1691961,0.24556783,-0.08032878,2.0921392,-86.2543,-0.54412156,WAL
6844511916000,1.129924,-1.62393323139846,8.92425465134041,1.1422980970595,-1.1191051,0.26083946,-0.08307768,2.2253954,-85.95581,-0.66758174,WAL
6844516994000,1.135002,-1.50378302177411,8.9975987983506,1.05435318441114,-1.0299188,0.2782491,-0.06566802,2.3609214,-85.70133,-0.78574735,WAL
6844521926000,1.139934,-1.3422708103691,9.06410366609675,1.01159994176808,-0.9257663,0.27550024,-0.039095376,2.4968288,-85.471436,-0.9013529,WAL
6844526928000,1.144936,-1.13397067449477,9.11698269799979,0.989633803865686,-0.83016586,0.23579398,0.0036651916,2.6531854,-85.29683,-0.99127954,WAL
6844531992000,1.15,-0.897743497875428,9.16221808902477,0.979581588050575,-0.72692966,0.18387043,0.040317107,2.8099945,-85.15861,-1.0749462,WAL
6844537006000,1.155014,-0.722910916014138,9.17773134257749,0.979984905764002,-0.6032294,0.10140363,0.086437434,2.9626656,-85.04392,-1.1172332,WAL
6844541963000,1.159971,-0.572328338956861,9.18203333931485,0.984287261899583,-0.49938235,0.01985312,0.1459968,3.1240382,-84.95868,-1.1447692,WAL
6844546957000,1.164965,-0.487616531435865,9.1348643417358,0.965656262871729,-0.41141775,-0.03940081,0.1863139,3.2756226,-84.9171,-1.1294308,WAL
6844551935000,1.169943,-0.467334321144437,9.03852399904276,0.925091842288875,-0.321926,-0.07727446,0.22632557,3.4368474,-84.90893,-1.0978593,WAL
6844556928000,1.174936,-0.551274132693627,8.81363555804297,0.936734122776675,-0.2519819,-0.112704635,0.27091873,3.587371,-84.92427,-1.0292977,WAL
6844561905000,1.179913,-0.697561200474815,8.51245607356924,0.979759717205272,-0.19853121,-0.10934488,0.29657507,3.7309806,-84.959335,-0.9576231,WAL
6844566908000,1.184916,-0.802861928673129,8.27522672695143,1.03483764131071,-0.16035213,-0.09437868,0.32925636,3.8607512,-84.93422,-0.8703185,WAL
6844571929000,1.189937,-0.846562440218116,8.13441411794406,1.10767185256993,-0.116980694,-0.07574729,0.34330627,3.981984,-84.925156,-0.78401804,WAL
6844576912000,1.19492,-0.892200054851625,8.01426591612498,1.15240306866855,-0.084910266,-0.06872234,0.35827246,4.108469,-84.889755,-0.7186105,WAL
6844581943000,1.199951,-0.941371977720207,7.91970475993092,1.15996801329879,-0.04642576,-0.05100725,0.36285394,4.221287,-84.86882,-0.655409,WAL
6844586924000,1.204932,-0.990055211234103,7.82608338863244,1.16745777461925,-0.015271631,-0.014660766,0.3539964,4.3281994,-84.82768,-0.6012544,WAL
6844591924000,1.209932,-1.01384481103565,7.73878262132852,1.11926394803693,0.004886922,0.00061086525,0.34574974,4.4314184,-84.7952,-0.5479421,WAL
6844597270000,1.215278,-1.03316978357736,7.65411962109484,1.06583889105661,0.053450707,0.05222898,0.3359759,4.510302,-84.77981,-0.50169295,WAL
6844601929000,1.219937,-1.01652581782151,7.6874073788119,1.10744880544624,0.08827003,0.09193522,0.3191771,4.580245,-84.74428,-0.47553146,WAL
6844606899000,1.224907,-0.998770825375361,7.72291717830831,1.1518362865616,0.11942416,0.12644911,0.30879238,4.6372304,-84.705696,-0.45439202,WAL
6844611923000,1.229931,-0.964601262261147,7.81871956557614,1.21372026213086,0.121256754,0.14172074,0.29443705,4.687016,-84.669235,-0.44113976,WAL
6844616925000,1.234933,-0.927617525636943,7.9250477872515,1.27844185552982,0.14263703,0.15271631,0.2724459,4.727202,-84.647606,-0.43506753,WAL
6844621923000,1.239931,-0.955617829936647,8.00311604152047,1.36535772202729,0.17012598,0.15943582,0.2657264,4.762097,-84.609406,-0.42538577,WAL
6844626892000,1.2449,-1.00199906194932,8.07268785321637,1.45812013762183,0.18570304,0.17073683,0.25289822,4.792286,-84.57453,-0.42511684,WAL
6844632885000,1.250893,-1.08274335553731,8.15098978107359,1.58806120045161,0.19242255,0.16218472,0.23732115,4.821955,-84.54077,-0.42144206,WAL
6844636864000,1.254872,-1.14141026571898,8.20183444200965,1.6780171484553,0.22113322,0.15241088,0.22999077,4.8481874,-84.51865,-0.42013633,WAL
6844641919000,1.259927,-1.19275180653188,8.21010822395023,1.80654618413686,0.24587326,0.13164146,0.21502456,4.881597,-84.46193,-0.4342609,WAL
6844646914000,1.264922,-1.23651373677614,8.20135566425762,1.93783192917391,0.28344148,0.13744467,0.20280726,4.9098215,-84.41879,-0.4507177,WAL
6844651927000,1.269935,-1.27512067062,8.22124211538062,2.07127462972271,0.32498032,0.13133603,0.18081611,4.955928,-84.37256,-0.48752427,WAL
6844656936000,1.274944,-1.30999364178004,8.2610971922318,2.20578456473154,0.3491095,0.13622294,0.17104226,4.9968386,-84.33335,-0.5250399,WAL
6844661911000,1.279919,-1.31212853171898,8.34065714389636,2.36420011826607,0.364992,0.15515977,0.15851954,5.0364785,-84.268326,-0.5808785,WAL
6844666933000,1.284941,-1.29775044813154,8.44130382909816,2.53673727144993,0.3820962,0.16340645,0.14813483,5.077963,-84.2118,-0.6386233,WAL
6844671928000,1.289936,-1.26483224532835,8.52033281918491,2.65419182333155,0.37904188,0.17684549,0.13683382,5.117835,-84.14122,-0.707753,WAL
6844676931000,1.294939,-1.2221976302456,8.58854822112476,2.74372442151628,0.3830125,0.20066923,0.14080444,5.1525483,-84.07901,-0.77561957,WAL
6844681947000,1.299955,-1.1631320440912,8.61384176825091,2.84313469073004,0.4016439,0.20463985,0.1337795,5.193093,-84.00325,-0.84554476,WAL
6844686933000,1.304941,-1.08135091634554,8.57806286844359,2.95558377473774,0.42149702,0.19211712,0.12675454,5.2317905,-83.930435,-0.9140123,WAL
6844691922000,1.30993,-1.00059795269832,8.55657483554507,3.0274816122776,0.42852196,0.14660765,0.116980694,5.280693,-83.853775,-0.9721175,WAL
6844696931000,1.314939,-0.92043534066647,8.54714375464465,3.06520529578296,0.45937067,0.1133155,0.10842858,5.3300056,-83.79029,-1.031415,WAL
6844702613000,1.320621,-0.841615002136986,8.55378370356164,3.07527808991781,0.47219884,0.092240654,0.09712757,5.3793054,-83.72373,-1.0812298,WAL
6844706932000,1.32494,-0.788731785634703,8.56889310383562,3.06394586221918,0.48288897,0.04153884,0.09590584,5.44633,-83.66578,-1.1283938,WAL
6844711897000,1.329905,-0.719847901290046,8.59997882342226,3.04063146577735,0.5036584,0.015271631,0.08552113,5.503178,-83.616165,-1.1665971,WAL
6844716940000,1.334948,-0.631877372694739,8.66207586038787,2.99405879612129,0.5177083,0.005192355,0.07696902,5.569391,-83.56787,-1.2035345,WAL
6844721924000,1.339932,-0.547262256933777,8.7391797662534,2.91885539612942,0.5149594,0.014049901,0.073303826,5.6317396,-83.52229,-1.2268472,WAL
6844726926000,1.344934,-0.465178363023889,8.8357489701643,2.80780076121359,0.52381694,0.036651913,0.07269296,5.692579,-83.483826,-1.2520443,WAL
6844731946000,1.349954,-0.383527811785008,8.96743326621835,2.68397297810522,0.5345071,0.08368854,0.069027774,5.738342,-83.451744,-1.2605503,WAL
6844736937000,1.354945,-0.303171463047864,9.1375991210443,2.54689451159019,0.54061574,0.14752395,0.07452556,5.7720146,-83.42169,-1.2683517,WAL
6844741890000,1.359898,-0.237520228905063,9.28563212112057,2.45933237683787,0.5552765,0.21074851,0.07269296,5.78695,-83.41625,-1.2603405,WAL
6844746935000,1.364943,-0.1888646563792,9.40948333781928,2.43279303494461,0.55924714,0.24465153,0.07147124,5.7916965,-83.40991,-1.2522604,WAL
6844751885000,1.369893,-0.143862930818235,9.52126638885642,2.42506285319501,0.56413406,0.23854288,0.06872234,5.782748,-83.41873,-1.2239864,WAL
6844756919000,1.374927,-0.10629453304851,9.60579502591077,2.47202326704656,0.5833763,0.22082779,0.06811147,5.767583,-83.43294,-1.1969272,WAL
6844761875000,1.379883,-0.0726647146389679,9.67948708025277,2.52689714552923,0.6062838,0.19914207,0.07788532,5.753703,-83.46196,-1.1536143,WAL
6844766939000,1.384947,-0.0522341935723012,9.71524068025276,2.61883458552923,0.59559363,0.16554448,0.07544186,5.7485566,-83.48568,-1.1140896,WAL
6844772285000,1.390293,-0.0285194013993165,9.6759921278892,2.77449032796115,0.5842926,0.1386664,0.08246681,5.739646,-83.526566,-1.0651007,WAL
6844776909000,1.394917,-0.0046234639243637,9.52066852037054,3.00150169675331,0.5656612,0.11209377,0.079107046,5.7403703,-83.5604,-1.0199232,WAL
6844781968000,1.399976,0.0226549765999249,9.35293589181067,3.23418066000188,0.5323691,0.11636983,0.087659165,5.734222,-83.59071,-0.9708724,WAL
6844786938000,1.404946,0.0606501122366642,9.20989529639369,3.3079358940834,0.5021312,0.116980694,0.10445796,5.7362185,-83.61542,-0.9207033,WAL
6844791922000,1.40993,0.0987522764244929,9.06645176972201,3.38189888938768,0.4810564,0.11942416,0.106901415,5.7315154,-83.61304,-0.8758355,WAL
6844796933000,1.414941,0.137060852817994,8.92223116134485,3.45626256705015,0.47036624,0.11301007,0.106595986,5.7287097,-83.60454,-0.82772666,WAL
6844801861000,1.419869,0.174734902801465,8.78039935969196,3.52939451746337,0.45937067,0.10262536,0.108123146,5.7252192,-83.596596,-0.7806422,WAL
6844806922000,1.42493,0.1481451282051,8.6855731772986,3.46964204504406,0.46639562,0.07360926,0.09865474,5.729215,-83.58953,-0.7369597,WAL
6844811877000,1.429885,0.107438284207596,8.60415958668018,3.38082721540201,0.48563787,0.03145956,0.098043874,5.7395115,-83.582466,-0.6905723,WAL
6844816947000,1.434955,0.0325433793843972,8.55903862705946,3.2240559059138,0.52381694,-0.007941248,0.08857546,5.744307,-83.57594,-0.64078283,WAL
6844821925000,1.439933,-0.133910193784397,8.62145861909438,2.88594699562466,0.5852089,-0.070249505,0.06719518,5.767838,-83.579895,-0.5934141,WAL
6844826909000,1.444917,-0.315491240302914,8.73062344329976,2.58674799549473,0.65118235,-0.11759156,0.057726767,5.8058333,-83.6088,-0.5543839,WAL
6844831932000,1.44994,-0.518899894090874,8.90444523298993,2.33895923864842,0.7360926,-0.16401732,0.035124753,5.86185,-83.65792,-0.5241281,WAL
6844836893000,1.454901,-0.719797829874683,9.0761215018836,2.09422899323441,0.82863873,-0.23671028,0.012217305,5.9502015,-83.757324,-0.5255732,WAL
6844842328000,1.460336,-1.09890209543147,9.61696965482233,1.78453505439932,0.9089675,-0.32375857,-0.016493361,6.0556006,-83.87349,-0.53392655,WAL
6844846951000,1.464959,-1.44849606717428,10.1371992605753,1.51401598099267,0.99112886,-0.39522982,-0.032375857,6.176116,-84.01225,-0.544218,WAL
6844851926000,1.469934,-1.77258856117257,10.8251716238938,1.27246529070796,1.0812315,-0.43249258,-0.046120327,6.342504,-84.204956,-0.6105679,WAL
6844856920000,1.474928,-2.07559283174779,11.5706577035398,1.05122405973451,1.1340714,-0.45020768,-0.039095376,6.5206585,-84.40224,-0.6744182,WAL
6844861908000,1.479916,-2.21001724721283,12.2521606462178,0.930968125070041,1.1414018,-0.4269948,-0.022602014,6.7346716,-84.636986,-0.8216584,WAL
6844866943000,1.484951,-2.27523491975654,12.9136548699643,0.851775109815477,1.1154399,-0.40011674,0.008246681,6.9481544,-84.86192,-0.9602739,WAL
6844871928000,1.489936,-2.20598316167796,13.4326820645128,0.887364237661282,1.0622946,-0.38912117,0.038789943,7.187845,-85.097946,-1.1476701,WAL
6844876924000,1.494932,-2.06137392866076,13.8764830708702,0.987094780177176,0.96669424,-0.41447207,0.07452556,7.4241567,-85.29556,-1.3194562,WAL
6844881959000,1.499967,-1.84486826556763,14.0761854211315,1.13887927800674,0.8341365,-0.46914452,0.11453723,7.6620927,-85.46495,-1.4827949,WAL
6844886926000,1.504934,-1.60426578062945,14.1786649224429,1.30819209986886,0.677755,-0.5549711,0.15943582,7.9093175,-85.588776,-1.6274425,WAL
6844891925000,1.509933,-1.42218828263822,14.1049277992241,1.392621871484,0.5143485,-0.61666846,0.18997909,8.147528,-85.69822,-1.7301842,WAL
6844896939000,1.514947,-1.2824654157711,13.9046576483026,1.41590910512124,0.37384954,-0.63346726,0.21563543,8.390586,-85.767815,-1.8172344,WAL
6844901921000,1.519929,-1.27028013221128,13.4964062767616,1.34320448545297,0.27366763,-0.6478226,0.22235495,8.622213,-85.8189,-1.849846,WAL
6844906925000,1.524933,-1.37401929705596,12.894719012339,1.1824086174586,0.23671028,-0.6209445,0.21868975,8.841293,-85.84945,-1.8782978,WAL
6844911928000,1.529936,-1.4946770988049,12.1614364493576,1.03674059790857,0.19608775,-0.5815437,0.19394971,9.038992,-85.86584,-1.8912845,WAL
6844916915000,1.534923,-1.62310136325067,11.3671088177472,0.898803485688676,0.21380283,-0.5662721,0.1518,9.231945,-85.88357,-1.9110074,WAL
6844921909000,1.539917,-1.63303300811533,10.0995774649418,0.455389322291388,0.27580565,-0.6096435,0.12095132,9.440983,-85.90888,-1.955098,WAL
6844926921000,1.544929,-1.5826235524346,8.58729412948253,-0.144941319312583,0.33475417,-0.68386364,0.093767814,9.651394,-85.92994,-2.0095205,WAL
6844931919000,1.549927,-1.4226645914422,7.60549324964715,-0.678935702781036,0.4266894,-0.7837401,0.062002823,9.893205,-85.95702,-2.1004732,WAL
6844936947000,1.554955,-1.17857740539708,7.01681245091939,-1.16711008486632,0.5534439,-0.87995136,0.0421497,10.151474,-85.99773,-2.1942594,WAL
6844941924000,1.559932,-1.03067079507346,6.64591376250735,-1.47864764630754,0.6722572,-0.945314,0.04153884,10.435761,-86.10906,-2.2846456,WAL
6844946936000,1.564944,-0.95545203920666,6.43906214092067,-1.65729216387855,0.80909103,-0.97158116,0.044593163,10.73274,-86.23507,-2.3806741,WAL
6844951926000,1.569934,-0.932464257690952,6.43584528677649,-1.7277062043168,0.93431836,-0.9798279,0.042455133,11.021581,-86.43561,-2.431449,WAL
6844956928000,1.574936,-0.957785301801603,6.62153300234341,-1.69816501189323,1.0311406,-0.9456194,0.029626964,11.302859,-86.633,-2.4875567,WAL
6844961899000,1.579907,-0.965027006184936,6.8828408102674,-1.64878442792407,1.0873401,-0.89369583,0.010079277,11.575444,-86.8409,-2.5328326,WAL
6844966903000,1.584911,-0.91611665995101,7.38661731008369,-1.53629064690753,1.1319333,-0.82650065,-0.033292156,11.831516,-87.01193,-2.5920143,WAL
6844971853000,1.589861,-0.849790631425379,7.86961169305666,-1.45880215511572,1.1291844,-0.7535023,-0.080634214,12.072512,-87.12229,-2.6654303,WAL
6844976910000,1.594918,-0.733837148814046,8.32183018483639,-1.47039749691939,1.1120802,-0.6921103,-0.12492194,12.294849,-87.164536,-2.7527297,WAL
6844981917000,1.599925,-0.619030131326417,8.76957746352753,-1.48187819227454,1.069625,-0.6246097,-0.16676621,12.487838,-87.14303,-2.8415143,WAL
6844986929000,1.604937,-0.416625309121603,9.25018269668862,-1.64417541202115,1.035722,-0.5222898,-0.20158553,12.650141,-92.94251,-2.9415116,WAL
6844991859000,1.609867,-0.193278996274928,9.73191014033949,-1.84562506196086,0.9795224,-0.44959682,-0.21899518,12.798667,-93.077545,-3.048217,WAL
6844996932000,1.61494,-0.0197276786945766,10.1356149958135,-1.92779210462417,0.9440922,-0.31978795,-0.22540927,12.884016,-93.218185,-3.1253064,WAL
6845001908000,1.619916,0.116297606648906,10.4756781973359,-1.93232627748811,0.9098838,-0.22327125,-0.22785273,12.955755,-93.384224,-3.2047915,WAL
6845006928000,1.624936,0.16478373228635,10.6806245852029,-1.85722479347491,0.82894415,-0.13897185,-0.21899518,12.972132,-93.51575,-3.2191718,WAL
6845011916000,1.629924,0.132059560630245,10.7583445703031,-1.70996598898784,0.77671516,-0.12308934,-0.19181168,12.97965,-93.662285,-3.2283096,WAL
6845016893000,1.634901,0.0515860903605972,10.7725890947225,-1.53781345135618,0.73456544,-0.09285152,-0.20005837,12.947402,-93.79505,-3.2100055,WAL
6845021926000,1.639934,-0.247384062407485,10.498955699958,-1.2489779308873,0.7113526,-0.0580322,-0.22724187,12.909209,-93.93362,-3.1896956,WAL
6845027586000,1.645594,-0.664959590979369,10.1314458785422,-1.00377963260496,0.66920286,-0.016493361,-0.25595254,12.872807,-94.066536,-3.1771233,WAL
6845031945000,1.649953,-1.09390705071526,9.76952115637794,-0.920000807353295,0.63071835,0.06078109,-0.2843578,12.815773,-94.205696,-3.1713443,WAL
6845036859000,1.654867,-1.57746929369351,9.36151517227262,-0.825555029127398,0.6114761,0.080634214,-0.30176744,12.797101,-94.369354,-3.229696,WAL
6845041924000,1.659932,-1.73764641938346,9.15914163757775,-0.933035192060007,0.6206391,0.032986723,-0.3368922,12.775358,-94.53676,-3.2986608,WAL
6845046909000,1.664917,-1.80315188210757,9.01939656531284,-1.09461533040615,0.6649268,-0.030543262,-0.36682457,12.752843,-94.70553,-3.3685923,WAL
6845051934000,1.669942,-1.81447996527127,8.98886426431918,-1.24987240157171,0.72173727,-0.0842994,-0.39278635,12.80407,-94.96168,-3.5690415,WAL
6845056921000,1.674929,-1.79042094987154,9.02976464827968,-1.39903824178127,0.77121735,-0.1459968,-0.38912117,12.875848,-95.21773,-3.765733,WAL
6845061913000,1.679921,-1.76633781273991,9.07070603924236,-1.54835363667322,0.80848014,-0.21135938,-0.3885103,12.968546,-95.518364,-3.982706,WAL
6845066936000,1.684944,-1.74210512087049,9.11190167361846,-1.69859627059594,0.8344419,-0.23823744,-0.3848451,13.067059,-95.817055,-4.1935663,WAL
6845071923000,1.689931,-1.69605194924733,9.20673276334675,-1.80324497250131,0.86254174,-0.2846632,-0.38362336,13.193151,-96.12236,-4.4012623,WAL
6845076953000,1.694961,-1.63702877762121,9.33321089392613,-1.88334787657973,0.8576548,-0.28313604,-0.38362336,13.311941,-96.41761,-4.603701,WAL
6845081914000,1.699922,-1.5630137681128,9.44873514316703,-1.90609617657267,0.8396343,-0.26511553,-0.3640757,13.430541,-96.728195,-4.781642,WAL
6845086943000,1.704951,-1.45854137997737,9.54866535254173,-1.8243351565406,0.8179486,-0.26816985,-0.36346483,13.552489,-97.033516,-4.961885,WAL
6845091908000,1.709916,-1.34863088514112,9.6184261261897,-1.74244290473416,0.8051204,-0.2770274,-0.35033122,13.660607,-97.32013,-5.1130867,WAL
6845097766000,1.715774,-1.1921301470873,9.58620520364293,-1.64117770432393,0.8063421,-0.30940324,-0.34300083,13.774642,-97.59958,-5.263432,WAL
6845101929000,1.719937,-1.08091256898589,9.56330733738103,-1.56921337702658,0.79717916,-0.32436943,-0.34055737,13.887817,-97.84919,-5.38109,WAL
6845106938000,1.724946,-0.906562042390839,9.52909196650257,-1.60040495253639,0.7996226,-0.35094208,-0.33841935,14.012076,-98.09388,-5.4959564,WAL
6845111912000,1.72992,-0.723036613516695,9.49340681688784,-1.66158009549444,0.8032878,-0.3567453,-0.3399465,14.132958,-98.331085,-5.609109,WAL
6845116901000,1.734909,-0.598329709218437,9.51710103006012,-1.74140510340681,0.8045095,-0.3210097,-0.33444872,14.240899,-98.527534,-5.6848135,WAL
6845121870000,1.739878,-0.479123409176353,9.54571062014028,-1.82246537628257,0.8081747,-0.2669481,-0.3359759,14.343171,-98.72198,-5.7616796,WAL
6845126936000,1.744944,-0.383317825128205,9.58675244871795,-1.84635922820513,0.81031275,-0.23243423,-0.33017266,14.434134,-98.91211,-5.7968593,WAL
6845131901000,1.749909,-0.291648571629073,9.62800349122807,-1.86469306741855,0.8035932,-0.21288654,-0.3155119,14.512366,-99.095505,-5.8287234,WAL
6845136889000,1.754897,-0.208127297164782,9.61379739660743,-1.85519493796446,0.8051204,-0.19242255,-0.31490102,14.570509,-99.28385,-5.8364363,WAL
6845141860000,1.759868,-0.126412107936187,9.58976353513732,-1.84077462108239,0.7910705,-0.17379116,-0.30451632,14.622879,-99.45931,-5.8372393,WAL
6845146938000,1.764946,-0.131365887447309,9.61927221742966,-1.81819165678855,0.77518797,-0.12950343,-0.29749137,14.652044,-99.6221,-5.8180327,WAL
6845151868000,1.769876,-0.149879233580041,9.65629868738359,-1.79504999224586,0.7632761,-0.08032878,-0.28252518,14.673942,-99.776596,-5.793783,WAL
6845156943000,1.774951,-0.17303564663821,9.60357769770585,-1.72616090182939,0.75747293,-0.03268129,-0.28191432,14.681034,-99.940605,-5.7575397,WAL
6845161933000,1.779941,-0.196663572964928,9.53269380852396,-1.6489763522546,0.7333437,-0.023823744,-0.28863382,14.684205,-100.09336,-5.7201853,WAL
6845176928000,1.794936,-0.267665728329488,9.31968701127299,-1.41703600739007,0.71593404,-0.037873644,-0.33444872,14.669866,-100.54158,-5.6401224,WAL
6845181886000,1.799894,-0.291142132884172,9.24925768811392,-1.34034642887468,0.7089091,-0.021380283,-0.35246924,14.662875,-100.6914,-5.6283827,WAL
6845186853000,1.804861,-0.282270179598781,9.19186154647029,-1.36543186399187,0.70066243,-0.01282817,-0.37659842,14.662626,-100.849655,-5.6362815,WAL
6845191840000,1.809848,-0.262865582772981,9.13849938009142,-1.42364557848654,0.7125743,-0.0070249503,-0.38789943,14.6574545,-101.00713,-5.6450124,WAL
6845196881000,1.814889,-0.247517349147855,9.21514864389719,-1.47337572334604,0.7174612,0.009162978,-0.39828414,14.648918,-101.16447,-5.6675763,WAL
6845201886000,1.819894,-0.233465194154207,9.32756623600117,-1.52021622368807,0.74067414,0.017715093,-0.41080686,14.639844,-101.326164,-5.693384,WAL
6845206895000,1.824903,-0.147883427517259,9.43850068524674,-1.54746678640586,0.7464773,0.0033597588,-0.4175264,14.628296,-101.50732,-5.7202888,WAL
6845211879000,1.829887,-0.0380452173817438,9.54833856405012,-1.5678072240092,0.77366084,-0.02443461,-0.41141775,14.617938,-101.693436,-5.7463417,WAL
6845216876000,1.834884,0.0247413091148817,9.61710859569061,-1.58515948509185,0.79351395,-0.059253927,-0.40408736,14.606241,-101.891594,-5.774279,WAL
6845221882000,1.83989,0.0145890523325216,9.62218482651278,-1.59784979712531,0.8017606,-0.08307768,-0.3885103,14.599816,-102.08513,-5.7980967,WAL
6845226876000,1.844884,0.00446113176298375,9.62724888898301,-1.61050968891418,0.79412484,-0.106595986,-0.3753767,14.589977,-102.27773,-5.7974906,WAL
6845231896000,1.849904,-0.00571951726766901,9.63233931621579,-1.62323549123299,0.8060367,-0.12950343,-0.35796702,14.587255,-102.46869,-5.792603,WAL
6845236870000,1.854878,-0.0529434796037736,9.57355464150943,-1.62227488113208,0.8072584,-0.14874569,-0.355829,14.588367,-102.66286,-5.7926917,WAL
6845241863000,1.859871,-0.123428439340311,9.47487567049921,-1.61287689323899,0.8228355,-0.17470746,-0.35521814,14.598087,-102.85571,-5.790245,WAL
6845246924000,1.864932,-0.240677637808288,9.47264788567149,-1.54402220444333,0.8142834,-0.17989981,-0.35705075,14.600868,-103.05178,-5.7979956,WAL
6845251911000,1.869919,-0.388510453259111,9.53941094358462,-1.43433982446331,0.7968737,-0.19608775,-0.35460728,14.613825,-103.24267,-5.8064566,WAL
6845256893000,1.874901,-0.487558684471482,9.59932901779359,-1.37526245580456,0.7779369,-0.18936823,-0.3390302,14.628886,-103.4393,-5.8276677,WAL
6845261886000,1.879894,-0.551946298478407,9.65451854804271,-1.35226689823988,0.754724,-0.18906279,-0.3381139,14.649053,-103.625534,-5.853199,WAL
6845266895000,1.884903,-0.613719035446072,9.71168562583222,-1.31614149094541,0.75319684,-0.19822577,-0.32834008,14.682924,-103.81698,-5.9090905,WAL
6845271903000,1.889911,-0.672668914917546,9.77063516675202,-1.26701656573799,0.7467828,-0.20861048,-0.31856623,14.716872,-103.99517,-5.9636364,WAL
6845276882000,1.89489,-0.706116378950188,9.80408262533476,-1.19825501593465,0.7431176,-0.25381452,-0.3100141,14.766844,-104.178795,-6.034814,WAL
6845281957000,1.899965,-0.719132517139796,9.81709903535083,-1.11148071603285,0.7476991,-0.27763826,-0.2941316,14.814554,-104.35513,-6.099243,WAL
6845286858000,1.904866,-0.733303539030395,9.84083618587255,-1.04524942718493,0.7425067,-0.29993483,-0.27305678,14.876621,-104.53227,-6.179395,WAL
6845291921000,1.909929,-0.751668216011741,9.89133914345232,-1.01770236377237,0.7492262,-0.36377025,-0.26847526,14.956542,-104.70822,-6.262598,WAL
6845296906000,1.914914,-0.772721883654131,9.94242443914717,-0.995048275165334,0.7489208,-0.41905355,-0.26450464,15.042662,-104.87826,-6.349896,WAL
6845301982000,1.91999,-0.806310213058928,10.0000040458987,-0.990249949550883,0.7504479,-0.46670106,-0.24129178,15.145432,-105.04246,-6.433054,WAL
6845306890000,1.924898,-0.839547949226996,10.0357256988425,-0.984819663939572,0.7309003,-0.5174029,-0.21594086,15.26418,-105.20077,-6.5244985,WAL
6845311914000,1.929922,-0.877306537321954,9.97436823837552,-0.975380024308417,0.7199047,-0.5571091,-0.19608775,15.393391,-105.35471,-6.6124587,WAL
6845316912000,1.93492,-0.92714343825369,9.93091255372071,-0.963254396790174,0.68936145,-0.5885687,-0.1872302,15.53638,-105.50035,-6.706519,WAL
6845321924000,1.939932,-1.05594647915368,10.0002678948292,-0.93353061414181,0.6743952,-0.5849035,-0.16554448,15.681574,-105.63881,-6.7909827,WAL
6845326899000,1.944907,-1.1786330634085,10.0538433764638,-0.899876928295752,0.66156703,-0.58032197,-0.16768251,15.83361,-105.78079,-6.893936,WAL
6845332012000,1.95002,-1.28288709877093,10.0443655479532,-0.847749910614536,0.6588182,-0.58246,-0.160963,15.987223,-105.91372,-6.9877167,WAL
6845336919000,1.954927,-1.38166570249544,10.0262342781497,-0.815992891710286,0.63316184,-0.5885687,-0.16829337,16.150843,-106.048454,-7.1108813,WAL
6845341965000,1.959973,-1.47480494248326,9.947801686549,-0.904230089604382,0.6062838,-0.6065892,-0.16982053,16.31788,-106.17682,-7.23013,WAL
6845346920000,1.964928,-1.56686468819814,9.87324066459441,-0.999196187315753,0.5729916,-0.6169739,-0.160963,16.496233,-106.29537,-7.3685412,WAL
6845351958000,1.969966,-1.66362181963301,9.81034825889903,-1.13949405568034,0.5332854,-0.6081163,-0.17165314,16.6713,-106.40511,-7.5106945,WAL
6845356928000,1.974936,-1.747576549852,9.75340201585028,-1.2652897723193,0.49968776,-0.57940567,-0.18081611,16.847555,-106.534225,-7.6676297,WAL
6845361910000,1.979918,-1.77491066651389,9.72151255399599,-1.32906931443712,0.45204028,-0.54061574,-0.20463985,17.015284,-106.650116,-7.8277884,WAL
6845366928000,1.984936,-1.79493166523538,9.69207322296632,-1.39793180012803,0.43401974,-0.5143485,-0.22602014,17.177639,-106.78532,-8.0036,WAL
6845371961000,1.989969,-1.71898114750837,9.69681972759504,-1.5260981810715,0.39370266,-0.5021312,-0.2565634,17.329582,-106.904594,-8.183528,WAL
6845377084000,1.995092,-1.6342718802536,9.70561795367624,-1.65691482325391,0.3680463,-0.49877146,-0.26083946,17.474604,-107.02912,-8.362691,WAL
6845381951000,1.999959,-1.46268268214541,9.76281453553533,-1.78560683381736,0.34208453,-0.52656585,-0.28160888,17.62071,-107.14746,-8.552526,WAL
6845387467000,2.005475,-1.26238982685645,9.83451342410338,-1.92320024286918,0.32834008,-0.56779927,-0.28619036,17.757431,-107.293396,-8.724302,WAL
6845391960000,2.009968,-1.07704328995224,9.91912815478977,-2.00378570467272,0.31490102,-0.5882632,-0.2932153,17.893545,-107.4327,-8.89958,WAL
6845397381000,2.015389,-0.857645824706887,10.0200348012521,-2.09743308348321,0.30390546,-0.65148777,-0.28069258,18.028399,-107.56085,-9.036837,WAL
6845401936000,2.019944,-0.763300380725669,10.079621304667,-2.09991585661924,0.27550024,-0.66859204,-0.2724459,18.154217,-107.67954,-9.172778,WAL
6845406900000,2.024908,-0.660483523662493,10.1445581659078,-2.10262156152533,0.26725355,-0.70463306,-0.25045475,18.276064,-107.78155,-9.259121,WAL
6845411900000,2.029908,-0.556921016548093,10.2099659632897,-2.10534688878771,0.25992316,-0.7415904,-0.22999077,18.402206,-107.873055,-9.34388,WAL
6845417063000,2.035071,-0.477439284770655,10.3436317770655,-2.03100342377493,0.22632557,-0.7724391,-0.22327125,18.535938,-107.95243,-9.427737,WAL
6845422054000,2.040062,-0.433182022406695,10.5513003906695,-1.86759193389601,0.18448131,-0.81092364,-0.21410827,18.682322,-108.02235,-9.507955,WAL
6845427019000,2.045027,-0.389155312801994,10.7578871801994,-1.70503171605413,0.12889257,-0.84879726,-0.20586158,18.823345,-108.08134,-9.553843,WAL
6845432000000,2.050008,-0.445318982712332,10.9031915977097,-1.57865194143781,0.070249505,-0.86376345,-0.19700404,18.967836,-108.12654,-9.598623,WAL
6845437081000,2.055089,-0.558829190768741,11.0167019242922,-1.47030138086099,0.007941248,-0.8680395,-0.17928895,19.119514,-108.15385,-9.641155,WAL
6845441986000,2.059994,-0.676515183857578,11.0740182704829,-1.49226284226419,-0.05222898,-0.84513205,-0.17745635,19.277641,-108.13339,-9.66982,WAL
6845447115000,2.065123,-0.802127990766204,11.1174994978853,-1.55506920536048,-0.096516706,-0.7849618,-0.16982053,19.426727,-108.09909,-9.690235,WAL
6845451977000,2.069985,-0.956170127534456,11.1423046771822,-1.60573571310873,-0.13622294,-0.7174612,-0.16462818,19.582508,-108.047066,-9.727815,WAL
6845457250000,2.075258,-1.13661401787647,11.1629267099541,-1.65729111803982,-0.14874569,-0.6239988,-0.15088372,19.713875,-107.990166,-9.754596,WAL
6845461862000,2.07987,-1.31980564872695,11.2181819537606,-1.60785532115891,-0.16768251,-0.5213735,-0.14966199,19.834394,-107.94869,-9.798564,WAL
6845466836000,2.084844,-1.52426776321335,11.2878853994732,-1.52885853555751,-0.17501289,-0.43066,-0.16615535,19.930532,-107.909195,-9.837452,WAL
6845471844000,2.089852,-1.59973914007331,11.4200908494197,-1.37036866281816,-0.19058995,-0.38331795,-0.17715092,20.025204,-107.88179,-9.897643,WAL
6845476836000,2.094844,-1.61434127373244,11.5807146246182,-1.1756734457137,-0.22632557,-0.37232238,-0.19486602,20.102108,-107.85282,-9.959331,WAL
6845481843000,2.099851,-1.53555701792498,11.7688717874843,-1.09395097190242,-0.28008172,-0.36957347,-0.19028452,20.196703,-107.82721,-10.051635,WAL
6845486844000,2.104852,-1.42010620120528,11.967446833478,-1.05700674141356,-0.35430184,-0.35735616,-0.18997909,20.283236,-107.79344,-10.146489,WAL
6845491863000,2.109871,-1.22715410628845,12.1992524077107,-1.0190710017479,-0.39187005,-0.35369098,-0.18845193,20.387978,-107.73273,-10.239059,WAL
6845496877000,2.114885,-0.992147425489413,12.4486473254095,-0.980702533609668,-0.4700608,-0.32711834,-0.17562376,20.482956,-107.646545,-10.323932,WAL
6845501872000,2.11988,-0.762928696972625,12.6799704342143,-0.882074084143223,-0.5467244,-0.29138273,-0.15118915,20.564909,-107.53088,-10.376923,WAL
6845506871000,2.124879,-0.536185970853462,12.9021780440466,-0.750563307161125,-0.63499445,-0.24648413,-0.1255328,20.637098,-107.39654,-10.422435,WAL
6845511846000,2.129854,-0.315159419471713,13.1108070734743,-0.573733211410788,-0.7495316,-0.2171626,-0.09254608,20.688713,-107.20877,-10.410891,WAL
6845516873000,2.134881,-0.0959086027426374,13.3105694001619,-0.354482379419087,-0.88147855,-0.2003638,-0.05222898,20.73303,-106.9972,-10.388662,WAL
6845521868000,2.139876,0.0532129391375199,13.5017181053259,-0.170772421673291,-1.0259482,-0.21624629,-0.00580322,20.765541,-106.71379,-10.313638,WAL
6845526925000,2.144933,0.149456799373013,13.6893934049086,-0.0119700545459062,-1.1850786,-0.2098322,0.04520403,20.789516,-106.39802,-10.225884,WAL
6845531883000,2.149891,0.165535450290374,13.8546502263293,0.127662675704685,-1.3494014,-0.20372356,0.11056661,20.815376,-106.0028,-10.089103,WAL
6845536870000,2.154878,0.118332905801146,14.0056984617513,0.255109546712789,-1.5060883,-0.19700404,0.1853976,20.84217,-105.574745,-9.938864,WAL
6845541907000,2.159915,-0.101059165006806,14.0153628503475,0.514701367215465,-1.6722436,-0.18875736,0.2556471,20.869446,-105.08158,-9.758925,WAL
6845546973000,2.164981,-0.476907918172459,13.8959344311468,0.894062747311034,-1.8420641,-0.19761491,0.32436943,20.90247,-104.55497,-9.56404,WAL
6845553514000,2.171522,-0.950978544009971,13.7286704422204,1.36246132264305,-1.998751,-0.23365596,0.38759398,20.950089,-103.982574,-9.363016,WAL
6845556928000,2.174936,-1.11884594523774,13.5486386559268,1.45491002421311,-2.1413882,-0.25411993,0.4297437,20.995785,-103.38725,-9.153389,WAL
6845561922000,2.17993,-1.36440241908996,13.2852881167498,1.59014400653322,-2.282498,-0.3036,0.47403142,21.14063,-102.77588,-9.022015,WAL
6845566964000,2.184972,-1.60864661547588,13.0190452852721,1.71764981060098,-2.3991733,-0.36468655,0.50335294,21.291254,-102.163055,-8.886046,WAL
6845572008000,2.190016,-1.81630463913679,12.7490900236437,1.7550282748087,-2.503631,-0.43157628,0.535118,21.454866,-101.546326,-8.740961,WAL
6845576969000,2.194977,-2.02054560967243,12.4835769282951,1.79179166912561,-2.6019804,-0.50640726,0.5708536,21.674511,-100.965866,-8.64874,WAL
6845581951000,2.199959,-2.20497179286723,12.1999594625706,1.71934793375706,-2.699719,-0.5815437,0.5928447,21.908192,-100.406006,-8.553563,WAL
6845586946000,2.204954,-2.38353694525827,11.9103940918079,1.61317404846651,-2.7776043,-0.61361414,0.61758476,22.146166,-99.8723,-8.448505,WAL
6845591901000,2.209909,-2.48804878213726,11.698188765,1.30034255562549,-2.8112018,-0.64812803,0.6386596,22.429558,-99.411865,-8.380132,WAL
6845596969000,2.214977,-2.57369927398039,11.503096105,0.919673876339216,-2.8738155,-0.6814202,0.68600166,22.716469,-98.98599,-8.297192,WAL
6845601958000,2.219966,-2.72588617305022,11.3849480151082,0.381113099485504,-2.9098566,-0.73884153,0.72265357,23.023767,-98.65603,-8.241566,WAL
6845606856000,2.224864,-2.89826867305022,11.2939680151082,-0.203072100514496,-2.9211576,-0.7819075,0.7498371,23.330555,-98.38187,-8.174845,WAL
6845611852000,2.22986,-2.9951264954717,10.9863462649057,-1.79662340298868,-2.9123,-0.7287622,0.77213365,23.602608,-98.19516,-8.116283,WAL
6845616955000,2.234963,-3.06889324896226,10.6036819232075,-3.74222036368491,-2.8860328,-0.5757405,0.77763146,23.852201,-98.06788,-8.055841,WAL
6845621852000,2.23986,-3.17277122443453,10.520653392129,-4.56691579374176,-2.8447995,-0.42821655,0.79473567,24.063993,-81.97018,-8.029273,WAL
6845626847000,2.244855,-3.29649794187544,10.5885816429658,-4.84833343003854,-2.809064,-0.39278635,0.8338311,24.260344,-81.9813,-7.995773,WAL
6845631898000,2.249906,-3.42161178567806,10.65727145177,-5.13290609889441,-2.8023443,-0.4382958,0.86834496,24.341494,-82.016495,-7.92895,WAL
6845636838000,2.254846,-3.54397614687088,10.7244517438888,-5.41122504249924,-2.7800477,-0.45448375,0.8866709,24.402138,-82.04665,-7.8573403,WAL
6845641831000,2.259839,-3.67618682452848,11.1072776707421,-5.26408320306132,-2.7122416,-0.36957347,0.9111055,24.44492,-82.0851,-7.7630873,WAL
6845646855000,2.264863,-3.81299056832528,11.631692133068,-4.92663406042081,-2.5851817,-0.06627888,0.97097033,24.427017,-82.13037,-7.657846,WAL
6845651937000,2.269945,-3.89780321728763,11.9232384292101,-3.71660036485842,-2.3506095,0.4361578,1.0338894,24.310162,-82.18738,-7.541468,WAL
6845656832000,2.27484,-3.9443789112767,12.0474400366783,-1.98165448307336,-2.081218,0.84421575,1.0677924,24.133453,-82.25728,-7.421913,WAL
6845661839000,2.279847,-4.00174356705006,12.058669752985,-0.257593944784752,-1.9068159,0.93676186,1.0403035,23.927357,-82.3124,-7.3213673,WAL
6845666855000,2.284863,-4.10698473063862,11.5008926409245,1.22104238162997,-1.9074267,0.6609562,0.95386606,23.715101,-82.36651,-7.228911,WAL
6845671796000,2.289804,-4.1109299630367,11.1620353944696,1.85426628450075,-2.002111,0.16982053,0.8750645,23.64434,-82.32341,-7.195954,WAL
6845676833000,2.294841,-3.91690918011061,11.2347935805933,0.864761112084464,-2.0647244,-0.21991149,0.8038987,23.630737,-82.259674,-7.1808133,WAL
6845681819000,2.299827,-3.53749797811502,11.4592502973243,-0.228001838027157,-1.9840903,-0.3032946,0.7974846,23.726501,-82.096275,-7.179631,WAL
6845686844000,2.304852,-2.80719008474441,11.9685437802516,-1.53967351424521,-1.9007072,-0.14202617,0.84238315,23.863691,-81.90546,-7.184744,WAL
6845691808000,2.309816,-2.22219949377682,12.1933712746781,-2.36203933712446,-1.7131716,0.27672195,0.9960158,23.908472,-81.83264,-7.122421,WAL
6845696880000,2.314888,-1.88580428847054,11.8901416656262,-2.29570784777604,-1.6383406,0.5897904,1.0955868,23.935263,-81.74653,-7.06682,WAL
6845701825000,2.319833,-1.60614794812261,11.5509460114943,-2.12600339942529,-1.666135,0.77091193,1.1218541,23.772343,-81.836845,-6.8654885,WAL
6845706859000,2.324867,-1.43529003421456,11.1030212701149,-1.70578518649425,-1.7589865,0.82344633,1.1078042,23.557209,-81.93502,-6.6550417,WAL
6845712178000,2.330186,-1.3011384346677,10.6331689421881,-1.26008977831325,-1.7950275,0.77946407,1.0974194,23.317522,-82.0521,-6.388424,WAL
6845716866000,2.334874,-1.29677620785076,10.2274815749126,-0.863126882891566,-1.7699821,0.6759224,1.0827587,23.082829,-82.14836,-6.131788,WAL
6845721852000,2.33986,-1.30967718197669,9.79000216573746,-0.499166644225038,-1.7269161,0.5290093,1.0537425,22.90392,-82.20031,-5.863001,WAL
6845726837000,2.344845,-1.41614323935124,9.32058343791181,-0.445933585218449,-1.6658295,0.40653083,1.0158689,22.748215,-82.24113,-5.604777,WAL
6845731898000,2.349906,-1.53232545733734,8.86649171951952,-0.464399397933934,-1.6142114,0.32070425,0.99021256,22.650656,-82.21835,-5.349962,WAL
6845736862000,2.35487,-1.67984475467467,8.51434883903904,-0.783231363867868,-1.541213,0.3744604,0.9560041,22.546526,-82.189415,-5.115631,WAL
6845741859000,2.359867,-1.82620176939285,8.1674735583033,-1.02725130950929,-1.4776831,0.50946164,0.93218035,22.444002,-82.10358,-4.8955083,WAL
6845746959000,2.364967,-1.9661235520377,7.84700758103687,-0.936979188633213,-1.4489723,0.58184916,0.8912524,22.343897,-82.00652,-4.695575,WAL
6845752128000,2.370136,-2.09118287066732,7.53172038439357,-0.846197874437409,-1.4086553,0.5742133,0.86193085,22.203167,-81.891495,-4.51563,WAL
6845756900000,2.374908,-2.0154976025134,7.34918564311739,-0.770512652771554,-1.2999213,0.6469063,0.8200866,22.021551,-81.78575,-4.359746,WAL
6845762234000,2.380242,-1.92976868256308,7.14789050745676,-0.686847399121066,-1.2345587,0.7654142,0.7996226,21.839037,-81.63383,-4.2295494,WAL
6845766908000,2.384916,-1.83246917510632,7.02520841032039,-0.63185203110292,-1.2110404,0.84482664,0.7867944,21.649385,-81.49102,-4.1136913,WAL
6845771881000,2.389889,-1.72894533030904,6.89467822866459,-0.573338559739155,-1.1979067,0.9392053,0.7620544,21.43036,-81.338264,-3.998828,WAL
6845776892000,2.3949,-1.68030022557182,6.71395049725526,-0.485819229762123,-1.1872166,0.9987647,0.73792523,21.201118,-81.18834,-3.8921003,WAL
6845782414000,2.400422,-1.63675508754803,6.50590154376944,-0.384213954860018,-1.1808025,1.0247264,0.70005155,20.958523,-81.036095,-3.8012264,WAL
6845786901000,2.404909,-1.66210553759312,6.34362732979943,-0.373204595174785,-1.1557571,1.0290025,0.68386364,20.707012,-80.87659,-3.6958518,WAL
6845791832000,2.40984,-1.71171926270296,6.1677241482808,-0.386735607688634,-1.1386528,1.031446,0.634689,20.454264,-80.70944,-3.6138303,WAL
6845796937000,2.414945,-1.75596266829707,6.05982806268716,-0.468791300902376,-1.0760391,1.0241156,0.5925393,20.209093,-80.53526,-3.5281367,WAL
6845801926000,2.419934,-1.7941169646137,6.00736587412657,-0.59756199245558,-1.0091494,1.0296134,0.5684101,19.963768,-80.365395,-3.4539623,WAL
6845806931000,2.424939,-1.85452369731576,6.05226490054002,-0.713532978565756,-0.93645644,1.0366384,0.5503896,19.717823,-80.19526,-3.4017935,WAL
6845811909000,2.429917,-1.9302437343075,6.1658451339263,-0.819541034307497,-0.8680395,1.0567969,0.5363397,19.470238,-80.04254,-3.357728,WAL
6845817013000,2.435021,-2.00442979646927,6.27984172392874,-0.909463122258065,-0.8127562,1.1166617,0.54550266,19.202076,-79.92181,-3.3249516,WAL
6845821923000,2.439931,-2.03838901441181,6.3628528741454,-0.792492667419355,-0.79351395,1.1795808,0.5421429,18.931181,-79.80999,-3.3018258,WAL
6845826920000,2.444928,-2.07294995373134,6.44733489402985,-0.67344962,-0.7858781,1.0928379,0.5338962,18.670774,-79.71087,-3.2892728,WAL
6845832020000,2.450028,-2.13028999369842,6.51084902768192,-0.470542347786947,-0.70616025,1.0848967,0.550695,18.371853,-79.641335,-3.278082,WAL
6845836989000,2.454997,-2.20168852213053,6.55674813492659,-0.215547427652985,-0.66706485,1.063211,0.56046885,18.104458,-79.56409,-3.2671945,WAL
6845841922000,2.45993,-2.25885083923,6.56043143852751,0.0106462378231913,-0.62949663,0.999681,0.5571091,17.863272,-79.48319,-3.2558918,WAL
6845846930000,2.464938,-2.31135776144512,6.54730477650762,0.229424854985859,-0.569021,0.9101892,0.54519725,17.637966,-79.421486,-3.242475,WAL
6845852317000,2.470325,-2.35526183599218,6.48539645979135,0.461747369750054,-0.5103779,0.8237518,0.52748215,17.447115,-79.32175,-3.2356713,WAL
6845856926000,2.474934,-2.38404219104542,6.39905534454466,0.658413259506629,-0.4474588,0.7128797,0.5009095,17.291637,-79.239944,-3.22969,WAL
6845861925000,2.479933,-2.33875258439378,6.34393240060097,0.770964449823524,-0.36254853,0.59742624,0.46700647,17.176937,-79.12531,-3.2332594,WAL
6845866948000,2.484956,-2.25615430147858,6.3072220473147,0.835207532137747,-0.28955013,0.5390886,0.44959682,17.079496,-79.02597,-3.2377825,WAL
6845871922000,2.48993,-2.1286120199762,6.28922064350327,0.892067864967268,-0.23915374,0.47067168,0.41813725,17.03402,-78.8918,-3.2508087,WAL
6845876943000,2.494951,-1.96645219637969,6.28445129112279,0.944531338772069,-0.17134771,0.4382958,0.38240165,16.996855,-78.78274,-3.2698388,WAL
6845881995000,2.500003,-1.78652533703616,6.3045829209137,0.993372345727691,-0.1001819,0.40866885,0.3594942,16.977009,-78.666794,-3.2747447,WAL
6845886948000,2.504956,-1.59769782790863,6.34279801176721,1.03833127200133,-0.017104227,0.3857614,0.3408628,16.966513,-78.572174,-3.2882593,WAL
6845891919000,2.509927,-1.40818408919009,6.3811519824179,1.08345358625658,0.026572637,0.3753767,0.310625,16.968094,-78.47733,-3.274414,WAL
6845896944000,2.514952,-1.2166116616985,6.41992259246007,1.12906606445666,0.116675265,0.3454443,0.29229903,16.981524,-78.41915,-3.2616568,WAL
6845901930000,2.519938,-1.02969959781083,6.43762315185664,1.21328213824127,0.20463985,0.32711834,0.27977628,16.977186,-78.35162,-3.2640486,WAL
6845906925000,2.524933,-0.848535524792167,6.41552998910031,1.37235300236468,0.31215215,0.28619036,0.2724459,16.988403,-78.314285,-3.2681715,WAL
6845911877000,2.529885,-0.679110069281606,6.38397577256091,1.53938626177978,0.4083634,0.24190263,0.2565634,17.001562,-78.264984,-3.185484,WAL
6845916941000,2.534949,-0.557398590005229,6.30283474401338,1.75745270318938,0.50579643,0.17165314,0.23335053,17.031952,-78.24623,-3.105876,WAL
6845922027000,2.540035,-0.453649402687093,6.24824177316737,1.95283528242053,0.6001751,0.10048734,0.19547687,17.08706,-78.17684,-2.9746475,WAL
6845926917000,2.544925,-0.399841767972424,6.26259050522405,2.08197360873229,0.6945538,0.042455133,0.16737708,17.15284,-78.13797,-2.8495004,WAL
6845931944000,2.549952,-0.344526639197242,6.27734123652241,2.21472992087323,0.7968737,0.0076358155,0.13836098,17.228409,-78.065346,-2.7111957,WAL
6845936926000,2.554934,-0.363499001381311,6.35816037189746,2.35755157721486,0.8906415,0.00580322,0.102319926,17.305922,-78.02024,-2.5875344,WAL
6845941896000,2.559904,-0.421206994046073,6.47357627975232,2.50594358786698,0.9767735,0.01985312,0.089186326,17.382431,-78.00574,-2.4701335,WAL
6845946934000,2.564942,-0.456136481841738,6.67124411513816,2.74335107251908,1.0500773,0.044898596,0.06352998,17.44323,-77.98602,-2.366513,WAL
6845951929000,2.569937,-0.445850235002688,7.02097644322116,3.14451439312977,1.110553,0.08582657,0.04184427,17.491213,-77.99017,-2.2717366,WAL
6845956926000,2.574934,-0.456263366284493,7.40625238661096,3.58334215861834,1.1328496,0.17104226,0.019242255,17.51508,-77.96964,-2.2119572,WAL
6845961923000,2.579931,-0.488811664679363,7.82938011037699,4.06226717481539,1.1175779,0.22632557,0.019242255,17.5149024822376,-77.9586088962274,-2.19221462455719,WAL
6845966919000,2.584927,-0.466891182645789,8.35190309063535,4.57830296545217,1.0839803,0.301462,-0.025045475,17.514725,-77.94758,-2.172476,WAL
6845971929000,2.589937,-0.370575217454582,9.01166774284854,5.14656710577135,0.98929626,0.3567453,-0.051618114,17.509783,-77.87893,-2.1449232,WAL
6845976917000,2.594925,-0.245949695889257,9.65860204797142,5.55946701030875,0.8744536,0.35979962,-0.04153884,17.496674,-77.744896,-2.1383011,WAL
6845981953000,2.599961,-0.0818643040614102,10.2985347107255,5.77277804067364,0.77366084,0.37018433,-0.027488936,17.468382,-77.59666,-2.1430798,WAL
6845986904000,2.604912,0.0795334152676012,10.9321410721169,5.97012838674737,0.729984,0.43310347,0.0067195175,17.407516,-77.405174,-2.1481586,WAL
6845991928000,2.609936,0.244306970922268,11.6295549784565,6.01994361146862,0.634689,0.51893,0.058643065,17.336658,-77.185005,-2.1471348,WAL
6845996914000,2.614922,0.407834229778592,12.3216938592306,6.06938204906021,0.5403103,0.62796944,0.13347405,17.223785,-76.9634,-2.0937889,WAL
6846001899000,2.619907,0.590753663220133,13.0999103993329,6.13998175682232,0.44409904,0.7415904,0.21197024,17.083557,-76.7314,-2.0331283,WAL
6846006930000,2.624938,0.790411776273499,13.9521098825045,6.22763668574894,0.3484986,0.84513205,0.30879238,16.911625,-76.49093,-1.9554919,WAL
6846011904000,2.629912,0.847002970308229,14.5539200087235,6.43191611994766,0.25320363,0.89827734,0.41325033,16.687609,-76.26669,-1.8176472,WAL
6846016952000,2.63496,0.804830504568189,14.9943877330619,6.72243759626829,0.12217305,0.872621,0.5122105,16.453653,-76.02171,-1.6608473,WAL
6846021925000,2.639933,0.75583824194766,15.1026473434186,6.8889085769822,-0.004276057,0.7877107,0.5867361,16.19677,-75.79073,-1.44472,WAL
6846026901000,2.644909,0.700205375917891,14.921840735772,6.94917743006129,-0.12186762,0.7107417,0.63255095,15.943172,-75.53777,-1.2164408,WAL
6846031958000,2.649966,0.6007296375586,14.629885754135,6.8654139201725,-0.21685717,0.63316184,0.65148777,15.71596,-75.26048,-0.9924962,WAL
6846037650000,2.655658,0.43478993851446,14.1652545228818,6.58884781285642,-0.25534168,0.5335908,0.6426302,15.516651,-74.978485,-0.76523703,WAL
6846041957000,2.659965,0.353851107741846,13.7911714156783,6.31833377245182,-0.23335053,0.42913285,0.6227771,15.34858,-74.685715,-0.5501358,WAL
6846046927000,2.664935,0.296516276820793,13.3413136525204,5.95668351587287,-0.19883664,0.32895094,0.5870415,15.209134,-74.397964,-0.3422615,WAL
6846051956000,2.669964,0.228530242658433,12.6410277348779,5.46048173550888,-0.124311075,0.23884831,0.54305923,15.10397,-74.16245,-0.16763014,WAL
6846056984000,2.674992,0.14171480847832,11.4777009204904,4.71820946777247,-0.07971791,0.17195857,0.5143485,15.021134,-73.937706,0.0020861959,WAL
6846061901000,2.679909,0.0264461141428011,10.3858350494311,4.03718180333464,-0.064446285,0.1695151,0.49510628,14.941988,-73.759315,0.15053411,WAL
6846066912000,2.68492,-0.317142038188996,9.6139383191938,3.67712032024323,-0.077579886,0.18875736,0.46609017,14.877546,-73.59154,0.2879398,WAL
6846072030000,2.690038,-0.668066836359847,8.82555926005296,3.30937043589643,-0.08827003,0.24953845,0.44837508,14.800511,-73.472725,0.40968168,WAL
6846076900000,2.694908,-1.00198707221214,8.07538223425853,2.95944039744998,-0.07086037,0.29932398,0.41630468,14.72455,-73.361824,0.5161375,WAL
6846082081000,2.700089,-1.34987557644269,7.32605278197628,2.60037184703557,-0.06047566,0.38728857,0.36377025,14.624718,-73.261765,0.59865,WAL
6846086940000,2.704948,-1.58898155048221,7.20098189150988,2.42012272873518,-0.0012217305,0.41996986,0.32925636,14.528371,-73.18385,0.6760118,WAL
6846091893000,2.709901,-1.83271315974704,7.07349143658498,2.23638659312253,0.029932396,0.4025602,0.25900686,14.477563,-73.12836,0.6195999,WAL
6846096915000,2.714923,-2.17103673347219,7.145757811206,1.95340934884399,0.10903945,0.35705075,0.17531833,14.431951,-73.10501,0.55013114,WAL
6846101907000,2.719915,-2.59424333343054,7.4096395478442,1.57999168419079,0.21533,0.3213151,0.070554934,14.398445,-73.099655,0.45704395,WAL
6846107559000,2.725567,-2.76423949297157,8.09520320845014,0.980920885800961,0.3313944,0.27183503,-0.016798794,14.4086485,-73.14357,0.30160332,WAL
6846111967000,2.729975,-2.7600130118342,8.80103354645575,0.435698697839407,0.4804455,0.19150625,-0.06811147,14.445048,-73.224335,0.13478877,WAL
6846116895000,2.734903,-2.59065620694019,9.90246914962237,0.0644943854133497,0.6921103,0.12675454,-0.04795292,14.508282,-73.394615,-0.097474955,WAL
6846121887000,2.739895,-2.30765662923046,11.2296400889978,-0.150194981200245,0.8958339,0.05589417,0.005192355,14.59645,-73.59878,-0.32570782,WAL
6846126918000,2.744926,-1.95249188389404,12.4637030639985,-0.132717097724285,1.0308352,-0.03176499,0.09773844,14.67532,-73.935585,-0.51717824,WAL
6846131927000,2.749935,-1.55830498739366,13.6323506071152,0.0203201617092034,1.070236,-0.23365596,0.20738874,14.7978115,-74.297165,-0.67352,WAL
6846136890000,2.754898,-1.3596212811614,14.4042451709722,0.192582231768007,1.0415252,-0.5112942,0.33567044,14.917563,-74.74128,-0.724412,WAL
6846141885000,2.759893,-1.30798839352378,14.8827102436497,0.381902824565014,0.97127575,-0.816116,0.4392121,15.093673,-75.17764,-0.73560977,WAL
6846146898000,2.764906,-1.25616944142621,15.3628995147874,0.57190565373246,0.86926126,-1.0586295,0.5122105,15.2832365,-75.61517,-0.63237345,WAL
6846151923000,2.769931,-1.80871865439701,14.5446036227354,0.442621084646606,0.6948592,-1.2092078,0.5335908,15.528348,-76.00082,-0.505508,WAL
6846156934000,2.774942,-2.52514519339865,13.3729479748853,0.226200588355493,0.5235115,-1.2284501,0.49235737,15.802946,-76.347336,-0.37500477,WAL
6846162067000,2.780075,-3.14880630522185,12.1730990056023,-0.0339949562743042,0.39828414,-1.142318,0.40103304,16.084192,-76.6315,-0.24363615,WAL
6846186933000,2.804941,-4.46865758878337,6.36575231498847,-1.88892140827826,0.5543602,-0.698219,-0.22693644,17.607473,-77.77965,-0.80432117,WAL
6846191892000,2.8099,-4.73187413005183,5.20759932541418,-2.25884742273525,0.66645396,-0.50579643,-0.37843102,17.882612,-78.03792,-1.1358008,WAL
6846196979000,2.814987,-4.35345585696244,4.63488844611245,-2.20618040687459,0.8005389,-0.35979962,-0.5439755,18.165867,-78.31893,-1.591134,WAL
6846202002000,2.82001,-3.439548146387,4.58206128040852,-1.79412947419284,0.9654725,-0.3436117,-0.6658431,18.432264,-78.61101,-2.0817537,WAL
6846206830000,2.824838,-2.48180097062076,5.00949293141493,-1.49716853329982,1.1435398,-0.49632803,-0.72356987,18.704786,-78.93216,-2.5952315,WAL
6846211833000,2.829841,-1.45828122048253,5.63965994790148,-1.22824376677557,1.3020593,-0.7666359,-0.7125743,19.003426,-79.253174,-3.122422,WAL
6846216852000,2.83486,-0.403147750375855,6.46438415866712,-1.12070240522832,1.432479,-1.061073,-0.65668017,19.311474,-79.58108,-3.509517,WAL
6846221842000,2.83985,0.706710996398519,7.69756062484012,-1.36197598741165,1.5314392,-1.3084733,-0.600786,19.678633,-79.91287,-3.8865728,WAL
6846226809000,2.844817,1.51303171841646,8.75380038339304,-1.72033821832461,1.5937474,-1.4498887,-0.56382865,20.026814,-80.30583,-4.016685,WAL
6846231861000,2.849869,2.0640900221916,9.67371218168458,-2.19140415549738,1.6016886,-1.461495,-0.52626044,20.401896,-80.699394,-4.1280274,WAL
6846236845000,2.854853,2.48520002700777,10.5017688419689,-2.56734089300518,1.5592335,-1.387275,-0.4792238,20.72287,-81.23328,-4.0227685,WAL
6846241840000,2.859848,2.68658269362047,11.1885360505181,-2.78421469158031,1.4895949,-1.3133603,-0.4184427,21.041416,-81.75581,-3.907104,WAL
6846246819000,2.864827,2.68278005865652,11.5814040823901,-2.81248194249397,1.434617,-1.2657127,-0.36285394,21.303284,-82.42496,-3.6578531,WAL
6846251873000,2.869881,2.47171544334756,11.6846908112822,-2.65081527699016,1.385137,-1.276403,-0.30909783,21.55889,-83.07088,-3.402094,WAL
6846256821000,2.874829,2.19797740553755,11.644248910162,-2.487729924919,1.3564262,-1.2974777,-0.2733622,21.791979,-83.75812,-3.1035528,WAL
6846261862000,2.87987,1.79033913066274,11.3314099440353,-2.31235078798233,1.3713925,-1.287093,-0.2556471,22.01997,-84.430855,-2.808653,WAL
6846266861000,2.884869,1.33705417476043,10.9636603283985,-2.15997949962989,1.3811663,-1.2250903,-0.25778514,22.249743,-85.03059,-2.5643985,WAL
6846271880000,2.889888,0.774513328498549,10.4684320790237,-2.05420255592678,1.4178182,-1.1731668,-0.2941316,22.479357,-85.62003,-2.336217,WAL
6846276889000,2.894897,0.208048430389171,9.9938105820643,-1.95355515414552,1.4391985,-1.028697,-0.3191771,22.686123,-86.122025,-2.1955643,WAL
6846281917000,2.899925,-0.371334881872532,9.55927331528483,-1.86302652932882,1.4465289,-0.91507614,-0.38698313,22.885824,-86.59434,-2.0843,WAL
6846286890000,2.904898,-0.920924926264241,9.18240890995403,-1.82041835407755,1.4706581,-0.81397796,-0.47067168,23.07501,-86.95509,-2.0977778,WAL
6846291877000,2.909885,-1.37436842458525,9.02489676274235,-1.97315726546072,1.4764613,-0.7021896,-0.5439755,23.226192,-87.25315,-2.1307905,WAL
6846296950000,2.914958,-1.81976656881086,8.86517810612767,-2.05796705407692,1.4877623,-0.5564982,-0.61208695,23.370857,-87.36845,-2.3058615,WAL
6846302064000,2.920072,-2.20513717695485,8.70621303521196,-1.86046454509688,1.4978416,-0.5027421,-0.68691796,23.507406,-87.3698,-2.5018618,WAL
6846306934000,2.924942,-2.48368494352082,8.60488230339201,-1.75004815804208,1.4944818,-0.50885075,-0.7611381,23.64534,-87.18204,-2.7992184,WAL
6846311911000,2.929919,-2.33224152223272,8.74813955337055,-2.02019065729498,1.4724907,-0.46883908,-0.82436264,23.751648,-93.11472,-3.1110446,WAL
6846316888000,2.934896,-2.18079810094461,8.89139680334908,-2.29033315654787,1.4361442,-0.39522982,-0.86376345,23.870274,-93.5553,-3.507142,WAL
6846321924000,2.939932,-1.96274958359597,9.06492949760204,-2.22700834904571,1.4153748,-0.3032946,-0.8512407,23.969498,-94.02741,-3.9001167,WAL
6846326903000,2.944911,-1.73406567790937,9.242275853871,-2.09633174796907,1.4114041,-0.24465153,-0.81000733,24.054878,-94.51574,-4.2893963,WAL
6846331994000,2.950002,-1.42197133280498,9.3070553497191,-1.99107649339888,1.4355333,-0.26939157,-0.75533485,24.127657,-94.991035,-4.6248827,WAL
6846336866000,2.954874,-1.10367699404093,9.33982160252809,-1.89746053441011,1.4859297,-0.34574974,-0.7174612,24.19627,-95.47223,-4.94762,WAL
6846341963000,2.959971,-0.79955146311215,9.3397409728972,-1.90594564275701,1.5036448,-0.39553526,-0.6835582,24.258707,-95.8815,-5.1961827,WAL
6846346924000,2.964932,-0.510936052306542,9.33086031925234,-1.94146756186916,1.4758505,-0.42332962,-0.6588182,24.335344,-96.2859,-5.4324045,WAL
6846351929000,2.969937,-0.261416768764474,9.43020047145749,-1.96646739222672,1.4327844,-0.40408736,-0.63224554,24.404024,-96.609184,-5.583849,WAL
6846356920000,2.974928,-0.0340383734368421,9.5850113902834,-1.98581873182186,1.3747523,-0.36743546,-0.59681535,24.474611,-96.91805,-5.7227635,WAL
6846362617000,2.980625,0.143269899685304,9.67189605893306,-1.95236725269753,1.3332134,-0.32834008,-0.56291234,24.52914,-97.16828,-5.786347,WAL
6846366935000,2.984943,0.253571389258228,9.71143802984399,-1.91074405794162,1.2950343,-0.28985557,-0.51893,24.572685,-97.40041,-5.834882,WAL
6846371952000,2.98996,0.381728539139507,9.75738107478611,-1.86238287959738,1.2773192,-0.26236662,-0.47861293,24.601381,-97.57924,-5.819771,WAL
6846376927000,2.994935,0.508812816727579,9.80293950583795,-1.81442655863614,1.2638801,-0.23487769,-0.4642576,24.617813,-97.75107,-5.7992764,WAL
6846381932000,2.99994,0.570409689925865,9.72510927574135,-1.70932197574135,1.2611313,-0.22632557,-0.4373795,24.633968,-97.91763,-5.764822,WAL
6846386957000,3.004965,0.605095042170511,9.59627794079489,-1.58049064079489,1.251052,-0.22937989,-0.41080686,24.644419,-98.07958,-5.72697,WAL
6846391925000,3.009933,0.634735859635607,9.43267196752154,-1.50416560682246,1.2559389,-0.23304509,-0.39950588,24.642197,-98.17719,-5.6291723,WAL
6846396897000,3.014905,0.663025333436974,9.25822019764333,-1.44287181092187,1.260215,-0.24251351,-0.3933972,24.641108,-98.273285,-5.5288057,WAL
6846401909000,3.019917,0.638633951024651,9.17056448351648,-1.4445790003267,1.2797627,-0.27000242,-0.3933972,24.64521,-98.34538,-5.4222293,WAL
6846406927000,3.024935,0.595815641681022,9.11347324542125,-1.46836688372438,1.2932017,-0.28344148,-0.39614612,24.645948,-98.42086,-5.317971,WAL
6846411916000,3.029924,0.489393147031847,9.02213244968153,-1.38635561464968,1.3051136,-0.28710666,-0.3827071,24.663292,-98.50162,-5.204719,WAL
6846416963000,3.034971,0.357452801414013,8.91658034585987,-1.26321134044586,1.3228287,-0.28099802,-0.36163223,24.678265,-98.590576,-5.0944057,WAL
6846421922000,3.03993,0.204190802760396,8.87062819148515,-1.17661600382178,1.3301591,-0.33383787,-0.36010507,24.71173,-98.70888,-5.0048604,WAL
6846426919000,3.044927,0.0288792904415842,8.8753664359406,-1.11975820828713,1.3045027,-0.40653083,-0.3555236,24.746532,-98.82208,-4.912554,WAL
6846432499000,3.050507,-0.173775068484187,8.84933069693228,-1.06054973700256,1.2797627,-0.46761733,-0.3472769,24.808853,-98.94942,-4.853961,WAL
6846436928000,3.054936,-0.338942018774812,8.80904610466331,-1.01623664344192,1.2348641,-0.52412236,-0.35246924,24.88655,-99.067215,-4.803322,WAL
6846441902000,3.05991,-0.505268123893652,8.77273897312397,-1.00479717295058,1.2073752,-0.5546656,-0.36926803,24.981277,-99.20119,-4.796838,WAL
6846446949000,3.064957,-0.644948708229458,8.74945888950968,-1.05135738879684,1.1695015,-0.5558874,-0.3921755,25.079836,-99.32186,-4.7966566,WAL
6846451879000,3.069887,-0.773532840890534,8.73549277860059,-1.02438921759233,1.1227703,-0.5705481,-0.42180246,25.199533,-99.472,-4.8563085,WAL
6846456924000,3.074932,-0.888208138431596,8.74007988246463,-0.840908751106048,1.0757337,-0.61422503,-0.45081854,25.324604,-99.612274,-4.923476,WAL
6846461882000,3.07989,-0.986222963515737,8.76344546708496,-0.689718240841391,1.0384709,-0.6963864,-0.47311515,25.475712,-99.78516,-5.030185,WAL
6846467008000,3.085016,-1.03166799579305,8.85938476290887,-0.644273229654392,1.0201449,-0.7797695,-0.47555858,25.637264,-99.94755,-5.1400795,WAL
6846471858000,3.089866,-1.07579272194131,8.93452090537111,-0.62951290652249,1.039998,-0.8258898,-0.4810564,25.819862,-100.109474,-5.292073,WAL
6846476906000,3.094914,-1.12487758984669,8.96888000538126,-0.693323265551833,1.044885,-0.88361657,-0.47616947,26.028036,-100.258446,-5.4438887,WAL
6846481986000,3.099994,-1.16715384061415,9.00237465527326,-0.78896887104734,1.0549643,-0.9263771,-0.4877759,26.244823,-100.44279,-5.6248302,WAL
6846486962000,3.10497,-1.19328484394078,9.03286095467008,-0.950109914220435,1.0473285,-0.9334021,-0.49449542,26.466242,-100.61773,-5.801422,WAL
6846491887000,3.109895,-1.21838779468601,9.05942196258198,-1.11806662373551,1.0241156,-0.93187493,-0.50426924,26.694778,-100.82372,-5.9994707,WAL
6846496932000,3.11494,-1.23792041118498,9.05725162905399,-1.35896879568772,0.98563105,-0.8921687,-0.50823987,26.912308,-101.01837,-6.193188,WAL
6846502403000,3.120411,-1.25910236259545,9.05489803247687,-1.6202127565897,0.95447695,-0.85062987,-0.5109888,27.122086,-101.24536,-6.394531,WAL
6846506918000,3.124926,-1.27658298965053,9.05295570227293,-1.8358070690504,0.91232723,-0.79320854,-0.51251596,27.313948,-101.45411,-6.590336,WAL
6846511926000,3.129934,-1.29597235405624,9.05080128595814,-2.07494246590603,0.8866709,-0.71593404,-0.5195409,27.486227,-101.65435,-6.7818313,WAL
6846516932000,3.13494,-1.33858690205804,9.10593662070385,-2.32891626904713,0.8686504,-0.6102544,-0.5030475,27.6358,-101.86854,-6.9721394,WAL
6846521941000,3.139949,-1.39288527644577,9.18985257604445,-2.59053611225561,0.86926126,-0.50671273,-0.4813618,27.762836,-102.07449,-7.154991,WAL
6846526916000,3.144924,-1.38889068090452,9.47748619095477,-2.44815381301964,0.91751957,-0.3491095,-0.46944994,27.829458,-102.360825,-7.323294,WAL
6846531941000,3.149949,-1.36250968341709,9.84682116582915,-2.1491684249429,0.98868537,-0.23823744,-0.45906523,27.87969,-102.64074,-7.4790125,WAL
6846536930000,3.154938,-1.23273974592859,10.1349300167017,-1.75549888480848,1.065349,-0.17531833,-0.45448375,27.894344,-102.97094,-7.6302114,WAL
6846541925000,3.159933,-1.01267143566757,10.3549982570257,-1.27708958417842,1.1016954,-0.1881465,-0.45234573,27.89875,-103.29785,-7.7734046,WAL
6846546905000,3.164913,-0.77415727403563,10.5361264321903,-0.876074212068788,1.087951,-0.27488935,-0.45478916,27.913046,-103.58047,-7.916817,WAL
6846551932000,3.16994,-0.516365518556276,10.6848523314798,-0.538961904495932,1.0476339,-0.3857614,-0.4636467,27.937637,-103.85539,-8.058435,WAL
6846556922000,3.17493,-0.329097513286132,10.8092067076371,-0.356871436433494,0.9914343,-0.50488013,-0.4364632,28.003328,-104.066376,-8.170512,WAL
6846561920000,3.179928,-0.189022818865288,10.9176514649297,-0.280056285994525,0.9300423,-0.6020077,-0.419359,28.092476,-104.26268,-8.289828,WAL
6846566930000,3.184938,-0.117254745533361,10.986685315486,-0.309412126511532,0.8866709,-0.65118235,-0.40103304,28.207283,-104.40139,-8.367423,WAL
6846572108000,3.190116,-0.122360668327842,11.0122149028007,-0.462589767693575,0.8552113,-0.7861836,-0.37568212,28.373995,-104.520454,-8.4477415,WAL
6846576935000,3.194943,-0.210519678124698,11.0106152676383,-0.656985040025094,0.8179486,-0.8188649,-0.36468655,28.527903,-104.63794,-8.505746,WAL
6846581948000,3.199956,-0.37269501323907,10.9874473792105,-0.90256480250941,0.7910705,-0.86315256,-0.33353242,28.724401,-104.73946,-8.559502,WAL
6846586926000,3.204934,-0.53326874899021,11.001591394965,-1.11400894341259,0.72356987,-0.870483,-0.3222314,28.911531,-104.8466,-8.616043,WAL
6846591930000,3.209938,-0.6941269504,11.05967932,-1.288271972,0.6542367,-0.8396343,-0.32589662,29.099419,-104.94118,-8.668724,WAL
6846596907000,3.214915,-0.813960864305913,11.1391404058483,-1.41729961423522,0.559858,-0.7852673,-0.3182608,29.277374,-105.042046,-8.737848,WAL
6846601932000,3.21994,-0.844888533650386,11.2680061433162,-1.44822731587404,0.4801401,-0.7079928,-0.33567044,29.436275,-105.13193,-8.811428,WAL
6846606895000,3.224903,-0.838030371474177,11.3941675239075,-1.42942806500426,0.39003745,-0.65118235,-0.3387248,29.5927,-105.2463,-8.909215,WAL
6846611910000,3.229918,-0.783515407406356,11.5202330825766,-1.34765563669126,0.2959642,-0.5879578,-0.33536503,29.72313,-105.33964,-9.003521,WAL
6846616956000,3.234964,-0.72866346150681,11.6470779099035,-1.26537773574064,0.21868975,-0.54428095,-0.3268129,29.842108,-105.41407,-9.095276,WAL
6846621923000,3.239931,-0.645407435360483,11.807780847813,-1.17213182277526,0.14966199,-0.4981606,-0.32162055,29.941418,-105.46685,-9.181381,WAL
6846626941000,3.244949,-0.543930830706888,11.9914050844143,-1.07065519793866,0.09254608,-0.47403142,-0.29443705,30.035597,-105.49824,-9.2561035,WAL
6846632020000,3.250028,-0.491462113237978,12.1248556173485,-0.892539126631806,0.051923547,-0.47067168,-0.26083946,30.136047,-105.52018,-9.316933,WAL
6846636940000,3.254948,-0.467306537599713,12.2263088625038,-0.679969974247924,0.014049901,-0.49021935,-0.2275473,30.237164,-105.524765,-9.369365,WAL
6846641928000,3.259936,-0.52793694681154,12.2955398144621,-0.464006089299519,-0.0027488936,-0.5128214,-0.19486602,30.33897,-105.495255,-9.392896,WAL
6846646944000,3.264952,-0.62757113992175,12.3498863561799,-0.246622414586594,-0.02076942,-0.5549711,-0.15485434,30.4536,-105.450966,-9.407724,WAL
6846651913000,3.269921,-0.779770193139842,12.4033181563832,-0.027426172884108,-0.036957346,-0.5739079,-0.11148291,30.588285,-105.391014,-9.416799,WAL
6846656929000,3.274937,-0.974766200527704,12.4569418637102,0.196819217795819,-0.055588737,-0.5885687,-0.0852157,30.734203,-105.32405,-9.422338,WAL
6846661906000,3.279914,-1.11207529493583,12.4618291686575,0.412932428420533,-0.10140363,-0.59589905,-0.06688975,30.908436,-105.235,-9.44428,WAL
6846666944000,3.284952,-1.21209570857848,12.4332520710267,0.627261928854887,-0.15057829,-0.6026186,-0.05955936,31.086407,-105.14078,-9.462972,WAL
6846671925000,3.289933,-1.15405083752381,12.4131837714286,0.831996483809524,-0.24007004,-0.6032294,-0.056199603,31.29279,-105.02861,-9.517429,WAL
6846676938000,3.294946,-0.97675986159378,12.3991868323615,1.03261523357629,-0.29352075,-0.6102544,-0.052534413,31.502087,-104.91582,-9.569539,WAL
6846681989000,3.299997,-0.699510152210526,12.4431954947368,1.14216023578947,-0.462425,-0.6243043,-0.03940081,31.73629,-104.753624,-9.640601,WAL
6846687659000,3.305667,-0.285242725923708,12.5533172436504,1.16837972849831,-0.6453791,-0.5864306,-0.009468411,31.957558,-104.57903,-9.701704,WAL
6846691926000,3.309934,0.070720750305227,12.6657819490652,1.20806436560473,-0.86009824,-0.52626044,0.028405234,32.178726,-104.331245,-9.729575,WAL
6846696938000,3.314946,0.537707922338802,12.8306009284624,1.27673894832125,-1.0622946,-0.46944994,0.0983493,32.392002,-104.04532,-9.737162,WAL
6846701931000,3.319939,0.952760366864989,12.9789513077346,1.4074908517254,-1.2547172,-0.43951756,0.15363261,32.568047,-103.6802,-9.671902,WAL
6846706922000,3.32493,1.2721418805492,13.0970783414188,1.65687086077803,-1.4413365,-0.4260785,0.20525073,32.73441,-103.27533,-9.587091,WAL
6846711904000,3.329912,1.58032766440465,13.192992835166,1.90670822146822,-1.6554449,-0.40683624,0.23609942,32.861244,-102.775734,-9.411975,WAL
6846716940000,3.334948,1.8328608351241,13.1677395286417,2.16429221170803,-1.883603,-0.42180246,0.28771752,32.995827,-102.23976,-9.221205,WAL
6846721921000,3.339929,1.94339104669607,13.1992564712137,2.34937401982358,-2.1038198,-0.42485678,0.32986724,33.11491,-101.62099,-8.97533,WAL
6846726898000,3.344906,1.63181410904938,13.401969363708,2.32309634570371,-2.3322835,-0.45478916,0.3735441,33.246407,-100.97352,-8.721354,WAL
6846731922000,3.34993,1.31729481334173,13.6065965632039,2.29657051994959,-2.5350907,-0.4877759,0.42455134,33.378536,-100.269325,-8.427377,WAL
6846736890000,3.354898,0.7255470785441,13.6266971507932,2.12951960868745,-2.7015514,-0.48991394,0.44806966,33.50889,-99.56924,-8.134849,WAL
6846741898000,3.359906,0.0111406396929041,13.5704255531806,1.90198606055706,-2.8359418,-0.45448375,0.46792278,33.637127,-98.88033,-7.835145,WAL
6846746981000,3.364989,-0.713964777375912,13.5133112299648,1.67104496128654,-2.9657507,-0.3747658,0.48349985,33.77531,-98.2738,-7.5900664,WAL
6846751870000,3.369878,-1.41139550412182,13.458376756976,1.44891806096516,-3.0772338,-0.2669481,0.49449542,33.892574,-97.726295,-7.3451324,WAL
6846757434000,3.375442,-2.17826588875076,13.3677082924394,1.18986988308539,-3.1667254,-0.18509217,0.5164866,33.99052,-97.24961,-7.0953617,WAL
6846761885000,3.379893,-2.78634532659466,13.2895268901569,0.981385546510088,-3.2449162,-0.15607607,0.54153204,34.070065,-96.87063,-6.846709,WAL
6846766905000,3.384913,-3.32003885712715,13.1555634541184,0.12900736529888,-3.3093624,-0.13316862,0.55863625,34.1828,-83.19052,-6.8042397,WAL
6846771893000,3.389901,-3.81663898159736,13.0123130202919,-0.854642863029788,-3.3420436,-0.15760323,0.5888741,34.29705,-83.160095,-6.7510505,WAL
6846776921000,3.394929,-4.10296245590713,12.8385084137802,-2.23388372032391,-3.3609805,-0.20097467,0.60139686,34.426933,-82.9453,-6.80039,WAL
6846782030000,3.400038,-4.34572403774574,12.6552922699869,-3.72251579737877,-3.3432655,-0.2049453,0.5852089,34.54939,-82.664246,-6.847119,WAL
6846787018000,3.405026,-4.43100913175933,12.4968106648896,-5.10316503351104,-3.2937853,-0.21013765,0.5531385,34.65772,-82.32217,-7.0188575,WAL
6846791937000,3.409945,-4.45343310319878,12.3488126407083,-6.43515006092917,-3.223536,-0.24007004,0.5186246,34.77573,-81.97423,-7.1873593,WAL
6846796959000,3.414967,-4.43439945925885,12.3438288838345,-7.44850417729946,-3.198185,-0.24831672,0.46609017,34.790634,-81.680855,-7.3403687,WAL
6846801917000,3.419925,-4.38698611571064,12.4386552408743,-8.21238548718518,-3.1991012,-0.19394971,0.4352415,34.796036,-81.3922,-7.491517,WAL
6846806922000,3.42493,-4.44363752247301,12.4868500910124,-8.02623886332711,-3.1813862,-0.051923547,0.4529566,34.66436,-81.188644,-7.562965,WAL
6846811941000,3.429949,-4.52949049823009,12.5219716814159,-7.57355921061947,-3.1273246,0.21838433,0.49877146,34.48205,-80.98861,-7.639041,WAL
6846816934000,3.434942,-4.55795366514458,12.6750435104388,-6.46462687343977,-2.9959886,0.589485,0.5348125,34.187798,-80.854866,-7.6886187,WAL
6846821929000,3.439937,-4.46716277846377,13.0755920975773,-3.97588661001451,-2.8221974,0.9184359,0.56382865,33.83322,-80.74514,-7.7336025,WAL
6846827555000,3.445563,-4.16731571166153,13.4938170947379,-1.48082752846955,-2.6621506,1.0146471,0.5879578,33.474964,-80.612816,-7.787952,WAL
6846832001000,3.450009,-3.81851359996145,13.8056868980339,0.316529373978412,-2.579684,0.8668178,0.6386596,33.096676,-80.51135,-7.8272223,WAL
6846836982000,3.45499,-3.40758772968516,14.0162369728136,1.65838513208396,-2.4825563,0.5729916,0.6881397,32.87496,-80.337364,-7.8919654,WAL
6846841924000,3.459932,-2.97711285622189,14.0682722070965,2.2307746850075,-2.3857343,0.25320363,0.7480045,32.70846,-80.19648,-7.92896,WAL
6846846937000,3.464945,-2.67654035178025,13.8172169508827,2.45917260049315,-2.3090706,-0.08155051,0.8127562,32.72071,-79.96853,-7.884476,WAL
6846851940000,3.469948,-2.53949821920308,13.2028905920702,2.26542346875432,-2.259896,-0.5687156,0.84971356,32.869442,-79.75251,-7.8175364,WAL
6846856919000,3.474927,-2.49588369506619,12.5769578702367,1.47208355459286,-2.1810944,-0.99021256,0.8491027,33.089943,-79.51688,-7.6640368,WAL
6846861912000,3.47992,-2.57740087912154,11.9296158207982,-0.13428371247493,-2.0372355,-1.022283,0.829555,33.333183,-79.291664,-7.5074635,WAL
6846866914000,3.484922,-2.64663480413876,11.3230409210237,-1.46006336727982,-1.9230038,-0.8604037,0.8335256,33.622658,-79.07381,-7.334472,WAL
6846871929000,3.489937,-2.69944942710187,10.7708880673798,-2.41072632994102,-1.8735237,-0.63499445,0.8417723,33.8973,-78.85788,-7.173931,WAL
6846876930000,3.494938,-2.67620477685539,10.4338539189773,-3.10234958253362,-1.7696766,-0.3585779,0.8793405,34.045082,-78.81434,-7.047053,WAL
6846881957000,3.499965,-2.55231130292213,10.3779021486801,-3.45804380213349,-1.7232509,-0.005497787,0.9221011,34.10181,-78.768875,-6.9341784,WAL
6846887202000,3.50521,-2.41505560938654,10.2976179275795,-3.73411810504482,-1.713477,0.3100141,0.9779953,34.016445,-78.746864,-6.7803125,WAL
6846891927000,3.509935,-2.20029709207242,9.9754803177184,-2.89894611633855,-1.6945401,0.4877759,1.033584,33.869118,-78.7441,-6.627743,WAL
6846897195000,3.515203,-1.96085838959395,9.61632244920021,-1.96779563242222,-1.7012597,0.5360342,1.0711522,33.642357,-78.774765,-6.4440527,WAL
6846901917000,3.519925,-1.90471231239167,9.39544001583823,-1.52108676758641,-1.6765196,0.535118,1.110553,33.379898,-78.82563,-6.2534776,WAL
6846906862000,3.52487,-1.89056027309493,9.19259403715509,-1.16256944031278,-1.6145169,0.50335294,1.1414018,33.114765,-78.88726,-6.0591044,WAL
6846911910000,3.529918,-1.85822513728814,9.01909937711864,-1.07722848135593,-1.5381587,0.44806966,1.146594,32.892574,-78.86924,-5.8471756,WAL
6846916884000,3.534892,-1.81977880702179,8.86050846549637,-1.0964516464891,-1.4398094,0.4343252,1.1551461,32.667984,-78.87401,-5.6302376,WAL
6846921926000,3.539934,-1.72524474549799,8.65747750894781,-1.15897758031481,-1.352761,0.47158796,1.1688906,32.457436,-78.84255,-5.412049,WAL
6846926918000,3.544926,-1.61326258130797,8.44247212039726,-1.23512543512602,-1.2864822,0.5326745,1.176221,32.245346,-78.82761,-5.198194,WAL
6846931970000,3.549978,-1.48951077999586,8.20461904466039,-1.31403732663083,-1.2229522,0.6044512,1.1838568,32.01124,-78.814674,-4.975667,WAL
6846936951000,3.554959,-1.36129269264964,7.95804538385196,-1.39294083629691,-1.1716396,0.6933321,1.1823297,31.756939,-78.81249,-4.7616367,WAL
6846941927000,3.559935,-1.26675958315789,7.60408532210526,-1.49962717157895,-1.1181889,0.788627,1.1774428,31.473042,-78.8183,-4.532697,WAL
6846946966000,3.564974,-1.18628845995831,7.19670010663887,-1.62033377760292,-1.0983357,0.91507614,1.1447614,31.159025,-78.82261,-4.3217926,WAL
6846951940000,3.569948,-1.10405885107022,6.85231685605811,-1.60433627981598,-1.1181889,1.0616838,1.0833695,30.809856,-78.818855,-4.107548,WAL
6846956923000,3.574931,-1.02086442048426,6.52416128246973,-1.54887334217918,-1.1527027,1.1578951,1.02717,30.443546,-78.811386,-3.9080122,WAL
6846961918000,3.579926,-0.986556406883956,6.3097154202585,-1.58573419331273,-1.1575897,1.2018774,0.9615019,30.051788,-78.79373,-3.7230072,WAL
6846966942000,3.58495,-0.97303748493959,6.14298186139365,-1.66234151177297,-1.1456778,1.2696834,0.9447031,29.62969,-78.770195,-3.5486119,WAL
6846971927000,3.589935,-1.00271601264933,5.97623017879731,-1.716915405642,-1.1120802,1.353372,0.9236283,29.1963,-78.72365,-3.3874655,WAL
6846976919000,3.594927,-1.0651089964863,5.80824925350868,-1.75531105716294,-1.072374,1.4639386,0.9098838,28.739851,-78.68165,-3.2359316,WAL
6846982047000,3.600055,-1.17474971876033,5.6624057968595,-1.73910454909091,-1.0482447,1.568091,0.90194255,28.258848,-78.641014,-3.091694,WAL
6846986955000,3.604963,-1.31070872132231,5.54101371801653,-1.68569212363636,-1.0274754,1.6624697,0.8750645,27.754513,-78.608986,-2.9634452,WAL
6846991928000,3.609936,-1.445437022544,5.44006673815067,-1.56657888222367,-1.0231993,1.7305813,0.84391034,27.230438,-78.571014,-2.85328,WAL
6846996970000,3.614978,-1.58032735425086,5.35013988164634,-1.40920678944036,-1.0012082,1.7702875,0.81245077,26.69267,-78.54379,-2.7553313,WAL
6847001929000,3.619937,-1.75639638919916,5.25343963361433,-1.16739765324552,-0.97585726,1.7650951,0.7703011,26.155924,-78.49617,-2.692532,WAL
6847006921000,3.624929,-1.97805355084299,5.14764868566913,-0.834911884478398,-0.9410379,1.7186694,0.72509706,25.624788,-78.45798,-2.6402028,WAL
6847011910000,3.629918,-2.14116611690544,5.07373275842308,-0.615365426924217,-0.8857546,1.6417004,0.6774496,25.111506,-78.39199,-2.6242085,WAL
6847016960000,3.634968,-2.26540624584527,5.02116954826598,-0.472011379794487,-0.8185594,1.5671748,0.6178902,24.616987,-78.338715,-2.6225626,WAL
6847021923000,3.639931,-2.36340295976829,4.99370293692445,-0.268965165944351,-0.73975784,1.5543466,0.58184916,24.139256,-78.23711,-2.6645126,WAL
6847026923000,3.644931,-2.44400792065551,4.9842200673334,-0.0176676394565799,-0.70554936,1.5259414,0.52656585,23.694756,-78.139854,-2.7242026,WAL
6847031927000,3.649935,-2.37368476859913,5.01377382721607,0.22069480161298,-0.6560693,1.4086553,0.47769663,23.288527,-78.03316,-2.8078136,WAL
6847036936000,3.654944,-2.17910831024931,5.0754688199446,0.448491681373961,-0.5714644,1.2996159,0.43371433,22.894463,-77.94501,-2.904605,WAL
6847041925000,3.659933,-1.95134288966906,5.15651842629873,0.654655578086026,-0.49174652,1.212873,0.39492437,22.546223,-77.819374,-3.0194755,WAL
6847047003000,3.665011,-1.6886789388687,5.25680830295591,0.845683849273299,-0.44318274,1.0754282,0.3491095,22.249815,-77.70691,-3.1391234,WAL
6847051911000,3.669919,-1.47072812339001,5.3396610518633,0.986682469714924,-0.3839288,0.960891,0.31306845,21.983355,-77.57125,-3.2174652,WAL
6847056927000,3.674935,-1.28511273606388,5.4097823715954,1.08567738171905,-0.301462,0.8549059,0.2843578,21.759369,-77.4548,-3.2986298,WAL
6847061883000,3.679891,-1.10744035694901,5.47815982516447,1.1879769660773,-0.2180789,0.7959574,0.26419923,21.576792,-77.319565,-3.3154933,WAL
6847066938000,3.684946,-0.958147313055099,5.54285343248355,1.31736428464227,-0.16523905,0.66675943,0.21197024,21.450394,-77.19676,-3.338867,WAL
6847071881000,3.689889,-0.822857092654504,5.61939090944694,1.46285754848601,-0.03481932,0.569021,0.17073683,21.342154,-77.08834,-3.3073263,WAL
6847076899000,3.694907,-0.726459630241666,5.74792101910402,1.68319448217595,0.08979719,0.48258355,0.15302174,21.269995,-76.9938,-3.2777188,WAL
6847082537000,3.700545,-0.632288223988815,5.88907930360531,1.90980635268151,0.20097467,0.36560285,0.124005646,21.24314,-76.88475,-3.2136295,WAL
6847086938000,3.704946,-0.598614003036053,5.99010187855787,2.02766625787476,0.3436117,0.28588495,0.12003502,21.228636,-76.82249,-3.1467924,WAL
6847091924000,3.709932,-0.563070917695473,6.11143618467078,2.14324411769547,0.47342056,0.23243423,0.11636983,21.251656,-76.70948,-3.0433927,WAL
6847096942000,3.71495,-0.546590676817558,6.28447888597394,2.12676387681756,0.6151413,0.22571471,0.11178834,21.279943,-76.64406,-2.9444115,WAL
6847101881000,3.719889,-0.530369889711934,6.45479731995885,2.11054308971193,0.74036866,0.26175576,0.118507855,21.299736,-76.565674,-2.8356571,WAL
6847106928000,3.724936,-0.485611902844964,6.70611243913561,2.04709758285091,0.8341365,0.32467487,0.13713925,21.30888,-76.523415,-2.7316248,WAL
6847111886000,3.729894,-0.433837516028945,6.97439784000793,1.97178935703807,0.91874135,0.42119157,0.14874569,21.294678,-76.517105,-2.6370218,WAL
6847116972000,3.73498,-0.401043921191055,7.28297983760599,2.06458993193832,0.97219205,0.5198463,0.15210545,21.230377,-76.54901,-2.5615373,WAL
6847121872000,3.73988,-0.375448150278177,7.59012895249665,2.20420321899142,1.0005972,0.6417139,0.14569137,21.131773,-76.59844,-2.495442,WAL
6847126897000,3.744905,-0.349199426025686,7.90511350399167,2.34737806948976,1.0048733,0.7507534,0.14355333,20.996675,-76.70264,-2.4290407,WAL
6847131873000,3.749881,-0.323206659482323,8.21702656433778,2.48915678711757,0.98440933,0.8185594,0.15302174,20.83965,-76.80631,-2.3667386,WAL
6847136936000,3.754944,-0.287800595871367,8.67366274173574,2.82826360770998,0.97310835,0.8604037,0.16707164,20.6421,-76.89289,-2.3174698,WAL
6847141887000,3.759895,-0.249918033957855,9.17087160171777,3.23076596401678,0.9468411,0.870483,0.18661933,20.43633,-76.96968,-2.2657194,WAL
6847146937000,3.764945,-0.219703694665547,9.69641375650714,3.60847808902883,0.8885035,0.91874135,0.21410827,20.213236,-76.99381,-2.189914,WAL
6847152525000,3.770533,-0.189748360231365,10.2855356551917,4.01287485626458,0.7993172,0.956615,0.23762658,19.991922,-77.004715,-2.110637,WAL
6847156953000,3.774961,-0.167532047313146,10.7936311125177,4.32577965143812,0.6908886,0.9795224,0.27580565,19.730764,-76.89692,-2.0281577,WAL
6847161970000,3.779978,-0.143202071770306,11.3921484407535,4.67613143542637,0.57543504,0.9807441,0.29077184,19.470293,-76.77317,-1.9482127,WAL
6847167043000,3.785051,-0.180740662017714,11.9215473478571,4.99110742610201,0.52442783,0.99021256,0.3222314,19.191072,-76.60276,-1.8613899,WAL
6847172050000,3.790058,-0.253963309345414,12.3999352832129,5.27911650898911,0.4279111,0.98440933,0.36682457,18.919598,-76.40469,-1.7681648,WAL
6847176902000,3.79491,-0.331761244032054,12.8013481181156,5.64275786717824,0.33567044,0.9492846,0.40622538,18.643747,-76.195786,-1.679942,WAL
6847181881000,3.799889,-0.41513109511219,13.1811440134046,6.05960719512385,0.25809056,0.88270026,0.45478916,18.379875,-75.982666,-1.5762119,WAL
6847186844000,3.804852,-0.436299718289012,13.2217241302559,6.26764587349724,0.19608775,0.79412484,0.49266282,18.127634,-75.75531,-1.4910485,WAL
6847191844000,3.809852,-0.412273601881586,13.0150994438535,6.32530849266433,0.1695151,0.6957755,0.52656585,17.897228,-75.533424,-1.3895826,WAL
6847196859000,3.814867,-0.407468826605505,12.7438752012732,6.25242848369219,0.13988814,0.59681535,0.54641896,17.706343,-75.281075,-1.3003534,WAL
6847201865000,3.819873,-0.416444952018349,12.4274668988017,6.086370156525,0.124005646,0.48991394,0.5571091,17.544415,-75.04091,-1.198158,WAL
6847206855000,3.824863,-0.425392388256881,12.1120698893466,5.92084257910504,0.14721853,0.40286562,0.55863625,17.392748,-74.823494,-1.1020583,WAL
6847211841000,3.829849,-0.434332652201835,11.7969257031455,5.75544768912189,0.18784106,0.33169982,0.5476407,17.266548,-74.61766,-1.0011612,WAL
6847216871000,3.834879,-0.501848937768978,11.4216638438737,5.50277876635366,0.27855456,0.30665436,0.5439755,17.143724,-74.452324,-0.90330017,WAL
6847221898000,3.839906,-0.697927001677792,10.9205750545311,5.0616031268243,0.35918877,0.30970868,0.5345071,17.033741,-74.303696,-0.80825233,WAL
6847226857000,3.844865,-0.901626002946491,10.4542970524174,4.60909674754294,0.42058071,0.3399465,0.5183192,16.91473,-74.203,-0.7264006,WAL
6847231879000,3.849887,-1.11648380988186,10.005482911645,4.13640953539164,0.45051312,0.3921755,0.48991394,16.790813,-74.12004,-0.65350527,WAL
6847236857000,3.854865,-1.27653669474736,9.53665387639166,3.658906137996,0.44104472,0.46914452,0.46700647,16.655281,-74.07198,-0.6170487,WAL
6847241853000,3.859861,-1.39035749783043,9.04494792720525,3.1717529714911,0.39278635,0.58123827,0.44043383,16.499876,-74.02315,-0.59605753,WAL
6847246884000,3.864892,-1.44741303288818,8.57689216846721,2.811645124118,0.3371976,0.6951646,0.4092797,16.322134,-74.009605,-0.6285624,WAL
6847251910000,3.869918,-1.42822512332071,8.14516287582221,2.62456231710185,0.28527406,0.80756384,0.37720928,16.120495,-73.984314,-0.6750935,WAL
6847256898000,3.874906,-1.3729244725305,7.75945603809524,2.49445849275876,0.2770274,0.8668178,0.33841935,15.909983,-74.00877,-0.7548392,WAL
6847261909000,3.879917,-1.26905133323495,7.42895076071429,2.43780051986423,0.28527406,0.92271197,0.31429017,15.676211,-74.022675,-0.8447375,WAL
6847266883000,3.884891,-1.1163311744949,7.15708273328666,2.33413646857371,0.32986724,0.9104946,0.27855456,15.450669,-74.058334,-0.9442899,WAL
6847271928000,3.889936,-0.884372792218444,6.96861650984197,2.15533516931386,0.39828414,0.84635377,0.22999077,15.232614,-74.10159,-1.0508287,WAL
6847276927000,3.894935,-0.723029967457553,6.87249781239022,1.96627804118852,0.49968776,0.72051555,0.20616703,15.031493,-74.173615,-1.1390432,WAL
6847282000000,3.900008,-0.662585506598361,6.91160888258197,1.7565001352459,0.65393126,0.49663344,0.17898351,14.885007,-74.2771,-1.2250893,WAL
6847287018000,3.905026,-0.602796367116511,6.95029592185305,1.5489965807377,0.8555168,0.26328292,0.14110987,14.753695,-74.445564,-1.272211,WAL
6847291944000,3.909952,-0.621953551391727,7.34271930557696,1.26319056285379,1.0552697,-0.0106901415,0.0983493,14.700844,-74.65199,-1.3056743,WAL
6847296956000,3.914964,-0.678224293572266,7.90944614824987,0.933604724870206,1.2403619,-0.2733622,0.089491755,14.711194,-74.905045,-1.3221614,WAL
6847301893000,3.919901,-0.802100187529025,8.64548620859133,0.627970201298375,1.4214834,-0.46578476,0.10934488,14.759439,-75.257286,-1.3145919,WAL
6847306928000,3.924936,-1.11000159285991,9.86776168653251,0.366720545599845,1.534188,-0.5540548,0.16371189,14.848736,-75.634186,-1.2893668,WAL
6847311876000,3.929884,-1.48496096446219,11.1962348928687,0.226965878942712,1.565953,-0.64843345,0.22999077,14.985524,-76.11364,-1.244706,WAL
6847316939000,3.934947,-2.15454601914985,13.058518160643,0.546064979853274,1.502423,-0.7812967,0.29260445,15.153593,-76.58907,-1.1805807,WAL
6847321867000,3.939875,-2.81138580852804,14.6804954205607,0.910837088668224,1.3182472,-0.9098838,0.30909783,15.358226,-77.09971,-1.1547498,WAL
6847326901000,3.944909,-3.49191522389019,15.9805416028037,1.38486106209112,0.9975429,-0.9447031,0.28680122,15.571823,-77.54258,-1.124148,WAL
6847331935000,3.949943,-3.99343889719626,17.0471640841122,1.72140862429907,0.54641896,-0.8894198,0.25167647,15.831903,-77.87308,-1.1948245,WAL
6847336942000,3.95495,-4.08680150934579,17.5793308758762,1.74474927733645,0.11942416,-0.7458665,0.20463985,16.074802,-78.107414,-1.2767242,WAL
6847341880000,3.959888,-4.0628839245307,17.2186153514102,1.57208225092772,-0.13530666,-0.5516113,0.116980694,16.324093,-78.20531,-1.4931071,WAL
6847346947000,3.964955,-3.67122839731568,14.0457653626553,0.77556934327741,-0.24862215,-0.37659842,0.00061086525,16.534122,-78.21426,-1.724834,WAL
6847352090000,3.970098,-3.29956895017698,10.942972445643,-0.0269516180785437,-0.22174409,-0.29840767,-0.1133155,16.716583,-78.19555,-1.9776893,WAL
6847356930000,3.974938,-3.24488127379066,9.36484162143941,-0.714454333129951,-0.13072516,-0.29443705,-0.2180789,16.869377,-78.1546,-2.2512307,WAL
6847361869000,3.979877,-3.1890749858419,7.75443084855891,-1.4160196037165,-0.06566802,-0.22418754,-0.27550024,16.981394,-78.147224,-2.5121634,WAL
6847366911000,3.984919,-2.88174705227571,6.56837222475183,-1.69280956995692,0.09896017,-0.009468411,-0.41172317,17.058788,-78.175125,-2.8289003,WAL
6847372093000,3.990101,-2.4355780169882,5.58772977798277,-1.74858066297059,0.2519819,0.19425514,-0.552833,17.119785,-78.204445,-3.161812,WAL
6847376899000,3.994907,-1.71201889772781,5.05888596955712,-1.5024438579757,0.39584067,0.23732115,-0.6630942,17.177683,-78.32501,-3.5260181,WAL
6847381938000,3.999946,-0.690695522210464,4.82719678826181,-0.99178218749755,0.5729916,0.06566802,-0.71959925,17.24,-78.47275,-3.912791,WAL
6847386921000,4.004929,0.407056331730342,4.95240805270399,-0.807594694115779,0.7840455,-0.28863382,-0.7272351,17.327898,-78.66024,-4.2444606,WAL
6847391938000,4.009946,1.60199833532966,5.44055434765584,-0.949970772028786,1.0021244,-0.7079928,-0.68386364,17.48016,-78.87857,-4.5656753,WAL
6847396906000,4.014914,2.4021223696616,6.07492952660127,-1.46911786994605,1.2113458,-1.0748174,-0.5885687,17.666445,-79.142136,-4.689146,WAL
6847401909000,4.019917,2.95667918083374,6.8127723101128,-2.23985781984306,1.3811663,-1.3142766,-0.50762904,17.93138,-79.44558,-4.7902555,WAL
6847407534000,4.025542,3.11218364713831,7.51204458532591,-2.90107821158983,1.4798211,-1.4364496,-0.44593164,18.194485,-79.92056,-4.6506543,WAL
6847411917000,4.029925,3.00207401172496,7.9925233649841,-3.31482362126391,1.505172,-1.4840971,-0.4098906,18.497602,-80.42156,-4.4897323,WAL
6847417024000,4.035032,2.84065829140699,8.54358856468366,-3.76831514919736,1.4709635,-1.4706581,-0.37782016,18.771904,-81.12523,-4.18957,WAL
6847421925000,4.039933,2.25642694818439,8.95859417125934,-3.83278208447077,1.4117095,-1.4306464,-0.34147367,19.050406,-81.82749,-3.8822978,WAL
6847426924000,4.044932,1.66051336222852,9.38189819641171,-3.89853809537299,1.3448198,-1.3967434,-0.3200934,19.325157,-82.598076,-3.5929022,WAL
6847432032000,4.05004,0.957269595290313,9.75795577853949,-3.84629394652757,1.3170254,-1.3213016,-0.3286455,19.578669,-83.35277,-3.312667,WAL
6847436931000,4.054939,0.248740063931446,10.0982359865872,-3.75306634157973,1.3078625,-1.1734722,-0.36010507,19.803814,-84.0831,-3.043688,WAL
6847442046000,4.060054,-0.434852718252393,10.4860626799476,-3.54758441425182,1.3298537,-0.93951076,-0.3998113,20.011938,-84.73736,-2.92097,WAL
6847446968000,4.064976,-1.07116234954537,10.8717049839647,-3.30848631461998,1.3536774,-0.62125,-0.4266894,20.15416,-85.35935,-2.813943,WAL
6847451892000,4.0699,-1.55860094324351,11.1067751203424,-3.02403402215196,1.4022411,-0.43951756,-0.43768495,20.297544,-85.84217,-2.8588426,WAL
6847456929000,4.074937,-1.62430157388851,10.9096730323961,-2.60167243312579,1.4440855,-0.16371189,-0.45753807,20.32179,-86.251274,-2.9213827,WAL
6847461877000,4.079885,-1.66992756718519,10.7056426670899,-2.21257365628571,1.4602734,-0.048258353,-0.50946164,20.367596,-86.40377,-3.148934,WAL
6847466928000,4.084936,-1.63921486814815,10.4548223005291,-1.92080336285714,1.4563028,-0.01282817,-0.548557,20.354555,-86.44025,-3.3759444,WAL
6847471861000,4.089869,-1.58515159906693,10.2243874372084,-1.72937998107207,1.4850134,-0.0030543262,-0.5635232,20.319532,-86.32677,-3.6248124,WAL
6847477515000,4.095523,-1.46142180584595,9.99754968932686,-1.75000160430353,1.5222762,0.014966198,-0.5500842,20.270247,-86.128784,-3.8705919,WAL
6847481911000,4.099919,-1.35211664381551,9.83725781341719,-1.84054376090147,1.5479325,0.03970624,-0.5448918,20.217182,-94.136826,-4.116999,WAL
6847486939000,4.104947,-1.18050510092243,9.71107293291405,-2.20900387549266,1.5641204,0.07819075,-0.52473325,20.154018,-94.43642,-4.3490233,WAL
6847491883000,4.109891,-1.07686735673595,9.50565171862972,-2.39756717565435,1.5683966,0.14630222,-0.5030475,20.072126,-94.75086,-4.5544577,WAL
6847496963000,4.114971,-1.12368235288684,9.10304216512702,-2.18221804670901,1.5592335,0.2302962,-0.49480084,19.974058,-95.08834,-4.7520514,WAL
6847501902000,4.11991,-1.1670812085561,8.74825154278049,-1.98859173712753,1.529912,0.17989981,-0.5216789,19.88964,-95.44833,-4.9172444,WAL
6847506926000,4.124934,-1.20396069959759,8.51314499798793,-1.84568379959759,1.4611896,0.2049453,-0.55741453,19.75865,-95.82321,-5.076603,WAL
6847511926000,4.129934,-1.23398843358178,8.29776148778468,-1.71672686049689,1.3912456,0.23060162,-0.57543504,19.646547,-96.208,-5.2541385,WAL
6847517026000,4.135034,-1.22387628451346,8.19158381697723,-1.66616606236025,1.3414601,0.23793201,-0.6032294,19.53154,-96.600105,-5.4397454,WAL
6847521926000,4.139934,-1.1955329341887,8.12931628324715,-1.63299081154259,1.3100005,0.2507602,-0.6291912,19.408985,-96.98679,-5.64026,WAL
6847526922000,4.14493,-1.09749795048297,8.2133459907308,-1.6563324998634,1.2938126,0.25045475,-0.64965516,19.288034,-97.369,-5.842112,WAL
6847531935000,4.149943,-0.982904691355267,8.33583046211893,-1.67751372616963,1.2681563,0.26236662,-0.6569856,19.158897,-97.74119,-6.044849,WAL
6847536927000,4.154935,-0.78569127376396,8.65329634802294,-1.68713388626622,1.2425,0.2782491,-0.6630942,19.029064,-98.10845,-6.2476187,WAL
6847541920000,4.159928,-0.587206753045726,8.95785752842942,-1.70412137095427,1.2434162,0.28130344,-0.6600399,18.892437,-98.45979,-6.4264116,WAL
6847547389000,4.165397,-0.36333509728827,9.22338019662028,-1.76139087971173,1.2544118,0.26358834,-0.6374379,18.758673,-98.79886,-6.5963416,WAL
