timestamp,rel_time,acc_x,acc_y,acc_z,gyro_x,gyro_y,gyro_z,azimuth,pitch,roll,label
3441177257000,0,-1.23351265177929,9.84972131027589,-1.36564269416234,0.06261369,0.042455133,-0.009773844,280.47064,-101.2771,7.8169675,STD
3441182975000,0.005718,-1.2678605550897,9.83283921041342,-1.10319102185647,0.05497787,0.043676864,-0.016187929,280.67523,-101.33738,7.8372574,STD
3441187203000,0.009946,-1.30339261597114,9.82889112578003,-0.704442504446178,0.051618114,0.04886922,-0.004581489,280.88367,-101.401024,7.8614326,STD
3441192154000,0.014897,-1.33699963073653,9.82434811191202,-0.520764650455596,0.06536258,0.03848451,-0.0027488936,281.16272,-101.50937,7.9376993,STD
3441197214000,0.019957,-1.35491243288051,9.81986981785417,-0.914846587540893,0.064751714,0.031154128,-0.01038471,281.4423,-101.613594,8.013457,STD
3441202210000,0.024953,-1.36573213853824,9.81097520261729,-1.224904560073,0.059864793,0.018020526,-0.01985312,281.74014,-101.698,8.148524,STD
3441207222000,0.029965,-1.34436699939464,9.78106382934212,-1.1650821258524,0.060170226,0.008246681,-0.019547688,282.042,-101.78437,8.281407,STD
3441212790000,0.035533,-1.32242732862992,9.74836107569266,-1.0851881800457,0.06536258,0.005497787,-0.03023783,282.59888,-102.063286,8.5633,STD
3441217259000,0.040002,-1.33872694557745,9.73206154384462,-0.767345419800057,0.062308256,-0.016493361,-0.01985312,283.1693,-102.34287,8.842862,STD
3441222175000,0.044918,-1.35665688894602,9.7141316940874,-0.417711271362468,0.06291912,-0.015271631,-0.03023783,283.9868,-102.80337,9.332589,STD
3441227218000,0.049961,-1.3437572727317,9.73672112598489,-0.645029966675331,0.06505715,-0.022907447,-0.027183503,284.81647,-103.26475,9.812118,STD
3441232206000,0.054949,-1.32435629864349,9.7677629276257,-0.994247759569491,0.062308256,-0.025961773,-0.029932396,285.64636,-103.717285,10.272189,STD
3441237182000,0.059925,-1.29714640202238,9.77708361015491,-1.14931162774096,0.06047566,-0.034208454,-0.03176499,286.83658,-104.41211,11.03126,STD
3441242222000,0.064965,-1.25560843093804,9.74800688726334,-0.962390809909639,0.06811147,-0.03176499,-0.035124753,288.01617,-105.098724,11.758901,STD
3441247372000,0.070115,-1.21265763780388,9.72127646790494,-0.783009258671128,0.06414085,-0.030848695,-0.0290161,289.63403,-106.078285,12.714218,STD
3441253076000,0.075819,-1.15794696589274,9.73371069971775,-0.748193391418101,0.07086037,-0.03023783,-0.03268129,291.23346,-107.03244,13.618519,STD
3441257328000,0.080071,-1.11716334440499,9.7429796958026,-0.722240188830465,0.06383542,-0.029932396,-0.028710667,292.6435,-107.84121,14.391032,STD
3441262205000,0.084948,-1.07038495259037,9.7536111383957,-0.692472134028043,0.06536258,-0.03023783,-0.028710667,294.0416,-108.62836,15.124747,STD
3441267212000,0.089955,-1.02235964854776,9.76452596986251,-0.661910589964946,0.067500606,-0.024740042,-0.040317107,295.44415,-109.41834,15.848011,STD
3441272226000,0.094969,-0.986873168392982,9.78391926278537,-0.666799162785365,0.06352998,-0.022907447,-0.034513887,296.83936,-110.18788,16.540186,STD
3441277212000,0.099955,-0.958311729044961,9.80772044153125,-0.690600341531253,0.06261369,-0.011301007,-0.036957346,298.22015,-110.929794,17.193056,STD
3441282260000,0.105003,-0.960878148396978,9.83219485215438,-0.737429765178681,0.05955936,-0.0067195175,-0.025961773,299.49854,-111.58098,17.764465,STD
3441287254000,0.109997,-0.980411169277108,9.85661109638554,-0.796028781927711,0.06780604,0.02107485,-0.018020526,300.76074,-112.2129,18.30861,STD
3441292252000,0.114995,-0.991266547411816,9.86572951627067,-0.83830582071913,0.0571159,0.02107485,-0.029626964,302.0316,-112.82089,18.822117,STD
3441297213000,0.119956,-0.998220321837342,9.86804748948627,-0.873074726731717,0.049785517,0.03145956,-0.016493361,303.28833,-113.41914,19.320404,STD
3441302182000,0.124925,-1.00518530976728,9.87036920061472,-0.907899700321023,0.04886922,0.039095376,-0.016493361,304.57687,-114.01492,19.799738,STD
3441307232000,0.129975,-1.01226383442943,9.87272875811094,-0.943292358124604,0.0421497,0.055588737,-0.01863139,305.85608,-114.591805,20.256966,STD
3441312210000,0.134953,-1.01236113870968,9.88202896774193,-1.00494687096774,0.038179077,0.06811147,-0.017104227,307.1528,-115.17337,20.708626,STD
3441317267000,0.14001,-1.00755420296774,9.89644957419355,-1.08666482877419,0.021991149,0.082161374,-0.020463986,308.43903,-115.7305,21.133076,STD
3441322542000,0.145285,-1.00243890477998,10.0055691117038,-1.21738614973843,0.021991149,0.084910266,-0.014966198,309.7642,-116.30086,21.551014,STD
3441327229000,0.149972,-0.997834692901836,10.1575079113755,-1.36011686219099,0.022907447,0.09773844,-0.020158553,311.0756,-116.844955,21.939777,STD
3441332240000,0.154983,-1.01979732923077,10.11726212,-1.42331981846154,-0.00061086525,0.12889257,-0.024740042,312.40567,-117.387314,22.31571,STD
3441337276000,0.160019,-1.05809317260546,9.95450509806452,-1.43289371682382,-0.0070249503,0.14782938,-0.02443461,313.72888,-117.91121,22.66411,STD
3441342253000,0.164996,-1.09564528451588,9.88996088004704,-1.45956388451588,0.0015271631,0.14019357,-0.03023783,315.0826,-118.44032,22.993965,STD
3441347247000,0.16999,-1.13314159121913,9.88527423324187,-1.49706019121913,0.009468411,0.13713925,-0.031154128,316.42194,-118.94681,23.2984,STD
3441352215000,0.174958,-1.1598214550235,9.87000921582452,-1.5237400550235,0.0030543262,0.13133603,-0.021380283,317.82138,-119.480286,23.609404,STD
3441357235000,0.179978,-1.17865250143948,9.84647046925186,-1.54257110143948,-0.004581489,0.13652839,-0.028710667,319.2065,-119.98702,23.88662,STD
3441362196000,0.184939,-1.19492258411864,9.83291478712429,-1.58843514634461,-0.009468411,0.115453534,-0.034513887,320.6111,-120.494995,24.144915,STD
3441367259000,0.190002,-1.20935190811427,9.8281049120127,-1.66058181654598,-0.0106901415,0.115453534,-0.022296581,321.99796,-120.981186,24.37927,STD
3441372256000,0.194999,-1.23592176522779,9.81597043156216,-1.69755320494467,-0.0143553335,0.11026118,-0.029932396,323.41138,-121.457825,24.587406,STD
3441377221000,0.199964,-1.27384330769614,9.79700978406938,-1.70229339156614,-0.01038471,0.09468412,-0.021991149,324.81873,-121.91887,24.773438,STD
3441382211000,0.204954,-1.29973922339601,9.7840618165638,-1.69780136464762,-0.011301007,0.082161374,-0.019547688,326.2649,-122.38529,24.94313,STD
3441387196000,0.209939,-1.31344393073059,9.77720931979331,-1.68409663346251,-0.006414085,0.07452556,-0.017104227,327.6998,-122.83096,25.08454,STD
3441392413000,0.215156,-1.32778644992106,9.77003791043491,-1.66975408931152,-0.006414085,0.058337633,-0.0070249503,329.17358,-123.279465,25.21077,STD
3441397212000,0.219955,-1.34097980809531,9.76344109358404,-1.65656070817664,-0.00580322,0.053450707,-0.007330383,330.62747,-123.702484,25.306055,STD
3441402201000,0.224944,-1.35790724227205,9.75573511170902,-1.64569520838067,0.0033597588,0.040317107,-0.0015271631,332.07224,-124.10664,25.37469,STD
3441407227000,0.22997,-1.3818897516293,9.74614238844046,-1.64089869649228,-0.0018325958,0.03268129,-0.0018325958,333.4974,-124.483536,25.41461,STD
3441412206000,0.234949,-1.39965796042009,9.73672441883651,-1.62896833747943,-0.007330383,0.024129177,-0.0021380284,334.9272,-124.84828,25.432346,STD
3441417232000,0.239975,-1.40431704441971,9.72740605623851,-1.60101383348175,-0.00061086525,0.008246681,0.002443461,336.3416,-125.192535,25.423681,STD
3441422225000,0.244968,-1.40897174549594,9.71691538685409,-1.57308576270046,0.007941248,-0.002443461,-0.003970624,337.7124,-125.50739,25.382164,STD
3441427217000,0.24996,-1.41370431172045,9.70271818234013,-1.54469090892893,0.0076358155,-0.0030543262,0.004581489,339.068,-125.80505,25.321867,STD
3441432219000,0.254962,-1.41381686690868,9.69223619017034,-1.51408924678395,0.0125227375,-0.016798794,0.0070249503,340.40222,-126.07798,25.232637,STD
3441437237000,0.25998,-1.39816038461324,9.69447264032393,-1.47606641792795,0.015271631,-0.02565634,0.004886922,341.71606,-126.3318,25.124067,STD
3441442215000,0.264958,-1.3826287048869,9.69669126305501,-1.4383466805734,0.024740042,-0.03023783,-0.00030543262,342.9556,-126.53432,24.979654,STD
3441447208000,0.269951,-1.36705022419715,9.69891657106953,-1.4005132839058,0.02076942,-0.040317107,0.00061086525,344.1822,-126.7193,24.81738,STD
3441452207000,0.27495,-1.35145302312203,9.70114455319743,-1.36263442351299,0.027183503,-0.043676864,-0.005192355,345.38873,-126.890175,24.636244,STD
3441457223000,0.279966,-1.34409145917082,9.69922572676398,-1.32871487414075,0.030848695,-0.047036625,-0.0030543262,346.5817,-127.04618,24.44063,STD
3441462218000,0.284961,-1.33739890924777,9.69699506314415,-1.29525210123117,0.035430185,-0.057421334,-0.0021380284,347.7587,-127.18744,24.227242,STD
3441467225000,0.289968,-1.33069028112671,9.69475904057268,-1.26170893727557,0.03390302,-0.06536258,0.007330383,348.8513,-127.28438,23.998388,STD
3441472165000,0.294908,-1.32407142294455,9.69255293881453,-1.22861462332696,0.03756821,-0.06627888,-0.00030543262,349.9279,-127.368225,23.753466,STD
3441477216000,0.299959,-1.3206018620423,9.69771414441665,-1.18333572239709,0.04734206,-0.07452556,0.005192355,350.99756,-127.44555,23.50087,STD
3441482263000,0.305006,-1.31903150206959,9.70713617307255,-1.1315138039436,0.044898596,-0.079107046,0.0018325958,352.04935,-127.50638,23.234055,STD
3441487235000,0.309978,-1.31748447813769,9.71641818743299,-1.08046197542155,0.04795292,-0.08032878,0.010079277,353.0686,-127.544815,22.961111,STD
3441492263000,0.315006,-1.31592002996199,9.72580474580071,-1.02883514641736,0.042455133,-0.082161374,0.0076358155,354.0735,-127.568016,22.674986,STD
3441497204000,0.319947,-1.31438265159362,9.73502888758569,-0.97810162173365,0.04153884,-0.087659165,0.008857546,355.06796,-127.58504,22.382553,STD
3441502201000,0.324944,-1.31282784898145,9.74435757337795,-0.92679309656779,0.03756821,-0.099265605,0.008246681,356.05035,-127.589676,22.079878,STD
3441507209000,0.329952,-1.31651448022095,9.75368097402849,-0.922679270485512,0.03970624,-0.093462385,0.013439035,357.02808,-127.59392,21.775038,STD
3441512224000,0.334967,-1.32582306671189,9.76298975491811,-0.969222222380076,0.03390302,-0.09712757,0.008552114,357.99622,-127.58421,21.457287,STD
3441517186000,0.339929,-1.32991810223796,9.76960112403591,-1.00668173754583,0.04184427,-0.09712757,0.013744468,358.91037,-127.53653,21.13575,STD
3441522254000,0.344997,-1.32684974831205,9.77266954204071,-1.03276276193577,0.027794369,-0.1001819,0.021685716,359.8146,-127.47441,20.806934,STD
3441527160000,0.349903,-1.32387947515489,9.77563987722847,-1.0580100992793,0.01985312,-0.093767814,0.021380283,0.7422673,-127.4227,20.474052,STD
3441532218000,0.354961,-1.32081717559742,9.7787022407384,-1.08403966150588,0.028710667,-0.10170906,0.022907447,1.6630373,-127.36514,20.135452,STD
3441537164000,0.359907,-1.31782268496649,9.78169679390568,-1.10949284750284,0.02443461,-0.099571034,0.018020526,2.565948,-127.2939,19.79286,STD
3441542223000,0.364966,-1.31475977997218,9.78475976286509,-1.13552755594576,0.019547688,-0.09040806,0.02076942,3.4581625,-127.218605,19.44787,STD
3441547216000,0.369959,-1.31109565452681,9.78703351758433,-1.16111096852251,0.0125227375,-0.09315695,0.02107485,4.3262434,-127.13066,19.094429,STD
3441552200000,0.374943,-1.30130773876756,9.78213945750026,-1.18558080902286,0.0070249503,-0.0888809,0.020158553,5.179163,-127.03563,18.740374,STD
3441557205000,0.379948,-1.2905507190871,9.77907910111975,-1.21247339320455,0.00580322,-0.08368854,0.019547688,6.0332394,-126.94632,18.383762,STD
3441562209000,0.384952,-1.2741655811095,9.78727139208479,-1.25343617398923,0.005497787,-0.09865474,0.019547688,6.879585,-126.849464,18.021843,STD
3441567208000,0.389951,-1.25779681517224,9.79545549730746,-1.29435802473716,0.0033597588,-0.10354166,0.015882496,7.7120423,-126.75406,17.66044,STD
3441572228000,0.394971,-1.2728256950052,9.80437873531359,-1.33897367558415,0.007941248,-0.100792766,0.013133603,8.534932,-126.65422,17.295897,STD
3441577745000,0.400488,-1.29781638459938,9.8143751990351,-1.38895489820263,-0.00030543262,-0.109650314,0.011301007,9.35011,-126.54434,16.926264,STD
3441582212000,0.404955,-1.30600981382737,9.8269188926218,-1.41959782017932,-0.0076358155,-0.09621128,0.004276057,10.145155,-126.43388,16.559341,STD
3441587169000,0.409912,-1.31113806246084,9.84230342432754,-1.45036736552879,-0.014966198,-0.10140363,0.014660766,10.938523,-126.318054,16.190794,STD
3441592228000,0.414971,-1.2920300727977,9.8489555805939,-1.49965810974278,-0.017104227,-0.106595986,0.003970624,11.735061,-126.204666,15.812692,STD
3441597170000,0.419913,-1.2685279154633,9.85365610040719,-1.55136279698083,-0.013133603,-0.102319926,0.009162978,12.5227,-126.08893,15.440942,STD
3441602203000,0.424946,-1.25073684933606,9.85261943849409,-1.5705921076171,-0.014049901,-0.106595986,0.0012217305,13.288956,-125.96168,15.058679,STD
3441607195000,0.429938,-1.23445922400409,9.85029401488399,-1.58221898285422,-0.008857546,-0.10598512,0.0009162979,14.043708,-125.83394,14.68109,STD
3441612200000,0.434943,-1.21813920902281,9.84796253548324,-1.59387613641228,-0.015271631,-0.12003502,-0.00030543262,14.79143,-125.70856,14.302118,STD
3441617285000,0.440028,-1.20155833466122,9.84559378967849,-1.60571961809913,-0.008246681,-0.12370021,-0.0033597588,15.5250225,-125.58325,13.92504,STD
3441622237000,0.44498,-1.18857818634197,9.83472990735776,-1.60719896082812,-0.01038471,-0.12217305,0.004581489,16.243593,-125.4474,13.549617,STD
3441627194000,0.449937,-1.17679378143183,9.82058884788005,-1.60484208476815,-0.009162978,-0.122783914,0.004276057,16.95143,-125.309135,13.171849,STD
3441632228000,0.454971,-1.16482632242081,9.80622812699831,-1.60244859796445,-0.005192355,-0.129198,-0.004276057,17.639143,-125.16861,12.800897,STD
3441637215000,0.459958,-1.15297059773111,9.7920014851554,-1.60007745797835,-0.0067195175,-0.12461651,0.004276057,18.317644,-125.025665,12.437347,STD
3441642216000,0.464959,-1.14432572847122,9.78423621755137,-1.57650168250833,0.00061086525,-0.11728613,0.008552114,18.97707,-124.88054,12.071313,STD
3441647875000,0.470618,-1.13623730831302,9.77884382483458,-1.53875569361723,-0.013133603,-0.1133155,0.0070249503,19.628115,-124.72713,11.708274,STD
3441652236000,0.474979,-1.13000412218298,9.7746882806328,-1.50966746998159,-0.002443461,-0.11209377,0.0070249503,20.261448,-124.58064,11.355188,STD
3441657226000,0.479969,-1.12287190507935,9.76993336993184,-1.47638376534003,-0.0067195175,-0.11362094,0.01038471,20.88704,-124.424576,11.005092,STD
3441662202000,0.484945,-1.11747732849406,9.7563067768171,-1.43215161343468,-0.0070249503,-0.11178834,0.005192355,21.503935,-124.27022,10.656116,STD
3441667264000,0.490007,-1.11287136539667,9.73788302061758,-1.38148601936342,-0.013133603,-0.11301007,0.0106901415,22.116375,-124.11254,10.312346,STD
3441672232000,0.494975,-1.10560398770625,9.73136243077378,-1.3293993016106,-0.0067195175,-0.10170906,0.01160644,22.702684,-123.94304,9.973822,STD
3441677217000,0.49996,-1.09619841256957,9.73371387366399,-1.27531719546865,-0.0021380284,-0.10048734,0.01038471,23.285599,-123.770546,9.636995,STD
3441682216000,0.504959,-1.08676642257794,9.73607192040585,-1.22108320377284,-0.003970624,-0.10476339,0.0106901415,23.853891,-123.58952,9.305648,STD
3441687227000,0.50997,-1.07731179128208,9.73843562759198,-1.16671902445944,0.0018325958,-0.10598512,0.0143553335,24.415203,-123.41116,8.978048,STD
3441692215000,0.514958,-1.06814865630307,9.74852044088831,-1.1329593844546,0.00030543262,-0.10415252,0.020158553,24.970966,-123.22973,8.653516,STD
3441697208000,0.519951,-1.05922508396006,9.76636749239526,-1.1195740259401,-0.0021380284,-0.09743301,0.025350908,25.520206,-123.04921,8.333071,STD
3441702196000,0.524939,-1.04987186740402,9.78328529618207,-1.10375577215782,0.0018325958,-0.106595986,0.020158553,26.02877,-122.836624,8.016189,STD
3441707222000,0.529965,-1.03963401818569,9.79864177602893,-1.08328018062321,0.005497787,-0.11881329,0.029321533,26.535255,-122.62549,7.707396,STD
3441712207000,0.53495,-1.03533826415242,9.80352058379026,-1.04860985323688,0.009468411,-0.12339478,0.028405234,27.03142,-122.41028,7.3985248,STD
3441717647000,0.54039,-1.03773877726121,9.79631921992351,-0.993398578113625,0.013133603,-0.129198,0.032375857,27.528969,-122.19794,7.093954,STD
3441722249000,0.544992,-1.03976950544625,9.79022718379947,-0.946692275150901,0.01160644,-0.11881329,0.03726278,28.012804,-121.97891,6.795793,STD
3441727246000,0.549989,-1.04197453559416,9.78361225452702,-0.895977065262867,0.013133603,-0.12797627,0.038789943,28.499306,-121.763016,6.49711,STD
3441732238000,0.554981,-1.04633585188215,9.77853594367506,-0.84864001896087,0.015271631,-0.13561209,0.034513887,28.979057,-121.54809,6.203071,STD
3441737223000,0.559966,-1.06408484268055,9.78297305237476,-0.822016509596617,0.013133603,-0.1386664,0.043982297,29.458458,-121.33452,5.9152474,STD
3441742246000,0.564989,-1.08196913170369,9.78744398457106,-0.795190052718654,0.01038471,-0.13255776,0.036957346,29.936008,-121.10913,5.6229324,STD
3441747207000,0.56995,-1.09963267099173,9.79185973106237,-0.768694720731481,0.018325957,-0.1441642,0.04428773,30.418432,-120.88878,5.3363857,STD
3441752221000,0.574964,-1.11748491569849,9.79632265243052,-0.741916330369923,0.011911872,-0.14874569,0.047647487,30.89642,-120.66493,5.05251,STD
3441757221000,0.579964,-1.1376640150932,9.8211217544011,-0.703058905686917,0.011911872,-0.14966199,0.03481932,31.371006,-120.446,4.7682314,STD
3441762208000,0.584951,-1.15827136810494,9.84997216051087,-0.661844242699344,0.01038471,-0.15088372,0.03481932,31.845097,-120.22695,4.4902787,STD
3441767228000,0.589971,-1.16303125844606,9.96822561097284,-0.598932276636728,-0.004886922,-0.16340645,0.029626964,32.316803,-119.99174,4.201603,STD
3441772215000,0.594958,-1.15269476868304,10.1697860010821,-0.516240763277784,-0.0070249503,-0.18387043,0.03268129,32.788193,-119.76194,3.9170644,STD
3441777223000,0.599966,-1.13713353998295,10.1862521764706,-0.530708585294118,-0.014660766,-0.19486602,0.058643065,33.25696,-119.51483,3.6346147,STD
3441782215000,0.604958,-1.11901953577721,10.1092677058824,-0.594107637843137,-0.02107485,-0.1957823,0.056199603,33.721127,-119.26881,3.3480103,STD
3441787199000,0.609942,-1.07877127311292,10.114973233825,-0.638561599036623,-0.03145956,-0.20311269,0.037873644,34.18509,-118.99356,3.0607107,STD
3441792226000,0.614969,-1.02000104056968,10.188435704883,-0.667946725536114,-0.059253927,-0.22510384,0.032375857,34.65114,-118.71539,2.7775962,STD
3441797199000,0.619942,-0.934129336068886,10.2830005429094,-0.628852728261497,-0.076052725,-0.24587326,0.032986723,35.113506,-118.45834,2.5018077,STD
3441802245000,0.624988,-0.827196032335963,10.3945839439099,-0.540516488113335,-0.09590584,-0.267559,0.03359759,35.57734,-118.195404,2.225294,STD
3441807220000,0.629963,-0.700116578054264,10.4341210594961,-0.521620457474806,-0.13713925,-0.2846632,0.03481932,36.029736,-117.92153,1.9611546,STD
3441812210000,0.634953,-0.551935878325581,10.4063371069767,-0.567926927348837,-0.16829337,-0.3036,0.038789943,36.48527,-117.64843,1.6985103,STD
3441817266000,0.640009,-0.417991642878743,10.3993812630339,-0.595898366912126,-0.22540927,-0.28680122,0.019242255,36.90834,-117.332344,1.4533584,STD
3441822277000,0.64502,-0.30490917093569,10.4182282318115,-0.600610133706431,-0.25961772,-0.28160888,-0.0012217305,37.33737,-117.01869,1.2085123,STD
3441827213000,0.649956,-0.2062828521463,10.456757419053,-0.607020760618089,-0.2764165,-0.25625798,-0.02565634,37.723713,-116.70586,0.99684983,STD
3441832216000,0.654959,-0.124775452317361,10.5246802010207,-0.616077126818826,-0.2941316,-0.22143865,-0.048563786,38.102516,-116.387665,0.785312,STD
3441837206000,0.659949,-0.0522225661503599,10.5795291241004,-0.646735296450107,-0.32375857,-0.17959438,-0.07238753,38.45291,-116.06253,0.59760463,STD
3441842220000,0.664963,-0.000851314129546782,10.602879676133,-0.730797352038514,-0.35094208,-0.1554652,-0.09437868,38.795555,-115.737976,0.409405,STD
3441847188000,0.669931,0.0394763991029083,10.6288631882391,-0.79019827548418,-0.3830125,-0.13561209,-0.101098195,39.114643,-115.40446,0.24159472,STD
3441852234000,0.674977,0.044624429147651,10.6648993259827,-0.769606128427613,-0.40011674,-0.12675454,-0.1133155,39.426723,-115.07289,0.0709042,STD
3441857167000,0.67991,0.0247598028151236,10.6414680561179,-0.784647127756277,-0.4428773,-0.1328632,-0.115453534,39.722095,-114.74007,-0.08344958,STD
3441862202000,0.684945,-0.0422312754045847,10.5074859416493,-0.865993456152625,-0.47067168,-0.1142318,-0.11636983,40.00723,-114.41232,-0.23426247,STD
3441867212000,0.689955,-0.105491071353021,10.3690894827806,-0.925311856951386,-0.47983465,-0.09468412,-0.1160644,40.29374,-114.07806,-0.3836836,STD
3441872238000,0.694981,-0.16234971839891,10.2203819941845,-0.942806835461154,-0.47708577,-0.06963864,-0.10873401,40.574486,-113.74534,-0.5264083,STD
3441877180000,0.699923,-0.21574798221652,10.0591786762065,-0.960842093072141,-0.4636467,-0.03634648,-0.100792766,40.85368,-113.442764,-0.6724133,STD
3441882203000,0.704946,-0.253726308709168,9.79807785196882,-0.984578531639199,-0.4718934,0.0033597588,-0.099265605,41.124104,-113.14022,-0.8125192,STD
3441887234000,0.709977,-0.286809339954458,9.55535336924155,-0.993688053739709,-0.49205196,0.037873644,-0.08979719,41.392216,-112.85889,-0.95366305,STD
3441892222000,0.714965,-0.282625675705027,9.45494551462603,-0.893280068067963,-0.5323691,0.070249505,-0.087964594,41.64895,-112.57439,-1.09035,STD
3441897209000,0.719952,-0.278442850201436,9.35455778989315,-0.792892212305132,-0.55741453,0.11911872,-0.07788532,41.89538,-112.31599,-1.2197127,STD
3441902829000,0.725572,-0.286903812717588,9.07585931899498,-0.817015214110553,-0.5870415,0.18692477,-0.087659165,42.125324,-112.04949,-1.3468407,STD
3441907201000,0.729944,-0.29531985559598,8.83600217165829,-0.854887367517588,-0.6017023,0.2593123,-0.11148291,42.339867,-111.78487,-1.4680793,STD
3441912239000,0.734982,-0.270821043794196,8.89374404169555,-0.895991023982371,-0.57726765,0.33322698,-0.12980886,42.533638,-111.512566,-1.5815091,STD
3441917217000,0.73996,-0.240131059987125,9.01414291502426,-0.936124072145192,-0.54092115,0.3930918,-0.15241088,42.708893,-111.24519,-1.6954186,STD
3441922183000,0.744926,-0.209515057659701,9.13425155402595,-0.97616037531445,-0.47494772,0.4288274,-0.16157386,42.867622,-111.024055,-1.8039682,STD
3441927173000,0.749916,-0.178751092372982,9.25494066168169,-1.01639016847083,-0.4196644,0.45540005,-0.17195857,43.01052,-110.814865,-1.9128438,STD
3441932253000,0.754996,-0.145159829945816,9.38103827573751,-1.0324962474112,-0.35430184,0.46028697,-0.16462818,43.153633,-110.63176,-2.0173717,STD
3441937189000,0.759932,-0.111957161770018,9.50436299257476,-1.04198276790086,-0.28344148,0.43066,-0.17531833,43.29613,-110.47005,-2.1293185,STD
3441942237000,0.76498,-0.0899591582383164,9.6058515485624,-1.05541128228436,-0.21655174,0.4279111,-0.17073683,43.432747,-110.32598,-2.2172296,STD
3441947175000,0.769918,-0.0712691966001383,9.69930128356882,-1.06942874253532,-0.14966199,0.4083634,-0.16401732,43.58057,-110.20476,-2.3110132,STD
3441957131000,0.779874,-0.0335036465590333,9.77914381022187,-0.997150863807448,-0.057726767,0.39706242,-0.13103059,43.86875,-109.996826,-2.473119,STD
3441962155000,0.784898,-0.0419590686800238,9.75773246018064,-0.963260965673284,0.0027488936,0.38362336,-0.12064589,44.010387,-109.91367,-2.5541704,STD
3441967166000,0.789909,-0.0595609695126312,9.71812807647517,-0.932457640364953,0.046120327,0.37018433,-0.09987647,44.156025,-109.84168,-2.6214018,STD
3441972391000,0.795134,-0.0779145779441566,9.67683234610976,-0.900338826807574,0.07544186,0.3680463,-0.08582657,44.30172,-109.77247,-2.6842058,STD
3441977121000,0.799864,-0.0945294234716428,9.6394488428316,-0.871262848218789,0.10934488,0.37018433,-0.08460484,44.449623,-109.71727,-2.7451363,STD
3441982158000,0.804901,-0.11803760616426,9.62146049120036,-0.8459894325,0.12461651,0.3659083,-0.07788532,44.6006,-109.66481,-2.8010628,STD
3441987152000,0.809895,-0.150411188628159,9.63764760920578,-0.82980263,0.13408493,0.3827071,-0.07696902,44.743717,-109.62077,-2.8554513,STD
3441992139000,0.814882,-0.188590143946882,9.64098000583714,-0.835065109294678,0.13164146,0.39584067,-0.08460484,44.894325,-109.57219,-2.919328,STD
3441997132000,0.819875,-0.230457340293803,9.636328000681,-0.853672760751046,0.13713925,0.40775254,-0.08552113,45.040188,-109.52843,-2.9791133,STD
3442002152000,0.824895,-0.281584798307087,9.62883658610943,-0.886353466267918,0.129198,0.42546764,-0.0852157,45.183037,-109.478096,-3.044095,STD
3442007159000,0.829902,-0.339672109212598,9.61915517302645,-0.929918940601656,0.12889257,0.43493605,-0.07422013,45.324486,-109.43133,-3.1054385,STD
3442012175000,0.834918,-0.395683336453807,9.61776110957869,-0.963986189608917,0.14446963,0.44868052,-0.08155051,45.463474,-109.39427,-3.177006,STD
3442017189000,0.839932,-0.450115355503495,9.62229720234272,-0.991202201501984,0.15149458,0.4801401,-0.09743301,45.59386,-109.35486,-3.2446253,STD
3442022153000,0.844896,-0.517761915253713,9.64300692945545,-0.99869619059406,0.17104226,0.5045747,-0.10048734,45.733253,-109.339165,-3.3221982,STD
3442027157000,0.8499,-0.601784138087871,9.68254658044554,-0.983868744059406,0.172264,0.50335294,-0.10170906,45.86809,-109.32064,-3.40182,STD
3442032168000,0.854911,-0.65962041941027,9.7552282314184,-0.928046628092527,0.18295415,0.5122105,-0.09193522,46.003162,-109.320724,-3.487504,STD
3442037156000,0.859899,-0.693619814184037,9.85722636502288,-0.835762628291815,0.18478674,0.5140431,-0.08124508,46.138443,-109.317894,-3.572461,STD
3442042229000,0.864972,-0.773572913198896,9.87808461739473,-0.767837795716399,0.17806722,0.5342017,-0.06383542,46.281944,-109.314705,-3.665989,STD
3442047152000,0.869895,-0.885151535824869,9.83624275830786,-0.721346699314663,0.172264,0.539394,-0.069027774,46.42548,-109.31209,-3.7621326,STD
3442052212000,0.874955,-0.975743702212432,9.80630262158797,-0.661890260741308,0.16768251,0.5552765,-0.06688975,46.55997,-109.27931,-3.8533366,STD
3442057217000,0.87996,-1.0446048276554,9.78793976984963,-0.593029159266354,0.15210545,0.56046885,-0.06352998,46.69358,-109.24227,-3.9444566,STD
3442062204000,0.884947,-1.11065451775805,9.77642126859045,-0.532974279556049,0.13836098,0.57848936,-0.06536258,46.828125,-109.20467,-4.0569158,STD
3442067226000,0.889969,-1.17404239266093,9.7730849968091,-0.482931206120977,0.11575896,0.57726765,-0.05955936,46.965267,-109.16001,-4.1655993,STD
3442072227000,0.89497,-1.23716520476554,9.76976267598502,-0.433097392849612,0.093462385,0.57726765,-0.062002823,47.100796,-109.10434,-4.2899127,STD
3442077219000,0.899962,-1.30240166433427,9.7628767195122,-0.3899380032507,0.073303826,0.56321776,-0.070249505,47.23846,-109.044106,-4.4133816,STD
3442082221000,0.904964,-1.36943926433427,9.75329971951219,-0.3516307832507,0.048258353,0.54611355,-0.07086037,47.375507,-108.977264,-4.533516,STD
3442087231000,0.909974,-1.4558577807947,9.72901377336277,-0.346717050139809,0.033292156,0.5222898,-0.058643065,47.5343,-108.90433,-4.6739144,STD
3442092220000,0.914963,-1.55630707142857,9.69385687301587,-0.366806897777778,0.022907447,0.5180137,-0.057726767,47.689037,-108.82829,-4.814613,STD
3442097206000,0.919949,-1.61381406139241,9.64906375845456,-0.388535553803136,0.016187929,0.5009095,-0.06414085,47.852222,-108.748215,-4.9702396,STD
3442102232000,0.924975,-1.65018894113924,9.59904826912904,-0.411269842962403,0.0033597588,0.47861293,-0.08277224,48.014835,-108.666695,-5.1268578,STD
3442107220000,0.929963,-1.69759632893386,9.5481777023692,-0.470830049162883,0.014660766,0.45234573,-0.095294975,48.180805,-108.605034,-5.3034043,STD
3442112386000,0.935129,-1.75620299252715,9.4944548721619,-0.56362392383613,0.027488936,0.44898596,-0.12095132,48.3416,-108.54495,-5.4848285,STD
3442117217000,0.93996,-1.79445181308637,9.49516022856543,-0.637569710521566,0.036957346,0.42394048,-0.12675454,48.527527,-108.50395,-5.6746745,STD
3442122225000,0.944968,-1.81961742039039,9.54045821660195,-0.70300032104523,0.071776666,0.42424592,-0.13347405,48.702137,-108.476555,-5.8654075,STD
3442127215000,0.949958,-1.87459733072592,9.57417203480689,-0.711318314065147,0.08307768,0.42730024,-0.129198,48.879635,-108.46994,-6.0624394,STD
3442132240000,0.954983,-1.94849562609586,9.60104421023732,-0.684446218136808,0.10140363,0.42271876,-0.1328632,49.05431,-108.47547,-6.259052,STD
3442137219000,0.959962,-2.02171743955793,9.62767039162401,-0.65782011552443,0.11575896,0.41905355,-0.13194689,49.227356,-108.49336,-6.4512815,STD
3442142217000,0.96496,-2.09521866946021,9.65439817924616,-0.631092406977199,0.12614368,0.43310347,-0.13133603,49.392586,-108.51421,-6.6382747,STD
3442147194000,0.969937,-2.14201017144065,9.69014549043442,-0.600137119091005,0.1432479,0.44043383,-0.13072516,49.53894,-108.53576,-6.8209844,STD
3442152223000,0.974966,-2.13182906432724,9.7461416858683,-0.55941266937533,0.16187929,0.4447099,-0.118507855,49.68055,-108.55819,-6.994684,STD
3442157183000,0.979926,-2.12205659893048,9.7679334973262,-0.520322781122995,0.17684549,0.47158796,-0.10873401,49.843037,-108.58808,-7.1955385,STD
3442162210000,0.984953,-2.11252152790652,9.74409581976629,-0.48218246217964,0.19914207,0.49388456,-0.102319926,50.00258,-108.62217,-7.3881474,STD
3442167264000,0.990007,-2.07916655934653,9.7280551729703,-0.451763581141584,0.2144137,0.5174029,-0.103847094,50.130875,-108.64322,-7.5721774,STD
3442172264000,0.995007,-2.0127925989505,9.72331408386139,-0.432799605894059,0.21502456,0.5381723,-0.10293079,50.25218,-108.66461,-7.747277,STD
3442177152000,0.999895,-1.93586633095972,9.71038010111205,-0.419699685857397,0.21197024,0.55924714,-0.099571034,50.3491,-108.67981,-7.9159594,STD
3442182267000,1.00501,-1.83515814228577,9.68291416194748,-0.415122035703205,0.2049453,0.57696223,-0.09743301,50.439964,-108.694016,-8.078889,STD
3442187156000,1.009899,-1.73953544494382,9.65654170786517,-0.412878727191011,0.19517145,0.602924,-0.09621128,50.513123,-108.696304,-8.222013,STD
3442192224000,1.014967,-1.64248343797372,9.62881248028947,-0.417500258685965,0.1826487,0.63163465,-0.100792766,50.579647,-108.69692,-8.3609495,STD
3442197190000,1.019933,-1.54481473165943,9.60905977412689,-0.413629391035338,0.18142697,0.66737026,-0.10048734,50.60574,-108.68519,-8.473392,STD
3442202235000,1.024978,-1.4299930234036,9.63402100371978,-0.358714644228146,0.16157386,0.70952,-0.10048734,50.622025,-108.66722,-8.581855,STD
3442207191000,1.029934,-1.32634882217594,9.66110328298779,-0.307392113305561,0.16157386,0.7498371,-0.09010262,50.61747,-108.64703,-8.664126,STD
3442212204000,1.034947,-1.25658250001938,9.69831225363302,-0.265532320011626,0.14905111,0.7852673,-0.08460484,50.603046,-108.62053,-8.743023,STD
3442217231000,1.039974,-1.19567319649574,9.73074986666007,-0.223418689758464,0.1572978,0.82863873,-0.08307768,50.562786,-108.58276,-8.79868,STD
3442222204000,1.044947,-1.18624428610176,9.73546442031281,-0.180988563448822,0.14385876,0.8793405,-0.07727446,50.512787,-108.536674,-8.847221,STD
3442227931000,1.050674,-1.19640992442363,9.74307469275362,-0.143075143175028,0.12980886,0.92271197,-0.06688975,50.452194,-108.47967,-8.87882,STD
3442232197000,1.05494,-1.25470863337347,9.75400554492754,-0.141253309114827,0.12370021,0.9615019,-0.06261369,50.380363,-108.42314,-8.906249,STD
3442237208000,1.059951,-1.32318843425195,9.76684532463768,-0.139113316035674,0.12003502,0.9779953,-0.055588737,50.30786,-108.35639,-8.927893,STD
3442242220000,1.064963,-1.39168190102564,9.77968766666667,-0.136972895897436,0.11026118,1.0106765,-0.04795292,50.222294,-108.28798,-8.943544,STD
3442247231000,1.069974,-1.46016170190412,9.79252744637681,-0.134832902818283,0.10934488,1.0329732,-0.042760566,50.137238,-108.2223,-8.957224,STD
3442252178000,1.074921,-1.54933494196937,9.77813528623575,-0.131369885280449,0.10170906,1.03786,-0.044593163,50.039635,-108.15666,-8.972711,STD
3442257223000,1.079966,-1.65257211727208,9.74802473913818,-0.127068335560897,0.08002335,1.0509937,-0.048563786,49.93591,-108.08891,-8.984713,STD
3442262200000,1.084943,-1.75214210951623,9.71806953034161,-0.120509678581583,0.0852157,1.0684034,-0.053450707,49.850002,-108.03988,-9.023851,STD
3442267280000,1.090023,-1.85020631957352,9.68710179429238,-0.11018713043815,0.081855945,1.0720685,-0.051618114,49.766613,-107.985085,-9.061429,STD
3442272252000,1.094995,-1.92197659135488,9.65851920549887,-0.114715381944444,0.087659165,1.078788,-0.05131268,49.69412,-107.9493,-9.120369,STD
3442277226000,1.099969,-1.97148391680839,9.63151514143991,-0.132718038055556,0.09407325,1.0848967,-0.051618114,49.622837,-107.914505,-9.177461,STD
3442282213000,1.104956,-2.01540689639441,9.58542622201198,-0.151568846996741,0.11178834,1.0793989,-0.04642576,49.547424,-107.89937,-9.256902,STD
3442287228000,1.109971,-2.05074733200883,9.50969671712394,-0.171763397448754,0.13133603,1.0699304,-0.046731193,49.473263,-107.8885,-9.33581,STD
3442292216000,1.114959,-2.06639098346891,9.44727068705002,-0.175361675813932,0.15210545,1.0491611,-0.044593163,49.41243,-107.89319,-9.422258,STD
3442297967000,1.12071,-2.06124127081814,9.39062400920991,-0.159912527107059,0.16432275,1.0128145,-0.038789943,49.360825,-107.900566,-9.507352,STD
3442302230000,1.124973,-2.05722743446102,9.33932792367094,-0.149656977057155,0.17867808,0.98654735,-0.036957346,49.299965,-107.92679,-9.602987,STD
3442307220000,1.129963,-2.05220660739651,9.2640152555684,-0.139615317685438,0.20311269,0.9443977,-0.032375857,49.256287,-107.95688,-9.697581,STD
3442312205000,1.134948,-2.03235600349818,9.22056711631004,-0.147360216317145,0.22602014,0.9089675,-0.02321288,49.209534,-107.99024,-9.792878,STD
3442317254000,1.139997,-1.99371804125011,9.21627391973719,-0.177411982663589,0.23273966,0.87781334,-0.025350908,49.17454,-108.02616,-9.890374,STD
3442322195000,1.144938,-1.95563079688051,9.21955070939994,-0.207775714996373,0.24953845,0.84513205,-0.02687807,49.14157,-108.070404,-9.988796,STD
3442327226000,1.149969,-1.9156839060628,9.25450388040212,-0.242729230123329,0.2669481,0.8323039,-0.013133603,49.114212,-108.1135,-10.08205,STD
3442332185000,1.154928,-1.88280567263417,9.2888507169193,-0.270700751577222,0.27977628,0.83169305,-0.013439035,49.084614,-108.161,-10.169385,STD
3442337232000,1.159975,-1.86795496300696,9.32350309637444,-0.280601224662024,0.28069258,0.8268061,-0.01282817,49.062054,-108.20638,-10.25189,STD
3442342150000,1.164893,-1.83986089690125,9.35528999295299,-0.291467184884641,0.27580565,0.838718,-0.013744468,49.019802,-108.24973,-10.322863,STD
3442347210000,1.169953,-1.77904784448306,9.38335763075586,-0.305500964708949,0.2724459,0.86284715,0.00030543262,48.977936,-108.29012,-10.38719,STD
3442352166000,1.174909,-1.71516571364851,9.41126350770812,-0.305776708480987,0.2593123,0.8943067,0.004886922,48.928734,-108.325745,-10.447342,STD
3442357220000,1.179963,-1.63557487494347,9.44110963720452,-0.261006859761562,0.24801129,0.9263771,0.0067195175,48.87475,-108.35841,-10.501006,STD
3442362213000,1.184956,-1.54616541319661,9.46818271734285,-0.242438805207312,0.23090707,0.9636399,0.01282817,48.797184,-108.378654,-10.536775,STD
3442368009000,1.190752,-1.41253249610343,9.49292954427107,-0.291932500408382,0.21563543,0.9987647,0.008552114,48.71228,-108.39786,-10.57161,STD
3442372315000,1.195058,-1.32097520093626,9.51132949765934,-0.325923539531869,0.21135938,1.0485502,0.0143553335,48.606052,-108.396,-10.584018,STD
3442377217000,1.19996,-1.31252264897371,9.53246087756572,-0.330149815513144,0.19547687,1.0903945,0.014049901,48.49344,-108.390076,-10.596739,STD
3442382387000,1.20513,-1.30360798278718,9.55474754303205,-0.33460714860641,0.18295415,1.1435398,0.013439035,48.344135,-108.3751,-10.577289,WAL
3442387227000,1.20997,-1.31045964931204,9.57368103334338,-0.383271373528171,0.15943582,1.1859949,0.011911872,48.188473,-108.35476,-10.555895,WAL
3442392197000,1.21494,-1.32002009844331,9.59280233092297,-0.440634113238927,0.14202617,1.2299771,0.0061086523,48.019733,-108.33446,-10.5318165,WAL
3442397209000,1.219952,-1.33346470413875,9.58805063204573,-0.454065031379582,0.1441642,1.2913691,0.005192355,47.836018,-108.312126,-10.500055,WAL
3442402170000,1.224913,-1.34750998541585,9.5786869156484,-0.458746791805282,0.13316862,1.3423764,-0.014049901,47.643993,-108.28766,-10.472613,WAL
3442407221000,1.229964,-1.3795966996818,9.57030310869201,-0.453182964328421,0.14905111,1.4059063,-0.029626964,47.423073,-108.27843,-10.439401,WAL
3442412199000,1.234942,-1.4155253375649,9.56231880020097,-0.445198810071177,0.13713925,1.452943,-0.04184427,47.194824,-108.26352,-10.407956,WAL
3442417222000,1.239965,-1.46982295628907,9.54433241221625,-0.429432450994627,0.16371189,1.5100589,-0.056505036,46.94432,-108.264534,-10.377246,WAL
3442422232000,1.244975,-1.54874575714442,9.51276375337208,-0.403124858034872,0.17806722,1.5482379,-0.06811147,46.689335,-108.26202,-10.346714,WAL
3442427219000,1.249962,-1.62960935419342,9.47272843026934,-0.356945116407553,0.18936823,1.5775595,-0.086437434,46.42852,-108.27182,-10.326216,WAL
3442432259000,1.255002,-1.71288432783476,9.42646458286207,-0.296802076131506,0.19394971,1.5827519,-0.09193522,46.16836,-108.283325,-10.303625,WAL
3442437429000,1.260172,-1.80144706977364,9.39356015645805,-0.276299174513981,0.20158553,1.5882497,-0.09560041,45.908016,-108.30499,-10.297229,WAL
3442442218000,1.264961,-1.88600512276964,9.37476935265799,-0.29039217680631,0.20372356,1.5858061,-0.09621128,45.652905,-108.32666,-10.290599,WAL
3442447196000,1.269939,-1.98276684648124,9.32668877759081,-0.291623869820845,0.20280726,1.5803084,-0.10140363,45.4057,-108.35144,-10.304806,WAL
3442452212000,1.274955,-2.08737142302286,9.25536729486291,-0.282114361959814,0.19058995,1.5381587,-0.10262536,45.174316,-108.37335,-10.319664,WAL
3442457221000,1.279964,-2.18582633900613,9.20489547651463,-0.265177804765146,0.19303341,1.5036448,-0.1001819,44.948734,-108.41035,-10.350067,WAL
3442462209000,1.284952,-2.27873517572693,9.17237718963337,-0.241950576182048,0.19394971,1.4569136,-0.08979719,44.743305,-108.44254,-10.38091,WAL
3442467262000,1.290005,-2.36268603642137,9.15779518356855,-0.22037081613004,0.20280726,1.4175128,-0.07880162,44.56611,-108.49169,-10.433339,WAL
3442472224000,1.294967,-2.43454104853831,9.16258561441532,-0.201209477898186,0.2012801,1.3710871,-0.06383542,44.408745,-108.53527,-10.483604,WAL
3442477217000,1.29996,-2.49689231406293,9.19108000984952,-0.187190103398997,0.20616703,1.3246613,-0.055283304,44.27364,-108.59314,-10.5561285,WAL
3442482276000,1.305019,-2.54991464804378,9.24410192859097,-0.178353066190606,0.19853121,1.2932017,-0.042760566,44.151817,-108.643196,-10.623185,WAL
3442487221000,1.309964,-2.58866889432809,9.30044148982864,-0.162124330173364,0.20525073,1.2757921,-0.025961773,44.05379,-108.7002,-10.701114,WAL
3442492217000,1.31496,-2.59825812030264,9.36756682262752,-0.128561844008418,0.20708331,1.2522738,-0.016187929,43.968884,-108.751854,-10.777638,WAL
3442497196000,1.319939,-2.59711006203585,9.44668293544601,-0.110013726527956,0.21746802,1.2434162,-0.0067195175,43.879765,-108.809044,-10.86207,WAL
3442502235000,1.324978,-2.57136438514725,9.5548144342723,-0.12546107889458,0.2302962,1.2415836,-0.0012217305,43.797813,-108.86474,-10.943257,WAL
3442507161000,1.329904,-2.56084349884524,9.62278627752011,-0.145583782373876,0.24740042,1.2373075,0.011911872,43.724655,-108.911385,-11.019021,WAL
3442512200000,1.334943,-2.56997894590629,9.64105688547089,-0.172989851694274,0.2660318,1.2473868,0.03023783,43.65056,-108.958405,-11.08831,WAL
3442517237000,1.33998,-2.58042882215831,9.66195647402538,-0.21429733118415,0.28130344,1.2415836,0.036957346,43.57779,-108.99997,-11.14855,WAL
3442522315000,1.345058,-2.59374873188168,9.68859638619556,-0.285336900706656,0.30176744,1.2269229,0.062002823,43.50911,-109.039825,-11.196521,WAL
3442527209000,1.349952,-2.60924257903145,9.71585470069326,-0.361547786388024,0.33261612,1.1976013,0.07238753,43.446808,-109.090096,-11.246413,WAL
3442532242000,1.354985,-2.64314193006129,9.75459711956194,-0.492302527209886,0.3631594,1.1972959,0.086437434,43.38385,-109.13889,-11.2854595,WAL
3442537235000,1.359978,-2.67061289638727,9.80000092057727,-0.620449497960432,0.37812558,1.1640037,0.095294975,43.296844,-109.2061,-11.335319,WAL
3442542242000,1.364985,-2.66144706677817,9.88707620615502,-0.739605359445666,0.41355577,1.1322387,0.11209377,43.21319,-109.27926,-11.376825,WAL
3442547357000,1.3701,-2.65204366708784,9.97750618113818,-0.855629067209138,0.46120325,1.094976,0.13316862,43.140217,-109.37544,-11.416328,WAL
3442552998000,1.375741,-2.64112231931669,10.0976412917214,-0.904775417279895,0.4896085,1.0464121,0.16065755,43.08239,-109.468216,-11.450417,WAL
3442557236000,1.379979,-2.62519672435045,10.194287460423,-0.937925245045317,0.52870387,0.9960158,0.18295415,42.99591,-109.586624,-11.481663,WAL
3442562200000,1.384943,-2.51029818499784,10.3871533217954,-0.929718212641347,0.53969944,0.947452,0.22021692,42.927513,-109.69428,-11.502679,WAL
3442567337000,1.39008,-2.39139532507553,10.5867407371601,-0.92122515755287,0.5476407,0.90285885,0.24556783,42.86967,-109.80343,-11.516162,WAL
3442572287000,1.39503,-2.31674215517176,10.6581010958436,-0.915892798481685,0.5555819,0.8558222,0.26236662,42.829216,-109.90702,-11.524291,WAL
3442577156000,1.399899,-2.25479367134181,10.6934999918391,-0.911467918000569,0.552833,0.82863873,0.27916542,42.79815,-110.0027,-11.526199,WAL
3442582213000,1.404956,-2.21237832496143,10.6910219374679,-0.86225241944873,0.54275376,0.8222246,0.2947425,42.732906,-110.0654,-11.500008,WAL
3442587213000,1.409956,-2.18282942030238,10.666397850252,-0.788380075521958,0.5271767,0.8145888,0.31245756,42.677994,-110.12174,-11.470696,WAL
3442592216000,1.414959,-2.19493435149996,10.6319871535775,-0.703147014175696,0.50640726,0.8170323,0.31429017,42.61697,-110.16434,-11.428137,WAL
3442597203000,1.419946,-2.22487224987911,10.5934956592639,-0.613333274379869,0.49113566,0.8414669,0.33078352,42.55529,-110.19871,-11.375893,WAL
3442602241000,1.424984,-2.27875090004186,10.6271008493093,-0.527253519681875,0.4700608,0.8732319,0.34269542,42.494072,-110.21602,-11.322052,WAL
3442607222000,1.429965,-2.35862047402679,10.741913003558,-0.4473839873964,0.47433686,0.9049969,0.33933565,42.426765,-110.235596,-11.266507,WAL
3442612199000,1.434942,-2.47082736654095,10.846698912581,-0.378598269610289,0.45631635,0.92087936,0.34972036,42.36851,-110.23318,-11.214203,WAL
3442617268000,1.440011,-2.61165949010734,10.9452814284885,-0.317571019332753,0.44623706,0.92485,0.32375857,42.302044,-110.24045,-11.171764,WAL
3442623096000,1.445839,-2.79078872392157,11.1034570725968,-0.199270858976375,0.43188173,0.9114109,0.28955013,42.250626,-110.23398,-11.143685,WAL
3442627217000,1.44996,-2.92668314313726,11.2393519253945,-0.0898003102864658,0.41691554,0.9138544,0.2761111,42.19373,-110.22654,-11.115649,WAL
3442632211000,1.454954,-3.10594477211042,11.3927196967654,0.0541622879845116,0.40011674,0.8894198,0.2648101,42.13827,-110.21815,-11.128225,WAL
3442637230000,1.459973,-3.30851982992308,11.5294574364134,0.216222327360025,0.3903429,0.8570439,0.23732115,42.082355,-110.21355,-11.148567,WAL
3442642222000,1.464965,-3.49007971737089,11.6468520478873,0.352948055579343,0.37782016,0.8151997,0.22388211,42.061028,-110.19738,-11.204345,WAL
3442647201000,1.469944,-3.65126140140845,11.7453520957746,0.464879799825352,0.35979962,0.732122,0.20158553,42.057163,-110.185036,-11.274217,WAL
3442652270000,1.475013,-3.8035417724659,11.8063016690451,0.574327044826863,0.312763,0.6575964,0.18112154,42.086914,-110.158615,-11.384865,WAL
3442657223000,1.479966,-3.93295217649528,11.8013242418678,0.673873561437566,0.25778514,0.5821546,0.16462818,42.137783,-110.13173,-11.504176,WAL
3442662201000,1.484944,-4.02664388959267,11.8071855352758,0.719277720035081,0.19272798,0.50701815,0.13988814,42.23048,-110.09676,-11.666418,WAL
3442667276000,1.490019,-4.07874151919704,11.8261299929838,0.700333163418437,0.11881329,0.43463063,0.122478485,42.341248,-110.0528,-11.832531,WAL
3442672265000,1.495008,-4.11849274501952,11.8509929269196,0.713632700630694,0.03726278,0.34972036,0.1133155,42.491665,-110.00219,-12.031482,WAL
3442677214000,1.499957,-4.14221663289619,11.8842065681249,0.770570061261388,-0.06566802,0.2770274,0.08979719,42.654545,-109.94141,-12.238485,WAL
3442682191000,1.504934,-4.16194004878049,11.950687097561,0.785765309268293,-0.16768251,0.20769419,0.058643065,42.840225,-109.87942,-12.459481,WAL
3442687252000,1.509995,-4.1759027519685,12.0670405275591,0.739223908110236,-0.26389378,0.1572978,0.03268129,43.0375,-109.8066,-12.683798,WAL
3442692308000,1.515051,-4.1713680664957,12.1844814826891,0.678246327074556,-0.35033122,0.112399206,0.01282817,43.237915,-109.71364,-12.915913,WAL
3442697186000,1.519929,-4.13285876296025,12.3000084997252,0.592670819794834,-0.441961,0.08246681,-0.012217305,43.44411,-109.61495,-13.15315,WAL
3442702191000,1.524934,-4.07517695228101,12.4189965420303,0.491970473060864,-0.54641896,0.0290161,-0.04550946,43.661736,-109.51255,-13.39435,WAL
3442707225000,1.529968,-3.90476851768475,12.5414776600022,0.31091139452999,-0.6621779,-0.034513887,-0.08552113,43.886604,-109.40693,-13.640728,WAL
3442712201000,1.534944,-3.74020119608811,12.6164298797185,0.139321920030162,-0.7819075,-0.09590584,-0.12461651,44.110855,-109.2958,-13.878207,WAL
3442717235000,1.539978,-3.58157337322,12.5988044382598,-0.0193059212421168,-0.9053023,-0.17745635,-0.16646078,44.354397,-109.18332,-14.126645,WAL
3442722218000,1.544961,-3.41931131076211,12.561114535447,-0.181567998516148,-1.0198395,-0.25473082,-0.20311269,44.58306,-109.057,-14.34474,WAL
3442727219000,1.549962,-3.2259637182946,12.4054936183537,-0.374915586059472,-1.1459832,-0.30757064,-0.23762658,44.82408,-108.92878,-14.571597,WAL
3442732301000,1.555044,-3.01784262098765,12.2332085067607,-0.570650455908289,-1.2113458,-0.42149702,-0.24770586,45.076633,-108.80289,-14.772445,WAL
3442737233000,1.559976,-2.74016594691358,11.9740431663727,-0.755768262786596,-1.3411547,-0.5537493,-0.26450464,45.346333,-108.66822,-14.983451,WAL
3442742208000,1.564951,-2.45788919522968,11.7116560600707,-0.937951773586572,-1.4758505,-0.68630713,-0.28619036,45.616467,-108.53944,-15.16976,WAL
3442747206000,1.569949,-2.14632682336805,11.43570083634,-1.06257674556909,-1.609019,-0.84238315,-0.27763826,45.93155,-108.4027,-15.355939,WAL
3442752219000,1.574962,-1.83382939036638,11.1589174156593,-1.18757574207737,-1.7449366,-0.9841039,-0.269697,46.24127,-108.24317,-15.50146,WAL
3442757223000,1.579966,-1.4997915257807,10.9336274587473,-1.22458917068843,-1.9074267,-1.14018,-0.24953845,46.600414,-108.07292,-15.645498,WAL
3442762535000,1.585278,-1.14325429881121,10.6989449292938,-1.25618105599716,-2.060143,-1.2739595,-0.21563543,46.993614,-107.89987,-15.784577,WAL
3442767219000,1.589962,-0.763767155758253,10.5194028397664,-1.21531575478923,-2.2171354,-1.3949108,-0.16065755,47.39338,-107.69184,-15.870786,WAL
3442772159000,1.594902,-0.336084154397156,10.3416017275267,-1.1432343557034,-2.3683245,-1.5082263,-0.092240654,47.82963,-107.47674,-15.945132,WAL
3442777213000,1.599956,0.0897462749617455,10.2001292384528,-1.12680942181921,-2.4984388,-1.6053538,-0.013133603,48.262005,-107.20844,-15.9487095,WAL
3442782303000,1.605046,0.513343815492585,10.0758127073297,-1.13601805731558,-2.6169467,-1.6963727,0.0720821,48.7253,-106.9334,-15.932177,WAL
3442787223000,1.609966,0.893253385326906,9.98481796861505,-1.2799690143015,-2.6826148,-1.783421,0.172264,49.191055,-106.59637,-15.830712,WAL
3442792217000,1.61496,1.25830500497138,9.91276859721804,-1.52013457201968,-2.7094927,-1.8558086,0.27275133,49.677605,-106.260826,-15.704947,WAL
3442797200000,1.619943,1.60570692511081,9.92393257631528,-2.03871372432068,-2.733011,-1.9168952,0.37720928,50.155277,-105.86428,-15.486607,WAL
3442802223000,1.624966,1.94407799499904,9.99346056672769,-2.75717270674504,-2.7284296,-1.915368,0.49266282,50.632965,-105.470436,-15.236225,WAL
3442807220000,1.629963,2.04553827011026,10.1103654172544,-3.24769341397636,-2.7256808,-1.858863,0.6032294,51.069607,-105.03458,-14.9043865,WAL
3442812205000,1.634948,1.92698158038144,10.2716029569882,-3.527486999702,-2.698192,-1.7058412,0.68477994,51.47302,-104.607796,-14.55001,WAL
3442817219000,1.639962,1.70594163557816,10.4499252452849,-3.63465962814259,-2.6700919,-1.4657712,0.7501425,51.740192,-104.15123,-14.128968,WAL
3442822225000,1.644968,1.38402780751457,10.6440198328231,-3.56838319362101,-2.6410758,-1.3231341,0.7834347,51.98775,-103.707,-13.703393,WAL
3442827214000,1.649957,1.01452950480716,10.8683354591019,-3.39369585209614,-2.626415,-0.9999864,0.7809912,52.082474,-76.699715,-13.30015,WAL
3442832216000,1.654959,0.590567981296814,11.1271752122228,-3.09915424242594,-2.626415,-0.6209445,0.7476991,52.116756,-77.08487,-12.90871,WAL
3442837208000,1.659951,0.168322698647513,11.4111400816965,-2.72833617751393,-2.6438248,-0.21288654,0.655153,52.061867,-77.38879,-12.589902,WAL
3442842221000,1.664964,-0.253915937535425,11.7489309436138,-2.19819210152448,-2.6642888,0.21868975,0.5290093,51.890106,-77.655525,-12.301847,WAL
3442847190000,1.669933,-0.617839248099658,12.062943903615,-1.602547393234,-2.7006352,0.6078109,0.3820962,51.662132,-77.83057,-12.091999,WAL
3442852195000,1.674938,-0.842629862022472,12.3251997910112,-0.820463330337079,-2.7250698,0.8594874,0.23182335,51.353523,-77.952614,-11.928041,WAL
3442857156000,1.679899,-1.01024054046301,12.5422554886277,-0.114079083888409,-2.733622,0.9468411,0.09437868,51.04616,-77.97334,-11.840378,WAL
3442862200000,1.684943,-0.988168719119663,12.6133758374118,0.364143754564147,-2.7269025,0.8927795,0.005497787,50.714397,-77.9492,-11.786431,WAL
3442867224000,1.689967,-0.9661844149109,12.6842141863989,0.84047038826471,-2.7235427,0.7079928,-0.064446285,50.472294,-77.83224,-11.776113,WAL
3442872226000,1.694969,-0.944296379550185,12.7547423356095,1.31471119673808,-2.7345383,0.48441613,-0.124311075,50.263702,-77.671196,-11.788991,WAL
3442877154000,1.699897,-0.904171693569717,12.7559380069957,1.63547349873503,-2.7229319,0.22052236,-0.15821409,50.121918,-77.484795,-11.805195,WAL
3442882231000,1.704974,-0.815641974360326,12.583537974988,1.59353840315285,-2.6978865,-0.029932396,-0.17959438,50.04627,-77.26845,-11.831845,WAL
3442887179000,1.709922,-0.740672140574306,12.3830506106657,1.53754981270744,-2.6542094,-0.24556783,-0.20677789,50.113026,-76.98172,-11.838424,WAL
3442892220000,1.714963,-0.709165843576356,12.0499836664181,1.42052637685997,-2.5940392,-0.41508293,-0.22968534,50.239365,-76.66991,-11.84523,WAL
3442897281000,1.720024,-0.675938759356586,11.7066399637132,1.30158479248267,-2.514016,-0.552833,-0.25167647,50.415047,-76.34829,-11.841808,WAL
3442902194000,1.724937,-0.624973802816291,11.2683415056326,1.16907588206239,-2.430022,-0.64965516,-0.2929099,50.628063,-76.00785,-11.846397,WAL
3442907186000,1.729929,-0.55786525396091,10.844673795373,1.05695175137615,-2.350915,-0.7147123,-0.35002577,50.8617,-75.65882,-11.86077,WAL
3442912196000,1.734939,-0.433466074662944,10.5001833376546,1.02824422155963,-2.2791383,-0.72692966,-0.4071417,51.10795,-75.30304,-11.885118,WAL
3442917215000,1.739958,-0.309020099314575,10.1737544578405,1.01137984831171,-2.2058344,-0.7125743,-0.47128254,51.359177,-74.94196,-11.92707,WAL
3442922237000,1.74498,-0.185159210980733,9.91685836856162,1.03890451826593,-2.1450534,-0.691194,-0.535118,51.612843,-74.57525,-11.9843235,WAL
3442927207000,1.74995,-0.0680616534651756,9.66500146134981,1.07050930077497,-2.123673,-0.6404922,-0.57451874,51.850437,-74.20612,-12.038591,WAL
3442932230000,1.754973,0.00744048552678045,9.42905695055915,1.136573675103,-2.060143,-0.57848936,-0.6444628,52.08211,-73.83537,-12.120209,WAL
3442937210000,1.759953,0.0824016050652624,9.19280320425052,1.19778174077487,-1.9908098,-0.5308419,-0.69027776,52.300194,-73.46494,-12.189156,WAL
3442942230000,1.764973,0.159257420799699,8.92606861519654,1.20682359445176,-1.930945,-0.45753807,-0.73945236,52.49654,-73.09171,-12.28204,WAL
3442947872000,1.770615,0.231497895305155,8.63017002862017,1.22325558754738,-1.8606955,-0.37110063,-0.75502944,52.6708144064871,-72.6912609474529,-12.3950851965798,WAL
3442967141000,1.789884,-0.144498419436126,7.79073591158074,1.55553134112017,-1.5974126,-0.19150625,-0.8374963,53.26601,-71.323616,-12.781166,WAL
3442972144000,1.794887,-0.327517545212336,7.62056291999212,1.65436812859395,-1.5253305,-0.22113322,-0.8713993,53.39995,-70.978355,-12.906277,WAL
3442977139000,1.799882,-0.54433328414228,7.46973449256084,1.75806263554045,-1.466382,-0.28069258,-0.92149025,53.54776,-70.64213,-13.03985,WAL
3442982418000,1.805161,-0.80589582719704,7.35284354856614,1.84183880037003,-1.396438,-0.36163223,-0.9575313,53.73163,-70.28379,-13.202347,WAL
3442987143000,1.809886,-1.05240336558742,7.26447308140611,1.90695400157262,-1.3322971,-0.46028697,-0.9950995,53.941788,-69.93236,-13.370246,WAL
3442992137000,1.81488,-1.24177225284944,7.1776902386464,1.96998720417852,-1.2696834,-0.5513059,-1.0122037,54.18204,-69.55085,-13.563626,WAL
3442997137000,1.81988,-1.40616077663561,7.09314732545365,2.03104576229524,-1.2030991,-0.64660084,-1.01312,54.453144,-69.18525,-13.751445,WAL
3443002176000,1.824919,-1.55735958041687,6.92991644790111,1.99367387211827,-1.1481212,-0.7492262,-0.99387777,54.75571,-68.796135,-13.971035,WAL
3443007182000,1.829925,-1.70143968570044,6.73471142106641,1.91466220617547,-1.0662653,-0.8029824,-0.9431759,55.068188,-68.437904,-14.174537,WAL
3443012151000,1.834894,-1.80507135630188,6.48748756927774,1.87204320684095,-0.91874135,-0.8054258,-0.88361657,55.390038,-68.082184,-14.391285,WAL
3443017238000,1.839981,-1.88873801847152,6.20395043962408,1.84880249431352,-0.784351,-0.8005389,-0.8197812,55.718784,-67.7561,-14.585573,WAL
3443022178000,1.844921,-1.87437929320133,5.97096171461363,1.82265996638339,-0.65209866,-0.8127562,-0.7840455,56.032368,-67.45138,-14.807456,WAL
3443027178000,1.849921,-1.78208483026108,5.76959208083056,1.79329353042755,-0.59742624,-0.80756384,-0.70554936,56.328743,-67.1819,-14.998284,WAL
3443032146000,1.854889,-1.68434150446811,5.54273996620924,1.7893814538698,-0.49938235,-0.7892379,-0.6206391,56.618366,-66.93121,-15.200861,WAL
3443037209000,1.859952,-1.56723507594687,5.23400490721265,1.85858069698101,-0.42271876,-0.7984009,-0.5497787,56.906853,-66.7016,-15.380419,WAL
3443042176000,1.864919,-1.41113928318481,5.00657153380473,1.92290662280124,-0.34574974,-0.7892379,-0.46731192,57.16113,-66.50649,-15.527475,WAL
3443047162000,1.869905,-1.20300797621077,4.87244257985277,1.98303346520728,-0.26083946,-0.78954333,-0.3912592,57.412827,-66.342674,-15.653335,WAL
3443052575000,1.875318,-0.888338081717568,4.72288726183805,2.06779597747268,-0.16187929,-0.7984009,-0.32436943,57.666412,-66.19071,-15.746976,WAL
3443057219000,1.879962,-0.514496450392267,4.58996571966938,2.16333329795461,-0.06963864,-0.8023715,-0.24648413,57.90834,-66.072464,-15.816832,WAL
3443062204000,1.884947,-0.182858192804906,4.45102158009066,2.26365035992356,0.027183503,-0.818254,-0.17684549,58.15526,-65.98859,-15.831441,WAL
3443067286000,1.890029,-0.0660621782174029,4.32124836706071,2.35881746110568,0.10048734,-0.8170323,-0.11636983,58.38916,-65.93236,-15.829237,WAL
3443072623000,1.895366,0.0497461342089062,4.19277947570285,2.46209026928996,0.19425514,-0.82436264,-0.055588737,58.642048,-65.93344,-15.733021,WAL
3443077221000,1.899964,0.0723370206378001,4.17018832130105,2.58859919592653,0.29168814,-0.82863873,0.020463986,58.883415,-65.964874,-15.617577,WAL
3443082363000,1.905106,0.0916244404239729,4.14986474441759,2.73189857137748,0.36682457,-0.82833326,0.08002335,59.139812,-66.00576,-15.473373,WAL
3443087228000,1.909971,0.0375795913693572,4.19039872991783,2.88952941521508,0.45814893,-0.8038987,0.12736541,59.38126,-66.08192,-15.315015,WAL
3443092543000,1.915286,-0.0230086956227076,4.23625334577458,3.06656654663165,0.56779927,-0.75869465,0.16126843,59.623226,-66.16357,-15.144352,WAL
3443097208000,1.919951,-0.109470021439683,4.31036283153626,3.32595056363469,0.6600399,-0.6951646,0.18448131,59.846367,-66.26635,-14.969334,WAL
3443102168000,1.924911,-0.201398890904248,4.38915876923786,3.60173721408165,0.7626653,-0.6264423,0.19730948,60.06991,-66.367,-14.802729,WAL
3443107221000,1.929964,-0.30297411832775,4.52759446635958,3.96759456306533,0.8536842,-0.5519168,0.20219639,60.269405,-66.48594,-14.640353,WAL
3443112202000,1.934945,-0.405072358189094,4.67852242817793,4.34935317085427,0.94042706,-0.49113566,0.18600847,60.451397,-66.6227,-14.487302,WAL
3443117294000,1.940037,-0.531311704088209,4.91249994203001,4.81912315781895,0.98715824,-0.45631635,0.1563815,60.653538,-66.71036,-14.357797,WAL
3443122387000,1.94513,-0.668829678692982,5.18753594252341,5.32990418437217,1.0177015,-0.43554693,0.1133155,60.842735,-66.80569,-14.242618,WAL
3443127217000,1.94996,-0.835499423688663,5.57824442244783,5.77987556322617,1.0180069,-0.40866885,0.08460484,61.065052,-66.82835,-14.151881,WAL
3443132203000,1.954946,-1.02402154602369,6.04057242075578,6.22873770569656,0.99296147,-0.40286562,0.019242255,61.29222,-66.83577,-14.08441,WAL
3443137231000,1.959974,-1.27857305262722,6.6025031423252,6.64384130502689,0.9062186,-0.42638394,-0.022296581,61.569347,-66.74635,-14.032781,WAL
3443142216000,1.964959,-1.58472774542822,7.23950240587505,7.02406588948076,0.77213365,-0.4269948,-0.059253927,61.840847,-66.629326,-14.001222,WAL
3443147196000,1.969939,-1.91210119592727,7.88687301935895,7.0636306519555,0.61453044,-0.42455134,-0.0842994,62.152027,-66.416985,-13.998011,WAL
3443152276000,1.975019,-2.26021561525681,8.55448943770829,6.88003598130269,0.4251622,-0.41813725,-0.09865474,62.46027,-66.165436,-14.002044,WAL
3443157214000,1.979957,-2.59859927719565,9.203444137277,6.70157328766418,0.25350907,-0.40286562,-0.10415252,62.778152,-65.84,-14.041606,WAL
3443162192000,1.984935,-2.9397239975544,9.85765565903744,6.52166496669771,0.11636983,-0.3622431,-0.086437434,63.080357,-65.48888,-14.080017,WAL
3443167234000,1.989977,-3.21810645998624,10.4536111472381,6.2928401295459,0.03848451,-0.33750305,-0.053145275,63.37591,-65.122314,-14.113695,WAL
3443172305000,1.995048,-3.43768011203067,10.9929992718695,6.02075959701199,0.009468411,-0.3652974,-0.01038471,63.66629,-64.74883,-14.136755,WAL
3443177217000,1.99996,-3.54576695996823,11.4030560341541,5.78639931235107,0.004276057,-0.44165558,0.045814894,63.836075,-64.49373,-14.223813,WAL
3443182199000,2.004942,-3.55050401493249,11.7062279475774,5.57796879499603,0.0125227375,-0.5357288,0.06811147,64.01336,-64.24696,-14.298925,WAL
3443187219000,2.009962,-3.47808190605011,11.9405770983907,5.41451272955795,0.037873644,-0.6273586,0.06872234,64.13556,-64.0902,-14.377605,WAL
3443192222000,2.014965,-3.32191890203707,12.0967396947443,5.30227069463231,0.05375614,-0.6933321,0.04917465,64.273636,-63.940407,-14.443698,WAL
3443197194000,2.019937,-3.09783522778648,12.1985039306562,5.22890295767875,0.093767814,-0.72295904,0.005192355,64.38174,-63.865864,-14.496568,WAL
3443202232000,2.024975,-2.80485065852106,12.2504856297747,5.19109856557297,0.116980694,-0.72082096,-0.065973446,64.50236,-63.78658,-14.554825,WAL
3443207206000,2.029949,-2.46767084797631,12.2529347972359,5.23615102398815,0.15668693,-0.6914995,-0.1563815,64.606155,-63.760273,-14.592032,WAL
3443212223000,2.034966,-2.07399978430405,12.2007609688055,5.37369854215202,0.23732115,-0.6389651,-0.23151793,64.70756,-63.74055,-14.644821,WAL
3443217211000,2.039954,-1.67246529799074,12.1299766659116,5.5629927900522,0.31856623,-0.605062,-0.2733622,64.80753,-63.764683,-14.652991,WAL
3443222192000,2.044935,-1.25901286235595,12.0360102701665,5.81670225480154,0.3585779,-0.52442783,-0.32436943,64.88819,-63.78304,-14.693603,WAL
3443227169000,2.049912,-0.865854499388391,11.9584685376121,6.1064223752336,0.46181414,-0.42424592,-0.33078352,64.97557,-63.853344,-14.667031,WAL
3443232248000,2.054991,-0.493991490017933,11.9033780459651,6.45533093159037,0.52564955,-0.32375857,-0.3100141,65.04183,-63.918137,-14.656503,WAL
3443237159000,2.059902,-0.154016682512014,11.8773098959766,6.77312153215867,0.5681047,-0.21074851,-0.2593123,65.10188,-64.003174,-14.582428,WAL
3443242193000,2.064936,0.145788900719872,11.9181923508904,7.05021455927636,0.5714644,-0.12950343,-0.17684549,65.13587,-64.10057,-14.504125,WAL
3443247168000,2.069911,0.411908165991189,12.0061306013216,7.32739632731278,0.56199604,-0.089186326,-0.07422013,65.175156,-64.19791,-14.354685,WAL
3443252232000,2.074975,0.529411794255507,12.337277161674,7.62649646792952,0.49205196,-0.10934488,0.061086524,65.19459,-64.29829,-14.180977,WAL
3443257098000,2.079841,0.614632789939832,12.6859846052948,7.79047310036101,0.36132678,-0.16371189,0.19761491,65.2193,-64.38964,-13.932912,WAL
3443262132000,2.084875,0.648474304223827,13.1065861083033,7.71795563465704,0.18142697,-0.21685717,0.3042109,65.2355,-64.46553,-13.661474,WAL
3443267140000,2.089883,0.67703432103486,13.5801982948654,7.41136720583971,-0.01863139,-0.19914207,0.43096542,65.235825,-64.52211,-13.331731,WAL
3443272140000,2.094883,0.696056666848744,14.1556248516238,6.66949522252458,-0.20250183,-0.09010262,0.5510005,65.211754,-64.54869,-12.989084,WAL
3443277108000,2.099851,0.653658771402688,14.7010956592334,5.75885111376804,-0.34116822,0.0870483,0.65148777,65.12074,-64.593285,-12.618694,WAL
3443282183000,2.104926,0.484312796489796,15.2042951714286,4.4718216155102,-0.41599923,0.2929099,0.70463306,64.98282,-64.61158,-12.255729,WAL
3443287132000,2.109875,0.293563360664653,15.5678375599194,3.22709458006042,-0.37018433,0.5326745,0.7104363,64.68357,-64.77247,-11.896713,WAL
3443292136000,2.114879,0.0478752617248009,15.6731322932345,1.98987949371052,-0.2510656,0.7516697,0.6533204,64.33993,-64.92224,-11.572888,WAL
3443297122000,2.119865,-0.200843276535744,15.6970311352868,0.804463703044472,-0.0421497,0.9138544,0.5699373,63.806293,-65.284676,-11.315466,WAL
3443302175000,2.124918,-0.477395468154613,15.2143215735661,-0.100616184389028,0.19028452,0.98990715,0.45081854,63.25895,-65.659,-11.104302,WAL
3443307648000,2.130391,-0.766610542298176,14.1699465391735,-0.984072426328232,0.42424592,0.98837996,0.2843578,62.55421,-66.215195,-11.029341,WAL
3443312158000,2.134901,-0.98428918648401,12.2662479741593,-1.51837457287822,0.63713247,0.9624182,0.13225232,61.863388,-66.79425,-10.982596,WAL
3443317323000,2.140066,-1.21268098914874,10.1475535683401,-2.07380730730693,0.7305948,0.86315256,-0.0036651916,61.12085,-67.42009,-11.051616,WAL
3443322181000,2.144924,-1.16432412086062,8.92896105300904,-1.88521551593389,0.8671232,0.77518797,-0.061086524,60.40715,-68.079285,-11.121163,WAL
3443327174000,2.149917,-1.10213258389272,7.72858871193059,-1.67420371168409,0.93309665,0.68600166,-0.16584991,59.86909,-68.63524,-11.230099,WAL
3443332184000,2.154927,-0.946016083557484,6.91489081171367,-1.33358590444685,0.97494096,0.59773165,-0.23487769,59.362423,-69.202805,-11.327324,WAL
3443337234000,2.159977,-0.815666352342621,6.13599995782102,-1.02996768466755,0.98929626,0.4999932,-0.28863382,58.95605,-69.666466,-11.4563055,WAL
3443342217000,2.16496,-0.925887878266254,5.73263601309155,-1.08156074935869,1.0021244,0.44043383,-0.29810223,58.566902,-70.12594,-11.579507,WAL
3443347197000,2.16994,-1.03604304565531,5.32951491239864,-1.13312275260209,1.0277808,0.44929138,-0.27000242,58.225014,-70.5011,-11.714088,WAL
3443352233000,2.174976,-1.14743690568971,4.92186072302324,-1.18526456953659,1.0836749,0.47708577,-0.20158553,57.891956,-70.88361,-11.828586,WAL
3443357445000,2.180188,-1.27731307335131,4.53075185553332,-1.23756025863059,1.1481212,0.5348125,-0.10781772,57.53861,-71.27374,-11.928329,WAL
3443362201000,2.184944,-1.57055299654602,4.54263999351836,-1.26529919209153,1.1899655,0.59986967,0.004276057,57.169647,-71.67869,-11.99794,WAL
3443367262000,2.190005,-1.88259825543762,4.55529051209327,-1.29481701005742,1.244638,0.62796944,0.124005646,56.855812,-72.062004,-12.069688,WAL
3443372233000,2.194976,-2.25946015035623,4.77146442431173,-1.19445083624769,1.2647965,0.61269784,0.25442538,56.528347,-72.4619,-12.103944,WAL
3443377696000,2.200439,-2.70123497459759,5.08899018735157,-1.03338709423872,1.2504412,0.5164866,0.35827246,56.211468,-72.87572,-12.10437,WAL
3443382198000,2.204941,-3.10557889181895,5.48139528753719,-0.870718155747981,1.2147056,0.33383787,0.43493605,55.943672,-73.26347,-12.115559,WAL
3443387243000,2.209986,-3.60351278036549,6.06659583008925,-0.655117893795155,1.185384,0.090713486,0.4905248,55.718628,-73.65615,-12.092909,WAL
3443392217000,2.21496,-3.92723235413563,6.75493930883967,-0.468197355262642,1.1704178,-0.18234327,0.528093,55.578617,-73.977264,-12.108716,WAL
3443397204000,2.219947,-4.1284926994512,7.52721716553312,-0.299700363460408,1.1725558,-0.44593164,0.56505036,55.505634,-74.29577,-12.097505,WAL
3443402170000,2.224913,-4.14219236731794,8.14706009209591,-0.204697860686057,1.2263119,-0.6936375,0.591623,55.531895,-74.548195,-12.129995,WAL
3443407222000,2.229965,-3.98535890486679,8.64119262275311,-0.174620224581261,1.3213016,-0.8888089,0.6114761,55.619183,-74.80141,-12.145659,WAL
3443412193000,2.234936,-3.8310399931794,9.12740260095915,-0.145024830860568,1.4223998,-0.9746355,0.6062838,55.73745,-75.0366,-12.16608,WAL
3443417297000,2.24004,-3.67259225122558,9.6266212146714,-0.114637607052398,1.4837917,-1.1154399,0.5717699,55.928642,-75.26399,-12.179745,WAL
3443422527000,2.24527,-3.49919080957018,10.1150307008059,-0.0792868262820685,1.5937474,-1.196685,0.47219884,56.130222,-75.482086,-12.214506,WAL
3443427220000,2.249963,-3.23885400185527,10.3338646762089,-0.00759986292310275,1.7287487,-1.2394456,0.44043383,56.359097,-75.703835,-12.237829,WAL
3443432200000,2.254943,-2.96259631968603,10.5660814240262,0.0684711103408328,1.7562376,-1.2266175,0.36987892,56.509254,-75.97049,-12.198617,WAL
3443437226000,2.259969,-2.60992732919273,10.6869702873865,0.10202826200444,1.7974709,-1.1630874,0.31795537,56.655464,-76.23534,-12.164899,WAL
3443442224000,2.264967,-2.21870078455096,10.7449299398587,0.11168817852997,1.8261817,-1.0509937,0.27458394,56.783745,-76.46655,-12.151535,WAL
3443447459000,2.270202,-1.80485239518608,10.6539342164239,0.111471785016181,1.8341229,-0.89827734,0.2312125,56.782867,-76.698395,-12.11549,WAL
3443452230000,2.274973,-1.42594283691343,10.5060669917071,0.106850940275081,1.8362609,-0.71837753,0.19394971,56.7426,-76.90644,-12.091651,WAL
3443457220000,2.279963,-1.10867634214948,10.2228083476246,0.133933808519699,1.8545868,-0.54000485,0.15607607,56.572815,-77.14394,-12.018958,WAL
3443462199000,2.284942,-0.82780934633063,9.8820843580533,0.175373189916956,1.8634444,-0.34972036,0.12492194,56.354866,-77.35842,-11.956433,WAL
3443467311000,2.290054,-0.584946111151961,9.48256033884804,0.216338812792075,1.8460348,-0.19456059,0.10354166,56.108604,-77.60244,-11.855546,WAL
3443472326000,2.295069,-0.374040224693627,9.06074875030637,0.255577126420547,1.8209893,-0.061391957,0.07849618,55.821423,-77.82166,-11.76481,WAL
3443477219000,2.299962,-0.0846132854572798,8.62091744000376,0.250403034147946,1.7803668,0.05955936,0.07819075,55.51144,-78.05286,-11.644519,WAL
3443482207000,2.30495,0.252136726197951,8.15844732397782,0.223463028527117,1.7269161,0.15241088,0.070249505,55.17912,-78.25794,-11.53197,WAL
3443487223000,2.309966,0.471539419033248,7.88463052427622,0.174328255401944,1.67316,0.20433442,0.08002335,54.87413,-78.47167,-11.39405,WAL
3443492215000,2.314958,0.584027461754476,7.78192417149872,0.105857270477954,1.6065756,0.24709499,0.10567969,54.5506,-78.67043,-11.252426,WAL
3443497204000,2.319947,0.675209278152476,7.71268352290855,0.0563132580179929,1.534188,0.27152961,0.14263703,54.272854,-78.902885,-11.063126,WAL
3443502199000,2.324942,0.750632638503061,7.66831687850121,0.020819917475422,1.4703526,0.27091873,0.17592919,53.992283,-79.12433,-10.866809,WAL
3443507200000,2.329943,0.803446088553371,7.63157802070009,-0.0449983684896283,1.4126259,0.267559,0.22449298,53.716568,-79.35425,-10.645746,WAL
3443512191000,2.334934,0.824102029016854,7.60575789965428,-0.153442046486603,1.3515394,0.23793201,0.24312437,53.450863,-100.43138,-10.423843,WAL
3443517233000,2.339976,0.781115477765498,7.62455164694062,-0.294284992454536,1.3365731,0.20066923,0.2751948,53.196995,-100.20966,-10.177554,WAL
3443522269000,2.345012,0.689048057409826,7.67785411196624,-0.459037259365016,1.3014483,0.17592919,0.30604348,52.95001,-99.9988,-9.927544,WAL
3443527216000,2.349959,0.558080883022111,7.75031571140292,-0.651800801680023,1.2834278,0.17012598,0.3323107,52.707973,-99.7996,-9.669501,WAL
3443532197000,2.35494,0.396878524937723,7.83782539364681,-0.868272503128319,1.2873985,0.17654006,0.33444872,52.471176,-99.61777,-9.41154,WAL
3443537229000,2.359972,0.229860363602288,7.95113005267311,-1.05103990800947,1.2895365,0.19761491,0.32650748,52.224514,-99.477684,-9.1712675,WAL
3443542219000,2.364962,0.0601644127638588,8.08782937502466,-1.19716697350562,1.3176364,0.2302962,0.31245756,51.974464,-99.362755,-8.933414,WAL
3443547233000,2.369976,-0.0959885237846274,8.20427793874366,-1.30061854619586,1.3686435,0.2837469,0.29168814,51.70773,-99.32784,-8.739033,WAL
3443552223000,2.374966,-0.235829331236832,8.29750556554819,-1.35655487891143,1.4196508,0.35155296,0.28313604,51.4299,-99.319046,-8.543487,WAL
3443557202000,2.379945,-0.372756728567146,8.37933698870903,-1.40484330343725,1.4706581,0.42394048,0.2828306,51.160004,-99.38993,-8.385106,WAL
3443562203000,2.384946,-0.506751657685851,8.44633429836131,-1.44312753749001,1.5308284,0.4877759,0.29260445,50.87554,-99.490166,-8.222104,WAL
3443567195000,2.389938,-0.607832504929988,8.48126745926135,-1.46619729012311,1.5882497,0.57910025,0.30726522,50.585472,-99.65459,-8.085844,WAL
3443572223000,2.394966,-0.664396942640729,8.47221720101494,-1.46845986649751,1.6264287,0.6569856,0.3359759,50.28443,-99.83818,-7.9371543,WAL
3443577153000,2.399896,-0.719858891310967,8.46334334000564,-1.47067834333239,1.6652187,0.71837753,0.36865717,49.993507,-100.078445,-7.8079476,WAL
3443582209000,2.404952,-0.776738325890424,8.45424268254863,-1.47295351957523,1.6960673,0.77946407,0.3943135,49.684227,-100.33397,-7.6652746,WAL
3443587157000,2.4099,-0.825074814182282,8.43939674443245,-1.46380731664868,1.7131716,0.8014552,0.43096542,49.38957,-100.61299,-7.5132437,WAL
3443592216000,2.414959,-0.83458116802904,8.39186507446287,-1.3925098116943,1.7308867,0.8054258,0.4642576,49.086956,-100.905975,-7.3490963,WAL
3443597221000,2.419964,-0.844603553259267,8.34605715278733,-1.31334550565333,1.7400496,0.7690793,0.5002986,48.82414,-101.23159,-7.201403,WAL
3443602249000,2.424992,-0.858806330881919,8.30818278251893,-1.17605188976502,1.7513506,0.72356987,0.5271767,48.56672,-101.56438,-7.0433817,WAL
3443607191000,2.429934,-0.871913825296598,8.28582050073537,-1.03519849451907,1.7342464,0.6930266,0.54061574,48.324806,-101.88917,-6.883502,WAL
3443612193000,2.434936,-0.876610673379743,8.41263559515639,-0.833233830767722,1.7211128,0.6087272,0.5644395,48.11531,-102.215355,-6.7155857,WAL
3443617259000,2.440002,-0.881672842808091,8.54901097138629,-0.630726457959546,1.7015651,0.52106804,0.5882632,47.95011,-102.5537,-6.5747714,WAL
3443622302000,2.445045,-0.891203371409965,8.80156898914652,-0.459177390950173,1.6670512,0.43249258,0.6075055,47.810806,-102.88221,-6.431399,WAL
3443627429000,2.450172,-0.901381178201482,9.05792480788555,-0.295719699979562,1.6313156,0.3659083,0.6310238,47.719395,-103.19015,-6.3052425,WAL
3443632728000,2.455471,-0.918667203902751,9.31721571233927,-0.27843364720344,1.5943583,0.32986724,0.6554584,47.645176,-103.4844,-6.1766167,WAL
3443637214000,2.459957,-0.933301118093332,9.53672486451503,-0.26379971009197,1.5326608,0.3191771,0.6612616,47.61273,-103.74026,-6.0599694,WAL
3443642215000,2.464958,-0.918694654676076,9.77046776624695,-0.308154753132616,1.4902058,0.34422258,0.67103547,47.581272,-103.985695,-5.936615,WAL
3443647207000,2.46995,-0.889567465074127,9.99863075568643,-0.380972719533916,1.4367551,0.40469822,0.66798115,47.541588,-104.211,-5.8149858,WAL
3443652221000,2.474964,-0.840541119510261,10.1969306790919,-0.37520916907703,1.3720033,0.4382958,0.6560693,47.516125,-104.418304,-5.7024946,WAL
3443657214000,2.479957,-0.783655618558541,10.3818087923069,-0.337285514975711,1.3087788,0.49571714,0.6429357,47.4663,-104.61015,-5.5870857,WAL
3443662180000,2.484923,-0.738687269899665,10.5760061505017,-0.24629049379097,1.2339478,0.5662721,0.6270532,47.40078,-104.790016,-5.4689555,WAL
3443667382000,2.490125,-0.697032994314381,10.7842775284281,-0.125955829988294,1.1545353,0.66981375,0.6261369,47.31025,-104.94975,-5.3453918,WAL
3443672288000,2.495031,-0.67758725702067,11.0282009784391,-0.043489829065752,1.0662653,0.7855727,0.61941737,47.205273,-105.083885,-5.2181296,WAL
3443677221000,2.499964,-0.673378209052031,11.3102073681397,0.0154368838086244,0.98837996,0.8894198,0.6105598,47.07533,-105.198906,-5.0866823,WAL
3443682185000,2.504928,-0.742359868690386,11.554651720212,0.0651483846116578,0.93034774,1.0024298,0.6038403,46.929977,-105.27513,-4.94619,WAL
3443687231000,2.509974,-0.993554943663891,11.7058562625284,0.0919750444390613,0.86254174,1.0873401,0.5833763,46.76328,-105.330284,-4.8081636,WAL
3443692216000,2.514959,-1.24171337583649,11.8552329259147,0.118477402591976,0.7993172,1.1307116,0.54244834,46.583836,-105.35309,-4.6746254,WAL
3443697198000,2.519941,-1.48972246492051,12.0045196936159,0.14496381148221,0.7247916,1.1374311,0.51893,46.392536,-105.3563,-4.5399895,WAL
3443702935000,2.525678,-1.88493020588848,12.1312243699844,0.169935173487233,0.63071835,1.1160508,0.4877759,46.20587,-105.35338,-4.4254518,WAL
3443707223000,2.529966,-2.2957976960396,12.178302990099,0.182774777247525,0.52442783,1.097114,0.4728097,46.018036,-105.32891,-4.313315,WAL
3443712186000,2.534929,-2.75458158371608,12.1890950876827,0.208990312025052,0.47891834,1.0442741,0.45204028,45.891453,-105.30103,-4.317837,WAL
3443717269000,2.540012,-3.19980068962124,12.1358622976439,0.252544365649667,0.39400807,0.9795224,0.4202753,45.773075,-105.23848,-4.329111,WAL
3443722154000,2.544897,-3.75582053230944,12.1351192554039,0.293628821308305,0.312763,0.9092729,0.3744604,45.715866,-105.19366,-4.448739,WAL
3443727225000,2.549968,-4.53391240699659,12.2133894769625,0.335065669948805,0.2507602,0.8240572,0.32162055,45.67916,-105.13846,-4.5776935,WAL
3443732170000,2.554913,-5.16020396693944,12.3052900541121,0.416555828265139,0.2144137,0.729984,0.27672195,45.713024,-105.10959,-4.815199,WAL
3443737227000,2.55997,-5.46239572013093,12.4390468247238,0.604806294967267,0.16432275,0.61300325,0.22876903,45.773346,-105.070404,-5.0632133,WAL
3443742153000,2.564896,-5.69241326676823,12.5693311706818,0.766270373414588,0.106901415,0.453262,0.16554448,45.922966,-105.03655,-5.4555717,WAL
3443747207000,2.56995,-5.79380588135593,12.7029852161017,0.886098105084746,0.043066,0.28680122,0.10995574,46.101135,-105.00299,-5.8481383,WAL
3443752195000,2.574938,-5.88027535311895,12.8321921968229,0.961756672791554,-0.020158553,0.12461651,0.04734206,46.362003,-104.97421,-6.3124514,WAL
3443757223000,2.579966,-5.92225223742735,12.9534583618752,0.896459248498644,-0.09162979,-0.010079277,-0.0070249503,46.652985,-104.94743,-6.7772055,WAL
3443762222000,2.584965,-5.95271973081823,13.0754844933856,0.882624034786869,-0.18234327,-0.08124508,-0.054367006,46.976505,-104.90917,-7.261392,WAL
3443767286000,2.590029,-5.92895838089172,13.2061725796178,1.11627743312102,-0.29138273,-0.23732115,-0.07422013,47.353607,-104.86981,-7.745266,WAL
3443772475000,2.595218,-5.90461050475257,13.3400865763515,1.35569834227503,-0.42546764,-0.44623706,-0.09987647,47.76536,-104.8423,-8.236987,WAL
3443777218000,2.599961,-5.79195579227537,13.5389164642786,1.27619139463678,-0.5925393,-0.6719518,-0.17012598,48.215073,-104.81018,-8.735776,WAL
3443782174000,2.604917,-5.64473323514108,13.7716228308985,1.09572510626376,-0.75319684,-0.83077675,-0.26939157,48.694614,-104.77889,-9.237624,WAL
3443787234000,2.609977,-5.327498304032,13.7358439286241,0.699288406316454,-0.9108001,-0.91813046,-0.37751472,49.226696,-104.728676,-9.758821,WAL
3443792172000,2.614915,-4.95411475323718,13.5964471881251,0.231314317865038,-1.056186,-1.0341948,-0.464563,49.80157,-104.69124,-10.291009,WAL
3443797207000,2.61995,-4.55314761872959,13.1692120940932,0.0735529452359751,-1.251052,-1.2198979,-0.53786683,50.391533,-104.65849,-10.805891,WAL
3443802204000,2.624947,-4.15068379033343,12.6815208140892,-0.0116746645829623,-1.4737124,-1.3399329,-0.60903263,50.98648,-104.643394,-11.326028,WAL
3443807222000,2.629965,-3.84018492191235,12.1422592045153,-0.061581537689243,-1.5937474,-1.6126842,-0.6386596,51.62482,-104.65601,-11.796072,WAL
3443812209000,2.634952,-3.55476943178714,11.5940804252514,-0.102355187245304,-1.8603901,-1.8820758,-0.6835582,52.288948,-104.65794,-12.27626,WAL
3443817241000,2.639984,-3.19497545053816,11.0878016022505,-0.131296897201566,-2.1184807,-2.129171,-0.70341134,52.99327,-104.66417,-12.711438,WAL
3443822225000,2.644968,-2.80733782807241,10.6067573337573,-0.154648566023483,-2.3793201,-2.3588562,-0.7079928,53.765812,-104.67872,-13.147392,WAL
3443827224000,2.649967,-2.30109103637496,10.2861976340458,-0.201683899607016,-2.6120598,-2.5503623,-0.711658,54.58029,-104.70196,-13.555185,WAL
3443832201000,2.654944,-1.7345897955334,10.0532007600882,-0.261075151879613,-2.8502972,-2.7476718,-0.7098254,55.460335,-104.746735,-13.952806,WAL
3443837229000,2.659972,-1.14093859057979,10.0476173585384,-0.550628482289577,-3.0708196,-2.9416215,-0.69913524,56.361774,-104.78192,-14.287472,WAL
3443842224000,2.664967,-0.53471430964199,10.2193806857113,-1.01540049290316,-3.2415564,-3.1089988,-0.68661255,57.310905,-104.86482,-14.607596,WAL
3443847198000,2.669941,0.0413926326359833,10.5457467238494,-1.57163817531381,-3.3356297,-3.2058208,-0.6704246,58.24442,-104.92323,-14.8279705,WAL
3443852233000,2.674976,0.610787435555556,10.9537385555556,-2.18138374444444,-3.3631186,-3.2143729,-0.6197228,59.199165,-105.03069,-15.01907,WAL
3443857223000,2.679966,1.13580685244668,11.3901274667503,-2.8889752468005,-3.364035,-3.1542027,-0.53878313,60.08437,-74.90174,-15.0919075,WAL
3443862217000,2.68496,1.62510485949233,11.8563451540392,-3.69216246953962,-3.31822,-2.9874365,-0.44684792,60.935818,-74.79692,-15.134823,WAL
3443867220000,2.689963,2.00207963237317,12.3655303559759,-4.39035231324162,-3.2213979,-2.7617218,-0.33292156,61.659744,-74.78441,-15.042667,WAL
3443872217000,2.69496,2.23868162077601,12.9261739914015,-4.95613967914875,-3.0952542,-2.4859161,-0.25442538,62.314064,-74.752464,-14.932625,WAL
3443877220000,2.699963,2.36351111879111,13.4021404164363,-5.35125035251216,-2.9465084,-2.1154263,-0.19425514,62.77671,-74.83039,-14.721672,WAL
3443882296000,2.705039,2.40985665869006,13.8238854102393,-5.62932383387358,-2.8283062,-1.6554449,-0.17562376,63.128872,-74.89972,-14.512938,WAL
3443887210000,2.709953,2.45651760834621,14.1788754720247,-5.7988500015456,-2.7363708,-1.0870347,-0.18692477,63.285107,-75.03246,-14.271297,WAL
3443892221000,2.714964,2.50596567099433,14.4854536669758,-5.86807718598661,-2.6575692,-0.42394048,-0.23151793,63.28104,-75.15219,-14.057463,WAL
3443897220000,2.719963,2.58164464818763,14.6339492031401,-5.5206569141888,-2.5967882,0.27672195,-0.3210097,63.06844,-75.279755,-13.869112,WAL
3443902190000,2.724933,2.67851726012793,14.6524010145377,-4.83332282124443,-2.5781567,0.58062744,-0.39706242,62.78678,-75.39026,-13.706395,WAL
3443907176000,2.729919,2.78348148977813,14.6665987163233,-3.86609309223455,-2.5830436,1.0436633,-0.56688297,62.254726,-75.46737,-13.606263,WAL
3443912244000,2.734987,2.89885845534865,14.6762136600634,-2.57290926220285,-2.6035078,1.2406673,-0.75136423,61.726307,-75.51301,-13.539791,WAL
3443917218000,2.739961,2.96798298703522,14.7424927178831,-1.44122366261971,-2.6685648,1.2296717,-0.8854492,61.18272,-75.5012,-13.486415,WAL
3443922284000,2.745027,2.98707252817234,14.8761193065119,-0.448566843770215,-2.7348437,1.0833695,-0.95142263,60.635086,-75.45282,-13.470526,WAL
3443927169000,2.749912,2.86395897889977,14.9155293707226,0.293318171109744,-2.797152,0.86559606,-0.9804387,60.22347,-75.31364,-13.45332,WAL
3443932195000,2.754938,2.54531601494639,14.8347469062005,0.764550652521026,-2.844494,0.6704246,-1.0125091,59.85693,-75.14224,-13.454453,WAL
3443937201000,2.759944,2.19144535292686,14.6609051448079,1.15866995367842,-2.8823676,0.50762904,-1.03786,59.628838,-74.88986,-13.447509,WAL
3443942215000,2.764958,1.74415064300836,14.2491903032709,1.36198571643908,-2.8820622,0.35521814,-1.0693196,59.460484,-74.61175,-13.447032,WAL
3443947167000,2.76991,1.29653988312908,13.7556898196649,1.50896512753182,-2.8102856,0.16218472,-1.0824533,59.398327,-74.25069,-13.478984,WAL
3443957406000,2.780149,0.352155984297578,12.4547532001867,1.63905883979166,-2.5363126,-0.25289822,-1.1071932,59.458298,-73.44129,-13.595524,WAL
3443962128000,2.784871,-0.0833729511729153,11.8547900478109,1.69905517823203,-2.402533,-0.43096542,-1.1221595,59.58127,-73.017494,-13.669243,WAL
3443967130000,2.789873,-0.573575219333604,11.2126402070805,1.7865676696668,-2.295937,-0.6044512,-1.1414018,59.78077,-72.53496,-13.804739,WAL
3443972141000,2.794884,-1.12932378852499,10.554516571922,1.92794231426249,-2.200642,-0.81489426,-1.1597277,60.0444,-72.07154,-13.928527,WAL
3443977109000,2.799852,-1.68363960445765,9.91390160549777,2.03345632659733,-2.1071796,-1.0421361,-1.1872166,60.382072,-71.54872,-14.117673,WAL
3443982140000,2.804883,-2.25159699387816,9.28867140178306,2.07163840213967,-2.0195205,-1.2938126,-1.2137892,60.788948,-71.04299,-14.292,WAL
3443987118000,2.809861,-2.75789757414041,8.72630260174313,2.03298988510679,-1.8994855,-1.5268577,-1.2370021,61.289967,-70.47346,-14.54042,WAL
3443992178000,2.814921,-3.15239845566517,8.27610736009961,1.82877757057753,-1.7800614,-1.749518,-1.2654073,61.861584,-69.919876,-14.774974,WAL
3443997125000,2.819868,-3.45855235093229,7.68842768056918,1.61598042433759,-1.6743816,-1.8579466,-1.2654073,62.504917,-69.31498,-15.104265,WAL
3444002213000,2.824956,-3.50637056329735,6.58860814706575,1.35298005660451,-1.6065756,-2.0164661,-1.2470814,63.22301,-68.72976,-15.407841,WAL
3444007212000,2.829955,-3.51481767301247,5.67831973536633,1.09497404287899,-1.4731015,-2.1520782,-1.2177598,63.929188,-68.14933,-15.733726,WAL
3444012258000,2.835001,-3.378280995265,5.40053832028449,0.836025175866134,-1.3600914,-2.2904391,-1.1850786,64.67524,-67.58877,-16.03172,WAL
3444017188000,2.839931,-3.22553525820611,5.15541367672665,0.602414556307706,-1.2608259,-2.4168882,-1.1725558,65.431,-67.02082,-16.32283,WAL
3444022199000,2.844942,-2.96387020992366,5.05074748436932,0.47158201395129,-1.1557571,-2.514016,-1.1826351,66.21367,-66.48262,-16.59582,WAL
3444027791000,2.850534,-2.66364610066458,4.94096311507643,0.329165571495301,-1.0757337,-2.5967882,-1.1963795,66.98373,-65.98577,-16.83619,WAL
3444032217000,2.85496,-2.33366134887496,4.93291471162062,0.25672988996867,-1.0149527,-2.6514606,-1.2055426,67.769745,-65.50835,-17.066814,WAL
3444037194000,2.859937,-1.96259625405867,4.92386434921675,0.175276571632014,-0.97433007,-2.64749,-1.2208142,68.53906,-65.0728,-17.269156,WAL
3444042221000,2.864964,-1.59096266441441,5.00425053318318,0.281375016866867,-0.9407325,-2.5964828,-1.2238685,69.30482,-64.65163,-17.465225,WAL
3444047195000,2.869938,-1.22380573414414,5.09961585516517,0.419654895557558,-0.9120218,-2.5158484,-1.2263119,70.05689,-64.237595,-17.663563,WAL
3444052251000,2.874994,-0.792715317425968,5.19939088929385,0.389307406657693,-0.8738427,-2.4691174,-1.2263119,70.76855,-63.870125,-17.823921,WAL
3444057244000,2.879987,-0.3570251138041,5.29841151936219,0.329895121673224,-0.8378017,-2.3930645,-1.2144,71.441284,-63.51243,-17.98723,WAL
3444062313000,2.885056,0.0724878443512644,5.28896362868966,0.296583358342069,-0.79137594,-2.269059,-1.1774428,72.05198,-63.176422,-18.123573,WAL
3444067199000,2.889942,0.485550724652874,5.27175277793103,0.266464180813793,-0.70829827,-2.158187,-1.1258247,72.63422,-62.862724,-18.253748,WAL
3444072237000,2.89498,0.906875545903787,5.16778431811668,0.276992220348004,-0.602924,-2.0647244,-1.0497719,73.179,-62.63845,-18.298428,WAL
3444077155000,2.899898,1.31663930908495,5.03762393613101,0.301095982671443,-0.5216789,-2.0118847,-0.9669997,73.68973,-62.43979,-18.332365,WAL
3444082209000,2.904952,1.59108936131387,4.86651974945749,0.291494652590254,-0.42394048,-1.9578232,-0.86529064,74.18294,-62.343376,-18.273846,WAL
3444087170000,2.909913,1.82072210145985,4.68843707447228,0.272749128974157,-0.32253686,-1.9043725,-0.76083267,74.644714,-62.283154,-18.197393,WAL
3444092217000,2.91496,1.93612437576734,4.59263020045472,0.243827538442592,-0.20311269,-1.8286251,-0.65148777,75.08914,-62.29875,-18.039776,WAL
3444097545000,2.920288,2.0182983781925,4.52012377226222,0.209991175001895,-0.08399397,-1.7470746,-0.52656585,75.49701,-62.360275,-17.85658,WAL
3444102193000,2.924936,1.99084464776903,4.42921022834646,0.223986682257218,0.03970624,-1.7018706,-0.464563,75.89633,-62.47066,-17.634995,WAL
3444107226000,2.929969,1.91493902894488,4.31788217058268,0.259409311420472,0.101098195,-1.6065756,-0.3371976,76.23159,-62.62995,-17.377527,WAL
3444112306000,2.935049,1.82786300384901,4.18789239520268,0.278402306206768,0.2171626,-1.4862351,-0.20769419,76.537,-62.848198,-17.10116,WAL
3444117251000,2.939994,1.73980554619747,4.05580600184083,0.291610927153217,0.30451632,-1.3579534,-0.09590584,76.79565,-63.094063,-16.808208,WAL
3444122227000,2.94497,1.60189091561866,3.9975493484787,0.341326728174442,0.39675698,-1.1826351,0.018020526,77.00378,-63.3728,-16.50804,WAL
3444127255000,2.949998,1.42980257693422,3.98824737849899,0.415743318484497,0.47708577,-0.9850202,0.08582657,77.1577,-63.679554,-16.208385,WAL
3444132237000,2.95498,1.25403337029015,3.9813489959951,0.546406340686555,0.5992588,-0.8014552,0.13469578,77.269226,-64.01202,-15.917425,WAL
3444137271000,2.960014,1.07179418714753,3.97642361683694,0.728645487827952,0.72784597,-0.6114761,0.18509217,77.31259,-64.37551,-15.630927,WAL
3444142241000,2.964984,0.916715966454942,4.0099104116713,1.00399833322747,0.8735373,-0.42913285,0.22021692,77.30956,-64.74355,-15.382373,WAL
3444147213000,2.969956,0.779671441564113,4.07134402127829,1.34897245078206,1.0509937,-0.25717425,0.25137106,77.24862,-65.15451,-15.140855,WAL
3444152198000,2.974941,0.657082848334621,4.18044325545472,1.73552392411662,1.237613,-0.10354166,0.25350907,77.17395,-65.556595,-14.93512,WAL
3444157227000,2.97997,0.545489663631975,4.32923426549527,2.15864819505696,1.4172074,0.040011674,0.25289822,77.04902,-65.999565,-14.738179,WAL
3444162279000,2.985022,0.466672048311292,4.53096936419125,2.74471488077314,1.5748106,0.15943582,0.23976462,76.94108,-66.409,-14.571485,WAL
3444167305000,2.990048,0.422603144646999,4.78558969420142,3.49388614592065,1.67316,0.21991149,0.24220806,76.80653,-66.844086,-14.408825,WAL
3444172255000,2.994998,0.335248690585914,5.23821097297297,4.26200779510752,1.709201,0.24770586,0.25289822,76.70573,-67.22096,-14.26696,WAL
3444177257000,3,0.207670662615901,5.87610116216216,5.06527679431841,1.6710218,0.23701571,0.26542094,76.59742,-67.598946,-14.126419,WAL
3444182236000,3.004979,0.0222201932858816,6.62440121884855,5.79004465433823,1.5525141,0.18448131,0.29718593,76.58074,-67.85271,-13.979213,WAL
3444187242000,3.009985,-0.223988038796288,7.49260913199387,6.44228053931886,1.4144585,0.1282817,0.35063666,76.563995,-68.09536,-13.823611,WAL
3444192239000,3.014982,-0.558777264673362,8.53769485526452,7.00838531204058,1.207986,0.09254608,0.398895,76.63186,-68.186356,-13.665773,WAL
3444197196000,3.019939,-1.12398135340304,10.0416293589398,7.34750769753598,0.9642508,0.05375614,0.42302418,76.71106,-68.24062,-13.499289,WAL
3444202250000,3.024993,-1.82315385434548,11.5756413144456,7.54929701040951,0.83169305,0.106595986,0.46303585,76.81908,-68.19832,-13.342496,WAL
3444207253000,3.029996,-2.75007272825297,13.0954115122263,7.47401421683198,0.58032197,0.19608775,0.47219884,76.92288,-68.07475,-13.193122,WAL
3444212214000,3.034957,-3.59141438614536,14.6363059180727,7.47233123929267,0.3359759,0.2678644,0.43860126,76.993675,-67.930214,-13.094104,WAL
3444217219000,3.039962,-4.26015944235886,16.2692882586794,7.63951764544127,0.122478485,0.26939157,0.38912117,77.05393,-67.74304,-13.002678,WAL
3444222203000,3.044946,-4.92609857525957,17.8954189251298,7.80600257016548,-0.051618114,0.17501289,0.31581733,77.02776,-67.551865,-13.034113,WAL
3444227253000,3.049996,-4.60950646601811,18.4394986698131,7.81048827383934,-0.1554652,-0.0070249503,0.22815818,77.030045,-67.33431,-13.06946,WAL
3444232183000,3.054926,-4.10926551071085,18.7578345916008,7.78320232411867,-0.19333886,-0.21502456,0.116980694,77.0733,-67.09235,-13.114668,WAL
3444237226000,3.059969,-3.5063100710258,18.1229407646471,7.68521409458108,-0.17073683,-0.36896262,-0.01740966,77.11537,-66.9194,-13.2165575,WAL
3444242154000,3.064897,-2.88818573941212,17.1981135188962,7.56725151109778,-0.081855945,-0.43249258,-0.14019357,77.19845,-66.74974,-13.323391,WAL
3444247331000,3.070074,-2.2151519904874,15.8034899991664,7.54429317509071,0.026572637,-0.43768495,-0.26206118,77.3065,-66.66191,-13.3488035,WAL
3444252175000,3.074918,-1.57823843434343,14.3704339040404,7.55339183838384,0.15149458,-0.4202753,-0.37934732,77.43493,-66.58198,-13.401076,WAL
3444257220000,3.079963,-1.01417659315184,13.0109074863879,7.56901281852372,0.29352075,-0.39064834,-0.46120325,77.59342,-66.51245,-13.425794,WAL
3444262224000,3.084967,-0.494110016446815,11.7152242335111,7.58694613584058,0.43371433,-0.36010507,-0.49541172,77.75012,-66.46251,-13.470522,WAL
3444267315000,3.090058,-0.150488364780278,10.6035576594302,7.37022457304458,0.535118,-0.2843578,-0.4596761,77.93972,-66.383896,-13.48758,WAL
3444272320000,3.095063,0.0611538323864592,9.65116830098822,6.99733123641716,0.6160576,-0.15027285,-0.39278635,78.10138,-66.33479,-13.513334,WAL
3444277221000,3.099964,-0.0252555642959945,9.27852535984914,6.72184222922663,0.6759224,0.008857546,-0.28924468,78.2963,-66.27298,-13.497183,WAL
3444282891000,3.105634,-0.274772310654586,9.13258135906884,6.44878620798509,0.65118235,0.14385876,-0.1685988,78.44988,-66.224556,-13.468749,WAL
3444287221000,3.109964,-0.565619645707076,9.21226274303438,5.96893840493113,0.48930305,0.26267207,-0.08674286,78.55871,-66.16954,-13.436684,WAL
3444292217000,3.11496,-1.05358472810009,9.59458570087267,5.00306940987278,0.25534168,0.33322698,-0.06566802,78.63683,-66.10035,-13.396938,WAL
3444297187000,3.11993,-1.42348342303686,10.1604354278846,3.72244259078526,0.14996742,0.5345071,-0.07727446,78.633606,-66.035675,-13.406321,WAL
3444302222000,3.124965,-1.66496588602764,10.9476685709135,2.05621353058894,-0.013439035,0.8228355,-0.09101892,78.58598,-65.90531,-13.426332,WAL
3444307207000,3.12995,-1.79966915287356,11.7301573678161,0.456604582758621,-0.093767814,1.1612549,-0.061086524,78.39253,-65.87992,-13.514015,WAL
3444312277000,3.13502,-1.8185876706994,12.5294651410481,-1.11363353267095,-0.080634214,1.4947872,0.008246681,78.12156,-65.84412,-13.620122,WAL
3444317392000,3.140135,-1.783839615676,13.4924769761646,-2.22942111572545,0.055588737,1.7076738,0.08368854,77.624535,-66.0641,-13.758335,WAL
3444322225000,3.144968,-1.68770875532588,14.5865374925329,-2.73296355139947,0.2724459,1.7055358,0.17806722,77.0929,-66.32076,-13.873659,WAL
3444327149000,3.149892,-1.62988147803068,15.6157108485898,-3.02718071969322,0.48075095,1.5234979,0.24251351,76.37468,-66.86304,-13.937158,WAL
3444332204000,3.154947,-1.6346722473528,16.5355392587828,-2.97927302647204,0.6215554,1.2299771,0.26328292,75.69468,-67.435326,-13.963468,WAL
3444337155000,3.159898,-1.55671115028582,17.0169072558751,-2.79574458204337,0.73884153,0.88086766,0.16798794,75.042015,-68.155426,-13.942661,WAL
3444342219000,3.164962,-1.33229011821976,16.7748842634062,-2.36890452041557,0.88025683,0.45845437,-0.034513887,74.512,-68.86465,-13.907754,WAL
3444347165000,3.169908,-1.07907363273778,16.2826836684498,-1.90881114688135,1.0522153,-0.04642576,-0.2883284,74.104034,-69.58315,-13.849976,WAL
3444352845000,3.175588,-0.590223092799829,14.2283473209586,-1.12897813864342,1.1844677,-0.5717699,-0.47616947,73.842064,-70.25581,-13.796503,WAL
3444357164000,3.179907,-0.212199319809297,12.6121544058403,-0.66764266931764,1.2452488,-1.0097603,-0.57451874,73.76635,-70.838234,-13.74686,WAL
3444362223000,3.184966,0.244958129709972,10.5958494557012,-0.427033488798172,1.2195925,-1.2925909,-0.5839872,73.7998,-71.375786,-13.702015,WAL
3444367242000,3.189985,0.61793815038739,8.76468373862321,-0.281248006068216,1.1548407,-1.4001031,-0.50823987,73.982315,-71.79048,-13.642799,WAL
3444372225000,3.194968,0.796430594923858,7.34949398815567,-0.357744768646362,1.0864239,-1.3396275,-0.36163223,74.18592,-72.19636,-13.56198,WAL
3444377354000,3.200097,0.95364008399838,5.91966146668017,-0.455048652845858,1.0348058,-1.1429288,-0.16615535,74.43184,-72.54512,-13.452853,WAL
3444382206000,3.204949,0.770107577220984,4.9031737564918,-0.779760030646141,1.0125091,-0.86376345,0.050396383,74.62012,-72.9172,-13.306159,WAL
3444387234000,3.209977,0.557165748991612,3.89364797322863,-1.11427679391397,1.0442741,-0.7134906,0.27763826,74.79562,-73.29201,-13.127527,WAL
3444392219000,3.214962,0.0587162662680707,3.44632149384258,-1.42101492960021,1.1218541,-0.4120286,0.37995818,74.837364,-73.68756,-12.946695,WAL
3444397217000,3.21996,-0.441033084715331,2.99782846596466,-1.72855298419597,1.1661417,-0.19883664,0.5207626,74.82726,-74.09714,-12.762091,WAL
3444402201000,3.224944,-0.968327546141464,2.96583480180854,-1.96466366505066,1.2822062,-0.054061573,0.59315014,74.74291,-74.533775,-12.580267,WAL
3444407212000,3.229955,-1.50452172237478,3.02036303196667,-2.18732055346085,1.4193454,0.017104227,0.6575964,74.607834,-75.00489,-12.368372,WAL
3444412184000,3.234927,-1.9053876617967,3.33225546086834,-2.19318033448987,1.5497651,0.02321288,0.71837753,74.45881,-75.47097,-12.200423,WAL
3444417308000,3.240051,-2.26431319480495,3.76020512744749,-2.11035133576519,1.6655241,-0.028405234,0.79534656,74.30178,-75.96286,-12.010456,WAL
3444422740000,3.245483,-2.46857173017106,4.40919970603618,-1.89998588357255,1.7825048,-0.12308934,0.86254174,74.16634,-76.45067,-11.84593,WAL
3444427229000,3.249972,-2.55309842628785,5.03892370464019,-1.66753745821864,1.8295414,-0.26236662,0.91751957,74.05965,-76.93879,-11.661703,WAL
3444432204000,3.254947,-2.55411400080806,5.83960286040508,-1.38664001795571,1.8784106,-0.40653083,0.9288206,73.997475,-77.37672,-11.5149975,WAL
3444437231000,3.259974,-2.47833064375066,6.73384575621786,-1.08350680074509,1.9110919,-0.5137377,0.91782504,73.967476,-77.7946,-11.360134,WAL
3444442218000,3.264961,-2.35200800539612,7.584172919038,-0.852266137845594,1.9159788,-0.5907067,0.874759,73.97647,-78.14423,-11.231603,WAL
3444447197000,3.26994,-2.19781915249596,8.41293863858125,-0.659530003797494,1.8958203,-0.6374379,0.7831292,74.009674,-78.44282,-11.122719,WAL
3444452230000,3.274973,-1.65292019290374,9.52883767760427,-0.495936252227713,1.887879,-0.63041294,0.70280045,74.02291,-78.66045,-11.053997,WAL
3444457224000,3.279967,-0.915526873216051,10.7767335408183,-0.349402963644989,1.8732183,-0.5335908,0.59773165,74.021225,-78.81198,-11.019248,WAL
3444462206000,3.284949,-0.483552165962885,11.193277330926,-0.246579800897705,1.8634444,-0.39003745,0.49480084,73.96883,-78.89201,-11.022173,WAL
3444467347000,3.29009,-0.213503530723284,11.1437683588994,-0.16556521211171,1.8527542,-0.24251351,0.4202753,73.88374,-78.92677,-11.041878,WAL
3444472252000,3.294995,0.0236184954781169,10.8908700010347,-0.090328165416865,1.8429805,-0.09987647,0.3417791,73.80997,-79.09756,-10.899015,WAL
3444477214000,3.299957,0.239954248114227,10.3991981789964,-0.016577338717641,1.8347337,0.04734206,0.27397305,73.690994,-100.78129,-10.777678,WAL
3444482184000,3.304927,0.438559264547143,9.83651476191459,0.0115486768960182,1.8014416,0.22266038,0.21013765,73.53741,-100.66145,-10.630265,WAL
3444487239000,3.309982,0.623333155851042,9.19729713193728,-0.0034329899241799,1.7950275,0.31429017,0.13103059,73.36513,-100.59463,-10.508494,WAL
3444492294000,3.315037,0.803283300441586,8.67471992733033,-0.0424746143059422,1.7867808,0.48838675,0.093462385,73.14771,-100.54304,-10.374805,WAL
3444497199000,3.319942,0.974639854487856,8.24632842449842,-0.0965872047940866,1.7785342,0.66614854,0.03176499,72.9021,-100.54581,-10.269757,WAL
3444502203000,3.324946,1.14475052681343,7.88354720194785,-0.153342586688648,1.7873917,0.8384125,-0.02687807,72.61955,-100.56952,-10.154172,WAL
3444507219000,3.329962,1.31044665975449,7.59601565019783,-0.211823584663691,1.7794504,0.9599747,-0.055283304,72.300545,-100.623985,-10.044278,WAL
3444512223000,3.334966,1.43322043002158,7.35135069366418,-0.296387901886034,1.7757853,1.0326678,-0.059253927,71.94136,-100.69713,-9.916895,WAL
3444517239000,3.339982,1.51802531625147,7.14404988252256,-0.404749711889957,1.7489072,1.0253373,-0.04734206,71.57137,-100.793175,-9.789614,WAL
3444522200000,3.344943,1.51111279207974,6.97864906578664,-0.513752343636854,1.7418822,0.979217,-0.016187929,71.18687,-100.89664,-9.630906,WAL
3444527237000,3.34998,1.40715080374461,6.85302833930496,-0.62637785889278,1.7415768,0.9233228,0.031154128,70.80968,-101.01307,-9.461913,WAL
3444532178000,3.354921,1.27738669702823,6.73176952912333,-0.770157417682021,1.720502,0.8368854,0.07849618,70.44444,-101.14228,-9.270252,WAL
3444537214000,3.359957,1.06239944546805,6.61403835727022,-1.0158571337508,1.6963727,0.7849618,0.129198,70.08844,-101.281296,-9.062713,WAL
3444542195000,3.364938,0.850716453469049,6.52915011778147,-1.25841315562941,1.6771306,0.77182823,0.17745635,69.736145,-101.45755,-8.862332,WAL
3444547269000,3.370012,0.6367227695887,6.4968491644786,-1.50470772957208,1.6685784,0.8032878,0.2284636,69.38937,-101.63995,-8.645468,WAL
3444552646000,3.375389,0.408345577527119,6.46799399570108,-1.76480748931298,1.6875153,0.88239485,0.27550024,69.0638,-101.909164,-8.461356,WAL
3444557146000,3.379889,0.191915130560466,6.52859447782242,-1.96825214580153,1.7067575,0.990518,0.32528573,68.72457,-102.18475,-8.258041,WAL
3444562695000,3.385438,-0.0714713146643493,6.61508079767543,-2.20228693877906,1.7308867,1.0684034,0.376293,68.34508,-102.54968,-8.095057,WAL
3444567175000,3.389918,-0.24390792591788,6.82014046137302,-2.19762649298284,1.7831156,1.1297953,0.43463063,67.94446,-102.929504,-7.90869,WAL
3444572134000,3.394877,-0.424796665212451,7.06612540950593,-2.17331534000988,1.8231273,1.1404854,0.48899764,67.549675,-103.402885,-7.7804995,WAL
3444577138000,3.399881,-0.533711073927866,7.45442918365613,-2.00757598692688,1.8683313,1.094976,0.5510005,67.159004,-103.886246,-7.6274962,WAL
3444582151000,3.404894,-0.636293286287698,7.84827684619048,-1.83349484656746,1.9123137,1.0708468,0.59773165,66.76845,-104.39193,-7.5014653,WAL
3444587143000,3.409886,-0.678978486668651,8.28461449190476,-1.58686929609127,1.9303342,1.0390818,0.61941737,66.39763,-104.89802,-7.361466,WAL
3444592118000,3.414861,-0.718579057778942,8.71228575117863,-1.34366013996857,1.9404135,0.9786061,0.6649268,66.121544,-105.37897,-7.218757,WAL
3444597129000,3.419872,-0.722768803265235,9.05584505605029,-1.12998294517199,1.949271,0.9080512,0.68233645,65.858444,-105.86394,-7.077444,WAL
3444602153000,3.424896,-0.726969418177056,9.40029565426925,-0.915751409219487,1.9401081,0.86315256,0.6918049,65.656525,-106.28364,-6.934002,WAL
3444607867000,3.43061,-0.668959020909091,9.80790915852742,-0.783171976972201,1.897042,0.85918194,0.72173727,65.46707,-106.68968,-6.7817807,WAL
3444612193000,3.434936,-0.614487798636364,10.1191731465064,-0.701465139500376,1.8585575,0.904386,0.743423,65.27794,-107.09148,-6.628628,WAL
3444617279000,3.440022,-0.597064053831813,10.4159150227523,-0.601034147469179,1.8261817,0.979217,0.77091193,65.132065,-107.42012,-6.4671154,WAL
3444622171000,3.444914,-0.601759824664729,10.669487039992,-0.502422871718954,1.7718146,1.039998,0.77366084,64.97871,-107.73083,-6.3054686,WAL
3444627216000,3.449959,-0.707146942985219,10.9183304273983,-0.444097922859627,1.7015651,1.0806206,0.7623598,64.83404,-107.98945,-6.1253395,WAL
3444632211000,3.454954,-0.859653258988504,11.158643443532,-0.407126700001932,1.6129897,1.1123856,0.7312057,64.675255,-108.22926,-5.948353,WAL
3444637224000,3.459967,-1.05592336313744,11.4803310037313,-0.289478045432214,1.488984,1.1374311,0.68386364,64.52077,-108.411865,-5.7810907,WAL
3444642221000,3.464964,-1.27912909292081,11.8523402512438,-0.120833734102405,1.3720033,1.1301007,0.6365216,64.36531,-108.57485,-5.62493,WAL
3444647202000,3.469945,-1.47224913296373,12.1264554502913,0.100601466243187,1.2119566,1.0946705,0.59315014,64.22392,-108.68229,-5.517103,WAL
3444652288000,3.475031,-1.65532611183988,12.3598790499906,0.352332362379252,1.0604621,1.0571023,0.5348125,64.08106,-108.765724,-5.4278564,WAL
3444657222000,3.479965,-1.83343831100674,12.4675369301613,0.521871441665305,0.94806284,1.047023,0.4868596,63.99161,-108.795784,-5.411261,WAL
3444662201000,3.484944,-2.01357602981417,12.482142471309,0.633848902562794,0.8558222,1.0528263,0.44073927,63.903606,-108.79707,-5.4094763,WAL
3444667277000,3.49002,-2.23219880628688,12.393818064293,0.688797469928789,0.80756384,1.0910053,0.4034765,63.855656,-108.7493,-5.472145,WAL
3444672295000,3.495038,-2.471747457294,12.2373779580875,0.703463710742625,0.754724,1.108415,0.364992,63.80786,-108.684525,-5.543632,WAL
3444677876000,3.500619,-2.83909463921043,12.1433898096014,0.750474395640092,0.6924158,1.0958922,0.36193767,63.784817,-108.610115,-5.6632147,WAL
3444682193000,3.504936,-3.15998292468379,12.0998123503258,0.798013376688386,0.6056729,1.0693196,0.37598756,63.759705,-108.5226,-5.780447,WAL
3444687229000,3.509972,-3.55278755195288,12.124658433354,0.796768929051457,0.5522222,0.9972375,0.38148534,63.778275,-108.466125,-5.9654346,WAL
3444692217000,3.51496,-3.95752669499897,12.2135033823104,0.747410478619549,0.4334089,0.90102625,0.4025602,63.813847,-108.37095,-6.13575,WAL
3444697199000,3.519942,-4.24823878365865,12.2704374482791,0.624752755487034,0.3408628,0.80756384,0.41722095,63.89419,-108.27755,-6.364119,WAL
3444702232000,3.524975,-4.46640037388967,12.3067984410184,0.45204153293918,0.27580565,0.73945236,0.39584067,63.99127,-108.16809,-6.589656,WAL
3444707219000,3.529962,-4.62903130915612,12.3180197458861,0.315044617525316,0.23518312,0.64934975,0.38026363,64.14085,-108.059586,-6.862036,WAL
3444712245000,3.534988,-4.73565524831224,12.3027874667722,0.213498136550633,0.19730948,0.5705481,0.34880406,64.29912,-107.94726,-7.134173,WAL
3444717304000,3.540047,-4.88868071945946,12.3460544421053,0.100977413373542,0.1563815,0.45142943,0.30787608,64.48458,-107.861916,-7.4321394,WAL
3444722256000,3.544999,-5.0685739418018,12.4270066105263,-0.0159531712872451,0.100792766,0.3145956,0.2706133,64.68921,-107.774086,-7.72967,WAL
3444727216000,3.549959,-5.19010298321786,12.5007324351039,-0.096592308291301,0.03359759,0.1414153,0.22815818,64.94565,-107.7136,-8.056175,WAL
3444732206000,3.554949,-5.24896449566333,12.5669515405697,-0.138285948154786,-0.062308256,-0.0033597588,0.19517145,65.22314,-107.64214,-8.382354,WAL
3444737226000,3.559969,-5.30817988493713,12.6335687568899,-0.180230251183782,-0.17256944,-0.13927728,0.16829337,65.54002,-107.57919,-8.731137,WAL
3444742214000,3.564957,-5.36701780559405,12.699761321632,-0.221907180169566,-0.3005457,-0.3313944,0.112704635,65.899925,-107.50476,-9.09472,WAL
3444747741000,3.570484,-5.38242599678669,13.1374861402041,-0.400899920999905,-0.42821655,-0.5375614,0.032375857,66.28978,-107.420334,-9.466603,WAL
3444752296000,3.575039,-5.37005805897363,13.6816833680181,-0.615280632237029,-0.5467244,-0.6976081,-0.081855945,66.70583,-107.331985,-9.856743,WAL
3444757294000,3.580037,-5.10931744077863,13.9711446147582,-0.901972752358725,-0.6750061,-0.7663304,-0.21594086,67.138466,-107.249374,-10.274124,WAL
3444762225000,3.584968,-4.58873155999603,13.9289348335982,-1.23965012014103,-0.8231409,-0.78893244,-0.37659842,67.58486,-107.173874,-10.719606,WAL
3444767282000,3.590025,-3.96739989469645,13.6757759166585,-1.39849940016727,-0.9630291,-0.8622363,-0.5513059,68.03254,-107.1063,-11.16409,WAL
3444772228000,3.594971,-3.25897058581128,13.1864007770343,-1.33791004849946,-1.1282681,-1.01312,-0.72326446,68.491455,-107.049515,-11.638523,WAL
3444777169000,3.599912,-2.62592956642967,12.6608681343198,-1.25161547767102,-1.328021,-1.1178834,-0.87872964,68.89574,-107.008675,-12.072518,WAL
3444782196000,3.604939,-2.08936701244235,12.0734244482129,-1.12672592227133,-1.5515977,-1.3408492,-0.93737274,69.36863,-106.96353,-12.525058,WAL
3444787153000,3.609896,-1.59464342206595,11.5538023466692,-0.998111176641642,-1.674687,-1.5800029,-1.0225884,69.83772,-106.91483,-12.943144,WAL
3444792216000,3.614959,-1.1615147660363,11.1483201821724,-0.855270826047705,-1.9370537,-1.8393153,-1.0961977,70.37436,-106.83363,-13.371113,WAL
3444797168000,3.619911,-0.707839343337492,10.8376173622375,-0.770284706019963,-2.1939225,-2.0613647,-1.1392636,70.94721,-106.73619,-13.76083,WAL
3444802196000,3.624939,-0.142108747916407,10.8225981856935,-0.875420483998752,-2.4495697,-2.2742512,-1.1490375,71.592255,-106.6378,-14.1574745,WAL
3444807153000,3.629896,0.392076115218738,10.8972125957851,-1.068516982496,-2.7015514,-2.48164,-1.1285735,72.28174,-106.49924,-14.506979,WAL
3444812233000,3.634976,0.882854006988614,11.1887641059728,-1.48154784885637,-2.9095511,-2.6413813,-1.0818423,73.02354,-106.37253,-14.84068,WAL
3444817509000,3.640252,1.37457799888988,11.4908206363233,-1.98720013601243,-3.0561588,-2.7666087,-1.0219775,73.77747,-106.21081,-15.087155,WAL
3444822286000,3.645029,1.78899517927176,11.7630353934281,-2.57632264282416,-3.1493158,-2.8231137,-0.9401216,74.56316,-106.06595,-15.298851,WAL
3444827305000,3.650048,2.22227837319329,12.0493187184642,-3.2011562609609,-3.199712,-2.792265,-0.8332202,75.30303,-105.89674,-15.4038925,WAL
3444832207000,3.65495,2.61864205129159,12.3324359481355,-3.88535543611418,-3.207959,-2.6416867,-0.7113526,76.0266,-105.745,-15.465518,WAL
3444837252000,3.659995,3.01323524927497,12.6326210457393,-4.56371778514142,-3.1929927,-2.3964243,-0.59498274,76.630455,-105.5608,-15.416415,WAL
3444842220000,3.664963,3.23042609718045,13.0414507149123,-4.90015081629073,-3.169169,-2.0851886,-0.4783075,77.17133,-105.378746,-15.323185,WAL
3444847212000,3.669955,3.44866617623523,13.4522554066416,-5.23820912778374,-3.1010575,-1.6856827,-0.37110063,77.535164,-105.156525,-15.141583,WAL
3444852275000,3.675018,3.54279552508307,13.8715982419696,-5.40153024673245,-3.0353894,-1.2131784,-0.31337386,77.78764,-104.94138,-14.941144,WAL
3444857212000,3.679955,3.60944845528144,14.2810376561273,-5.52531402559662,-2.9605584,-0.6560693,-0.29535335,77.89995,-75.26872,-14.7248,WAL
3444862216000,3.684959,3.6923165986068,14.4754063758825,-5.43464360284289,-2.8951957,-0.021685716,-0.31429017,77.81473,-75.50484,-14.471341,WAL
3444867226000,3.689969,3.77813196093382,14.6289704453544,-5.30366249863504,-2.8365529,0.6221663,-0.37232238,77.5696,-75.71802,-14.234741,WAL
3444872232000,3.694975,3.97256859243382,14.7124579994642,-4.65539462756403,-2.778826,1.2089024,-0.45356745,77.151146,-75.92407,-14.005224,WAL
3444877157000,3.6999,4.20508665159147,14.7680601991212,-3.82136247720502,-2.7727172,1.4352279,-0.5326745,76.6606,-76.100746,-13.802711,WAL
3444882191000,3.704934,4.38457603114588,14.6910350684307,-2.81233841217671,-2.7809641,1.7201965,-0.5662721,76.004684,-76.27079,-13.606719,WAL
3444887221000,3.709964,4.55305367053843,14.5890617140819,-1.77487014885412,-2.8389962,1.7782288,-0.6215554,75.3616,-76.3993,-13.447334,WAL
3444892215000,3.714958,4.54363426918018,14.3997220984217,-0.963604833099518,-2.903748,1.6242907,-0.6450737,74.76421,-76.52786,-13.259546,WAL
3444897221000,3.719964,4.45115617727313,14.1685267589215,-0.253204746951337,-2.9571986,1.3548992,-0.6789767,74.19366,-76.61918,-13.096628,WAL
3444902268000,3.725011,4.17106165676816,13.9472404857803,0.320206616665662,-2.984993,1.0931433,-0.7535023,73.78276,-76.65493,-12.928249,WAL
3444907185000,3.729928,3.63160182924329,13.7484920944629,0.67511437218571,-2.9911017,0.90408057,-0.81092364,73.43524,-76.6533,-12.768161,WAL
3444912299000,3.735042,2.99827180286396,13.4957778329356,0.916699277279236,-2.9898798,0.8210029,-0.86406887,73.21267,-76.54445,-12.641657,WAL
3444917325000,3.740068,2.27619432541766,13.1839717673031,0.978239948353222,-2.982244,0.7620544,-0.9440922,73.0436,-76.37513,-12.540081,WAL
3444922282000,3.745025,1.52786125592315,12.8156795321073,1.0361596919963,-2.962391,0.6560693,-0.9960158,72.94283,-76.08433,-12.510658,WAL
3444927234000,3.749977,0.343836173420323,11.7144871178465,1.06052238214322,-2.8689287,0.5705481,-0.9954049,72.85718,-75.76829,-12.489084,WAL
3444932209000,3.754952,-0.756192535566244,10.6746543470048,1.09849535871447,-2.7406468,0.5012149,-0.9636399,72.7949,-75.334045,-12.58412,WAL
3444937239000,3.759982,-1.17324217413205,10.1396514943594,1.24172446575426,-2.6077838,0.41141775,-0.95539325,72.768135,-74.8967,-12.68038,WAL
3444942187000,3.76493,-1.58349299155225,9.61337035819851,1.38261862512462,-2.497828,0.301462,-0.9575313,72.781654,-74.32339,-12.955144,WAL
3444947210000,3.769953,-1.87630195421422,9.11645686650571,1.25118575914432,-2.4153612,0.11301007,-0.94959,72.85033,-73.77451,-13.211385,WAL
3444967150000,3.789893,-2.93383184622476,7.17550269354697,0.496728515205646,-1.8872682,-1.2559389,-1.0280862,74.10349,-71.48491,-14.460917,WAL
3444972098000,3.794841,-3.19625200197542,6.69386572023705,0.309514149959479,-1.7153096,-1.3891076,-1.0858129,74.56762,-70.90125,-14.841751,WAL
3444977143000,3.799886,-3.30928969700719,6.11253008797122,0.229970133542446,-1.6417004,-1.6334536,-1.105666,75.19377,-70.258896,-15.246409,WAL
3444982101000,3.804844,-3.40038187770743,5.52954000783693,0.166205597540528,-1.5115861,-1.7983873,-1.1407908,75.8404,-69.65087,-15.651327,WAL
3444987142000,3.809885,-3.27491373459028,5.00287810877447,0.0692252445960841,-1.3582588,-1.897042,-1.1487321,76.39761,-69.127045,-16.026394,WAL
3444992086000,3.814829,-3.09833462343313,4.50257045643841,-0.0337792498872889,-1.1817188,-1.9523253,-1.1365148,76.989494,-68.63486,-16.38591,WAL
3444997129000,3.819872,-2.92088395328079,4.31527637177419,-0.0210616014248534,-1.0149527,-1.9657644,-1.1374311,77.56085,-68.140884,-16.740528,WAL
3445002385000,3.825128,-2.73636892314883,4.17227714274194,0.0112285257173754,-0.88208944,-1.9847012,-1.1707232,78.15018,-67.67274,-17.08957,WAL
3445007162000,3.829905,-2.40006461394335,4.11072416372549,0.101829201638344,-0.76083267,-1.969735,-1.20371,78.71676,-67.233246,-17.425598,WAL
3445012139000,3.834882,-1.98469409077045,4.07296328324421,0.219832184051891,-0.70524395,-1.9456058,-1.2159272,79.285835,-66.80601,-17.7591,WAL
3445017205000,3.839948,-1.53380120736842,4.11997590877193,0.436803178842105,-0.66706485,-1.9010127,-1.212262,79.84401,-66.39567,-18.079233,WAL
3445022129000,3.844872,-1.08254574299841,4.20521320212653,0.692514603416268,-0.65118235,-1.8188512,-1.1905763,80.382225,-65.99536,-18.396645,WAL
3445027166000,3.849909,-0.655806841491245,4.33607791697816,0.916049932382451,-0.64843345,-1.7547104,-1.16492,80.92366,-65.60661,-18.687769,WAL
3445032180000,3.854923,-0.240147425201653,4.47777988982884,1.12860308894354,-0.6206391,-1.7186694,-1.1475104,81.44546,-65.23254,-18.969234,WAL
3445037255000,3.859998,0.123799767126151,4.56106540818586,1.28260234922902,-0.57848936,-1.6939293,-1.1224649,81.98528,-64.8862,-19.1747,WAL
3445042133000,3.864876,0.457379467417986,4.62391366518679,1.41313349986547,-0.5384777,-1.6884315,-1.0897835,82.51454,-64.553604,-19.366947,WAL
3445047150000,3.869893,0.72959102109229,4.65448748820093,1.3747192333528,-0.46181414,-1.7009543,-1.0345002,83.05239,-64.27015,-19.465538,WAL
3445052207000,3.87495,0.988902313364486,4.67806141838006,1.29928318847352,-0.39064834,-1.6991217,-0.9660834,83.577446,-64.00568,-19.548475,WAL
3445057220000,3.879963,1.1969843193251,4.65869978814309,1.24501397467269,-0.32467487,-1.7168368,-0.874759,84.13003,-63.794933,-19.549744,WAL
3445062302000,3.885045,1.3944257826111,4.62728847374147,1.19565367913517,-0.25411993,-1.7385225,-0.7806858,84.67291,-63.615704,-19.527433,WAL
3445067224000,3.889967,1.49267791593593,4.55812034464524,1.16575771968375,-0.18142697,-1.7443258,-0.66614854,85.198555,-63.51422,-19.4335,WAL
3445072766000,3.895509,1.54172527034603,4.45457604991272,1.14395886388746,-0.112704635,-1.7464638,-0.5326745,85.71399,-63.450867,-19.304586,WAL
3445077219000,3.899962,1.50732517391134,4.35212905026481,1.10182494473323,-0.009468411,-1.7406605,-0.46883908,86.215164,-63.443047,-19.133781,WAL
3445082208000,3.904951,1.44172090039231,4.23029268909376,1.04559266135739,0.0421497,-1.7238617,-0.32467487,86.68778,-63.484035,-18.904518,WAL
3445087232000,3.909975,1.31901820226629,4.04061435362201,0.926369034358559,0.12950343,-1.6786577,-0.17440203,87.140015,-63.565582,-18.657402,WAL
3445092240000,3.914983,1.16374289235127,3.81255356009713,0.771093775111291,0.22724187,-1.5748106,-0.016798794,87.55042,-63.690144,-18.376492,WAL
3445097197000,3.91994,1.0004749188397,3.60566520345841,0.615906415967491,0.32803464,-1.4223998,0.122783914,87.91116,-63.850304,-18.086485,WAL
3445102246000,3.924989,0.829068615372644,3.40499438786097,0.457042053754107,0.45845437,-1.2174544,0.24312437,88.208725,-64.0627,-17.775707,WAL
3445107192000,3.929935,0.630743974008736,3.25639169969106,0.395526111108981,0.59559363,-1.0088439,0.3155119,88.42917,-64.301445,-17.496305,WAL
3445112275000,3.935018,0.366269240588047,3.19934816944711,0.519984820019175,0.78954333,-0.8313876,0.37415496,88.58593,-64.59813,-17.207315,WAL
3445117211000,3.939954,0.128130310652132,3.21230347410595,0.71556460573341,0.9804387,-0.67103547,0.40591997,88.64695,-64.90996,-16.982655,WAL
3445122223000,3.944966,-0.0921747037521515,3.30409730998279,1.00012527170396,1.1765264,-0.52748215,0.4251622,88.65505,-65.269775,-16.763172,WAL
3445127170000,3.949913,-0.280162484452379,3.48725706734536,1.35238694474573,1.3561208,-0.4071417,0.42821655,88.63017,-65.6098,-16.601744,WAL
3445132196000,3.954939,-0.419503486930426,3.83560945229181,1.83543579019589,1.5063937,-0.3036,0.41172317,88.56716,-65.98014,-16.454033,WAL
3445137149000,3.959892,-0.526317005561078,4.2002324192793,2.34291520841139,1.6077974,-0.22052236,0.39614612,88.49824,-66.291695,-16.360332,WAL
3445142455000,3.965198,-0.56031643551711,4.64708186001721,2.96947560298222,1.6368134,-0.16584991,0.38148534,88.4081,-66.61047,-16.27873,WAL
3445147164000,3.969907,-0.597201228593285,5.11497541266468,3.55852649698258,1.5741998,-0.09285152,0.376293,88.3512,-66.847824,-16.21624,WAL
3445152255000,3.974998,-0.664543096406715,5.91271758733532,4.33036812801742,1.4446963,-0.034513887,0.3717115,88.283745,-67.069275,-16.162144,WAL
3445157194000,3.979937,-0.857895898358787,7.21198366081605,5.15686052963301,1.2699889,0.004886922,0.37507126,88.28961,-67.193985,-16.089739,WAL
3445162296000,3.985039,-1.33310228788846,9.68454171917028,6.17781158905098,1.0439687,0.052534413,0.3915646,88.27545,-67.28096,-16.022488,WAL
3445167215000,3.989958,-1.79126383827977,12.0684133555961,7.16214288291163,0.766025,0.1142318,0.40500367,88.33392,-67.2512,-15.933024,WAL
3445172221000,3.994964,-2.34657140488806,13.9012240720149,7.77662804291045,0.47891834,0.14813483,0.38637227,88.3861,-67.17044,-15.852557,WAL
3445177183000,3.999926,-2.93613999804104,15.4571531352612,8.21548037593283,0.33750305,0.22113322,0.3555236,88.40789,-67.063614,-15.782943,WAL
3445182196000,4.004939,-3.32853081745315,16.6163279234983,8.77640921470447,0.073303826,0.2657264,0.31490102,88.47283,-66.85172,-15.684355,WAL
3445187233000,4.009976,-3.5510624760692,17.4322773868333,9.43936797212879,-0.12767084,0.18142697,0.29077184,88.54318,-66.6342,-15.588866,WAL
3445192218000,4.014961,-3.59474638680888,18.0753783861559,9.78993581584676,-0.25503623,-0.07727446,0.29016098,88.61026,-66.403305,-15.51977,WAL
3445197201000,4.019944,-3.43893050410318,18.5324395597519,9.79512924292555,-0.32406402,-0.44226643,0.30176744,88.719574,-66.159935,-15.437123,WAL
3445202226000,4.024969,-3.18877313732171,18.3557951386688,9.50631606656101,-0.28496864,-0.75869465,0.2611449,88.92679,-65.88248,-15.347113,WAL
3445207224000,4.029967,-2.8853506266046,17.805841376981,9.04644165095087,-0.17562376,-0.8753699,0.17348573,89.167175,-65.6193,-15.253197,WAL
3445212307000,4.03505,-2.44097597139292,16.7367581955457,8.63392465906691,-0.047647487,-0.8552113,0.07819075,89.438705,-65.43169,-15.115691,WAL
3445217248000,4.039991,-1.92767593884996,15.3921843609485,8.26598379975041,0.05497787,-0.7800749,-0.056505036,89.726845,-65.251015,-15.0112705,WAL
3445222221000,4.044964,-1.35412410718309,14.1968565370942,7.95747686609599,0.14721853,-0.68325275,-0.1881465,89.98739,-65.12678,-14.91752,WAL
3445227224000,4.049967,-0.726582984638413,13.1345191707363,7.70197802301431,0.22174409,-0.5403103,-0.2947425,90.217606,-65.00847,-14.868169,WAL
3445232190000,4.054933,-0.162362480522705,12.3558640890776,7.44028917843842,0.27580565,-0.3594942,-0.3494149,90.439964,-64.883,-14.83055,WAL
3445237237000,4.05998,0.316610317438745,12.0084773698138,7.16132709434825,0.30604348,-0.1386664,-0.3631594,90.61365,-64.76194,-14.829649,WAL
3445242218000,4.064961,0.498553013288876,12.0686528765826,6.91346226279115,0.3191771,0.049785517,-0.31642818,90.76622,-64.66193,-14.789027,WAL
3445247237000,4.06998,0.447453559041268,12.4542214109404,6.68583739468445,0.22937989,0.17195857,-0.2302962,90.87136,-64.55136,-14.757543,WAL
3445252207000,4.07495,0.224136696498658,12.9468261884879,6.06052766773039,0.03726278,0.2932153,-0.1572978,90.92252,-64.473145,-14.687916,WAL
3445257223000,4.079966,-0.186560647778109,13.562872169997,5.00035550190874,-0.20647246,0.4801401,-0.10445796,90.91458,-64.37315,-14.621266,WAL
3445262295000,4.085038,-0.584651733377062,14.1341086152214,3.75897836044179,-0.43463063,0.7852673,-0.08093964,90.803024,-64.29304,-14.56352,WAL
3445267241000,4.089984,-0.954741262008296,14.636698931417,2.37000048470146,-0.61636305,0.9596693,-0.08093964,90.674515,-64.172104,-14.505932,WAL
3445272211000,4.094954,-1.22401436194746,15.0950812143818,0.970953162189545,-0.6771441,1.2999213,-0.09682214,90.28894,-64.16914,-14.538709,WAL
3445277218000,4.099961,-1.34009779384022,15.4863257611405,-0.443545348085717,-0.6469063,1.5583172,-0.12675454,89.88435,-64.14345,-14.58548,WAL
3445282166000,4.104909,-1.41880636090153,15.8394903670077,-1.7754964540601,-0.45234573,1.6471981,-0.1518,89.275696,-64.31512,-14.706764,WAL
3445287231000,4.109974,-1.30508690965473,16.0204075899403,-2.78346454064365,-0.099265605,1.5894713,-0.17562376,88.647644,-64.522514,-14.842846,WAL
3445292253000,4.114996,-1.15859382920181,16.0196328150582,-3.44155551838764,0.33292156,1.4385877,-0.20677789,87.861565,-64.96399,-15.02178,WAL
3445297197000,4.11994,-0.935790842857143,15.5992497142857,-3.29442154285714,0.7357872,1.2348641,-0.23060162,87.118324,-65.45861,-15.184015,WAL
3445302392000,4.125135,-0.686777694553856,15.0802536396961,-3.11602985034398,1.0390818,0.9101892,-0.27458394,86.371155,-66.101074,-15.333991,WAL
3445307223000,4.129966,-0.273480321971455,13.6550907820105,-2.6599775473868,1.244638,0.4908302,-0.35124752,85.72208,-66.76659,-15.460827,WAL
3445312197000,4.13494,0.150489333691932,12.1778586002445,-2.21397510660147,1.3478742,0.112704635,-0.40378192,85.193146,-67.41978,-15.53523,WAL
3445317240000,4.139983,0.563778913342648,10.5753070772791,-2.0115475365351,1.3726143,-0.1695151,-0.42180246,84.76277,-68.05907,-15.587863,WAL
3445322183000,4.144926,0.96887318108278,9.0045332961928,-1.81313399720573,1.3154984,-0.3827071,-0.39400807,84.50927,-68.60362,-15.589164,WAL
3445327744000,4.150487,1.4735402084673,7.33402679131303,-1.55949812275587,1.2147056,-0.52748215,-0.3191771,84.31197,-69.13144,-15.564084,WAL
3445332174000,4.154917,1.88444878420369,6.02081378082876,-1.35192579504743,1.0989466,-0.5366451,-0.19028452,84.1284,-69.64471,-15.509309,WAL
3445337269000,4.160012,2.10678676507889,4.87593344305095,-1.44238203064014,1.0516045,-0.40225476,-0.005192355,84.01014,-70.1101,-15.406147,WAL
