timestamp,rel_time,acc_x,acc_y,acc_z,gyro_x,gyro_y,gyro_z,azimuth,pitch,roll,label
493705574000,0,-2.10668906092637,9.71385023354127,-0.603178431942637,-0.043982297,0.022907447,0.02443461,299.67163,-100.23106,-6.838677,STD
493710539000,0.004965,-2.10574067851227,9.71645829013149,-0.591560738704892,-0.0571159,0.03145956,0.022296581,299.66394,-100.24069,-6.814003,STD
493715551000,0.009977,-2.10478331846001,9.71909103527353,-0.579833069317666,-0.061391957,0.032375857,0.02321288,299.65628,-100.25223,-6.7906027,STD
493720562000,0.014988,-2.10382614942133,9.72172325512723,-0.568107739848514,-0.06047566,0.04153884,0.022907447,299.64407,-100.26261,-6.768506,STD
493725562000,0.019988,-2.10287108153201,9.72434969680923,-0.556408149478177,-0.054367006,0.05009095,0.02443461,299.63226,-100.2726,-6.7465854,STD
493730526000,0.024952,-2.10192289013149,9.72695722811112,-0.544792796158507,-0.06291912,0.05467244,0.0290161,299.61948,-100.27897,-6.7246046,STD
493735590000,0.030016,-2.10095559737318,9.72961728824665,-0.532943451031429,-0.064446285,0.042760566,0.02687807,299.60922,-100.28899,-6.7053304,STD
493740547000,0.034973,-2.10000874306771,9.73222114253018,-0.521344477138277,-0.070554934,0.03940081,0.030543262,299.59607,-100.29409,-6.68351,STD
493745537000,0.039963,-2.09905558531417,9.73484233132882,-0.50966828594868,-0.069027774,0.030848695,0.03634648,299.58813,-100.30042,-6.6632247,STD
493750574000,0.045,-2.09809344992246,9.73748820867926,-0.497882118609603,-0.0693332,0.027794369,0.03359759,299.5797,-100.3059,-6.6451173,STD
493755549000,0.049975,-2.09629728142559,9.73801097217961,-0.493801743868822,-0.07819075,0.02443461,0.025961773,299.57413,-100.30966,-6.627994,STD
493760540000,0.054966,-2.09080439840962,9.72941342287687,-0.52269906429817,-0.0693332,0.014660766,0.03573562,299.57205,-100.31453,-6.6079206,STD
493766391000,0.060817,-2.08436503585172,9.71933442849291,-0.556575686584708,-0.06994407,0.015882496,0.04153884,299.5442,-100.274765,-6.5570393,STD
493770530000,0.064956,-2.07980982791682,9.71220454338691,-0.580540024243908,-0.06688975,0.014049901,0.040011674,299.52008,-100.238,-6.506686,STD
493775567000,0.069993,-2.07426631925093,9.70352775399843,-0.609703679423756,-0.058337633,0.02687807,0.043982297,299.49188,-100.200966,-6.4532557,STD
493780520000,0.074946,-2.06881525742402,9.69499566389695,-0.638380984189646,-0.0720821,0.022907447,0.047647487,299.46893,-100.160706,-6.4018645,STD
493785601000,0.080027,-2.06322332422342,9.68624307964385,-0.667799394348235,-0.08124508,0.022296581,0.046120327,299.44135,-100.12422,-6.3510237,STD
493790532000,0.084958,-2.05779647466386,9.67774888697468,-0.696349321624754,-0.07238753,0.024740042,0.048563786,299.4143,-100.088066,-6.299032,STD
493795536000,0.089962,-2.052289284399,9.66912894373467,-0.725321910570548,-0.082161374,0.013133603,0.04520403,299.39117,-100.0478,-6.250673,STD
493800594000,0.09502,-2.04672266402336,9.66041597952444,-0.754607153353886,-0.08827003,0.0012217305,0.04917465,299.3678,-100.009285,-6.2004733,STD
493805573000,0.099999,-2.04124298769867,9.65183910154841,-0.783434995152667,-0.09315695,-0.013744468,0.046120327,299.3482,-99.97149,-6.1547914,STD
493810543000,0.104969,-2.03577321639244,9.64327772706742,-0.812210727978525,-0.09193522,-0.02443461,0.04153884,299.3308,-99.93406,-6.1097364,STD
493815548000,0.109974,-2.03026492556997,9.63465606121684,-0.841189106810199,-0.106595986,-0.03940081,0.047036625,299.31903,-99.891556,-6.0644507,STD
493820580000,0.115006,-2.02472691969212,9.62598788488116,-0.870323812560645,-0.10873401,-0.04550946,0.04153884,299.30704,-99.85571,-6.0246344,STD
493825543000,0.119969,-2.01926485228914,9.61743856867409,-0.899059016185339,-0.10751228,-0.05131268,0.04062254,299.2994,-99.81646,-5.9835253,STD
493830525000,0.124951,-2.01378187429162,9.60885652286638,-0.927904227641763,-0.11301007,-0.05589417,0.034513887,299.2925,-99.777985,-5.9466023,STD
493836402000,0.130828,-2.00731389723595,9.59873274060787,-0.961931386961192,-0.116980694,-0.056505036,0.036651913,299.2862,-99.73973,-5.9086223,STD
493840562000,0.134988,-2.0027355775913,9.59156668068012,-0.986017312223882,-0.11484267,-0.051923547,0.03481932,299.27905,-99.70425,-5.8743615,STD
493847155000,0.141581,-1.99547960128909,9.58020950926097,-1.02419002983372,-0.11209377,-0.05222898,0.036957346,299.27344,-99.6678,-5.839477,STD
493850563000,0.144989,-1.99172890096482,9.57433885247401,-1.04392196091431,-0.116675265,-0.04337143,0.033292156,299.26337,-99.63233,-5.8071003,STD
493855573000,0.149999,-1.98621510735432,9.56570857357063,-1.07292928917538,-0.119729586,-0.037873644,0.033292156,299.25433,-99.59762,-5.7740984,STD
493860553000,0.154979,-1.98073433047202,9.55712997298405,-1.10176292086004,-0.12583824,-0.025961773,0.028710667,299.2404,-99.56335,-5.7436857,STD
493865553000,0.159979,-1.97523154243758,9.54851692018627,-1.13071235026232,-0.118202426,-0.013439035,0.028405234,299.22467,-99.53153,-5.712649,STD
493870561000,0.164987,-1.96971994994229,9.53989008650402,-1.15970809875163,-0.12095132,-0.0021380284,0.031154128,299.20572,-99.49692,-5.682413,STD
493875554000,0.16998,-1.9642248658111,9.53128909198015,-1.18861699895274,-0.12644911,0.009468411,0.03145956,299.1829,-99.46451,-5.653224,STD
493880527000,0.174953,-1.95875179283205,9.52272254966748,-1.21741010143624,-0.12767084,0.032375857,0.029626964,299.15356,-99.43294,-5.623782,STD
493885583000,0.180009,-1.95318737357163,9.51401303067837,-1.24668376444781,-0.10934488,0.056199603,0.039095376,299.1211,-99.403206,-5.5913253,STD
493890563000,0.184989,-1.94770659668933,9.50543443009179,-1.27551739613248,-0.10751228,0.064751714,0.05100725,299.08655,-99.36982,-5.5591297,STD
493895548000,0.189974,-1.942220317019,9.4968472164524,-1.30437997724654,-0.105068825,0.05222898,0.05955936,299.0516,-99.340164,-5.5258875,STD
493900611000,0.195037,-1.93664819385533,9.48812563918937,-1.33369416945928,-0.118507855,0.03848451,0.07544186,299.01547,-99.304436,-5.487784,STD
493905592000,0.200018,-1.93116631641543,9.47954531599223,-1.36253359102982,-0.12034045,0.028405234,0.083383106,298.98206,-99.27233,-5.4507723,STD
493910554000,0.20498,-1.92570534957005,9.47099772239571,-1.39126300476864,-0.13469578,0.017104227,0.08735373,298.95337,-99.232864,-5.4119635,STD
493915547000,0.209973,-1.92021026543887,9.46239672787185,-1.42017190496975,-0.13103059,0.03390302,0.093462385,298.91998,-99.19616,-5.370699,STD
493920557000,0.214983,-1.91469647182836,9.45376644896848,-1.44917923323082,-0.13897185,0.06047566,0.094989546,298.8869,-99.154335,-5.3307433,STD
493925545000,0.219971,-1.90920689048521,9.44517406749741,-1.47805918400253,-0.14538592,0.090713486,0.10354166,298.8485,-99.11228,-5.2873993,STD
493930548000,0.224974,-1.90370080077795,9.43655584686796,-1.50702598306244,-0.16523905,0.119729586,0.10048734,298.8026,-99.06765,-5.2470717,STD
493935608000,0.230034,-1.8981319792871,9.42783943743661,-1.53632280561754,-0.17837265,0.12675454,0.10354166,298.75507,-99.02134,-5.2034006,STD
493940631000,0.235057,-1.89260387842771,9.41918676459596,-1.56540540239506,-0.19364429,0.13439035,0.100792766,298.699,-98.97207,-5.1622267,STD
493945552000,0.239978,-1.88718803444422,9.41070979803239,-1.59389743081278,-0.20433442,0.14294247,0.098043874,298.64105,-98.921036,-5.12095,STD
493950612000,0.245038,-1.88161921295337,9.40199338860104,-1.62319425336788,-0.20616703,0.1563815,0.09712757,298.57977,-98.86943,-5.0804987,STD
493955587000,0.250013,-1.87681757930895,9.3967795848203,-1.64271680398879,-0.20861048,0.18661933,0.09712757,298.5114,-98.81627,-5.0406127,STD
493960543000,0.254969,-1.87540017115319,9.4083550798256,-1.61578603176201,-0.20341812,0.2144137,0.087964594,298.43994,-98.76686,-5.00413,STD
493965541000,0.259967,-1.87397075106389,9.4200286722462,-1.58862703265194,-0.2134974,0.25503623,0.06963864,298.4144,-98.7985,-4.949501,STD
493970564000,0.26499,-1.87253418101417,9.43176065598543,-1.5613321842066,-0.22693644,0.27122417,0.052534413,298.38776,-98.83184,-4.897676,STD
493975545000,0.269971,-1.87110962289797,9.44339454230936,-1.53426556264453,-0.24037547,0.27122417,0.036957346,298.35376,-98.86526,-4.8502865,STD
493980533000,0.274959,-1.86968306279285,9.45504477820251,-1.50716090326858,-0.22876903,0.25167647,0.022602014,298.32043,-98.90361,-4.807989,STD
493985582000,0.280008,-1.86823905678428,9.46683748891311,-1.47972477151454,-0.21930063,0.21624629,0.0030543262,298.29114,-98.94101,-4.772595,STD
493990640000,0.285066,-1.86679247678995,9.47865122049842,-1.45223973399979,-0.2180789,0.17806722,0.0012217305,298.2686,-98.978165,-4.737445,STD
493995540000,0.289966,-1.86539108454555,9.49009591894999,-1.42561326428404,-0.19853121,0.15027285,-0.0067195175,298.2524,-99.0253,-4.710793,STD
494000583000,0.295009,-1.86394879452748,9.50187461574413,-1.39820973637047,-0.17959438,0.13347405,-0.004276057,298.24445,-99.070694,-4.683027,STD
494005568000,0.299994,-1.86252309241761,9.51351784467904,-1.37112137891475,-0.15332718,0.116675265,-0.020463986,298.24344,-99.12592,-4.664141,STD
494010538000,0.304964,-1.861101680284,9.52512603882277,-1.34411453106021,-0.129198,0.10140363,-0.020158553,298.24765,-99.181755,-4.640799,STD
494015551000,0.309977,-1.85966797021845,9.53683466603455,-1.31687402234898,-0.108123146,0.082161374,-0.03359759,298.25665,-99.24675,-4.626987,STD
494020564000,0.31499,-1.8582342601529,9.54854329324633,-1.28963351363774,-0.08368854,0.06505715,-0.044898596,298.2696,-99.31718,-4.613277,STD
494025543000,0.319969,-1.85681027403354,9.56017250826477,-1.2625777600225,-0.06261369,0.046731193,-0.037873644,298.2886,-99.39022,-4.5991983,STD
494030479000,0.324905,-1.85539858584611,9.57170129021517,-1.23575566726394,-0.051618114,0.03390302,-0.045814894,298.3099,-99.46928,-4.5931892,STD
494035594000,0.33002,-1.85393570394201,9.58364815400696,-1.20796089326475,-0.044898596,0.0106901415,-0.049785517,298.33987,-99.549706,-4.5854754,STD
494040558000,0.334984,-1.8525160077989,9.59524233423422,-1.18098664925067,-0.02321288,-0.014049901,-0.045814894,298.37396,-99.63533,-4.5785685,STD
494047100000,0.341526,-1.85064500615341,9.61052217449344,-1.14543759519344,-0.01985312,-0.02687807,-0.043066,298.41104,-99.71742,-4.5737996,STD
494050564000,0.34499,-1.84965430763614,9.61861287560287,-1.12661431129643,-0.015882496,-0.028710667,-0.047036625,298.45187,-99.80414,-4.5706377,STD
494055568000,0.349994,-1.84822317155635,9.63030048193994,-1.0994227083459,-0.012217305,-0.02443461,-0.051923547,298.49463,-99.89004,-4.56752,STD
494060536000,0.354962,-1.84680233141957,9.64190400477819,-1.07242672843818,-0.009468411,0.0070249503,-0.0421497,298.5306,-99.97394,-4.560509,STD
494065549000,0.359975,-1.84536862135402,9.65361263198997,-1.04518621972695,-0.015882496,0.025350908,-0.03848451,298.56857,-100.05651,-4.557203,STD
494070589000,0.365015,-1.8439271893312,9.66538432182587,-1.01779899373361,-0.020463986,0.04184427,-0.03390302,298.5987,-100.13745,-4.5498476,STD
494075558000,0.369984,-1.84250606319601,9.67699018031685,-0.990797579852474,-0.030543262,0.049480084,-0.029932396,298.62637,-100.213585,-4.541519,STD
494080534000,0.37496,-1.8410829350719,9.68861238837706,-0.963758128157461,-0.028405234,0.05467244,-0.021991149,298.65063,-100.28925,-4.5304847,STD
494085589000,0.380015,-1.83963721307282,9.70041911300414,-0.93628939256295,-0.02565634,0.04642576,-0.015577064,298.67682,-100.36094,-4.519413,STD
494091145000,0.385571,-1.83804820586672,9.71339599965657,-0.906098236289339,-0.038179077,0.0421497,-0.015271631,298.70068,-100.42778,-4.5078225,STD
494095575000,0.390001,-1.83678123287841,9.72374294131788,-0.882025734076939,-0.062308256,0.047036625,-0.0021380284,298.72537,-100.48875,-4.491245,STD
494100552000,0.394978,-1.83535781875588,9.73536748503083,-0.854980848408515,-0.06505715,0.04184427,-0.005192355,298.75354,-100.55289,-4.480299,STD
494105555000,0.399981,-1.8339269686745,9.74705275571516,-0.827794679431396,-0.09010262,0.027183503,0.002443461,298.78424,-100.601166,-4.4634123,STD
494110535000,0.404961,-1.83250269655672,9.75868430638635,-0.800733491842738,-0.112399206,0.029321533,0.0030543262,298.81128,-100.64978,-4.449341,STD
494115539000,0.409965,-1.83107156047692,9.77037191272342,-0.773541888892207,-0.122783914,0.02076942,0.007330383,298.84604,-100.69293,-4.433854,STD
494120565000,0.414991,-1.82963413243195,9.78211090342088,-0.746230738526626,-0.12461651,0.014660766,0.014966198,298.8797,-100.73148,-4.4175687,STD
494125574000,0.42,-1.82820156636007,9.79381018802168,-0.719011965709038,-0.15118915,0.008857546,0.018020526,298.9156,-100.76044,-4.402336,STD
494130501000,0.424927,-1.8267924521584,9.80531794909737,-0.692238778711183,-0.16615535,0.0009162979,0.0143553335,298.9538,-100.791405,-4.38785,STD
494135573000,0.429999,-1.82534186818623,9.81716437982112,-0.664677665568679,-0.18020524,-0.008246681,0.017715093,298.9943,-100.814255,-4.3714676,STD
494140569000,0.434995,-1.82391302009377,9.82883330093622,-0.637529534405439,-0.18600847,-0.02443461,0.0143553335,299.03836,-100.83638,-4.3593025,STD
494145551000,0.439977,-1.82248817597916,9.8404695229129,-0.610457478869959,-0.19303341,-0.03390302,0.020158553,299.08344,-100.85299,-4.3442755,STD
494150542000,0.444968,-1.82106075787878,9.85212676576428,-0.583336517573776,-0.20769419,-0.032986723,0.018325957,299.12933,-100.86735,-4.333139,STD
494155871000,0.450297,-1.81880010910707,9.86503638927648,-0.552999685387753,-0.21624629,-0.050701816,0.01863139,299.18323,-100.8806,-4.321687,STD
494160618000,0.455044,-1.79978355774982,9.88722236349602,-0.49413893253756,-0.22113322,-0.03573562,0.016493361,299.22702,-100.89158,-4.31027,STD
494165552000,0.459978,-1.78001788166037,9.91028231647669,-0.432959460331356,-0.2312125,-0.049785517,0.02107485,299.22183,-100.79418,-4.274483,STD
494170562000,0.464988,-1.75994774846049,9.93369746938166,-0.37083762090025,-0.23976462,-0.05222898,0.020463986,299.20877,-100.698654,-4.2399464,STD
494175555000,0.469981,-1.739945717509,9.95703316967198,-0.308926574137871,-0.2507602,-0.04550946,0.031154128,299.19788,-100.599976,-4.2016983,STD
494180529000,0.474955,-1.72001980083511,9.98028006998122,-0.247251119181718,-0.26175576,-0.062002823,0.032986723,299.19373,-100.50213,-4.16787,STD
494185589000,0.480015,-1.6997493669047,10.0039289070469,-0.184509301313175,-0.27091873,-0.073303826,0.041233405,299.18692,-100.401924,-4.1291924,STD
494190567000,0.484993,-1.67980742617237,10.027194502089,-0.122784248082027,-0.2874121,-0.09162979,0.054367006,299.18695,-100.29824,-4.090334,STD
494195500000,0.489926,-1.66004575609752,10.0502497813865,-0.0616171754445723,-0.30115658,-0.12186762,0.061086524,299.19342,-100.19478,-4.0526605,STD
494200574000,0.495,-1.63971923796256,10.0739640500172,0.00129823638645288,-0.30970868,-0.13255776,0.06047566,299.19952,-100.089935,-4.0139785,STD
494205559000,0.499985,-1.61974925512796,10.0972623608418,0.0631100865988418,-0.32467487,-0.14202617,0.06627888,299.2141,-99.98063,-3.9736283,STD
494210537000,0.504963,-1.59980731439563,10.1205279558839,0.124835139829989,-0.3304781,-0.14385876,0.058948494,299.22855,-99.87543,-3.937977,STD
494215549000,0.509975,-1.57972916916653,10.1439524561553,0.186981778398594,-0.33017266,-0.13897185,0.071776666,299.24445,-99.76735,-3.8958127,STD
494220529000,0.514955,-1.55977921640498,10.1672273985638,0.248731630767239,-0.35124752,-0.14446963,0.07391469,299.26254,-99.65659,-3.859923,STD
494225575000,0.520001,-1.53956486667912,10.1908108040645,0.3112998546733,-0.35796702,-0.14202617,0.07849618,299.27716,-99.5503,-3.8198464,STD
494230977000,0.525403,-1.51792437575183,10.2160580407896,0.378282325053906,-0.3680463,-0.14630222,0.08674286,299.29495,-99.439384,-3.7793634,STD
494235574000,0.53,-1.49950872658619,10.237542962527,0.43528314259179,-0.38912117,-0.14630222,0.089186326,299.3102,-99.3264,-3.7396526,STD
494240558000,0.534984,-1.4795427497662,10.2608365996683,0.49708259323543,-0.40042216,-0.15424347,0.09560041,299.32886,-99.21441,-3.69776,STD
494247117000,0.541543,-1.45326729993427,10.2914912878727,0.57841136465831,-0.41141775,-0.172264,0.103847094,299.3499,-99.09902,-3.6558146,STD
494250551000,0.544977,-1.43951064576094,10.3075407160315,0.620991483741428,-0.44440445,-0.19242255,0.109650314,299.37332,-98.97703,-3.613925,STD
494255548000,0.549974,-1.419492590751,10.3308951110547,0.682952128778802,-0.48349985,-0.20433442,0.12339478,299.3994,-98.851326,-3.568641,STD
494260566000,0.554992,-1.39939040943424,10.3543476534254,0.745173164759898,-0.52931476,-0.24129178,0.124311075,299.43726,-98.71886,-3.5279617,STD
494265531000,0.559957,-1.37950054689185,10.3775524905857,0.806737023597313,-0.5751296,-0.2574797,0.14538592,299.47308,-98.57525,-3.4781368,STD
494270573000,0.564999,-1.35930222122443,10.4011172013535,0.869255649228379,-0.5992588,-0.2733622,0.16249016,299.51813,-98.42897,-3.431432,STD
494275556000,0.569982,-1.33934025041905,10.4244061648117,0.93104270030327,-0.6404922,-0.29749137,0.1881465,299.57016,-98.26632,-3.3781228,STD
494280570000,0.574996,-1.31925409316073,10.4478400124495,0.993214138009372,-0.66675943,-0.3136793,0.22174409,299.62418,-98.102036,-3.318951,STD
494285636000,0.580062,-1.29895962314266,10.4715168916145,1.05603035329041,-0.6786713,-0.32467487,0.26297748,299.68347,-97.93072,-3.2520976,STD
494290575000,0.585001,-1.27917391698015,10.4946002130112,1.11727182334035,-0.70066243,-0.33628133,0.30634892,299.74738,-97.749825,-3.1769466,STD
494295538000,0.589964,-1.25929206646698,10.5177957028051,1.17881088304027,-0.6786713,-0.33658674,0.3484986,299.81107,-97.57682,-3.09192,STD
494300680000,0.595106,-1.23869313933848,10.5418277818944,1.24256946554621,-0.6658431,-0.3472769,0.40439278,299.88135,-97.39344,-2.9931529,STD
494305572000,0.599998,-1.21909571586268,10.5646914401801,1.30322815586497,-0.65301496,-0.36896262,0.45723262,299.9545,-97.21572,-2.8856378,STD
494310558000,0.604984,-1.19912172701346,10.5879944246879,1.36505240564611,-0.65179324,-0.39003745,0.5204572,300.03098,-97.035355,-2.7619362,STD
494315535000,0.609961,-1.17918379229574,10.6112553460468,1.4267650593085,-0.6429357,-0.41813725,0.5687156,300.11502,-96.86099,-2.6310444,STD
494320543000,0.614969,-1.15912167112509,10.6346611515853,1.48886209960211,-0.6261369,-0.44073927,0.6310238,300.20404,-96.685936,-2.481675,STD
494325555000,0.619981,-1.13904352589599,10.6580856518567,1.55100873817072,-0.61208695,-0.4615087,0.6930266,300.30002,-96.51322,-2.322762,STD
494330537000,0.624963,-1.11908556110522,10.6813699416317,1.61278338967686,-0.59223384,-0.46670106,0.75441855,300.3978,-96.346634,-2.1501663,STD
494335674000,0.6301,-1.09850666404978,10.7053786523049,1.67647997433905,-0.57604593,-0.4541783,0.81122905,300.49603,-96.18436,-1.9653559,STD
494340584000,0.63501,-1.07883713231098,10.7283264368884,1.73736185689529,-0.56046885,-0.44409904,0.8390234,300.5952,-96.03198,-1.7759509,STD
494345570000,0.639996,-1.05886314346176,10.7516294213962,1.79918610667643,-0.5299256,-0.41813725,0.88147855,300.68628,-95.89054,-1.5700775,STD
494350585000,0.645011,-1.03877298018883,10.7750679427173,1.86136994395128,-0.52839845,-0.4269948,0.9098838,300.7827,-95.753296,-1.3658137,STD
494355511000,0.649937,-1.01903935221626,10.7980905062322,1.92245021960749,-0.54244834,-0.43035457,0.93828905,300.86935,-95.62658,-1.1535757,STD
494360556000,0.654982,-0.994495200974163,10.893481888183,1.85605897746718,-0.5702427,-0.42149702,0.9822713,300.95428,-95.50382,-0.9338409,STD
494365534000,0.65996,-0.969255201821262,11.0045380952986,1.76014687526472,-0.59986967,-0.3930918,1.029308,301.03342,-95.38576,-0.7098986,STD
494370559000,0.664985,-1.04151665460455,11.1006916576381,1.62151002231853,-0.6383542,-0.32559118,1.0708468,300.93985,-95.012344,-0.3716742,STD
494375609000,0.670035,-1.12249457098395,11.1959597360386,1.47860780523983,-0.6731735,-0.23793201,1.0977248,300.82947,-94.658134,-0.030025506,STD
494380550000,0.674976,-1.2797540230039,11.2604636833217,1.32411433320676,-0.6945538,-0.13805555,1.0934488,300.72275,-94.3489,0.32455522,STD
494385564000,0.67999,-1.4476998244229,11.3228438158289,1.1657654289997,-0.7141015,-0.044898596,1.073901,300.5907,-94.06932,0.67675096,STD
494390575000,0.685001,-1.62343785958611,11.372116060989,1.05088469276191,-0.72418076,0.074830994,1.0381655,300.4587,-93.85824,1.0151608,STD
494395486000,0.689912,-1.79657218163367,11.4189090813849,0.943260672559944,-0.75594574,0.20616703,0.9963212,300.29477,-93.67852,1.3410985,STD
494400596000,0.695022,-1.97703706294894,11.3091196423025,0.962096299665114,-0.8020661,0.34513888,0.958753,300.13467,-93.56323,1.6388898,STD
494405524000,0.69995,-2.15111892604349,11.1808486145409,0.998745106654048,-0.8723156,0.43799037,0.91965765,299.94843,-93.46985,1.9194782,STD
494410505000,0.704931,-2.22213712277156,11.1078204128473,0.847552574124865,-0.9401216,0.4978552,0.8872818,299.75864,-93.42821,2.1791852,STD
494416190000,0.710616,-2.27616857527066,11.0390526340671,0.626514450207506,-1.0112875,0.57543504,0.8680395,299.53564,-93.402565,2.4275417,STD
494420564000,0.71499,-2.35655523865751,10.8069138410501,0.3489466726965,-1.039998,0.66798115,0.8371908,299.30017,-93.42087,2.668902,STD
494425513000,0.719939,-2.46680205268055,10.455174684537,-0.01854259628179,-1.0574077,0.7635816,0.79717916,299.0396,-93.4549,2.897773,STD
494430575000,0.725001,-2.43508531301415,10.1470851468605,-0.154311491370761,-1.0607675,0.80939645,0.7425067,298.8081,-93.580505,3.1496289,STD
494435651000,0.730077,-2.36581799617175,9.85154400351477,-0.228196731881448,-1.0656544,0.82986045,0.72234815,298.55447,-93.72043,3.3957138,STD
494440632000,0.735058,-2.24043550976697,9.59664188382266,-0.125944630900143,-1.0491611,0.75777835,0.6808093,298.37805,-93.974625,3.6884792,STD
494447143000,0.741569,-2.04634778687642,9.28190484344242,0.0996166810027762,-1.0161743,0.61727935,0.6420194,298.21338,-94.22618,3.9713757,STD
494450563000,0.744989,-1.92184733495971,9.17491902461952,0.25003868992838,-0.9691377,0.464563,0.5742133,298.0808,-94.47319,4.2376404,STD
494455523000,0.749949,-1.70390423558639,9.11644641942704,0.52113864659803,-0.9282097,0.36163223,0.54153204,297.97284,-94.71993,4.4983788,STD
494460468000,0.754894,-1.48997833191216,9.07866920031655,0.692532279552874,-0.9080512,0.26358834,0.5366451,297.94086,-95.520004,5.240863,STD
494465521000,0.759947,-1.27456417832624,9.05952138440993,0.773910952020971,-0.8857546,0.22937989,0.52778757,297.9209,-96.296646,5.956591,STD
494470540000,0.764966,-1.08466448178406,9.03573235977477,0.835552970392176,-0.8414669,0.23579398,0.5109888,297.9105,-97.14814,6.7545104,STD
494475551000,0.769977,-0.918742465454905,9.00728851200237,0.878218643048504,-0.77457714,0.24923302,0.4886922,297.90866,-97.98076,7.5303698,STD
494480537000,0.774963,-0.758022273928713,8.96756790217822,0.913885299374257,-0.7104363,0.23548855,0.46517387,297.93298,-98.97063,8.450472,STD
494486331000,0.780757,-0.576724766994059,8.90713590851485,0.946848478281188,-0.65484756,0.20708331,0.4428773,297.95834,-99.936134,9.3421755,STD
494490543000,0.784969,-0.469316470308247,8.86070420076942,0.923667494787209,-0.57818395,0.15577064,0.42485678,297.99673,-100.984634,10.301476,STD
494495568000,0.789994,-0.365178201157009,8.80284964438567,0.849613614287088,-0.49663344,0.14477506,0.42149702,298.03204,-102.010284,11.234238,STD
494510405000,0.804831,-0.0421269909207686,8.64501408657168,0.676808595433938,-0.34147367,0.14996742,0.4266894,298.36987,-105.46687,14.35173,STD
494515441000,0.809867,0.119260397503238,8.6346017869171,0.770517367946891,-0.30879238,0.15607607,0.44837508,298.52225,-106.698425,15.448345,STD
494520383000,0.814809,0.243972773778401,8.64677089385873,0.836918573483221,-0.27214047,0.14905111,0.44776422,298.73257,-108.04395,16.635098,STD
494525425000,0.819851,0.324304514271794,8.6903794725259,0.869051279267041,-0.21471913,0.14874569,0.46883908,298.94135,-109.36298,17.794054,STD
494530403000,0.824829,0.403616573806921,8.73343451112273,0.900776112545869,-0.19486602,0.16218472,0.47158796,299.16296,-110.72148,18.994677,STD
494535506000,0.829932,0.484920197713661,8.77757068266946,0.933297571811009,-0.14385876,0.18936823,0.49021935,299.3816,-112.0536,20.164145,STD
494540388000,0.834814,0.541493956580544,8.81679969100052,0.962064738841685,-0.11301007,0.22999077,0.50579643,299.59116,-113.3416,21.294659,STD
494545424000,0.83985,0.520586719212762,8.84606996740073,0.98297195437836,-0.08032878,0.2733622,0.5164866,299.79083,-114.597015,22.39239,STD
494551221000,0.845647,0.497660639803922,8.87670004852941,1.00889780544118,-0.053145275,0.3295618,0.52412236,300.01495,-115.923615,23.565216,STD
494555566000,0.849992,0.493581110784314,8.86446120588235,1.04969313823529,-0.020158553,0.35521814,0.52931476,300.2318,-117.2103,24.699045,STD
494560422000,0.854848,0.489021802862745,8.85078299647059,1.09528626505882,-0.025045475,0.4034765,0.5314528,300.4082,-118.418495,25.771507,STD
494565487000,0.859913,0.467457210886139,8.84058529574257,1.16840457890099,-0.009468411,0.44776422,0.5290093,300.5727,-119.59276,26.809927,STD
494570419000,0.864845,0.44407462330198,8.83123256346535,1.24322882987129,-0.007330383,0.48991394,0.5235115,300.71713,-120.72616,27.81729,STD
494575461000,0.869887,0.384254190613883,8.79604875152786,1.38963108566086,-0.009468411,0.5369505,0.50701815,300.8408,-121.76149,28.755278,STD
494580457000,0.874883,0.318789829428076,8.75677024783362,1.54674555615251,-0.00580322,0.56321776,0.49449542,300.95078,-122.76677,29.667444,STD
494585547000,0.879973,0.262061820187214,8.70184184969684,1.77342266270609,-0.02565634,0.59681535,0.4728097,301.02487,-123.69525,30.52772,STD
494590414000,0.88484,0.212481643040102,8.6423454797362,2.02132349667057,-0.04337143,0.61727935,0.44501534,301.08514,-124.59364,31.36117,STD
494595463000,0.889889,0.144524971453134,8.62555916050413,2.18505544193306,-0.04153884,0.6301075,0.41722095,301.06357,-125.32028,32.064262,STD
494600559000,0.894985,0.0712037693898673,8.62148567815708,2.32355111955596,-0.056199603,0.63621616,0.38056904,301.02585,-126.0174,32.744118,STD
494605526000,0.899952,-0.00210457631544319,8.635450454601,2.46000710018799,-0.056199603,0.6536258,0.34238997,300.88718,-126.54087,33.29463,STD
494610568000,0.904994,-0.079260929378701,8.67629804770185,2.60070392299088,-0.06352998,0.66156703,0.31123585,300.73846,-127.04586,33.828903,STD
494615540000,0.909966,-0.16132117469568,8.70388355246149,2.70782946229667,-0.06811147,0.64476824,0.2843578,300.52148,-127.42352,34.262638,STD
494620574000,0.915,-0.259994364061187,8.69869039281482,2.73379607395239,-0.055283304,0.6404922,0.26542094,300.28763,-127.7917,34.686768,STD
494625611000,0.920037,-0.331636891517532,8.67818839719495,2.75244404446003,-0.05009095,0.636827,0.23945917,299.99933,-128.06296,35.033806,WAL
494630538000,0.924964,-0.366931837232352,8.63848147615708,2.76126772791024,-0.03970624,0.6407976,0.2302962,299.70224,-128.333,35.37703,WAL
494635623000,0.930049,-0.384691325873089,8.60026547383048,2.78361255257063,-0.04184427,0.63438356,0.2125811,299.38376,-128.5477,35.669502,WAL
494640595000,0.935021,-0.358225805124595,8.5693891005095,2.83654374145438,-0.04795292,0.6093381,0.19303341,299.06235,-128.7583,35.954967,WAL
494645483000,0.939909,-0.328937035881496,8.54303294414765,2.8862655274405,-0.04153884,0.5699373,0.1863139,298.7348,-128.94904,36.219624,WAL
494650584000,0.94501,-0.271995264080622,8.54777818717824,2.91948148542982,-0.029321533,0.54183745,0.18417588,298.40417,-129.1342,36.476616,WAL
494655569000,0.949995,-0.216638245675596,8.55340837562555,2.95196541595525,-0.009162978,0.5158757,0.17440203,298.0674,-129.31038,36.724537,WAL
494660572000,0.954998,-0.164921987741144,8.57221417692081,2.9848756909528,0.009468411,0.47739118,0.17256944,297.73907,-129.48763,36.96863,WAL
494665770000,0.960196,-0.110821795971934,8.59210428382251,3.01498571617749,0.026572637,0.43890667,0.16401732,297.4273,-129.69424,37.239616,WAL
494670574000,0.965,-0.0562626744460915,8.61483723529993,2.99225276470007,0.040317107,0.4025602,0.15790866,297.1219,-129.90031,37.505272,WAL
494675763000,0.970189,0.00559791783434209,8.64145213954067,2.97198215707653,0.043982297,0.37934732,0.13347405,296.81354,-130.10553,37.769417,WAL
494680548000,0.974974,0.119581053312329,8.70604229997513,3.03657267457093,0.05467244,0.36010507,0.12767084,296.5114,-130.31367,38.03182,WAL
494685618000,0.980044,0.24035315297239,8.77447952325678,3.10501027617942,0.06505715,0.34605515,0.12095132,296.21933,-130.54153,38.30812,WAL
494690643000,0.985069,0.3113367144659,8.82511768385374,3.1436321164544,0.06841691,0.33169982,0.10903945,295.92673,-130.76373,38.57678,WAL
494695569000,0.989995,0.350100357641742,8.86388160024651,3.16301387226787,0.089491755,0.3213151,0.0983493,295.63077,-130.9838,38.840054,WAL
494700561000,0.994987,0.392032252351577,8.90893729946578,3.1980365695192,0.08155051,0.30848694,0.0888809,295.332,-131.23828,39.14156,WAL
494705558000,0.999984,0.435444990602762,8.95717363612539,3.24144927251285,0.08857546,0.31398472,0.0852157,295.0226,-131.49039,39.438133,WAL
494710582000,1.005008,0.461740152599199,8.97637561485257,3.26774441652712,0.09896017,0.3200934,0.070554934,294.70267,-131.72899,39.722755,WAL
494715559000,1.009985,0.479091356998544,8.98071350427739,3.28509561186749,0.094989546,0.32284227,0.07147124,294.37576,-131.96646,40.00685,WAL
494720472000,1.014898,0.490459154420732,8.96262495579268,3.30054745590701,0.09468412,0.3295618,0.073303826,294.0323,-132.20006,40.29044,WAL
494725567000,1.019993,0.495107953582317,8.91613696417683,3.31449395047637,0.092240654,0.35277468,0.067500606,293.6737,-132.42757,40.56937,WAL
494730567000,1.024993,0.498750456696624,8.86306872883251,3.32390851538594,0.094989546,0.37232238,0.067500606,293.30496,-132.6586,40.852234,WAL
494735586000,1.030012,0.50081736312578,8.79692756770587,3.32597544555579,0.086437434,0.40225476,0.058643065,292.91486,-132.88077,41.12902,WAL
494741304000,1.03573,0.503172129207052,8.72157487606966,3.32833023868415,0.093767814,0.43066,0.053145275,292.5075,-133.09949,41.403004,WAL
494745555000,1.039981,0.504922760653623,8.66555453816384,3.33008089023866,0.093462385,0.47342056,0.054367006,292.07565,-133.31287,41.67506,WAL
494752162000,1.046588,0.507904191147831,8.57865158129242,3.33389597362054,0.102319926,0.5170974,0.044898596,291.62265,-133.50983,41.93239,WAL
494755561000,1.049987,0.514307583529065,8.53702979492476,3.35630774331661,0.109650314,0.52931476,0.039095376,291.15784,-133.70476,42.18768,WAL
494760536000,1.054962,0.523680009859349,8.4761094103472,3.38911108378086,0.11026118,0.5503896,0.029932396,290.6642,-133.89491,42.441402,WAL
494765562000,1.059988,0.545921440006718,8.41244173396036,3.43816045710447,0.10567969,0.5662721,0.01985312,290.15912,-134.08034,42.68962,WAL
494770585000,1.065011,0.574199074010749,8.34780667433658,3.49471569136715,0.112399206,0.5696318,0.0033597588,289.64124,-134.25916,42.92991,WAL
494775565000,1.069991,0.617142201165783,8.30620841862225,3.54786972339137,0.10354166,0.5555819,-0.014660766,289.10895,-134.42502,43.16031,WAL
494780542000,1.074968,0.694459850416351,8.31651764950795,3.5942604012112,0.11362094,0.5363397,-0.017715093,288.56915,-134.58939,43.386257,WAL
494785580000,1.080006,0.752445825478939,8.36948761319917,3.63935948688961,0.09896017,0.47952923,-0.028099801,288.02362,-134.73184,43.592575,WAL
494790585000,1.085011,0.785544719461379,8.47351281296242,3.68191516963599,0.099265605,0.42088616,-0.03573562,287.4787,-134.8736,43.79408,WAL
494795439000,1.089865,0.819103390348926,8.60436162241181,3.7373589364839,0.10445796,0.3662137,-0.040011674,286.94135,-135.02852,44.00677,WAL
494800564000,1.09499,0.856742290368098,8.78785106595092,3.81734165552147,0.09590584,0.29168814,-0.030543262,286.4278,-135.18211,44.21333,WAL
494805493000,1.099919,0.80044322489391,8.99161667328094,3.87967831033399,0.08368854,0.22602014,-0.021685716,285.91437,-135.33206,44.41408,WAL
494811276000,1.105702,0.512105151277014,9.2962762475442,3.9177606719057,0.07360926,0.17440203,-0.015577064,285.41833,-135.48116,44.61009,WAL
494815460000,1.109886,0.345022880816779,9.44002027104971,3.92386507455884,0.0711658,0.14905111,-0.005497787,284.91434,-135.63019,44.806206,WAL
494820524000,1.11495,0.242326911455077,9.43023950509227,3.87985254689926,0.07544186,0.1301143,-0.004581489,284.42154,-135.77565,44.99557,WAL
494825499000,1.119925,0.161860185389614,9.41831686400864,3.85645285432454,0.070249505,0.1255328,-0.0027488936,283.90915,-135.8187,45.08547,WAL
494830545000,1.124971,0.127066148401404,9.40091994905949,3.87819911154712,0.071776666,0.15027285,0.002443461,283.38873,-135.86313,45.175285,WAL
494835593000,1.130019,0.0989198265558878,9.3872408501576,3.90721567664269,0.06627888,0.17684549,-0.005192355,282.87277,-135.87915,45.23482,WAL
494840575000,1.135001,0.129768708782672,9.40652138745656,3.99976221541259,0.06505715,0.22204952,-0.0070249503,282.33636,-135.89853,45.297905,WAL
494847679000,1.142105,0.179442969618597,9.43700614259837,4.13273837541512,0.06169739,0.28252518,-0.015577064,281.773,-135.89703,45.341953,WAL
494850555000,1.144981,0.270910776389252,9.48689752148536,4.19926045511724,0.055588737,0.29779682,-0.020463986,281.20642,-135.89638,45.385143,WAL
494855536000,1.149962,0.429325639228137,9.57330536510013,4.31447133098521,0.04337143,0.32162055,-0.01160644,280.58325,-135.87831,45.416378,WAL
494860556000,1.154982,0.611831003635779,9.72570317374517,4.38992430759331,0.03634648,0.3390302,-0.0033597588,279.95343,-135.85948,45.444546,WAL
494865538000,1.159964,0.806280029193479,9.9150352033462,4.44109506864007,0.0036651916,0.33017266,0.0125227375,279.32266,-135.8448,45.47533,WAL
494870569000,1.164995,0.974517270705752,10.2079443293846,4.42359531630358,-0.01740966,0.28130344,0.049785517,278.6733,-135.86522,45.539883,WAL
494875689000,1.170115,1.13696056595723,10.5377533365124,4.38421521229796,-0.05100725,0.18967366,0.08246681,278.04227,-135.8877,45.603283,WAL
494881241000,1.175667,1.1726884839494,10.9253742470844,4.00525376473611,-0.06719518,0.05589417,0.119729586,277.4316,-135.9772,45.727615,WAL
494885668000,1.180094,1.17687868889109,11.2396400552481,3.64489583347499,-0.06780604,-0.12644911,0.14446963,276.875,-136.07033,45.85002,WAL
494890579000,1.185005,1.06827923579125,11.4230030412325,3.04336138730074,-0.018020526,-0.30085114,0.14049901,276.3659,-136.22206,46.022293,WAL
494895533000,1.189959,0.924626250574406,11.5582059027518,2.3757976886989,0.04734206,-0.43585235,0.12675454,275.91165,-136.3742,46.19028,WAL
494900588000,1.195014,0.71234265896006,11.5549266797287,1.73874248447626,0.13622294,-0.48166725,0.096516706,275.5619,-136.60873,46.425884,WAL
494905565000,1.199991,0.440388770218538,11.4163840165788,1.15378507645064,0.24373524,-0.47891834,0.058643065,275.2412,-136.83087,46.64577,WAL
494910501000,1.204927,0.1532627129391,11.2360119947043,0.870306038614298,0.33505958,-0.47678033,0.030543262,275.0758,-137.19083,46.982502,WAL
494915529000,1.209955,-0.148957532027067,11.0282353309797,0.747529078273022,0.39736784,-0.5213735,0.009162978,274.92133,-137.52945,47.29509,WAL
494920542000,1.214968,-0.49374738250281,10.8375687411015,0.568641298501311,0.42088616,-0.5522222,-0.01863139,274.86624,-137.88121,47.60706,WAL
494925540000,1.219966,-0.86587039205695,10.6582324863245,0.35343764295991,0.41783184,-0.6267477,-0.022296581,274.8433,-138.22229,47.90379,WAL
494930545000,1.224971,-1.32504970053248,10.4742740070288,0.0567244838541001,0.41996986,-0.6844745,-0.04337143,274.86127,-138.42113,48.056087,WAL
494935611000,1.230037,-1.88822920553781,10.283102913099,-0.335951119317359,0.4428773,-0.7275405,-0.064446285,274.89905,-138.61545,48.199997,WAL
494940631000,1.235057,-2.36389319670614,10.1087829091414,-0.528995406868986,0.48716503,-0.75991637,-0.08857546,275.01495,-138.66043,48.187366,WAL
494945560000,1.239986,-2.77880682139156,9.94718485973353,-0.594508092131754,0.5516113,-0.79717916,-0.113926366,275.14453,-138.70259,48.166386,WAL
494950906000,1.245332,-3.17587946799308,9.76580781920415,-0.566829310233564,0.63071835,-0.82802784,-0.14172074,275.3738,-138.59416,47.981033,WAL
494955576000,1.250002,-3.47087793447232,9.60138271431661,-0.445928347809256,0.6646214,-0.88178396,-0.18173242,275.61972,-138.48154,47.784367,WAL
494960497000,1.254923,-3.6638921026908,9.36614021670018,-0.568559503753711,0.6814202,-0.9407325,-0.22357668,275.90192,-138.23792,47.44824,WAL
494965533000,1.259959,-3.77473107256535,9.07980626745188,-0.877984894610744,0.7324274,-0.977079,-0.27916542,276.18604,-137.9888,47.09744,WAL
494970549000,1.264975,-3.84768461649949,8.83096683254862,-1.29841499117707,0.8185594,-1.0207558,-0.34880406,276.46808,-137.65747,46.65797,WAL
494975565000,1.269991,-3.88210228298874,8.6195437160696,-1.8343475858956,0.9477574,-1.0641272,-0.41691554,276.75323,-137.32254,46.202877,WAL
494980534000,1.27496,-3.87576650119658,8.48181412203229,-2.24923078494777,1.1026118,-1.1074986,-0.4972443,277.11972,-136.9837,45.71393,WAL
494985635000,1.280061,-3.83401329025641,8.40294723646724,-2.57397822336182,1.2394456,-1.1468995,-0.56169057,277.48724,-136.64566,45.208588,WAL
494990609000,1.285035,-3.74306848183867,8.40657683776476,-2.71750411505182,1.3579534,-1.1969905,-0.623388,277.96674,-136.34584,44.689793,WAL
494995558000,1.289984,-3.59118225684743,8.50862521280857,-2.64868067593511,1.4456125,-1.2596041,-0.68691796,278.44507,-136.04797,44.148773,WAL
495000554000,1.29498,-3.43785358841821,8.61164272780532,-2.57920362969806,1.4834863,-1.3023647,-0.74067414,278.97775,-135.80307,43.61711,WAL
495005559000,1.299985,-3.28424870741575,8.71484582279305,-2.50960142465074,1.4608842,-1.3451253,-0.79504114,279.50934,-135.55899,43.062954,WAL
495010499000,1.304925,-3.05296116952117,8.90426559409347,-2.49641071804454,1.4132367,-1.3478742,-0.8258898,280.02048,-135.32414,42.500782,WAL
495015540000,1.309966,-2.71152228623722,9.21340613562076,-2.55639327014241,1.3200798,-1.2864822,-0.8313876,280.50336,-135.09158,41.934017,WAL
495020702000,1.315128,-2.34302599509217,9.52955861863873,-2.6523802057665,1.221425,-1.1438452,-0.8063421,280.89526,-134.9701,41.48923,WAL
495025539000,1.319965,-1.96715782976209,9.82514412966756,-2.79834839793603,1.1246029,-1.0558805,-0.7867944,281.27,-134.84943,41.046215,WAL
495030470000,1.324896,-1.58398521796912,10.126473911533,-2.94715326781156,1.069625,-0.8576548,-0.74067414,281.53113,-134.91171,40.8114,WAL
495035668000,1.330094,-0.522897827357264,10.6401880710929,-3.0541290240076,0.93645644,-0.6273586,-0.6899723,281.74377,-134.96678,40.598927,WAL
495040558000,1.334984,0.629019342525748,11.1693206888311,-3.14309827368263,0.8081747,-0.4083634,-0.64873886,281.88757,-135.02913,40.419132,WAL
495047126000,1.341552,1.35290531249758,11.2458296882387,-2.88399017754311,0.6780604,-0.22968534,-0.6093381,281.95483,-135.43036,40.61276,WAL
495050540000,1.344966,1.65698793094362,11.2299920621972,-2.71611120920364,0.56505036,-0.12003502,-0.5742133,281.9701,-135.81104,40.82143,WAL
495055562000,1.349988,1.92700247145677,11.1710761622582,-2.48336470866561,0.47128254,-0.0842994,-0.5665775,281.8945,-136.54669,41.436726,WAL
495060525000,1.354951,2.13340860596131,11.1007105013818,-2.25819444691078,0.40561453,-0.08277224,-0.5519168,281.7948,-137.23338,42.03009,WAL
495066359000,1.360785,2.13492334786982,10.9349515865878,-2.12661400996055,0.36835176,-0.07849618,-0.5412266,281.6181,-137.77057,42.50894,WAL
495070585000,1.365011,2.07904537544379,10.7952568639053,-2.06275348195266,0.35216382,-0.049785517,-0.5207626,281.42932,-138.27812,42.972378,WAL
495075500000,1.369926,1.87105221470079,10.6574619720993,-1.88322548982105,0.3567453,0.01282817,-0.50732356,281.17383,-138.73607,43.410526,WAL
495080545000,1.374971,1.59215098533769,10.5273083498172,-1.65080781486434,0.37384954,0.059864793,-0.48288897,280.91064,-139.17734,43.838806,WAL
495085648000,1.380074,1.28470612549061,10.3946112489243,-1.45958515209361,0.41813725,0.043066,-0.45662177,280.64014,-139.63498,44.28635,WAL
495090601000,1.385027,0.971101646909434,10.2651866404659,-1.30029399001994,0.48747048,0.007330383,-0.4147775,280.35785,-140.08449,44.728596,WAL
495095501000,1.389927,0.760055729019073,10.0918923089918,-1.27573855019074,0.5992588,-0.06352998,-0.3885103,280.02618,-140.63129,45.25126,WAL
495100598000,1.395024,0.582715196934605,9.89238434059945,-1.30677316934605,0.7134906,-0.17989981,-0.40622538,279.71445,-141.15486,45.739017,WAL
495105509000,1.399935,0.427983954552205,9.73767070958218,-1.27068303081328,0.7635816,-0.26297748,-0.40653083,279.40042,-141.65309,46.202297,WAL
495110556000,1.404982,0.285277796626107,9.61658696170708,-1.16689671607766,0.8164214,-0.3735441,-0.42058071,279.1237,-142.13016,46.62046,WAL
495115498000,1.409924,0.167374335881114,9.52759706471031,-1.10634099744169,0.8219192,-0.49327368,-0.4251622,278.87146,-142.596,46.997807,WAL
495120557000,1.414983,0.110087468452972,9.52238906266796,-1.1636278779211,0.8445212,-0.55955255,-0.44043383,278.62662,-143.04019,47.346546,WAL
495125445000,1.419871,0.0694017493353474,9.52295242510477,-1.27103110836176,0.8371908,-0.66553766,-0.43982297,278.41263,-143.46309,47.658443,WAL
495130521000,1.424947,0.0504515998126888,9.53242769106325,-1.46527010300166,0.84696466,-0.69913524,-0.42760566,278.18686,-143.8696,47.95826,WAL
495136540000,1.430966,0.0769638445759212,9.55589542546516,-1.72504806847866,0.86376345,-0.6591236,-0.42271876,277.96115,-144.25531,48.22821,WAL
495140571000,1.434997,0.133299645533455,9.58124645946735,-1.92222338197738,0.84421575,-0.6084218,-0.41996986,277.7376,-144.62296,48.487923,WAL
495145440000,1.439866,0.201347032003867,9.61186769106166,-2.1603892468807,0.82833326,-0.4859433,-0.3894266,277.49298,-144.9872,48.74231,WAL
495150584000,1.44501,0.19960235254551,9.58840168748093,-2.15730697591783,0.8078693,-0.4269948,-0.3848451,277.23975,-145.32593,48.98065,WAL
495155566000,1.449992,0.151080388249771,9.53017516414116,-1.99233229933896,0.7877107,-0.46761733,-0.40744713,276.96967,-145.64713,49.214153,WAL
495160568000,1.454994,0.113259489206409,9.50352434846462,-1.72843847807744,0.79076505,-0.55680364,-0.41386122,276.7368,-145.9679,49.424545,WAL
495165550000,1.459976,0.081409252912283,9.49396941789052,-1.41312114631509,0.820392,-0.657291,-0.42271876,276.50955,-146.26747,49.61335,WAL
495170578000,1.465004,0.0492649357531375,9.48432626435247,-1.09489241405875,0.86529064,-0.7825184,-0.4025602,276.2883,-146.5506,49.776253,WAL
495175593000,1.470019,0.00704657984277239,9.41567569839986,-0.935257309588278,0.895223,-0.8695667,-0.38545597,276.07907,-146.81905,49.921272,WAL
495180536000,1.474962,-0.0397638954368932,9.31779905501618,-0.85865834381877,0.91721416,-0.93615097,-0.37873647,275.90262,-147.08182,50.04801,WAL
495185593000,1.480019,-0.121908690299375,9.22419128577695,-0.77973417085426,0.91751957,-0.9816604,-0.37415496,275.6514,-147.31943,50.17715,WAL
495190617000,1.485043,-0.248538045588332,9.13977166783638,-0.700590849279526,0.91446525,-1.0433578,-0.37904188,275.42108,-147.54684,50.28896,WAL
495195547000,1.489973,-0.307383600251229,9.0471533047515,-0.770151015128345,0.9034697,-1.0852021,-0.39553526,275.1784,-147.74721,50.372234,WAL
495200578000,1.495004,-0.324926256706718,8.94628326597488,-0.936806256034954,0.88300574,-1.071763,-0.42394048,274.9249,-147.93199,50.44838,WAL
495206198000,1.500624,-0.307216569187579,8.8657603456987,-1.13972677347881,0.8784242,-0.9969321,-0.43982297,274.658,-148.04132,50.447098,WAL
495210575000,1.505001,-0.261481790276123,8.83057977196811,-1.31211169496433,0.89369583,-0.87689704,-0.42149702,274.36258,-148.14699,50.458214,WAL
495215827000,1.510253,-0.209922663508143,8.79342671422718,-1.51084592207313,0.91904676,-0.6805039,-0.3979787,274.02512,-148.31133,50.54122,WAL
495220562000,1.514988,-0.200633265710335,8.81665018447199,-1.59909520600225,0.9447031,-0.5714644,-0.35277468,273.67728,-148.47899,50.63742,WAL
495225577000,1.520003,-0.204808761683151,8.84247965620737,-1.66761538110505,0.96883225,-0.38789943,-0.32834008,273.2558,-148.68376,50.79965,WAL
495230557000,1.524983,-0.379670417191337,8.88314512687585,-1.4317554813779,1.0057896,-0.3268129,-0.28863382,272.84564,-148.89609,50.968876,WAL
495235625000,1.530051,-0.557621997535812,8.92452918417463,-1.19172777619372,1.0555751,-0.29749137,-0.27397305,272.37186,-149.10107,51.141716,WAL
495240584000,1.53501,-0.877237955949367,8.99163501048134,-0.881577376973313,1.0757337,-0.24678956,-0.28221974,271.86145,-149.29724,51.325836,WAL
495247076000,1.541502,-1.36347067696203,9.09188911932597,-0.44045898400387,1.0647382,-0.19333886,-0.31337386,271.32623,-149.47946,51.507122,WAL
495250487000,1.544913,-1.56549571731778,9.12788285379428,-0.267142987705234,1.0186177,-0.20341812,-0.3359759,270.73846,-149.57018,51.606815,WAL
495255563000,1.549989,-1.71118050306112,9.13308544139998,-0.178691549841593,0.97249746,-0.2837469,-0.36774087,270.1359,-149.63908,51.69104,WAL
495260442000,1.554868,-1.79008037488344,9.15051708048613,-0.0986001920820913,0.9462303,-0.36010507,-0.3866777,269.505,-149.46033,51.523376,WAL
495265531000,1.559957,-1.76027901506535,9.19149397454712,-0.0240968353244669,0.9016371,-0.3998113,-0.41141775,268.87738,-149.26216,51.341225,WAL
495270455000,1.564881,-1.73144390094779,9.23114227998166,0.0479909085691355,0.84757555,-0.42088616,-0.43279803,268.25885,-149.01083,51.095657,WAL
495275937000,1.570363,-1.65097104677948,9.3108296775837,0.147177191916849,0.78801614,-0.44684792,-0.4343252,267.6551,-148.7512,50.843277,WAL
495280556000,1.574982,-1.57048471965066,9.38729194468704,0.235712122343523,0.72601336,-0.5149594,-0.43585235,267.06897,-148.47845,50.57734,WAL
495285579000,1.580005,-1.47288886053208,9.47166394533125,0.274898821930099,0.6814202,-0.61575216,-0.4175264,266.48438,-148.192,50.30115,WAL
495290569000,1.584995,-1.36818850873239,9.55642158122066,0.269913090892019,0.659429,-0.7293731,-0.40530908,265.92838,-147.89865,50.012123,WAL
495295547000,1.589973,-1.26187932721222,9.62856460395458,0.216931181041504,0.6383542,-0.8402451,-0.38331795,265.38342,-147.59702,49.714863,WAL
495300565000,1.594991,-1.15368651213782,9.69442094205168,0.136962592263117,0.60903263,-0.97341377,-0.37843102,264.88867,-147.2912,49.39764,WAL
495305527000,1.599953,-1.05854778503672,9.77282064789882,0.0238931779600163,0.58123827,-1.1029172,-0.3576616,264.4265,-147.00116,49.084267,WAL
495310573000,1.604999,-0.969824575397797,9.8615435744594,-0.114120686544268,0.5674938,-1.235475,-0.34238997,264.01492,-146.71075,48.75331,WAL
495315521000,1.609947,-0.904396374653605,9.92697176741352,-0.273730411163401,0.5439755,-1.2880094,-0.34116822,263.616,-146.44463,48.444416,WAL
495320670000,1.615096,-0.848923253643949,9.98244503806131,-0.454018048410987,0.52778757,-1.3949108,-0.34330627,263.28723,-146.18326,48.114346,WAL
495325544000,1.61997,-0.785127401872015,10.0616321724504,-0.638909112448265,0.5164866,-1.4764613,-0.33841935,262.9646,-145.95284,47.808193,WAL
495330547000,1.624973,-0.708857503094556,10.1684100923273,-0.842295556972302,0.50610185,-1.5247196,-0.3359759,262.6659,-145.722,47.495586,WAL
495335573000,1.629999,-0.659227512188858,10.2562492487159,-0.978589979978269,0.49693888,-1.5402967,-0.34574974,262.38593,-145.5244,47.197968,WAL
495340575000,1.635001,-0.626105981635717,10.331955635322,-1.07322291382853,0.48991394,-1.527774,-0.3555236,262.11133,-145.32864,46.904053,WAL
495345450000,1.639876,-0.586535033053698,10.3752952897,-1.09244319442003,0.47861293,-1.4840971,-0.35735616,261.82095,-145.17535,46.65178,WAL
495350606000,1.645032,-0.539355563953755,10.3988849996178,-1.05941760053507,0.4801401,-1.4340062,-0.36254853,261.5182,-145.02032,46.40463,WAL
495355504000,1.64993,-0.514714195753213,10.3783553723393,-0.978171646896658,0.49113566,-1.3839152,-0.3622431,261.19415,-144.87547,46.165257,WAL
495360559000,1.654985,-0.509736229275064,10.3136414962468,-0.843766432433933,0.5018258,-1.3457361,-0.37507126,260.85013,-144.72621,45.932156,WAL
495365522000,1.659948,-0.502445314231775,10.2624256255204,-0.700728533771904,0.5170974,-1.3246613,-0.3827071,260.48846,-144.57053,45.695576,WAL
495370624000,1.66505,-0.492984416160325,10.219851660761,-0.544623510604124,0.50732356,-1.3319917,-0.3924809,260.11774,-144.4091,45.461285,WAL
495375478000,1.669904,-0.461152041765231,10.1879385471324,-0.47153561769101,0.49480084,-1.3588698,-0.38515055,259.75516,-144.21854,45.196175,WAL
495380577000,1.675003,-0.403007003333995,10.1637114667593,-0.476381048944235,0.47708577,-1.3857478,-0.3903429,259.38837,-144.0214,44.92957,WAL
495385557000,1.679983,-0.347554846384826,10.0995338585449,-0.563147334656035,0.44806966,-1.3787229,-0.38881573,259.02322,-143.79034,44.6342,WAL
495390626000,1.685052,-0.292582868786449,9.98959008511843,-0.741806241521185,0.4111123,-1.3390167,-0.38423425,258.65524,-143.55725,44.344826,WAL
495395478000,1.689904,-0.229412848552839,9.87945066206625,-0.915517806900631,0.3659083,-1.2592987,-0.36132678,258.27515,-143.33316,44.074917,WAL
495400595000,1.695021,-0.14245688407433,9.75384758152603,-1.10392242771096,0.33078352,-1.16492,-0.35246924,257.8746,-143.10464,43.8164,WAL
495405462000,1.699888,-0.064282958436046,9.65839902317738,-1.24387343152296,0.30604348,-1.02717,-0.3203988,257.44937,-142.94489,43.640366,WAL
495410557000,1.704983,0.00745405728911182,9.61198089855574,-1.30295097658047,0.30115658,-0.88086766,-0.2950479,256.98914,-142.78314,43.483894,WAL
495415671000,1.710097,0.0858282976453182,9.57781610599919,-1.33579377586745,0.2687807,-0.7476991,-0.2779437,256.48587,-142.69507,43.419044,WAL
495420619000,1.715045,0.311521853868261,9.83712329651399,-0.745148955036481,0.23671028,-0.6939429,-0.27091873,255.96251,-142.60545,43.366,WAL
495425691000,1.720117,0.532836519385302,10.1009670726305,-0.15809295361092,0.21594086,-0.61758476,-0.25595254,255.38501,-142.54916,43.36729,WAL
495430573000,1.724999,0.617128516105769,10.3297601081731,0.171047299302885,0.15943582,-0.5900958,-0.23487769,254.80786,-142.47998,43.367416,WAL
495435583000,1.730009,0.703630544694368,10.5645518140453,0.50881720243647,0.087659165,-0.6044512,-0.21960606,254.20853,-142.25179,43.246696,WAL
495440642000,1.735068,0.747459259275652,10.846097443733,0.760314455665119,0.01282817,-0.636827,-0.21074851,253.61002,-142.0183,43.130054,WAL
495447175000,1.741601,0.782512652753321,11.2316845785177,1.04074149890828,-0.03604105,-0.6750061,-0.20555615,253.02182,-141.781,43.012024,WAL
495450537000,1.744963,0.797107726524901,11.4313035825253,1.11507964791758,-0.06994407,-0.72051555,-0.19608775,252.4227,-141.43999,42.815384,WAL
495455519000,1.749945,0.807621519537241,11.7309467849273,0.999427782062583,-0.11484267,-0.7663304,-0.19853121,251.84004,-141.09149,42.61181,WAL
495461127000,1.755553,0.85816358403413,11.9765973807167,0.802850183525597,-0.15760323,-0.7779369,-0.20861048,251.22192,-140.66513,42.35457,WAL
495465528000,1.759954,0.933683895377133,12.0844832769198,0.58707786915785,-0.2144137,-0.75625116,-0.19975294,250.62067,-140.23953,42.101025,WAL
495470653000,1.765079,1.03389037439403,12.2109754406464,0.341217646514605,-0.29626966,-0.7134906,-0.19058995,250.0058,-139.79337,41.829803,WAL
495475547000,1.769973,1.27663373758028,12.3420574843588,0.17129727403439,-0.38026363,-0.66523224,-0.16554448,249.39682,-139.35129,41.57064,WAL
495480486000,1.774912,1.52486041831163,12.4877313804149,0.012977890445152,-0.47555858,-0.62125,-0.116675265,248.788,-138.94821,41.346794,WAL
495485533000,1.779959,1.80465285389291,12.7442076011577,-0.0429805956972504,-0.59803706,-0.58276546,-0.06963864,248.17747,-138.54155,41.13592,WAL
495490628000,1.785054,2.08189986890846,13.005185915328,-0.085708431574221,-0.7104363,-0.528093,0.012217305,247.5507,-138.19667,40.996758,WAL
495496251000,1.790677,2.30597252840623,13.3256618191891,0.0836487933663634,-0.8216137,-0.45356745,0.096516706,246.92046,-137.8532,40.87671,WAL
495505424000,1.79985,2.6715102316915,13.8484655656087,0.359927261155796,-1.0757337,-0.23915374,0.30298916,245.57925,-137.25162,40.792492,WAL
495510419000,1.804845,2.87055752569673,14.1331493891523,0.51036996764312,-1.2198979,-0.18234327,0.41325033,244.88544,-136.9631,40.794563,WAL
495515419000,1.809845,3.01999159015968,14.4665471517964,0.948450810838323,-1.2993103,-0.095294975,0.47708577,244.16408,-136.6882,40.822216,WAL
495520424000,1.81485,3.16350032479042,14.8061843538922,1.4220296051497,-1.4883732,-0.02565634,0.602924,243.46521,-136.43268,40.89116,WAL
495525430000,1.819856,3.26451706631819,14.9938421703098,1.83918746006463,-1.7223345,0.010079277,0.74372846,242.74393,-136.1332,40.945732,WAL
495530464000,1.82489,3.36073478557308,15.1633686508268,2.25154908667554,-1.9669861,0.015577064,0.8933904,242.03906,-135.8568,41.03225,WAL
495535458000,1.829884,3.44896424285411,15.1782886515184,2.44931979348057,-2.1820107,0.0421497,1.0800097,241.3162,-135.52505,41.103218,WAL
495540380000,1.834806,3.53404904546613,15.1532636942026,2.58945960671055,-2.366492,0.087659165,1.2702943,240.61778,-135.22871,41.210197,WAL
495545429000,1.839855,3.26331582226865,14.8665686026313,2.53198804051027,-2.4733934,0.1563815,1.4581354,239.89813,-134.93234,41.338215,WAL
495550533000,1.844959,2.94611068431861,14.5450184175482,2.44942774380834,-2.5100453,0.204029,1.6081028,239.20056,-134.68835,41.500816,WAL
495555476000,1.849902,2.35496080985486,14.0856309539335,2.33305135972865,-2.5076017,0.2611449,1.7415768,238.49974,-134.50024,41.707867,WAL
495560480000,1.854906,1.61404950749895,13.546328380101,2.19696566401977,-2.4953845,0.3631594,1.8069394,237.7825,-134.35474,41.934048,WAL
495565938000,1.860364,0.774410217026208,13.1857665830237,2.11649492002738,-2.5222626,0.49235737,1.8509218,237.08438,-134.25809,42.17705,WAL
495570485000,1.864911,0.0675265048445141,12.9387825783297,2.06539483938979,-2.556471,0.6264423,1.8741345,236.3542,-134.19272,42.427193,WAL
495575471000,1.869897,-1.28146266400795,13.159065324309,1.9104278506437,-2.5900686,0.77274454,1.9062049,235.61911,-134.13737,42.65856,WAL
495580547000,1.874973,-2.88743981918023,13.5824178510034,1.7125567312571,-2.6285532,0.8622363,1.8805487,234.85146,-134.08475,42.87005,WAL
495585574000,1.88,-4.23315192081144,13.9896324040362,1.49073554715157,-2.6392434,0.9266826,1.8234328,234.05978,-133.9847,43.008858,WAL
495590476000,1.884902,-5.39766112758041,14.3794470283792,1.25882065965945,-2.6535985,0.9636399,1.704925,233.23851,-133.8713,43.11034,WAL
495595473000,1.889899,-6.46678965640561,14.6203291217746,0.948463744907198,-2.6648996,0.93859446,1.5274686,232.41382,-133.52547,42.946968,WAL
495600551000,1.894977,-7.50149203956541,14.7964485980987,0.600627503313717,-2.656042,0.79045963,1.29198,231.62384,-133.14546,42.71996,WAL
495605551000,1.899977,-8.27585601971214,14.7462752005632,0.136109910012516,-2.6120598,0.52778757,1.0341948,230.89668,-132.58615,42.28149,WAL
495610563000,1.904989,-8.81151430381727,14.4759434562995,-0.449609513934084,-2.5357015,0.24648413,0.8002335,230.24568,-131.98724,41.77767,WAL
495615525000,1.909951,-8.91498187878358,14.0279100836171,-0.984668209222475,-2.459038,0.122783914,0.7150178,229.68713,-131.25806,41.118332,WAL
495620605000,1.915031,-8.71250289089103,13.4388799511918,-1.50006923873439,-2.4309382,-0.13713925,0.5830709,229.30151,-130.47162,40.380856,WAL
495625500000,1.919926,-8.33076072166483,12.865015505646,-2.05640938347157,-2.4630086,-0.3390302,0.47678033,229.03685,-129.67342,39.615524,WAL
495630571000,1.924997,-7.71928239340462,12.263243325772,-2.70185859765164,-2.552195,-0.40591997,0.42088616,228.83073,-128.87187,38.83881,WAL
495635768000,1.930194,-7.09290745143285,11.7917410510663,-3.20827811808564,-2.627637,-0.3475823,0.38515055,228.74605,-128.1502,38.132107,WAL
495640627000,1.935053,-6.50755346857714,11.4893727347551,-3.53390555744752,-2.5943446,-0.20189096,0.37232238,228.6574,-127.43315,37.42557,WAL
495645948000,1.940374,-5.75112197237579,11.2102230432387,-3.97628435515502,-2.4691174,-0.020158553,0.4083634,228.61859,-126.884415,36.88172,WAL
495650555000,1.944981,-4.48618476294359,11.2431858098618,-4.81270861016063,-2.3054054,0.31795537,0.552833,228.46913,-126.37181,36.371674,WAL
495655523000,1.949949,-3.12212831483003,11.2787315065372,-5.71467424915951,-2.0891593,0.82986045,0.8219192,228.21634,-53.910454,36.089157,WAL
495660539000,1.954965,-2.40945101870504,10.9401816414868,-4.76936468920863,-1.7318029,1.2049317,1.0842859,227.888,-54.150555,35.847313,WAL
495665527000,1.959953,-1.7555373764988,10.5726533115508,-3.6763264263789,-1.4141531,1.2986995,1.1814134,227.47522,-54.360428,35.63439,WAL
495670546000,1.964972,-0.854325180896086,11.0595595309458,-1.54694640782833,-1.2266175,1.1453724,1.2385293,226.86635,-53.89352,36.103912,WAL
495675451000,1.969877,0.0463332483210809,11.6055545917942,0.618367157838267,-1.1591167,0.6835582,1.393689,226.3421,-53.39854,36.600967,WAL
495680556000,1.974982,0.816196155044975,11.9130064213923,2.01322397901838,-1.1691961,0.06291912,1.5882497,225.82274,-52.818176,37.181683,WAL
495685532000,1.979958,1.54768888026985,12.1832390283535,3.27586432411029,-1.2244794,-0.5375614,1.7595973,225.47191,-127.77227,37.772213,WAL
495690572000,1.984998,1.74189957488669,12.1769646431809,3.14206359693037,-1.2565498,-1.065349,1.9083431,225.23103,-51.86736,38.132378,WAL
495695440000,1.989866,1.84754831266996,12.1289425352287,2.80110632960445,-1.2110404,-1.3594806,2.0497584,225.12393,-51.46783,38.53128,WAL
495700570000,1.994996,1.63964999451823,11.8682124351512,1.47078527786663,-1.0601566,-1.287093,2.1768184,224.96211,-51.06397,38.931858,WAL
495705550000,1.999976,1.40606144577564,11.5941951703871,0.0827301787425827,-0.82772243,-0.93187493,2.2531765,224.80327,-50.63874,39.352383,WAL
495710546000,2.004972,1.20380964596634,11.1423765680015,-0.674693345945057,-0.65301496,-0.7180721,2.3011293,224.67256,-50.103214,39.88412,WAL
495715557000,2.009983,1.0088440834881,10.6456787639776,-1.27815815379667,-0.59773165,-0.2660318,2.3112087,224.31895,-49.567303,40.41279,WAL
495720522000,2.014948,0.887468072702621,10.125654252084,-1.66471194707241,-0.57726765,0.12980886,2.2919664,223.8848,-48.704304,41.275887,WAL
495725565000,2.019991,0.790459229014764,9.5872556305112,-1.97999056243849,-0.59131753,0.47158796,2.2397375,223.3074,-47.883472,42.093952,WAL
495730552000,2.024978,0.621612461807044,9.16966837136294,-2.05580157886677,-0.6291912,0.8081747,2.1789563,222.60257,-46.975765,42.997486,WAL
495735577000,2.030003,0.426534972706963,8.78818323601477,-2.05146652616881,-0.69974613,1.0207558,2.0971005,221.82243,-46.13011,43.83594,WAL
495740547000,2.034973,0.303162403919314,8.52490963850858,-2.10205045820555,-0.73945236,1.1817188,2.0314324,220.97218,-45.273205,44.682175,WAL
495745547000,2.039973,0.241974333455641,8.36319801930449,-2.20257368748631,-0.7180721,1.4114041,2.0176878,220.01463,-44.462643,45.476826,WAL
495750523000,2.044949,0.16628201714981,8.14407988195091,-2.299558190584,-0.6985244,1.670411,1.997224,218.98837,-43.689476,46.22806,WAL
495755528000,2.049954,0.0597891833897588,7.80431737380449,-2.39083780473974,-0.6957755,1.9058995,1.9297233,217.88094,-42.967903,46.92075,WAL
495760460000,2.054886,-0.00575150483396226,7.48511125464151,-2.31746976860377,-0.74464476,2.035403,1.8338175,216.67104,-42.225834,47.62121,WAL
495765550000,2.059976,-0.0195475272679245,7.17699991728302,-2.01855596520755,-0.80664754,2.060143,1.7314975,215.40918,-41.538803,48.257046,WAL
495770509000,2.064935,-0.0839173963695846,6.73774343826708,-1.70027011079607,-0.8384125,2.0916026,1.6389514,214.08551,-40.86157,48.869953,WAL
495775556000,2.069982,-0.261211266348766,5.98544243160504,-1.31693202300981,-0.8582657,2.0888536,1.5360206,212.77234,-40.246407,49.411816,WAL
495780499000,2.074925,-0.384324698353296,5.40573477387987,-0.990826960802058,-0.870483,2.1255057,1.4385877,211.39526,-39.656174,49.911648,WAL
495785624000,2.08005,-0.388679343238399,5.18800284791944,-0.773094989370952,-0.88086766,2.1633792,1.3234396,210.03,-39.127453,50.3404,WAL
495790692000,2.085118,-0.400308205452893,4.976495793608,-0.56580040748864,-0.88270026,2.1875083,1.2082914,208.68146,-38.68577,50.65494,WAL
495795564000,2.08999,-0.494538657994547,4.81630410890639,-0.457435408712511,-0.8741482,2.1713204,1.1163563,207.34218,-38.284527,50.917816,WAL
495800578000,2.095004,-0.601033139635663,4.65246114512174,-0.34607685251883,-0.8402451,2.1658227,1.0467176,205.9993,-37.945637,51.097412,WAL
495805518000,2.099944,-0.820633731192853,4.50329849842354,-0.238348258964792,-0.77213365,2.1465805,0.98837996,204.68121,-37.641907,51.234104,WAL
495810502000,2.104928,-1.04219027943598,4.35280727754423,-0.129660139476266,-0.679893,2.1285598,0.95264435,203.39171,-37.40189,51.292686,WAL
495815517000,2.109943,-1.37138563952306,4.19486009612718,-0.132962622397634,-0.6197228,2.072971,0.8698721,202.14554,-37.201366,51.307426,WAL
495820988000,2.115414,-1.76365583383862,4.02051769764304,-0.171705357950827,-0.48930305,2.0506747,0.79198676,200.90453,-37.026962,51.295303,WAL
495825529000,2.119955,-2.10438045725317,3.89540708091561,-0.211912601089355,-0.35979962,2.0277672,0.691194,199.73482,-36.96418,51.1618,WAL
495830575000,2.125001,-2.49087038014341,3.76657710661886,-0.260779140344732,-0.21838433,2.0088303,0.59681535,198.593,-36.93694,50.996033,WAL
495835572000,2.129998,-2.88809968725038,3.67292080969936,-0.296794846030283,-0.083383106,1.9895881,0.50488013,197.51695,-37.017223,50.723,WAL
495840617000,2.135043,-3.306893196851,3.61990900807549,-0.317999588821593,0.038179077,1.9376645,0.42180246,196.48758,-37.136894,50.419178,WAL
495846770000,2.141196,-3.5949809957486,3.63149131909451,-0.283520015284807,0.16279559,1.8985692,0.35216382,195.50006,-37.34891,50.026676,WAL
495850560000,2.144986,-3.71522210258581,3.65821153405724,-0.246779688322444,0.26908615,1.8622227,0.28527406,194.55849,-37.598564,49.6062,WAL
495855596000,2.150022,-3.81100240380251,3.70902886034959,-0.231529066513339,0.3652974,1.8112154,0.21746802,193.66025,-37.932182,49.109417,WAL
495860537000,2.154963,-3.83034983048145,3.77674495473781,-0.255713375114995,0.47403142,1.7690657,0.17623462,192.79265,-38.294983,48.594692,WAL
495865467000,2.159893,-3.79978985856777,3.84982835585284,-0.279403297597875,0.56382865,1.7464638,0.12889257,191.94777,-38.720715,48.020065,WAL
495870523000,2.164949,-3.7140563915601,3.93079875852843,-0.303218131861106,0.6609562,1.7238617,0.08674286,191.13776,-39.17483,47.431583,WAL
495875529000,2.169955,-3.62008053408188,3.98307233100159,-0.305162701707075,0.7449502,1.6985108,0.0580322,190.35347,-39.661934,46.820675,WAL
495880581000,2.175007,-3.51431693416137,4.0023020581876,-0.281125532684817,0.84299403,1.6633861,0.028405234,189.59889,-40.17915,46.194756,WAL
495885610000,2.180036,-3.45341370863172,4.02602919987891,-0.209041439989621,0.94042706,1.6029104,0.0009162979,188.87727,-40.71357,45.568554,WAL
495891265000,2.185691,-3.44404564013147,4.0588173907196,-0.0638362706331085,1.0528263,1.5115861,-0.045814894,188.19585,-41.279507,44.93112,WAL
495895534000,2.18996,-3.4231691852033,4.10628824236217,0.094180228083155,1.1673635,1.3454307,-0.087659165,187.56892,-41.851204,44.3127,WAL
495900552000,2.194978,-3.31053311073066,4.30707431039438,0.588799410253745,1.3038919,1.1074986,-0.12492194,187.01306,-42.453854,43.696503,WAL
495905527000,2.199953,-3.17497928684329,4.53189198380781,1.11213087264481,1.4535538,0.81245077,-0.15302174,186.52228,-43.082233,43.07997,WAL
495910616000,2.205042,-2.91674441450382,4.89079481709924,1.81242896244275,1.5925257,0.63499445,-0.17073683,186.08032,-43.734985,42.466576,WAL
495916174000,2.2106,-2.61551491862127,5.29277793022278,2.59849886044557,1.6566665,0.06261369,-0.17623462,185.8164,-44.39446,41.886986,WAL
495920601000,2.215027,-2.15216493613913,5.72939615521227,3.47173531042455,1.8124372,-0.12583824,-0.19058995,185.4796,-45.086063,41.27908,WAL
495925696000,2.220122,-1.6228799126062,6.24037674016993,4.46766634854772,1.8500054,-0.47342056,-0.19486602,185.28217,-45.737923,40.71746,WAL
495930476000,2.224902,-1.17514857077653,6.82378419324244,5.29076846473029,1.91323,-0.75777835,-0.21777347,185.13058,-46.412586,40.16163,WAL
495935776000,2.230202,-0.627028725641026,7.54261919499954,6.18550215256867,1.9156734,-0.95417154,-0.24709499,184.92111,-47.00178,39.64111,WAL
495940559000,2.234985,0.593457969230769,9.20197933150835,6.74140860799343,1.858863,-1.0067059,-0.2761111,184.76328,-47.587193,39.13596,WAL
495945452000,2.239878,1.84201356153846,10.8995016287982,7.31009986586367,1.7553213,-0.9370673,-0.29229903,184.49352,-48.09751,38.643135,WAL
495950561000,2.244987,2.76676450353623,12.0123578098551,7.40667999304348,1.6255124,-0.732122,-0.26816985,184.19917,-48.581833,38.161533,WAL
495955552000,2.249978,3.58417678842512,12.9498421742995,7.38820750637681,1.4761559,-0.38453966,-0.21044308,183.8357,-49.035286,37.681026,WAL
495960570000,2.254996,4.46829984778378,13.7922375145946,7.33644484454054,1.289842,0.0033597588,-0.1554652,183.16353,-49.269188,37.340874,WAL
495965530000,2.259956,5.36183146118919,14.5933348897297,7.27482201902703,1.1016954,0.30940324,-0.094989546,182.4133,-49.4597,37.012524,WAL
495970555000,2.264981,5.70128929407851,14.8700307449862,7.15308452546336,0.9294315,0.52595496,-0.010995574,181.38245,-49.414806,36.867702,WAL
495975472000,2.269898,5.97430874517631,15.0848654624085,7.02776397764471,0.7788532,0.6395759,0.057421334,180.31035,-49.351936,36.715897,WAL
495980486000,2.274912,5.77630871402682,14.9565403718739,6.92180798809351,0.6533204,0.67011917,0.09040806,178.99886,-49.05939,36.758682,WAL
495985599000,2.280025,5.44353747625951,14.7302563008336,6.81975818817506,0.5326745,0.65301496,0.093462385,177.71089,-48.7834,36.777866,WAL
495990561000,2.284987,4.88502965091029,14.1877245767712,6.74898529341961,0.43401974,0.64904433,0.103847094,176.32266,-48.414413,36.872437,WAL
495995565000,2.289991,4.16498544253126,13.4256342556482,6.6964273780873,0.31764993,0.6649268,0.108123146,174.98845,-48.079655,36.93114,WAL
496000557000,2.294983,3.46998004864295,12.6091179694663,6.69479839488355,0.21380283,0.6835582,0.116980694,173.81265,-47.862183,36.893314,WAL
496005561000,2.299987,2.78010229933064,11.7742341099395,6.70798076436824,0.12217305,0.68111473,0.13408493,172.67305,-47.654427,36.84344,WAL
496010496000,2.304922,2.19661393725511,10.9317808052526,6.61628561295139,0.03176499,0.679893,0.13408493,171.73067,-47.573517,36.673542,WAL
496015586000,2.310012,1.66491505988563,10.0490568668855,6.44593544637297,-0.0061086523,0.6612616,0.14508049,170.81108,-47.488525,36.510284,WAL
496020504000,2.31493,1.22217359788382,9.50331368291038,6.02800916381418,-0.102319926,0.6224717,0.16432275,170.03656,-47.464005,36.26731,WAL
496025559000,2.319985,0.797696856268443,9.07475571815193,5.48924998288509,-0.2003638,0.537256,0.17806722,169.29472,-47.43327,36.034176,WAL
496030536000,2.324962,0.387291292945489,8.73157518042716,4.77980922311125,-0.2761111,0.36468655,0.19914207,168.66673,-47.4097,35.798534,WAL
496035611000,2.330037,-0.0155329453195729,8.54565578291361,3.68366265054989,-0.27977628,0.047036625,0.19975294,168.12134,-47.383854,35.589367,WAL
496040485000,2.334911,-0.402402962522314,8.36709989257252,2.63092996194613,-0.18967366,-0.41386122,0.17592919,167.76329,-47.421436,35.39638,WAL
496046806000,2.341232,-1.10553495485553,8.24010987339887,1.06254627444147,0.057726767,-0.89369583,0.096516706,167.52242,-47.49537,35.230854,WAL
496050544000,2.34497,-1.54274742834376,8.17612775484063,0.113475312153709,0.4071417,-1.2296717,-0.01038471,167.38994,-47.61023,35.091515,WAL
496055539000,2.349965,-2.28755830508475,8.11231263841808,-0.416834567231638,0.77824235,-1.3732251,-0.15210545,167.4773,-47.89847,34.94918,WAL
496060599000,2.355025,-3.08151347118644,8.05299438229755,-0.772745485687382,1.0864239,-1.4358387,-0.33078352,167.66127,-48.261707,34.79814,WAL
496065537000,2.359963,-3.80817317949385,8.52647255986796,-0.500210671417425,1.2852604,-1.4953982,-0.5021312,168.04552,-48.838406,34.577534,WAL
496070530000,2.364956,-4.52086027461238,9.24872596729019,0.0594160661378413,1.3313808,-1.6151277,-0.63713247,168.4795,-49.466625,34.32676,WAL
496075574000,2.37,-5.22582705784438,10.493573801523,0.367996026480523,1.280679,-1.8118263,-0.7724391,169.07153,-50.294827,33.915024,WAL
496080565000,2.374991,-5.91645306494191,11.9634868888997,0.554651654690032,1.258077,-1.9666806,-0.906524,169.69368,-51.16083,33.46506,WAL
496085576000,2.380002,-6.12818021565338,13.6097614255823,0.513707017355902,1.2904528,-2.0100522,-1.0036516,170.33727,-52.178925,32.816544,WAL
496090551000,2.384977,-6.06704889656534,15.3402404425582,0.34442099048559,1.3078625,-1.8891008,-0.99021256,170.96672,-53.188633,32.154217,WAL
496095497000,2.389923,-5.29278340149329,16.5528949051559,0.494125932236908,1.1728612,-1.7211128,-0.852157,171.58128,-54.35805,31.299139,WAL
496100554000,2.39498,-4.02229835673494,17.4520076668348,0.860611993027949,0.86926126,-1.6071864,-0.6227771,172.14868,-55.45993,30.472183,WAL
496105563000,2.399989,-2.75805253501326,17.7516230106101,-0.295424606984969,0.56291234,-1.57084,-0.39767328,172.67375,-56.602177,29.601135,WAL
496110577000,2.405003,-1.48908006693192,17.6997318788683,-2.35691531377346,0.4352415,-1.4065173,-0.32162055,173.09811,-57.672344,28.75314,WAL
496115545000,2.409971,-1.06174884123483,15.9480272457259,-3.7135488004872,0.4260785,-1.1560625,-0.2855795,173.39053,-58.51086,28.091196,WAL
496120532000,2.414958,-1.20559015140402,13.0162035634689,-4.60198031038179,0.44104472,-1.0235047,-0.3652974,173.65756,-59.314907,27.436308,WAL
496125558000,2.419984,-1.49395026597768,10.5187224828442,-5.08299230611823,0.48716503,-1.0177015,-0.46731192,173.90483,-59.961292,27.055586,WAL
496130523000,2.424949,-2.06398604150475,8.96095219346838,-4.73409093943778,0.54367006,-1.0680978,-0.5488624,174.11101,-60.600346,26.659079,WAL
496135562000,2.429988,-2.69402549031505,7.53780698755348,-4.5425575924154,0.5323691,-1.1264355,-0.61178154,174.40837,-61.14079,26.389446,WAL
496140554000,2.43498,-3.39598194865811,6.36633011474135,-4.59834217304551,0.47494772,-1.1169671,-0.7076874,174.69188,-61.7,26.082798,WAL
496146017000,2.440443,-3.98752232117528,5.26599192137791,-4.77088947619048,0.38637227,-0.9950995,-0.83658,175.02051,-62.297802,25.697105,WAL
496150559000,2.444985,-4.25595330796721,4.58089173535968,-5.05534648138528,0.29840767,-0.7831292,-0.95569867,175.31017,-62.906773,25.278345,WAL
496155517000,2.449943,-4.4847241761658,3.9046080134715,-5.37318425647668,0.23518312,-0.49846604,-1.0781772,175.6229,-63.618584,24.73536,WAL
496160539000,2.454965,-4.38320026839378,3.59080625699482,-5.73313304663212,0.18600847,-0.14996742,-1.1765264,175.84386,-64.34847,24.148092,WAL
496165557000,2.459983,-4.22917189317807,3.35442925240031,-6.1035440148852,0.1518,0.20647246,-1.2577715,176.0245,-65.13162,23.502733,WAL
496170535000,2.464961,-3.51692585448753,3.94098481045809,-6.58535759689113,0.13041973,0.6078109,-1.2944235,176.0753,-65.928055,22.821571,WAL
496175567000,2.469993,-2.78474145796961,4.71455593241416,-6.81182034346184,0.12736541,1.0690142,-1.2403619,176.01447,-66.70479,22.161018,WAL
496180612000,2.475038,-2.01675927741284,5.99169761595679,-6.31538986238693,0.1685988,1.5366315,-1.1417072,175.81775,-67.482376,21.486166,WAL
496185707000,2.480133,-1.2331275668034,7.29508719790791,-5.78959669291355,0.29840767,1.8197676,-1.0238101,175.50536,-68.16637,20.924719,WAL
496190571000,2.484997,-0.048404568300687,9.27758715499949,-3.95996401031689,0.5296202,1.8112154,-0.893085,175.12453,-68.82574,20.390848,WAL
496195755000,2.490181,1.20513852755102,11.3515023545918,-2.05534893450255,0.7809912,1.4361442,-0.74006325,174.56203,-69.26519,20.05237,WAL
496200555000,2.494981,2.26054167623907,12.8215285936589,-0.81566894907981,1.0308352,0.7742717,-0.5699373,174.07742,-69.6723,19.764137,WAL
496205559000,2.499985,3.36079945874636,14.3540309478863,0.476697435723396,1.2186762,0.40530908,-0.40775254,173.22937,-69.71424,19.75831,WAL
496210546000,2.504972,4.08097830534107,15.1421903272655,0.687999421224245,1.2727377,-0.24984388,-0.355829,172.67004,-69.754486,19.78072,WAL
496216616000,2.511042,4.82736911154807,15.8854471373184,0.668013071629499,1.2947289,-0.8707884,-0.26328292,172.20845,-69.753006,19.855925,WAL
496220520000,2.514946,4.69936400670862,15.7124674611826,0.221725182076432,1.2260065,-0.9584476,-0.22204952,171.61928,-69.56628,20.06287,WAL
496225486000,2.519912,4.53653784107523,15.4924323506061,-0.345965816776164,1.2064588,-0.9947941,-0.07880162,171.10948,-69.22718,20.43082,WAL
496230511000,2.524937,3.96120495877621,14.7222841192186,-0.72734211927607,1.1890492,-0.97219205,0.079107046,170.61977,-68.89883,20.784863,WAL
496235698000,2.530124,3.15731174826199,13.6472553970124,-1.0222615384085,1.1957687,-0.9288206,0.16798794,170.14456,-68.57739,21.13203,WAL
496240570000,2.534996,2.47003762113821,12.6122655447154,-1.22419618699187,1.2290609,-0.93218035,0.18509217,169.65358,-68.2456,21.499256,WAL
496246846000,2.541272,1.64034941128049,11.2582956128049,-1.42271051036585,1.2403619,-0.9056077,0.15699236,169.15181,-67.92769,21.848007,WAL
496250512000,2.544938,1.17021195635674,10.4883480234029,-1.49683486217584,1.2507466,-0.8362745,0.1142318,168.76599,-67.741005,22.074177,WAL
496255562000,2.549988,0.56860753257432,9.49417146320894,-1.46624488378663,1.2333369,-0.77091193,0.06414085,168.37685,-67.573524,22.275358,WAL
496260440000,2.554866,-0.0571129244484812,8.60689757353921,-1.33210015605006,1.2131784,-0.73273283,-0.01985312,168.14638,-67.552246,22.335657,WAL
496265560000,2.559986,-0.81421129788677,7.83990235222525,-0.95602512446261,1.1829406,-0.77946407,-0.1441642,167.91998,-67.55501,22.364819,WAL
496270579000,2.565005,-1.37163799815377,7.31822872113939,-0.70250669566926,1.1658363,-0.8588765,-0.24862215,167.81073,-67.65804,22.291048,WAL
496275608000,2.570034,-1.59393277464944,7.21449112193063,-0.658047727106246,1.1071932,-0.93431836,-0.32467487,167.71007,-67.78206,22.188578,WAL
496280556000,2.574982,-1.81264714213812,7.11242438085191,-0.614304840558266,1.061073,-1.0167851,-0.36193767,167.77254,-68.047226,21.94005,WAL
496286089000,2.580515,-2.05722001912172,6.99829033105631,-0.565390250568377,1.0241156,-1.1322387,-0.40194935,167.86322,-68.32841,21.668589,WAL
496290509000,2.584935,-2.25259542419447,6.90711510963998,-0.526315157896171,0.98899084,-1.2324207,-0.46486846,167.97234,-111.378265,21.378256,WAL
496295577000,2.590003,-2.20365765564176,7.05632060693312,-0.649833769604242,0.9428705,-1.2883148,-0.5561928,168.09705,-111.07156,21.068142,WAL
496300526000,2.594952,-2.08729802931356,7.26576804124521,-0.812737304784445,0.88239485,-1.2718215,-0.64599,168.2236,-110.7534,20.740717,WAL
496305578000,2.600004,-1.94530109340233,7.57345006650413,-0.844999527097224,0.8594874,-1.2577715,-0.70402217,168.4225,-110.33753,20.308262,WAL
496310441000,2.604867,-1.80163184243208,7.89786443080904,-0.835730549407901,0.86101454,-1.2235631,-0.7275405,168.60435,-109.911766,19.860018,WAL
496315570000,2.609996,-1.65350167645827,8.2224234063117,-0.800592967813341,0.8680395,-1.1884383,-0.7623598,168.76157,-109.489044,19.407703,WAL
496320494000,2.61492,-1.51244216097318,8.52805253655399,-0.758275093528767,0.8863655,-1.1551461,-0.7800749,168.90256,-109.072945,18.955227,WAL
496325553000,2.619979,-1.34356694018201,8.76100454296838,-0.767184950244864,0.90133166,-1.1239921,-0.8017606,169.0023,-108.6691,18.510921,WAL
496330518000,2.624944,-1.16959145833568,8.9617451431654,-0.793950422606248,0.9257663,-1.0861185,-0.80573124,169.08359,-108.275475,18.070255,WAL
496335540000,2.629966,-1.01742655565961,9.09444487601791,-0.762498650346091,0.9483683,-1.0482447,-0.7892379,169.13304,-107.90401,17.648323,WAL
496340554000,2.63498,-0.880567118729642,9.18242618322476,-0.694068952296417,0.97066486,-1.0085385,-0.7733554,169.16452,-107.54228,17.230032,WAL
496345553000,2.639979,-0.780857074777474,9.20187224773068,-0.626313214860316,0.9822713,-0.9786061,-0.7632761,169.15637,-107.22298,16.851814,WAL
496350551000,2.644977,-0.700709671816339,9.18499920763197,-0.558820631615405,0.9950995,-0.96669424,-0.74372846,169.13654,-106.92174,16.48588,WAL
496355522000,2.649948,-0.620477701783793,9.11470876353532,-0.504202199429903,1.0238101,-0.9618073,-0.72143185,169.09676,-106.652664,16.149826,WAL
496360553000,2.654979,-0.538419827923987,8.95491182897096,-0.469651531839369,1.0619892,-0.9660834,-0.7086037,169.05132,-106.39701,15.821239,WAL
496365533000,2.659959,-0.457702612409558,8.78623635150178,-0.45413416863065,1.1068878,-0.9786061,-0.70921457,168.99672,-106.16919,15.517469,WAL
496370593000,2.665019,-0.378651001047884,8.55373175501391,-0.547136070348335,1.1261301,-0.99387777,-0.7370089,168.93916,-105.94684,15.213593,WAL
496375515000,2.669941,-0.305290483881915,8.33019257034097,-0.63977364569774,1.1371256,-0.9966267,-0.75900006,168.8849,-105.75591,14.933633,WAL
496380576000,2.675002,-0.28566294868713,8.14176818328339,-0.76931533289463,1.1304061,-1.0045679,-0.7846564,168.8312,-105.564865,14.648054,WAL
496385639000,2.680065,-0.26602765710618,7.95326933489917,-0.898908212222402,1.1242975,-1.0021244,-0.8222246,168.76823,-105.40503,14.381917,WAL
496390589000,2.685015,-0.213236943840141,7.85054289114716,-1.00194134382451,1.094976,-1.0445796,-0.8573494,168.71536,-105.24418,14.111112,WAL
496395536000,2.689962,-0.139167829238812,7.79962030809068,-1.08989843825972,1.0735956,-1.1249083,-0.88056225,168.66745,-105.08488,13.835427,WAL
496400556000,2.694982,-0.0352898654832556,7.92488340207715,-1.17209620636922,1.0574077,-1.1652255,-0.8872818,168.6113,-104.95517,13.574571,WAL
496405553000,2.699979,0.091499307838067,8.19367603560831,-1.24816970612548,1.0430524,-1.2592987,-0.8872818,168.58885,-104.827614,13.3081455,WAL
496410494000,2.70492,0.274597974817628,8.56498248006395,-1.31118801980614,1.0366384,-1.3365731,-0.8698721,168.56355,-104.73409,13.065345,WAL
496415524000,2.70995,0.491217360147896,8.99822145178375,-1.3689531992805,1.0277808,-1.4117095,-0.84207773,168.56027,-104.64924,12.825371,WAL
496420613000,2.715039,0.769661163611697,9.50638791076274,-1.34641185302985,1.0299188,-1.45783,-0.80909103,168.54395,-104.59788,12.616739,WAL
496425547000,2.719973,1.06881442786655,10.033467629786,-1.28468181594815,1.0216721,-1.4792101,-0.7644979,168.539,-104.55996,12.419914,WAL
496430546000,2.724972,1.35845811189205,10.4572162057028,-1.14150129695785,1.0167851,-1.5146403,-0.72265357,168.52293,-104.56113,12.267114,WAL
496435722000,2.730148,1.6515452370494,10.8401202583445,-0.952412776568758,1.0296134,-1.5409076,-0.6774496,168.50858,-104.57873,12.128393,WAL
496440647000,2.735073,1.78908923680606,11.0385106736121,-0.652969915879353,1.0241156,-1.5809193,-0.659429,168.49524,-104.61599,12.031468,WAL
496446892000,2.741318,1.84573306111759,11.1517983222352,-0.173676075255719,1.0250319,-1.6007724,-0.63529986,168.48325,-104.6689,11.948158,WAL
496450586000,2.745012,1.87923863149497,11.2188094629899,0.109832563217252,1.0180069,-1.5900823,-0.59986967,168.49089,-104.72842,11.899605,WAL
496455525000,2.749951,1.66481589757612,11.124632466844,0.226863408481624,1.0134255,-1.566564,-0.54733527,168.50038,-104.79748,11.861371,WAL
496460532000,2.754958,1.39550752775643,10.9923409060991,0.293009336858804,0.97524637,-1.5146403,-0.4801401,168.49898,-104.87019,11.83787,WAL
496465515000,2.759941,1.04561486132701,10.7458901113744,0.310057062843602,0.91874135,-1.4318681,-0.40194935,168.54292,-104.89298,11.811366,WAL
496471121000,2.765547,0.628327495526066,10.4354691530806,0.315145929270142,0.81122905,-1.3414601,-0.3472769,168.56976,-104.91091,11.800389,WAL
496475537000,2.769963,0.305609081334496,10.1516709959996,0.292400564912299,0.70463306,-1.244027,-0.3115413,168.63841,-104.88633,11.734813,WAL
496480504000,2.77493,-0.0554568728731152,9.81988059277875,0.258245676457073,0.6041457,-1.1603385,-0.2910773,168.68436,-104.854454,11.685748,WAL
496485543000,2.779969,-0.213016591950492,9.61046079033701,0.196243135577095,0.49571714,-1.0708468,-0.30665436,168.74689,-104.76188,11.563554,WAL
496490528000,2.784954,-0.293699210933492,9.44909576051297,0.125052592913809,0.40500367,-0.98868537,-0.310625,168.78644,-104.66408,11.456868,WAL
496495546000,2.789972,-0.167015039610978,9.63327639187331,0.10534488,0.34330627,-0.8741482,-0.3115413,168.82884,-104.52064,11.285971,WAL
496510420000,2.804846,0.442253030401752,10.5689376350629,0.10534488,0.083383106,-0.5021312,-0.3200934,168.80841,-104.0009,10.775278,WAL
496515411000,2.809837,0.677614530210526,11.0367760873684,0.316800786694737,-0.015577064,-0.42577308,-0.30695978,168.7306,-103.831245,10.641864,WAL
496520419000,2.814845,0.922826869779449,11.5512412751378,0.59086165127218,-0.10873401,-0.42058071,-0.28160888,168.63284,-103.64932,10.518502,WAL
496525423000,2.819849,1.12388852577249,12.0358627060618,0.846069711720134,-0.20463985,-0.46517387,-0.25350907,168.51595,-103.46524,10.440986,WAL
496530428000,2.824854,1.31255973827987,12.5122572430624,1.0960590202716,-0.2938262,-0.49571714,-0.20708331,168.39532,-103.28057,10.37798,WAL
496535506000,2.829932,1.43671818227241,12.9024775561107,1.29047060909363,-0.37965274,-0.5225952,-0.15393804,168.3435,-103.06837,10.322057,WAL
496540674000,2.8351,1.5405806252823,13.2684692531228,1.46852052615169,-0.47311515,-0.550695,-0.08857546,168.30292,-102.86136,10.283009,WAL
496545425000,2.839851,1.67216384068578,13.5090011979146,1.58243525061159,-0.5488624,-0.5662721,-0.011301007,168.28214,-102.64737,10.274908,WAL
496550491000,2.844917,1.82295581441749,13.7376213362743,1.68944893888109,-0.6404922,-0.5696318,0.07849618,168.26842,-102.44731,10.2891035,WAL
496555461000,2.849887,2.03678826085031,13.9301342330479,1.66773759338648,-0.75961095,-0.56199604,0.18509217,168.27155,-102.250435,10.329848,WAL
496560466000,2.854892,2.27265054827281,14.1141065266214,1.60641341343372,-0.8875872,-0.49571714,0.30848694,168.26137,-102.083405,10.402487,WAL
496565443000,2.859869,2.50816206018028,14.2467465367621,1.59587207843761,-1.0320568,-0.3857614,0.45020768,168.23933,-101.95436,10.52835,WAL
496570544000,2.86497,2.7499145699894,14.3633059194062,1.60450609342524,-1.183246,-0.24465153,0.5983425,168.19157,-101.8664,10.691304,WAL
496575458000,2.869884,2.97909816397832,14.5287271147593,1.64661236541281,-1.3283265,-0.10476339,0.7516697,168.1322,-101.85434,10.917561,WAL
496580442000,2.874868,3.20732956348953,14.7569584083519,1.7277613227606,-1.498147,0.063224554,0.9086621,168.02628,-101.89442,11.185035,WAL
496585577000,2.880003,3.40756514815572,15.0903514794115,1.96334813025442,-1.702176,0.21838433,1.065349,167.8985,-102.02287,11.521965,WAL
496590482000,2.884908,3.57555320394401,15.474324221314,2.28972483557781,-1.9407189,0.34330627,1.2275337,167.7328,-102.21695,11.897875,WAL
496595469000,2.889895,3.65321947777466,15.8751701410509,2.67998025355437,-2.194228,0.3933972,1.3854424,167.556,-102.496315,12.326472,WAL
496600499000,2.894925,3.67577792303081,16.285733467828,3.10859099608504,-2.4309382,0.46273044,1.4633276,167.33734,-102.83111,12.7670355,WAL
496605547000,2.899973,3.51524909527235,16.6481408016444,3.5248554049332,-2.5402832,0.5222898,1.6181821,167.10655,-103.27637,13.269039,WAL
496610556000,2.904982,3.17506968136691,16.9587399856115,3.92419625683453,-2.7101038,0.54153204,1.7577647,166.86478,-76.218765,13.773506,WAL
496615523000,2.909949,2.60375814534227,17.0564214288176,4.17268555100048,-2.8542678,0.5354234,1.8781052,166.6157,-75.64977,14.279166,WAL
496620564000,2.91499,1.83650785851604,16.9870921142173,4.30672340027764,-2.9657507,0.5174029,1.9575176,166.35979,-75.00921,14.796564,WAL
496625591000,2.920017,0.963870010902541,16.8638239975351,4.20452960478764,-3.055548,0.5342017,1.9779817,166.07602,-74.35983,15.255448,WAL
496630607000,2.925033,-0.0243823281190748,16.6816568394008,3.84475110808684,-3.1236594,0.63316184,1.9804251,165.76703,-73.65478,15.715114,WAL
496635513000,2.929939,-1.09257154935897,16.4434818576007,3.39888945934066,-3.1920764,0.8347474,1.9706513,165.39813,-73.003174,16.05702,WAL
496640564000,2.93499,-2.37718799031339,16.0891052291412,2.76888606178266,-3.227201,1.0680978,1.9190332,164.98648,-72.330414,16.370754,WAL
496646923000,2.941349,-4.08082184727019,15.6666886662342,1.67905737035133,-3.1768048,1.2263119,1.8020525,164.5362,-71.7905,16.520481,WAL
496650563000,2.944989,-5.1002704601058,15.4370520418205,0.903162966798084,-3.044247,1.3836098,1.6358972,164.0191,-71.25937,16.623451,WAL
496655518000,2.949944,-6.40096809432788,15.1492751514936,-0.0307874847270626,-2.8487701,1.4816537,1.4196508,163.47943,-70.925354,16.522581,WAL
496660566000,2.954992,-7.58721174226529,14.8956939338549,-0.787232649855085,-2.6068676,1.3643675,1.1484267,162.96889,-70.65069,16.358189,WAL
496665601000,2.960027,-8.70827224027852,14.6120909138725,-1.47330896298875,-2.4263568,0.9669997,0.8576548,162.54616,-70.635994,15.976839,WAL
496670595000,2.965021,-9.47677608355651,14.1612351617568,-1.7755871966256,-2.3344216,0.4361578,0.6197228,162.2101,-70.67408,15.553833,WAL
496675544000,2.96997,-9.95688292371378,13.697121903016,-2.13982451070373,-2.35794,-0.063224554,0.4877759,162.00085,-70.91464,14.957005,WAL
496680605000,2.975031,-9.69892082066824,13.1764205239503,-2.68441135558841,-2.4471262,-0.41722095,0.45081854,161.91014,-71.16177,14.356043,WAL
496685629000,2.980055,-9.3164509388982,12.6124489985217,-3.36875218345324,-2.5347853,-0.61208695,0.44257188,161.91463,-71.46368,13.681883,WAL
496690581000,2.985007,-8.58734885315857,11.9254108512861,-4.44371025539568,-2.5735753,-0.6270532,0.38637227,161.9717,-71.74159,13.009026,WAL
496695603000,2.990029,-7.65315861597313,11.2503289430864,-5.1957403774025,-2.5928175,-0.42058071,0.33322698,162.05605,-71.98276,12.399603,WAL
496700520000,2.994946,-6.08908513855197,10.6616042107669,-4.80472189335697,-2.6035078,-0.2275473,0.31398472,162.14438,-72.19566,11.795267,WAL
496705543000,2.999969,-4.49966847644924,10.1358357095635,-4.39461576787641,-2.5995371,0.226631,0.28710666,162.18158,-72.425385,11.291539,WAL
496710551000,3.004977,-3.02250874732712,10.5827472717018,-3.84891348479647,-2.5992317,0.5161811,0.3036,162.19968,-72.6339,10.796976,WAL
496715850000,3.010276,-1.48541210198765,11.069381166899,-3.16900565367058,-2.503631,0.5708536,0.419359,162.1759,-72.674576,10.578273,WAL
496720551000,3.014977,-0.355638841953794,11.6253008664609,-1.64022511760605,-2.302351,0.6585127,0.6218608,162.04768,-72.72248,10.366364,WAL
496726503000,3.020929,0.94104726631579,12.2820019078947,0.14100589,-2.080607,0.6939429,0.7892379,161.94429,-72.66863,10.4301405,WAL
496730644000,3.02507,1.42582557309338,12.5917216402377,0.898471999612903,-1.8839084,0.39645153,0.9963212,161.89182,-72.61436,10.573337,WAL
496735542000,3.029968,1.9992243044618,12.9580600244482,1.7944075236129,-1.7403551,-0.21746802,1.2281445,161.86118,-72.30116,10.897,WAL
496740560000,3.034986,2.06829335188261,12.9808932508306,1.7169917886674,-1.627345,-0.8185594,1.459357,161.899,-71.99269,11.290748,WAL
496745503000,3.039929,1.88481212045958,12.8323610274086,1.15781085380214,-1.4676038,-1.1771374,1.6588045,162.02936,-71.69126,11.756822,WAL
496750541000,3.044967,1.5133779528692,12.4325744704641,0.587397673122363,-1.3038919,-1.1982121,1.7922786,162.18571,-71.21992,12.328983,WAL
496755559000,3.049985,0.957965322353697,11.7845928856173,0.0187609417813246,-1.1447614,-0.9963212,1.842675,162.37129,-70.7621,12.930047,WAL
496760530000,3.054956,0.461463151870588,11.0940921903922,-0.440245809133333,-1.0140363,-0.78038037,1.8613064,162.5675,-70.38433,13.565409,WAL
496765539000,3.059965,0.0758201534764706,10.2945885126471,-0.6800969321,-0.8686504,-0.54092115,1.8481728,162.69893,-70.03311,14.1742525,WAL
496770532000,3.064958,-0.241123436973065,9.54326965583583,-0.975225190594271,-0.7473936,-0.24404067,1.8148806,162.73918,-69.76812,14.724399,WAL
496775565000,3.069991,-0.385373316103035,8.90444876100898,-1.41827841613938,-0.6753115,0.065973446,1.8289305,162.70741,-69.50728,15.251769,WAL
496780479000,3.074905,-0.49714364916976,8.32662198359055,-1.66293046451455,-0.5742133,0.35460728,1.8347337,162.57803,-69.28655,15.722773,WAL
496785626000,3.080052,-0.569362584668881,7.79220170404376,-1.62922827249463,-0.49449542,0.56169057,1.8038851,162.38936,-69.07631,16.159107,WAL
496790449000,3.084875,-0.640442255662437,7.34037211242254,-1.58785373886102,-0.44837508,0.6084218,1.7629571,162.18576,-68.891335,16.609383,WAL
496796194000,3.09062,-0.732437838548244,6.90745214783122,-1.51750418810859,-0.3933972,0.6133087,1.717753,161.94337,-68.72499,17.024567,WAL
496800547000,3.094973,-0.780383126226768,6.6742406116629,-1.57608580833907,-0.34788775,0.6927212,1.7131716,161.62717,-68.51264,17.454481,WAL
496805558000,3.099984,-0.79454064751303,6.58457593896155,-1.85451764505851,-0.32925636,0.9831876,1.7507398,161.2549,-68.30385,17.855618,WAL
496810494000,3.10492,-0.784723077998377,6.45028881712199,-2.00997922569651,-0.2929099,1.25319,1.7394388,160.8448,-68.08763,18.233206,WAL
496815538000,3.109964,-0.715037173225137,6.19767737479939,-1.87060737976738,-0.3115413,1.4217888,1.6694947,160.38902,-67.87424,18.57965,WAL
496820583000,3.115009,-0.638672672287409,5.94259482373105,-1.72639457600527,-0.36957347,1.4727961,1.5763378,159.87993,-67.65823,18.940369,WAL
496825559000,3.119985,-0.492076585203252,5.66510951219512,-1.53267838211382,-0.4007276,1.4630222,1.4758505,159.35524,-67.46893,19.255852,WAL
496830761000,3.125187,-0.384456838269323,5.39924317200886,-1.33463851689287,-0.4147775,1.4563028,1.3939945,158.80002,-67.24548,19.570162,WAL
496835564000,3.12999,-0.388884354532679,5.20886009288671,-1.16196560453364,-0.44073927,1.4419475,1.2883148,158.26904,-67.05649,19.834688,WAL
496840546000,3.134972,-0.418786252152941,4.9803693994902,-1.02610225029412,-0.46609017,1.4043792,1.1945469,157.73074,-66.82372,20.126276,WAL
496846986000,3.141412,-0.606228778505882,4.50269351164706,-1.10470718558824,-0.44440445,1.3997977,1.1123856,157.20464,-66.62897,20.37471,WAL
496850555000,3.144981,-0.7069598865,4.279013173,-1.106121179,-0.42638394,1.4816537,1.0558805,156.64366,-66.42233,20.595245,WAL
496855589000,3.150015,-0.831063910886139,4.19786803365347,-0.867459587891089,-0.40683624,1.4587462,0.98532563,156.1318,-66.2542,20.782991,WAL
496860493000,3.154919,-0.953128772964499,4.10847021980513,-0.657778653434304,-0.35369098,1.3457361,0.88514376,155.6152,-66.119545,20.92394,WAL
496866195000,3.160621,-1.10589762497106,3.90829046994984,-0.626171300191009,-0.27305678,1.2800682,0.77396625,155.10503,-66.021614,21.03151,WAL
496870675000,3.165101,-1.24584607412002,3.7463955372187,-0.611651080600115,-0.19822577,1.2559389,0.64568454,154.60262,-65.975235,21.055006,WAL
496875573000,3.169999,-1.64734061716676,3.5118144050779,-0.724430455833814,-0.118507855,1.2403619,0.52412236,154.12881,-65.97334,21.047714,WAL
496880657000,3.175083,-2.06408178843047,3.26832512867859,-0.841492592152337,-0.027794369,1.2263119,0.4034765,153.658,-66.02911,20.976143,WAL
496885585000,3.180011,-2.43106733001671,3.1418064615967,-0.888642168582244,0.101098195,1.2296717,0.30604348,153.19609,-66.130714,20.873838,WAL
496890498000,3.184924,-2.79651985203028,3.01690501748107,-0.934901968960771,0.23365596,1.2327261,0.20586158,152.73434,-66.348755,20.651733,WAL
496895499000,3.189925,-3.09519594143801,3.02925158856399,-0.894258530652914,0.37232238,1.210124,0.15790866,152.28389,-66.60107,20.415983,WAL
496900591000,3.195017,-3.39308008307631,3.05366835575806,-0.845425060004006,0.4288274,1.221425,0.071776666,151.83241,-66.8992,20.137455,WAL
496905571000,3.199997,-3.68441217760865,3.07754806915682,-0.797665695543761,0.5488624,1.2308935,-0.0106901415,151.37555,-67.29989,19.776007,WAL
496910448000,3.204874,-3.96971872882035,3.10093388486882,-0.750894125167735,0.6597345,1.2052372,-0.069027774,150.93057,-67.72694,19.396736,WAL
496915532000,3.209958,-4.15002104082153,3.2213123072238,-0.463612388617564,0.7703011,1.1505647,-0.13622294,150.49266,-68.19381,18.993536,WAL
496920576000,3.215002,-4.31879351897073,3.34903195991501,-0.157997419318225,0.8933904,1.0720685,-0.1881465,150.07222,-68.691635,18.580133,WAL
496925554000,3.21998,-4.23118798800037,3.49501091128614,0.113434393128243,1.0464121,0.9639453,-0.23457226,149.64561,-69.32534,18.03391,WAL
496930476000,3.224902,-4.0914191051427,3.64351529516308,0.37550097437361,1.2030991,0.8176431,-0.2846632,149.25714,-69.99317,17.477545,WAL
496935577000,3.230003,-3.75103425107533,4.01468055400411,0.804581103616124,1.3671165,0.66798115,-0.35002577,148.88086,-70.713165,16.867327,WAL
496940551000,3.234977,-3.31859685204798,4.48830238275154,1.30394327754026,1.5149459,0.5131268,-0.41538838,148.5526,-71.465454,16.250885,WAL
496945537000,3.239963,-2.85669997484906,5.00916321551887,1.95763570237736,1.6484199,0.33200526,-0.46975538,148.27129,-72.205696,15.652887,WAL
496950575000,3.245001,-2.38332388650943,5.54626320731132,2.65404490622642,1.765706,0.12003502,-0.49938235,148.04689,-72.971115,15.053129,WAL
496955564000,3.24999,-1.82186938165022,6.20022339256771,3.39782218757086,1.8820758,-0.10262536,-0.54458636,147.87315,-73.66819,14.5139265,WAL
496960526000,3.254952,-1.22325361830779,6.9035967373924,4.16105732750367,1.9483547,-0.34788775,-0.54458636,147.7678,-74.36252,13.991594,WAL
496965544000,3.25997,-0.581799085652088,7.71323375610528,4.88334146036018,2.006387,-0.5766568,-0.5705481,147.70993,-74.93553,13.556319,WAL
496970591000,3.265017,0.0734332327577677,8.55499235240451,5.59596637401544,2.0161607,-0.8014552,-0.61483586,147.72383,-75.50485,13.129249,WAL
496975558000,3.269984,0.673529346576592,9.44267092232166,6.12274000227648,1.9706513,-0.96486163,-0.6383542,147.76964,-75.90287,12.827393,WAL
496980511000,3.274937,1.25877716499261,10.3452711447563,6.5967082760709,1.8756617,-1.047023,-0.64751714,147.859,-76.29346,12.527851,WAL
496985547000,3.279973,2.03830289891172,11.4591740021099,7.02201889760133,1.74738,-1.0439687,-0.63621616,147.9489,-76.49158,12.369337,WAL
496990556000,3.284982,3.0291371660744,12.7962677290394,7.37893220277623,1.5488489,-0.9837985,-0.58001655,148.0457,-76.655525,12.227172,WAL
496995518000,3.289944,3.93185877187588,13.9126528157969,7.51341677799718,1.3014483,-0.9257663,-0.54061574,148.11559,-76.64319,12.2155485,WAL
497000564000,3.29499,4.8088349251622,14.9395781066291,7.53613635148096,1.1795808,-0.7874053,-0.441961,148.14172,-76.59556,12.233003,WAL
497005716000,3.300142,5.49075582744537,15.7762944055544,7.39630051219114,0.9126327,-0.6038403,-0.3136793,148.0883,-76.31538,12.436928,WAL
497010498000,3.304924,5.96302720208291,16.3935210218501,7.14379899869308,0.66950834,-0.410196,-0.18875736,147.98996,-76.018616,12.650569,WAL
497015518000,3.309944,6.03263710942976,16.6048198369958,6.92297364937413,0.4596761,-0.2098322,-0.07941248,147.76598,-75.526505,13.057269,WAL
497020615000,3.315041,5.77465442753825,16.4826166036161,6.73288154242003,0.28955013,-0.03023783,0.032375857,147.49426,-75.018524,13.462369,WAL
497025525000,3.319951,5.41208574440978,16.1315003265731,6.55894746203848,0.18448131,0.08582657,0.124005646,147.12627,-74.43698,13.962088,WAL
497030553000,3.324979,4.88123494291212,15.4454008345294,6.39368246210088,0.093767814,0.18845193,0.18692477,146.72144,-73.86509,14.437635,WAL
497035573000,3.329999,4.29346148628984,14.6163778965725,6.23649372669874,0.040927973,0.29565877,0.23335053,146.32214,-73.37352,14.834763,WAL
497040546000,3.334972,3.6538733803167,13.6522224450792,6.08852918394468,-0.0036651916,0.37323865,0.26450464,145.9092,-72.8916,15.215794,WAL
497047024000,3.34145,2.78211849603549,12.5311287079479,5.87388298092316,-0.035430185,0.4007276,0.26847526,145.51877,-72.4884,15.512555,WAL
497050606000,3.345032,2.28669361108174,11.9579904496885,5.74759834356239,-0.061086524,0.37782016,0.2510656,145.12721,-72.09686,15.795307,WAL
497055541000,3.349967,1.55973335967653,11.4088330158845,5.47452477097473,-0.099265605,0.29718593,0.23151793,144.79066,-71.78187,15.990035,WAL
497060500000,3.354926,0.758209094937004,11.2416699595668,5.04161597615524,-0.13622294,0.16218472,0.20219639,144.48242,-71.479416,16.173195,WAL
497065498000,3.359924,-0.0155132735063497,11.1480824644324,4.54635998796906,-0.18967366,-0.015271631,0.14966199,144.26292,-71.27748,16.24587,WAL
497070592000,3.365018,-0.616407823976702,11.4648331530603,3.71721846519622,-0.183565,-0.19150625,0.08307768,144.08609,-71.09153,16.310549,WAL
497075546000,3.369972,-1.16720591302803,11.7820358124753,2.93516074086064,-0.13591751,-0.34788775,0.021685716,143.9911,-71.065216,16.234917,WAL
497080537000,3.374963,-1.28514370606988,12.2207645149033,2.46340947017371,-0.06841691,-0.45937067,-0.011301007,143.93631,-71.05043,16.155924,WAL
497085845000,3.380271,-1.40797318786791,12.6922370553789,2.00496551433699,0.004886922,-0.54183745,-0.023823744,143.93668,-71.20197,15.976713,WAL
497090554000,3.38498,-1.49584589985643,13.1501000167162,1.94946697210543,0.06719518,-0.59406644,-0.042455133,143.96161,-71.36817,15.793217,WAL
497095489000,3.389915,-1.57516280919996,13.6326545637032,1.88811415579955,0.0983493,-0.7690793,-0.044593163,144.05658,-71.606445,15.5915985,WAL
497100554000,3.39498,-1.51416010991584,14.1582160544645,1.78957136403212,0.113926366,-1.0067059,-0.01160644,144.18228,-71.84276,15.4035635,WAL
497105788000,3.400214,-1.46442255456905,14.6387631256601,1.63612711016773,0.1414153,-1.2641857,0.076052725,144.36874,-72.10725,15.2108965,WAL
497110539000,3.404965,-1.57437369784301,14.3455601336257,0.894975008598586,0.14049901,-1.4474452,0.19120082,144.59744,-72.348236,15.046952,WAL
497115496000,3.409922,-1.68909224492974,14.0396440672156,0.121687076062651,0.22021692,-1.4969252,0.22266038,144.8609,-72.61815,14.886735,WAL
497121279000,3.415705,-2.24029775782999,12.9748814283553,-0.660096664220228,0.3387248,-1.4932601,0.15882497,145.15814,-72.88075,14.741062,WAL
497125443000,3.419869,-2.70675208619542,12.0902268848442,-1.20295301016678,0.38515055,-1.5149459,0.040011674,145.47482,-73.14252,14.594387,WAL
497130521000,3.424947,-3.07878040486645,10.9744629780461,-2.39399068508965,0.34238997,-1.6417004,-0.076358154,145.83774,-73.47359,14.434042,WAL
497135556000,3.429982,-3.39636031247713,9.85852237980241,-3.71282971628247,0.35369098,-1.7617353,-0.17867808,146.20435,-73.83458,14.245181,WAL
497140503000,3.434929,-3.74300151068437,8.86293585777324,-4.21923900919305,0.51923543,-1.8188512,-0.28924468,146.62718,-74.31765,13.964318,WAL
497145540000,3.439966,-4.1174773014096,7.9119644581001,-4.24387554729316,0.7696902,-1.8649716,-0.41538838,147.07971,-74.832085,13.653428,WAL
497150562000,3.444988,-5.02275872602817,6.69925646413917,-3.98295214567458,1.0268645,-1.8774943,-0.57604593,147.5783,-75.48303,13.284088,WAL
497155541000,3.449967,-6.18586673036778,5.36483804933346,-3.58172486534934,1.2302825,-1.806634,-0.75533485,148.05966,-76.17308,12.867774,WAL
497160519000,3.454945,-6.82463087767252,4.7741890137457,-3.40702438161048,1.3613132,-1.6829338,-0.93676186,148.55588,-76.94454,12.350291,WAL
497165600000,3.460026,-7.03252069817034,4.80130514089347,-3.42058239799387,1.4223998,-1.6056592,-1.108415,149.03658,-77.74691,11.777916,WAL
497170624000,3.46505,-7.0541137592534,5.12473097450174,-3.66542958943372,1.3814718,-1.5754215,-1.2550226,149.52269,-78.712494,10.98337,WAL
497175652000,3.470078,-6.81038221480544,5.87623611920279,-4.24429162309396,1.3182472,-1.5741998,-1.346347,149.98637,-79.69135,10.145589,WAL
497180576000,3.475002,-6.45559728687415,6.74676958376184,-4.84773033281461,1.2770138,-1.5118915,-1.3805555,150.41696,-80.699265,9.239543,WAL
497185568000,3.479994,-5.98426968896192,7.75873744024744,-5.49465092759521,1.2742649,-1.4165965,-1.3735305,150.8271,-81.68111,8.312681,WAL
497191266000,3.485692,-5.15926093868613,8.93665121987801,-6.212906890011,1.2550226,-1.2311989,-1.3341297,151.17484,-97.42674,7.4114113,WAL
497195560000,3.489986,-4.3245512189781,9.84126318928107,-6.73922608949105,1.2611313,-1.0940597,-1.2965615,151.49544,-96.63353,6.5108924,WAL
497200528000,3.494954,-3.1012073535133,10.8710476660311,-6.99258548409433,1.2770138,-0.72387534,-1.2275337,151.66078,-96.10382,5.7162566,WAL
497205582000,3.500008,-1.50807265719819,11.895899459709,-6.7691581100853,1.3219124,-0.26267207,-1.1337659,151.7465,-95.78836,4.9492884,WAL
497210457000,3.504883,0.132729170363242,12.9032467071365,-5.909244389695,1.3631458,0.2134974,-1.0005972,151.64555,-95.91687,4.4234242,WAL
497215536000,3.509962,1.98597872925871,13.9787072851643,-4.12321110689961,1.3649784,0.5002986,-0.81245077,151.45763,-96.244865,3.9541454,WAL
497220527000,3.514953,3.55917941850815,14.6911382172151,-2.56280190741098,1.3588698,0.41630468,-0.58062744,151.12053,-96.86713,3.8766198,WAL
497225614000,3.52004,4.79556144108849,14.9073875051626,-1.26060466859018,1.2968669,0.0021380284,-0.35033122,150.79814,-97.52037,3.8446891,WAL
497230478000,3.524904,5.64766559085888,14.8663087137531,-0.439541309624413,1.2263119,-0.5225952,-0.20280726,150.41289,-98.10338,4.21074,WAL
497235564000,3.52999,5.84943717872595,14.3058324969622,-0.466444180203443,1.171945,-0.9981538,-0.17379116,150.14012,-98.66607,4.5695214,WAL
497240513000,3.534939,5.90607597558666,13.7663426823108,-0.550908763727244,1.1472049,-1.2470814,-0.25381452,149.96114,-99.13975,5.089131,WAL
497247064000,3.54149,5.01482252472903,13.0929508261075,-1.06585538200042,1.1313224,-1.3316863,-0.28955013,149.87686,-99.60536,5.588879,WAL
497250551000,3.544977,4.53139239459459,12.6901794534535,-1.41900670520521,1.1896601,-1.4059063,-0.2284636,149.84915,-100.12536,6.1144185,WAL
497255515000,3.549941,3.82234805081081,12.014446381982,-2.10425743921922,1.2757921,-1.3127494,-0.13958271,149.8009,-100.63537,6.6166635,WAL
497261095000,3.555521,3.06548804407556,11.2049298946766,-2.68332042982255,1.3753631,-1.1438452,-0.07849618,149.78894,-101.14914,7.0048494,WAL
497265539000,3.559965,2.52547751661897,10.4822088139668,-2.84572959379889,1.4844025,-0.9987647,-0.059864793,149.75916,-101.67648,7.3932123,WAL
497270492000,3.564918,1.94760393123416,9.71564516182492,-2.95278400637551,1.5525141,-0.86498517,-0.09407325,149.70313,-102.241714,7.6786976,WAL
497275647000,3.570073,1.47596163400273,9.12849880288555,-2.66402339982453,1.5393804,-0.73426,-0.15974127,149.605,-102.79399,7.955734,WAL
497280487000,3.574913,1.03665109617934,8.61776729044834,-2.34638485337232,1.4340062,-0.65301496,-0.22266038,149.53394,-103.30567,8.11136,WAL
497285586000,3.580012,0.603539526437622,8.42262865984405,-1.61818632621832,1.3084733,-0.6826419,-0.27763826,149.45155,-103.7899,8.246203,WAL
497290627000,3.585053,0.201140997819618,8.23643492285841,-0.948131947154905,1.2043208,-0.72784597,-0.301462,149.41554,-104.17565,8.27467,WAL
497295562000,3.589988,0.0878643343335997,8.12735389955615,-0.8348552757834,1.1007792,-0.81581056,-0.31612277,149.39381,-104.52155,8.285061,WAL
497300536000,3.594962,-0.0263075246693298,8.01741083777186,-0.720683408832668,1.0372492,-0.8216137,-0.32436943,149.44298,-104.71374,8.18489,WAL
497305553000,3.599979,-0.181990284344277,8.07946365077281,-0.486114613618547,0.9419542,-0.89644474,-0.32375857,149.53278,-104.873024,8.075037,WAL
497310444000,3.60487,-0.342871736445298,8.17883138867562,-0.230597009328215,0.89949906,-1.0827587,-0.2938262,149.65361,-105.03271,7.964982,WAL
497315584000,3.61001,-0.673938295895839,8.12548772742712,-0.197171622572884,0.893085,-1.3170254,-0.28099802,149.83046,-105.15353,7.8133116,WAL
497320538000,3.614964,-1.02756001341259,8.04043962043589,-0.215076516230776,0.90377516,-1.561677,-0.31520647,150.05814,-105.2661,7.6456604,WAL
497325540000,3.619966,-1.30495904657455,7.9365889965214,-0.368763056338777,0.9251554,-1.7259997,-0.35430184,150.35312,-105.32809,7.4310036,WAL
497330622000,3.625048,-1.55420769836699,7.82372184742487,-0.580389316914678,0.94959,-1.7776178,-0.42638394,150.6772,-105.38549,7.1911416,WAL
497335565000,3.629991,-1.68262098615693,7.82054942309407,-0.848473956174766,0.91751957,-1.7403551,-0.49602258,151.03659,-105.40935,6.86795,WAL
497340521000,3.634947,-1.75139211477931,7.87345024877396,-1.15000888350424,0.86315256,-1.6426166,-0.5491679,151.3864,-105.43068,6.532477,WAL
497345540000,3.639966,-1.75821247752386,8.09730814550188,-1.11086252366213,0.8222246,-1.5882497,-0.55863625,151.74062,-105.46935,6.145972,WAL
497350559000,3.644985,-1.75357782713335,8.35221440092566,-1.00890011828175,0.8622363,-1.5937474,-0.5558874,152.07817,-105.51738,5.7534785,WAL
497355534000,3.64996,-1.71656350672367,8.55240537310532,-0.925224488814613,0.93951076,-1.5968018,-0.5662721,152.3933,-105.60857,5.34925,WAL
497360470000,3.654896,-1.67063357590361,8.73612509638554,-0.847143539277108,1.0204504,-1.5592335,-0.5766568,152.69511,-105.719986,4.951426,WAL
497365546000,3.659972,-1.56607056145497,8.89902515488413,-0.695929595412144,1.0589349,-1.5131133,-0.5885687,152.99931,-105.819565,4.5486727,WAL
497370548000,3.664974,-1.43960271674978,9.0489125034712,-0.517937907990613,1.0577132,-1.4547756,-0.600786,153.28557,-105.93638,4.1504836,WAL
497375623000,3.670049,-1.31236758592979,9.13169131055033,-0.324785646909023,1.0375546,-1.4315627,-0.61758476,153.57031,-106.04507,3.7571485,WAL
497380596000,3.675022,-1.18819285490269,9.18047431502002,-0.129653859180277,0.98807454,-1.4144585,-0.61544675,153.8383,-106.1512,3.3740745,WAL
497385570000,3.679996,-1.11305063685801,9.17212124169184,0.0042242125347432,0.94042706,-1.3814718,-0.63529986,154.09973,-106.2212,3.0053453,WAL
497390566000,3.684992,-1.0809286544478,9.11323082880161,0.0845292283758532,0.904386,-1.3665055,-0.64996064,154.35979,-106.28552,2.6435685,WAL
497395535000,3.689961,-1.13726853157284,9.07754505649062,0.112151841031147,0.883922,-1.3353515,-0.659429,154.61195,-106.30815,2.3067393,WAL
497400550000,3.694976,-1.22553762515961,9.04967052418263,0.121443324311279,0.8512407,-1.3139712,-0.67011917,154.85988,-106.320274,1.971296,WAL
497405524000,3.69995,-1.27680946449745,8.9546925212097,0.000546757841101919,0.79534656,-1.3154984,-0.6945538,155.11026,-106.31376,1.6358416,WAL
497410540000,3.704966,-1.3103718063679,8.82523826749176,-0.18644328381575,0.7266242,-1.3029755,-0.7189884,155.34875,-106.29779,1.3056496,WAL
497415567000,3.709993,-1.17882832643585,8.71530548531012,-0.518675660460975,0.6591236,-1.2889256,-0.7302894,155.59396,-106.27046,0.95629454,WAL
497420612000,3.715038,-0.963755150523296,8.61493798258977,-0.924924986640617,0.5897904,-1.25319,-0.7315111,155.82767,-106.22755,0.6115885,WAL
497425563000,3.719989,-0.650406253544027,8.59929880481018,-1.27554274426555,0.56230146,-1.212262,-0.72784597,156.05243,-106.22606,0.26459473,WAL
497430583000,3.725009,-0.277727400512821,8.62796648717949,-1.60522014358974,0.56230146,-1.2082914,-0.7174612,156.27672,-106.21739,-0.07522259,WAL
497435558000,3.729984,0.0924447161555884,8.74885672368291,-1.78957369593304,0.57604593,-1.2308935,-0.68966687,156.47263,-106.29154,-0.35494497,WAL
497440545000,3.734971,0.463986155779419,8.92286938414574,-1.8930409566519,0.6041457,-1.2812898,-0.6704246,156.67293,-106.371414,-0.63121027,WAL
497446295000,3.740721,1.10808043335184,9.52697185501785,-1.64596571683856,0.63713247,-1.3451253,-0.6417139,156.85149,-106.51995,-0.8105049,WAL
497450563000,3.744989,1.67149374660849,10.1349722413725,-1.31764571136454,0.66889745,-1.4245378,-0.6078109,157.04716,-106.67387,-0.9850626,WAL
497455559000,3.749985,2.03664749670264,10.5974259784173,-0.90636896251199,0.68233645,-1.4947872,-0.57726765,157.24194,-106.83976,-1.0742801,WAL
497460523000,3.754949,2.19340166880496,10.882433383693,-0.478857566916467,0.67347896,-1.5671748,-0.5476407,157.45886,-107.0042,-1.1594363,WAL
497465567000,3.759993,2.23251514601613,10.9982286338776,-0.0566629315856777,0.65118235,-1.640784,-0.5216789,157.70827,-107.03984,-1.1159314,WAL
497470534000,3.76496,2.18572391485343,10.9888701922093,0.350421082455243,0.6249151,-1.7455474,-0.5039638,157.98584,-107.071815,-1.0761254,WAL
497475555000,3.769981,1.95848398775329,10.8621150313334,0.575391269318968,0.6001751,-1.851838,-0.49449542,158.34169,-106.997284,-1.0409721,WAL
497480568000,3.774994,1.58360261158446,10.6390848428388,0.646571261144608,0.5458081,-1.928807,-0.49021935,158.71725,-106.91007,-1.0086198,WAL
497485541000,3.779967,1.15736536948644,10.3800199657004,0.583995993615435,0.45448375,-1.9550742,-0.48288897,159.14575,-106.73157,-1.0031285,WAL
497490526000,3.784952,0.68125199206077,10.0863421811912,0.401560001118464,0.36713,-1.9257526,-0.47616947,159.5785,-106.54354,-0.99648935,WAL
497495554000,3.78998,0.259764156530867,9.82843312959884,0.186760669600915,0.31795537,-1.8020525,-0.4654793,160.00455,-106.34678,-1.054377,WAL
497500571000,3.794997,-0.0648091672386198,9.63368911343795,-0.0778914248441072,0.22174409,-1.6560557,-0.4550946,160.41528,-106.11584,-1.1023599,WAL
497510458000,3.804884,-0.704445693471212,9.24990715454167,-0.599441207139888,0.08827003,-1.3161092,-0.473726,161.14468,-105.74892,-1.373353,WAL
497515657000,3.810083,-0.843616375841477,9.17895065166321,-0.717382319445267,0.063224554,-1.1487321,-0.4908302,161.44377,-105.62234,-1.5711949,WAL
497520443000,3.814869,-0.811947034495114,9.21966826354753,-0.699285561060113,0.043982297,-0.99265605,-0.50518554,161.69429,-105.4866,-1.7557206,WAL
497525430000,3.819856,-0.718115783158299,9.33215465795765,-0.661975519475751,0.014049901,-0.88117313,-0.5112942,161.90025,-105.396065,-1.9647514,WAL
497530434000,3.82486,-0.55853831288166,9.52037461492486,-0.604691298061817,0.004276057,-0.7984009,-0.5155703,162.06847,-105.30967,-2.1632028,WAL
497535423000,3.829849,-0.39268757481197,9.71820078785172,-0.538533920893256,-0.014049901,-0.76083267,-0.4990769,162.23276,-105.2098,-2.3515165,WAL
497540427000,3.834853,-0.184003863124609,9.98039284368022,-0.415464038552925,-0.048258353,-0.77121735,-0.4804455,162.38596,-105.10628,-2.5337343,WAL
497545376000,3.839802,0.001571676192783,10.2439450716757,-0.3208301292783,-0.11911872,-0.8402451,-0.46822822,162.55135,-104.96041,-2.6764443,WAL
497550642000,3.845068,0.156131770758478,10.5331221384083,-0.275957837847751,-0.17867808,-0.94897914,-0.45234573,162.73114,-104.81079,-2.8130732,WAL
497555503000,3.849929,0.293418242675713,10.8226826297345,-0.263275238761226,-0.23273966,-1.0650436,-0.41905355,162.94615,-104.606674,-2.9115713,WAL
497560542000,3.854968,0.425320890296759,11.1665717524405,-0.305672525907848,-0.2574797,-1.1746938,-0.36102137,163.19127,-104.39669,-3.002591,WAL
497565520000,3.859946,0.539721060769666,11.4922874357668,-0.339171801346916,-0.2519819,-1.2379184,-0.28191432,163.46756,-104.15511,-3.0535922,WAL
497570506000,3.864932,0.616286757747595,11.7850383423882,-0.352683391058291,-0.25167647,-1.2455542,-0.20219639,163.76132,-103.90737,-3.0890675,WAL
497575472000,3.869898,0.697508995884565,12.0859239944111,-0.327211297589676,-0.25625798,-1.1942415,-0.12370021,164.05765,-103.64746,-3.0707176,WAL
497580503000,3.874929,0.805219612951936,12.4384314052434,-0.101998199679504,-0.31612277,-1.1096367,-0.03268129,164.35083,-103.372826,-3.023877,WAL
497585596000,3.880022,0.923398865453636,12.7993602828849,0.187561529606482,-0.3998113,-1.0021244,0.087964594,164.64363,-103.0764,-2.93327,WAL
497590530000,3.884956,1.06992392810843,13.1633100288086,0.683856063643093,-0.5002986,-0.9593639,0.14996742,164.9306,-102.76464,-2.8330226,WAL
497595497000,3.889923,1.19786149176574,13.5061611281427,1.22596287366011,-0.5525276,-0.86651236,0.28619036,165.19493,-102.38035,-2.6494215,WAL
497600531000,3.894957,1.24953818506139,13.7598463744884,1.94473845777626,-0.68233645,-0.8020661,0.4364632,165.45634,-101.9542,-2.446284,WAL
497605544000,3.89997,1.31702916640927,14.0091673776062,2.64407121915058,-0.79351395,-0.79229224,0.5925393,165.74785,-101.41262,-2.1869216,WAL
497610554000,3.90498,1.46986052210425,14.2407304480695,3.25539698044402,-0.9233228,-0.8197812,0.75686204,166.03487,-100.84069,-1.8861034,WAL
497615530000,3.909956,1.63834711426091,14.463261218102,3.84837373063643,-1.0931433,-0.86315256,0.9086621,166.35703,-100.10058,-1.5451382,WAL
497620542000,3.914968,1.9913887283175,14.6054583499847,4.28967590180815,-1.3264939,-0.91751957,1.0919216,166.68985,-99.327156,-1.1563517,WAL
497625548000,3.919974,2.34256424288739,14.7422489021174,4.68063832439846,-1.6221527,-1.0024298,1.2944235,167.06117,-98.39814,-0.7038298,WAL
497630555000,3.924981,2.68408299039461,14.8437811276227,4.73601964783446,-1.9364429,-1.1346822,1.4926492,167.45412,-97.44221,-0.2110354,WAL
497635559000,3.929985,2.99652652584541,14.9558333466184,4.78969505716586,-2.2003367,-1.2431108,1.7311921,167.86496,-96.40794,0.39765763,WAL
497640522000,3.934948,2.80039961491546,15.2524160528382,4.81361296095008,-2.415972,-1.3206906,1.8952094,168.28966,-95.41032,1.0299838,WAL
497647109000,3.941535,2.39950452799581,15.6410627798372,4.84790717031993,-2.5491407,-1.3918564,2.024102,168.7286,-94.55681,1.7637836,WAL
497650541000,3.944967,2.00749832952696,15.8370656854702,4.86909670726892,-2.6502388,-1.4501941,2.1313088,169.16959,-93.981186,2.5259466,WAL
497655860000,3.950286,1.39995725445241,16.1408359229591,4.90193678507535,-2.770274,-1.3973542,2.1856759,169.58887,-93.79537,3.262092,WAL
497660498000,3.954924,0.575855409895833,16.3532951354167,4.67497809895833,-2.8756483,-1.1756102,2.2104158,169.95787,-94.090866,4.0094247,WAL
497665547000,3.959973,-0.520115407552084,16.5491708177083,4.25524442447917,-2.982855,-0.7663304,2.2128594,170.2392,-85.23559,4.753556,WAL
497670572000,3.964998,-1.74821246530612,16.616606430839,3.6164713170068,-3.0644054,-0.22876903,2.1563544,170.41245,-84.445465,5.359871,WAL
497675557000,3.969983,-3.09688725952381,16.5624788637566,2.77298586150794,-3.1062498,0.4071417,2.0662518,170.42197,-83.51704,5.9405956,WAL
497680523000,3.974949,-4.49720852123811,16.489349556945,1.82921463468375,-3.1102204,0.72784597,1.92392,170.38173,-82.7145,6.301955,WAL
497685710000,3.980136,-6.05275771072757,16.3815391878876,0.674103871533692,-3.0815098,1.5070046,1.758681,170.0142,-81.880035,6.603061,WAL
497690508000,3.984934,-7.4348066089838,16.2060751496318,-0.280785185932253,-3.0063734,1.6557503,1.6655241,169.7607,-81.274536,6.6768494,WAL
497695536000,3.989962,-8.81531102430044,15.9318657522828,-1.14596431762003,-2.962391,1.7131716,1.4370605,169.30571,-80.695564,6.647137,WAL
497700559000,3.994985,-10.1365601028142,15.5594954955806,-1.772439896688,-2.8545732,1.4248432,1.1670581,168.947,-80.386284,6.386214,WAL
497705575000,4.000001,-11.3761684685563,15.051939282231,-2.07014115289038,-2.7595837,0.74097955,0.8738427,168.68123,-80.09038,6.076478,WAL
497710471000,4.004897,-11.5724690495633,14.2772820510354,-2.70654995043675,-2.6771169,-0.20219639,0.5897904,168.61047,-80.01589,5.543014,WAL
497715545000,4.009971,-10.466029790951,13.1136130124644,-3.81298920904897,-2.5864034,-1.0491611,0.43860126,168.6955,-79.934364,5.0101767,WAL
497720516000,4.014942,-9.00768335382309,12.4168972638681,-4.57398518190905,-2.4376578,-1.6310102,0.4868596,168.96898,-79.93248,4.3484426,WAL
497725591000,4.020017,-6.96740704947526,12.3586040029985,-4.87516880509745,-2.2342396,-1.9199494,0.675617,169.37915,-79.905174,3.7351377,WAL
497730496000,4.024922,-5.18302053272302,12.4565796482275,-4.5595559738021,-1.954158,-1.8353447,0.8585711,169.91347,-79.98597,3.308417,WAL
497735596000,4.030022,-3.60855546649786,12.789547860148,-3.32281605658356,-1.7122552,-1.6530013,0.9828822,170.47916,-80.07645,2.9372048,WAL
497740443000,4.034869,-2.26340889484646,13.0728546711806,-2.0433366668539,-1.6539177,-1.6792686,1.1178834,171.12354,-80.16083,2.8950617,WAL
497745537000,4.039963,-1.14685143028037,13.3054706315087,-0.494113336335113,-1.672549,-1.8017471,1.2739595,171.72986,-80.27512,2.8897233,WAL
497750549000,4.044975,-0.182405249303125,13.4131926260417,0.814886483930208,-1.6007724,-2.0039434,1.45783,172.35066,-80.20925,3.1323433,WAL
497755532000,4.049958,0.3991972278875,13.1795574041667,1.51082107242083,-1.459357,-2.4715607,1.5467108,173.07657,-80.14945,3.406178,WAL
497760489000,4.054915,0.865140228444148,12.8331374496804,1.82970910323381,-1.353372,-2.8118126,1.5864171,173.75983,-79.809105,3.859523,WAL
497765539000,4.059965,1.10965350627492,12.2472285781742,1.39143066862539,-1.321607,-2.6936102,1.6209309,174.44016,-79.475,4.3309684,WAL
497770605000,4.065031,1.31011119572078,11.6611371070632,0.947401377146634,-1.3500122,-2.2794437,1.6230689,175.10443,-79.01752,4.8728256,WAL
497775579000,4.070005,1.37700876320529,11.090539797026,0.498793822955803,-1.3875804,-1.7214183,1.5858061,175.69206,-78.56567,5.393395,WAL
497780536000,4.074962,1.44367769002891,10.5218926587361,0.0517195072895498,-1.409877,-1.4358387,1.5128077,176.2803,-78.148315,5.9358253,WAL
497785580000,4.080006,1.5874853141336,10.0840476972376,-0.324305973928679,-1.4199562,-0.9605856,1.4419475,176.65776,-77.72984,6.4241853,WAL
497790488000,4.084914,1.74329624500251,9.68743791160221,-0.673700198081366,-1.4208726,-0.63041294,1.4236214,176.99603,-77.312805,6.8928638,WAL
497795539000,4.089965,1.92439931544364,9.51723582569349,-1.19156915583317,-1.3643675,-0.39584067,1.4022411,177.2804,-76.974754,7.340833,WAL
497800513000,4.094939,2.10714249018296,9.40009289041904,-1.73511276692898,-1.2880094,-0.15057829,1.3949108,177.46979,-76.64286,7.7638288,WAL
497805644000,4.10007,2.21373266316862,9.04066845830502,-2.03487195968353,-1.2519683,0.24740042,1.5143349,177.57457,-76.315865,8.225551,WAL
497810535000,4.104961,2.29558120498981,8.64051951461023,-2.25768210330065,-1.1585059,0.65087694,1.5971072,177.61313,-76.02493,8.655712,WAL
497815550000,4.109976,2.27639659820789,8.10729915770609,-2.13909469856631,-1.1252137,0.86406887,1.5916094,177.61021,-75.73013,9.118671,WAL
497820577000,4.115003,2.22043317861087,7.52900959575705,-1.89658623856437,-1.1187997,0.8854492,1.525636,177.55081,-75.44287,9.570292,WAL
497825657000,4.120083,1.99149097090442,6.9536665822051,-1.84407730014676,-1.0989466,0.84940815,1.4217888,177.46085,-75.16153,10.024289,WAL
497830561000,4.124987,1.69424631502477,6.40225595509081,-1.87854042779307,-1.0607675,0.904386,1.3081679,177.34813,-74.89714,10.445546,WAL
497835624000,4.13005,1.31927866291568,5.84723718917614,-1.86216493272903,-1.022283,1.0531317,1.1844677,177.2043,-74.61222,10.828505,WAL
497840957000,4.135383,0.85358299062433,5.27744492671101,-1.79094089276979,-1.001819,1.2275337,1.0607675,177.0482,-74.35518,11.170911,WAL
497847053000,4.141479,0.507453326552609,4.89896929381238,-1.61913573983462,-1.0036516,1.3701707,0.9410379,176.84077,-74.13235,11.436922,WAL
497850554000,4.14498,0.341739346518392,4.73006852195609,-1.504410721785,-0.9941832,1.4853189,0.8268061,176.6018,-73.94355,11.658701,WAL
497855551000,4.149977,0.112012835962007,4.60065153877489,-1.31423681454693,-0.9819659,1.5464053,0.74464476,176.30821,-73.787445,11.795353,WAL
497860543000,4.154969,-0.111386319373222,4.57151258972978,-1.10055061349045,-0.945314,1.5842791,0.6762278,175.99706,-73.66389,11.895969,WAL
497865565000,4.159991,-0.282675100320121,4.59230318251069,-0.949326132950641,-0.9007208,1.6111571,0.6301075,175.64713,-73.55751,11.933479,WAL
497870671000,4.165097,-0.413805032084136,4.65377042828291,-0.846880851696975,-0.850019,1.6194037,0.59406644,175.2976,-73.47679,11.950559,WAL
497875751000,4.170177,-0.522162472793811,4.70622424120797,-0.745081798185064,-0.8026769,1.63437,0.552833,174.91574,-73.42213,11.902704,WAL
497880571000,4.174997,-0.545052601644352,4.72453632134286,-0.648943329673708,-0.7318166,1.627345,0.5152648,174.5419,-73.39354,11.843357,WAL
497885545000,4.179971,-0.54809972423973,4.71270284669466,-0.536005526546472,-0.64751714,1.5842791,0.4908302,174.1599,-73.39447,11.737126,WAL
497890633000,4.185059,-0.435779797423232,4.52817725084383,-0.343457075788261,-0.5983425,1.5335772,0.43279803,173.78801,-73.42108,11.608819,WAL
497895458000,4.189884,-0.329265715880464,4.35318982946407,-0.160861502889602,-0.49388456,1.4636332,0.3555236,173.42638,-73.47697,11.460304,WAL
497900533000,4.194959,-0.374332679198655,4.17735456751658,-0.0214389209227608,-0.39492437,1.3848315,0.25717425,173.0878,-73.560776,11.290793,WAL
497905550000,4.199976,-0.48203084277949,4.00683242129448,0.0952340825945643,-0.267559,1.280679,0.19058995,172.77994,-73.6835,11.112501,WAL
497911090000,4.205516,-0.727796637117992,3.77185858069217,0.217378591608986,-0.16798794,1.1695015,0.1337795,172.49474,-73.78265,10.9397545,WAL
497915526000,4.209952,-0.985736615098158,3.56120756575592,0.31195658952034,-0.052839845,1.0818423,0.058948494,172.23807,-73.929504,10.747264,WAL
497920612000,4.215038,-1.28249043994485,3.37038141963758,0.474139646677172,0.077579886,1.0091494,-0.009468411,172.00914,-74.10953,10.518155,WAL
