timestamp,rel_time,acc_x,acc_y,acc_z,gyro_x,gyro_y,gyro_z,azimuth,pitch,roll,label
8478482902000,0,-0.17717633237602,9.06828593932869,3.28005102094978,-0.07269296,-0.1518,-0.07086037,94.441216,-68.162735,5.847825,STD
8478487892000,0.00499,-0.173561449830558,9.06322510225519,3.28366590852807,-0.06078109,-0.14935656,-0.06811147,94.46752,-68.196106,5.8189287,STD
8478492919000,0.010017,-0.169919763546783,9.05812673993686,3.287307599882,-0.05681047,-0.14996742,-0.06352998,94.49242,-68.22502,5.7898364,STD
8478497898000,0.014996,-0.166312849680279,9.05307705901724,3.29091451877024,-0.05222898,-0.13958271,-0.06505715,94.513535,-68.25666,5.759322,STD
8478502900000,0.019998,-0.1626892740305,9.04800405159406,3.29453809946495,-0.043066,-0.12980886,-0.064446285,94.53379,-68.289185,5.7315297,STD
8478507880000,0.024978,-0.159081635738636,9.04295335647863,3.29814574277955,-0.04734206,-0.12705997,-0.064446285,94.55287,-68.31847,5.703633,STD
8478512999000,0.030097,-0.155373302321758,9.03776168814612,3.30185408135937,-0.04062254,-0.10445796,-0.062308256,94.56327,-68.35216,5.674253,STD
8478517929000,0.035027,-0.151801885297885,9.03276170282101,3.30542550335556,-0.03390302,-0.09407325,-0.062002823,94.575966,-68.383896,5.646161,STD
8478522892000,0.03999,-0.148206562237138,9.02772824903428,3.3090208314219,-0.032375857,-0.07971791,-0.06383542,94.58119,-68.41519,5.6161785,STD
8478527944000,0.045042,-0.144546765319368,9.02260453182079,3.31268063343503,-0.046120327,-0.06841691,-0.06047566,94.58356,-68.44283,5.5877547,STD
8478532909000,0.050007,-0.141685982853033,9.02349684238494,3.3169713163069,-0.027488936,-0.05467244,-0.062002823,94.58185,-68.47952,5.5566864,STD
8478537859000,0.054957,-0.139076792537352,9.02634321498694,3.32147809397961,-0.01863139,-0.04550946,-0.050701816,94.57651,-68.5078,5.5301294,STD
8478542884000,0.059982,-0.136428069035071,9.02923271444655,3.3260531561625,-0.021685716,-0.03359759,-0.047036625,94.529335,-68.49885,5.4602485,STD
8478547875000,0.064973,-0.133797267244048,9.03210266306404,3.33059726270077,-0.017715093,-0.02076942,-0.047647487,94.479485,-68.49392,5.3931274,STD
8478552892000,0.06999,-0.131152760615004,9.0349875623255,3.33516504120258,-0.0125227375,-0.016187929,-0.043066,94.42855,-68.48807,5.329871,STD
8478557876000,0.074974,-0.128525648588064,9.03785348576961,3.3397027745199,-0.018325957,-0.008857546,-0.043982297,94.37488,-68.48095,5.2652416,STD
8478562859000,0.079957,-0.125899063670279,9.04071883418896,3.34423959737709,-0.010995574,-0.0070249503,-0.044898596,94.32179,-68.47882,5.203697,STD
8478567905000,0.085003,-0.123239270875749,9.04362040916869,3.34883377922283,-0.017104227,-0.009773844,-0.037873644,94.26807,-68.47114,5.145485,STD
8478572890000,0.089988,-0.120611631739655,9.04648690763758,3.35337242300029,-0.010079277,-0.004886922,-0.034513887,94.21307,-68.46972,5.086781,STD
8478577947000,0.095045,-0.117946040744423,9.04939480788976,3.35797661990753,-0.012217305,-0.007330383,-0.034513887,94.16121,-68.4641,5.0316825,STD
8478583680000,0.100778,-0.114924123960626,9.05269142488517,3.36319628786664,-0.01282817,-0.011911872,-0.03390302,94.10896,-68.460884,4.978897,STD
8478587923000,0.105021,-0.112687599817307,9.05513125497613,3.36705937022326,-0.0125227375,-0.019242255,-0.028405234,94.05836,-68.45729,4.929446,STD
8478592880000,0.109978,-0.110074719737543,9.05798165275151,3.37157252111692,-0.020463986,-0.009162978,-0.025045475,94.005196,-68.45164,4.879695,STD
8478597903000,0.115001,-0.107427050453571,9.06087000216158,3.37614576237954,-0.018020526,-0.010995574,-0.02443461,93.95761,-68.449066,4.8339844,STD
8478602892000,0.11999,-0.104797302880858,9.06373880072953,3.38068804799754,-0.028710667,-0.014049901,-0.031154128,93.908775,-68.44125,4.7875915,STD
8478607872000,0.12497,-0.102172299290537,9.06660242407457,3.38522213947432,-0.028710667,-0.012217305,-0.027488936,93.85871,-68.43672,4.7450767,STD
8478612906000,0.130004,-0.0995188318058633,9.06949709875709,3.38980539579843,-0.03756821,-0.00580322,-0.011911872,93.8084,-68.4268,4.705052,STD
8478617949000,0.135047,-0.0968606203387973,9.07239694866252,3.39439684626377,-0.032375857,-0.0076358155,-0.017715093,93.762344,-68.42234,4.6621366,STD
8478622879000,0.139977,-0.0942619722062105,9.07523182076916,3.39888541473376,-0.03390302,-0.0015271631,-0.015271631,93.71072,-68.41252,4.625171,STD
8478627911000,0.145009,-0.0916095589398461,9.07812534540214,3.4034668501376,-0.03970624,0.0027488936,-0.007941248,93.66088,-68.403465,4.5894156,STD
8478633212000,0.15031,-0.088815353310872,9.08117355169774,3.408293199318,-0.055588737,-0.0018325958,-0.0061086523,93.61282,-68.391815,4.5541553,STD
8478637869000,0.154967,-0.0863606059775136,9.08385144204269,3.41253321217088,-0.043982297,0.0030543262,-0.008552114,93.56151,-68.38654,4.5192604,STD
8478642882000,0.15998,-0.0837182077850881,9.08673404120508,3.41709734883215,-0.06352998,0.0036651916,-0.0012217305,93.51212,-68.36803,4.4892807,STD
8478647892000,0.16499,-0.0810773909201267,9.08961491529316,3.421658754113,-0.06719518,0.005497787,0.004886922,93.46222,-68.35794,4.4586115,STD
8478652797000,0.169895,-0.078491920516407,9.0924354117806,3.42612456107959,-0.067500606,0.004886922,0.0033597588,93.41361,-68.344,4.4288893,STD
8478657887000,0.174985,-0.0758089349190709,9.09536228785013,3.43075880317132,-0.0693332,0.011911872,0.004886922,93.362305,-68.32874,4.4013896,STD
8478662876000,0.179974,-0.0731791873463579,9.09823108641809,3.43530108878932,-0.06658431,0.009773844,0.004276057,93.31476,-68.31556,4.374672,STD
8478667794000,0.184892,-0.0705868645236273,9.10105905822751,3.43977873173767,-0.07360926,0.007941248,0.004581489,93.265785,-68.29965,4.3485937,STD
8478672782000,0.18988,-0.0679576440600689,9.10392728177069,3.44432010689553,-0.06383542,0.01038471,0.0125227375,93.21626,-68.289444,4.3248863,STD
8478677875000,0.194973,-0.0652730771352688,9.10685588291453,3.44895708036767,-0.06566802,0.0036651916,0.015577064,93.170906,-68.27495,4.301788,STD
8478682836000,0.199934,-0.0626580886188868,9.10970858078898,3.45347387310186,-0.059864793,0.0106901415,0.018936822,93.121086,-68.26545,4.2798142,STD
8478687832000,0.20493,-0.0600246512820909,9.11258140453031,3.45802253194082,-0.052839845,0.012217305,0.025045475,93.07463,-68.25605,4.2612185,STD
8478692814000,0.209912,-0.0573985934734606,9.11544617792488,3.46255844433787,-0.046731193,0.013744468,0.027488936,93.02705,-68.2486,4.2423368,STD
8478697857000,0.214955,-0.0547403820063947,9.11834602783032,3.46714989480321,-0.048258353,0.00061086525,0.03634648,92.98234,-68.24076,4.2286463,STD
8478702847000,0.219945,-0.0521101073245269,9.12121540142304,3.47169309088134,-0.042455133,0.0027488936,0.036651913,92.93446,-68.23753,4.2120104,STD
8478707833000,0.224931,-0.0494819410792779,9.12408247491669,3.47623264511894,-0.039095376,0.0076358155,0.044593163,92.88827,-68.23271,4.2011857,STD
8478712847000,0.229945,-0.0468390157776977,9.12696564910384,3.48079769224034,-0.044593163,0.017715093,0.04428773,92.84154,-68.2279,4.1877875,STD
8478717824000,0.234922,-0.0442155935148408,9.12982754737458,3.48532905233671,-0.046120327,0.005497787,0.04428773,92.79924,-68.22508,4.1786714,STD
8478722980000,0.240078,-0.0414978187132957,9.13279237507881,3.4900233847974,-0.033292156,0.0106901415,0.03848451,92.750885,-68.225555,4.165342,STD
8478727861000,0.244959,-0.0389249989292884,9.13559907097181,3.49446734072073,-0.035124753,0.009162978,0.038789943,92.70757,-68.22156,4.1558485,STD
8478732825000,0.249923,-0.0460947198300577,9.13120208573167,3.48430592455454,-0.0290161,0.016493361,0.043066,92.66128,-68.22381,4.144696,STD
8478737816000,0.254914,-0.0563445554616025,9.12452778902459,3.46952709519053,-0.019242255,0.017715093,0.049785517,92.61732,-68.22674,4.135358,STD
8478742818000,0.259916,-0.0666169813940784,9.11783878238688,3.45471569377222,-0.03023783,0.023823744,0.042760566,92.526184,-68.19242,4.066184,STD
8478747832000,0.26493,-0.0769140512912064,9.11113372855212,3.43986875920377,-0.017104227,0.025045475,0.041233405,92.436264,-68.16823,4.002597,STD
8478752882000,0.26998,-0.0872850530822906,9.1043805331262,3.42491522518489,-0.014660766,0.026572637,0.04062254,92.3468,-68.13957,3.938675,STD
8478757873000,0.274971,-0.0975348887138354,9.09770623641913,3.41013639582089,-0.02107485,0.028710667,0.034513887,92.259056,-68.11367,3.8746123,STD
8478762891000,0.279989,-0.107840173265847,9.09099583351868,3.39527761686906,-0.014966198,0.044898596,0.027794369,92.16871,-68.09317,3.8104658,STD
8478767902000,0.285,-0.118131082171812,9.08429479148319,3.38043956558814,-0.008246681,0.05100725,0.03390302,92.0812,-68.071815,3.750816,STD
8478772899000,0.289997,-0.128393239785683,9.07761247117758,3.36564296964906,-0.01038471,0.06505715,0.03359759,91.99005,-68.05143,3.687043,STD
8478777900000,0.294998,-0.138663612054438,9.07092480180629,3.3508345293266,-0.01160644,0.07544186,0.022296581,91.90019,-68.03444,3.6235483,STD
8478782906000,0.300004,-0.148944252641798,9.0642304461029,3.33601128352492,-0.00030543262,0.07727446,0.023823744,91.80897,-68.0208,3.5646424,STD
8478787887000,0.304985,-0.159173551636133,9.05756952206003,3.32126206511936,-0.01282817,0.08399397,0.019547688,91.716934,-68.0019,3.5014725,STD
8478793146000,0.310244,-0.169973769144908,9.05053683795214,3.30568966206881,-0.019547688,0.08307768,0.013744468,91.62784,-67.98872,3.4407637,STD
8478797859000,0.314957,-0.179652686262012,9.04423430131009,3.2917340173498,-0.004581489,0.07696902,0.014966198,91.53946,-67.97898,3.382464,STD
8478802892000,0.31999,-0.18998877576984,9.03750383941333,3.27683082196029,-0.010079277,0.08735373,0.015882496,91.448975,-67.96278,3.3227067,STD
8478807906000,0.325004,-0.200285845666968,9.03079878557857,3.26198388739184,-0.00580322,0.07849618,0.014966198,91.366615,-67.95442,3.2672393,STD
8478812892000,0.32999,-0.210525412979907,9.02413117520359,3.24721986350706,0.004581489,0.08735373,0.018936822,91.27748,-67.946846,3.2120588,STD
8478817899000,0.334997,-0.220808107230988,9.01743548223378,3.23239365660953,0.010079277,0.09560041,0.0290161,91.19159,-67.93967,3.1609151,STD
8478822891000,0.339989,-0.231059996526254,9.01075984826028,3.21761186614968,0.009773844,0.09743301,0.034513887,91.10634,-67.93454,3.1109514,STD
8478827932000,0.34503,-0.241412515343849,9.00401868823216,3.20268498199341,0.015882496,0.106595986,0.03023783,91.01818,-67.933495,3.0609088,STD
8478832905000,0.350003,-0.251625385028416,8.99736846232065,3.18795945235462,0.034513887,0.113926366,0.026267206,90.93063,-67.93636,3.0138378,STD
8478837889000,0.354987,-0.261860845013914,8.99070352647852,3.17320135066153,0.03390302,0.11728613,0.023823744,90.84325,-67.93627,2.966919,STD
8478842882000,0.35998,-0.272114787972901,8.9840265552386,3.15841659910583,0.04795292,0.11453723,0.013744468,90.75796,-67.94659,2.9182527,STD
8478847907000,0.365005,-0.28243444817096,8.97730679147321,3.14353709248308,0.053145275,0.118507855,0.00030543262,90.6718,-67.95492,2.8684156,STD
8478852894000,0.369992,-0.29267606914762,8.97063784383182,3.12877010750246,0.045814894,0.11881329,-0.008552114,90.58902,-67.96421,2.819294,STD
8478857907000,0.375005,-0.302971085381027,8.96393412726348,3.11392613402985,0.04917465,0.10842858,-0.020158553,90.51085,-67.97888,2.7681515,STD
8478862929000,0.380027,-0.313284584587923,8.95721837529735,3.09905551069464,0.047647487,0.099265605,-0.03726278,90.43483,-67.990875,2.7146156,STD
8478867902000,0.385,-0.32349745427249,8.95056814938585,3.08432998105585,0.046120327,0.081855945,-0.049785517,90.365524,-68.004265,2.6627972,STD
8478872887000,0.389985,-0.333734967921709,8.9439018762773,3.06956891826691,0.053450707,0.059864793,-0.07452556,90.3039,-68.02088,2.6063168,STD
8478877884000,0.394982,-0.34399712553558,8.93721955597169,3.05477232232784,0.06047566,0.04917465,-0.09285152,90.24535,-68.03724,2.5505211,STD
8478882895000,0.399993,-0.354288034441545,8.9305185139362,3.03993427104692,0.05955936,0.03970624,-0.10629055,90.19511,-68.05398,2.493391,STD
8478887898000,0.404996,-0.364562514037742,8.92382817003207,3.02511990853277,0.060170226,0.02443461,-0.12034045,90.15181,-68.07356,2.4347906,STD
8478892875000,0.409973,-0.374783598377192,8.91717259505488,3.0103825345106,0.069027774,0.02321288,-0.13805555,90.109634,-68.09551,2.37297,STD
8478897904000,0.415002,-0.385111473230136,8.91044748222381,2.99549118350447,0.08093964,0.026572637,-0.14355333,90.07087,-68.118225,2.313633,STD
8478902891000,0.419989,-0.395353094206796,8.90377853458241,2.98072419852385,0.08124508,0.04062254,-0.15454891,90.03241,-68.14044,2.249035,STD
8478907917000,0.425015,-0.405674808068576,8.8970574335506,2.96584173080525,0.08582657,0.054367006,-0.16249016,89.9937,-68.166824,2.185376,STD
8478912901000,0.429999,-0.415910268054074,8.89039249770847,2.95108362911216,0.082161374,0.0729984,-0.1872302,89.95325,-68.19124,2.1143122,STD
8478917898000,0.434996,-0.426172425667945,8.88371017740287,2.93628703317308,0.08857546,0.089491755,-0.2134974,89.911064,-68.21954,2.0415516,STD
8478922887000,0.439985,-0.436418153972048,8.87703855522863,2.92151412600077,0.09162979,0.10170906,-0.22937989,89.86699,-68.24573,1.9656955,STD
8478927903000,0.445001,-0.446719331196618,8.87033082686103,2.90666126924063,0.10170906,0.11484267,-0.25961772,89.82299,-68.27621,1.8796397,WAL
8478932898000,0.449996,-0.400878813566487,8.87451664708466,2.9426918697156,0.116980694,0.12064589,-0.30482176,89.78137,-68.30914,1.7873937,WAL
8478937888000,0.454986,-0.327414916735378,8.88405740634078,3.00375277129481,0.13072516,0.12675454,-0.33750305,89.73846,-68.34416,1.6917795,WAL
8478942887000,0.459985,-0.253818519889945,8.89361537337912,3.06492380275662,0.13958271,0.11453723,-0.35735616,89.63893,-68.40013,1.5011895,WAL
8478947903000,0.465001,-0.179971845239676,8.90320584400611,3.12630285733003,0.17195857,0.11728613,-0.38515055,89.53861,-68.46523,1.3026754,WAL
8478952894000,0.469992,-0.106493226184753,8.91274851523803,3.18737599556285,0.19822577,0.116675265,-0.41508293,89.44523,-68.529076,1.1050942,WAL
8478957894000,0.474992,-0.0328821071155055,8.92230839425217,3.24855926367829,0.2312125,0.13255776,-0.44776422,89.350296,-68.601875,0.90263826,WAL
8478962869000,0.479967,0.0403609563583957,8.93182047387125,3.30943661545315,0.26450464,0.13439035,-0.47311515,89.26189,-68.67971,0.7011228,WAL
8478967888000,0.484986,0.114251797680106,8.94141668042565,3.37085237998742,0.30482176,0.12461651,-0.4999932,89.17614,-68.76623,0.49563533,WAL
8478972889000,0.489987,0.187877638973168,8.9509784714156,3.43204788475648,0.35246924,0.1469131,-0.5305365,89.08445,-68.86122,0.28457758,WAL
8478978475000,0.495573,0.270115981197331,8.9616587682502,3.50040183189505,0.39492437,0.16218472,-0.54702985,88.99855,-68.96275,0.0776251,WAL
8478982910000,0.500008,0.335409043811753,8.97013838093574,3.55467139071344,0.44012842,0.17928895,-0.5589417,88.90875,-69.07492,-0.13278922,WAL
8478987891000,0.504989,0.408740440628537,8.97966193240964,3.61562216241003,0.46211955,0.17348573,-0.5699373,88.82245,-69.18853,-0.3405552,WAL
8478992883000,0.509981,0.482233781907274,8.98920651561736,3.67670753729649,0.48441613,0.18509217,-0.5699373,88.72677,-69.31094,-0.5460375,WAL
8478997906000,0.515004,0.55618351212424,8.99881037007497,3.73817224844525,0.49663344,0.18845193,-0.548557,88.633545,-69.43271,-0.74129605,WAL
8479002897000,0.519995,0.629662131179163,9.00835304130689,3.79924538667808,0.49113566,0.19547687,-0.5317582,88.53646,-69.55165,-0.93340886,WAL
8479007886000,0.524984,0.703111305786458,9.0178918885872,3.86029405160366,0.47861293,0.18142697,-0.52778757,88.44305,-69.66822,-1.1158451,WAL
8479012902000,0.53,0.776957980436727,9.02748235921419,3.92167310617707,0.46822822,0.15302174,-0.50640726,88.34806,-69.78075,-1.2829995,WAL
8479017893000,0.534991,0.85043659949165,9.03702503044611,3.98274624440989,0.46822822,0.11484267,-0.48655418,88.25916,-69.88939,-1.4419898,WAL
8479022889000,0.539987,0.923988829665642,9.04657726155704,4.04388056591084,0.44990227,0.064751714,-0.47739118,88.17998,-69.98697,-1.5893959,WAL
8479027889000,0.544987,0.997599948734889,9.05613714057119,4.10506383402627,0.4538729,0.04734206,-0.47708577,88.10099,-70.088196,-1.7289456,WAL
8479032905000,0.550003,1.07144662338516,9.06572761119818,4.16644288859968,0.4260785,0.0067195175,-0.46303585,88.0393,-70.17302,-1.8511596,WAL
8479037893000,0.554991,1.14488107576864,9.07526454650269,4.22747931687164,0.41050145,-0.040317107,-0.45448375,87.984245,-70.25972,-1.9686443,WAL
8479042872000,0.55997,1.2181830281378,9.08478427402498,4.28840561526099,0.4089743,-0.069027774,-0.44776422,87.93371,-70.340515,-2.0771925,WAL
8479048303000,0.565401,1.29813942567081,9.09516821461014,4.35486288108797,0.37323865,-0.102319926,-0.42455134,87.89434,-70.40576,-2.1708355,WAL
8479052896000,0.569994,1.36575859964782,9.10394991947253,4.41106583117881,0.34666604,-0.13775012,-0.40225476,87.86228,-70.47135,-2.2570066,WAL
8479057884000,0.574982,1.43919305203131,9.11348685477704,4.47210225945077,0.3191771,-0.17012598,-0.36285394,87.834145,-70.52618,-2.326831,WAL
8479062960000,0.580058,1.5139230601104,9.12319204395221,4.53421551324156,0.269697,-0.19822577,-0.32498032,87.81205,-70.566505,-2.385846,WAL
8479067927000,0.585025,1.58704834579379,9.13268882776486,4.59499497178744,0.22632557,-0.21319197,-0.28863382,87.79114,-70.60094,-2.4310467,WAL
8479072899000,0.589997,1.66024724259625,9.14219517145652,4.65583561360143,0.17806722,-0.21105394,-0.2519819,87.76922,-70.62053,-2.463549,WAL
8479077901000,0.594999,1.73388780611313,9.15175887442227,4.71704335502411,0.13041973,-0.22266038,-0.22327125,87.75213,-70.62856,-2.4846995,WAL
8479082901000,0.599999,1.80749892518238,9.16131875343642,4.77822662313954,0.07513642,-0.21777347,-0.18753563,87.72574,-70.622284,-2.4951613,WAL
8479087887000,0.604985,1.88090393311823,9.17085186478932,4.83923857810426,0.03176499,-0.2098322,-0.14569137,87.69835,-70.60738,-2.4950485,WAL
8479092881000,0.609979,1.9544267188446,9.18040027194865,4.90034842629795,-0.02076942,-0.18081611,-0.105068825,87.660805,-70.5761,-2.4879913,WAL
8479097872000,0.61497,2.02790533789952,9.18994294318057,4.96142156453078,-0.07819075,-0.1386664,-0.07513642,87.614876,-70.53313,-2.4747868,WAL
8479102892000,0.61999,2.10181090144504,9.19954106171077,5.02284956571868,-0.14935656,-0.12797627,-0.03023783,87.56486,-70.47465,-2.446838,WAL
8479107881000,0.624979,2.17526007605234,9.20907990899109,5.08389823064426,-0.18234327,-0.089186326,-0.007330383,87.49589,-70.41262,-2.4240775,WAL
8479112920000,0.630018,2.24944536185033,9.21871435506154,5.145558728251,-0.25350907,-0.034513887,0.03573562,87.41453,-70.32394,-2.3872883,WAL
8479118279000,0.635377,2.32834175926874,9.2289606333889,5.21113495501712,-0.32711834,0.0067195175,0.11759156,87.32159,-70.22957,-2.3373785,WAL
8479122889000,0.639987,2.39621121105059,9.23777484183994,5.26754592821955,-0.39400807,0.052534413,0.1432479,87.21544,-70.11914,-2.2980063,WAL
8479127913000,0.645011,2.47017566349137,9.24738060827336,5.32902287602194,-0.46578476,0.10567969,0.2049453,87.08665,-69.99348,-2.233421,WAL
8479132898000,0.649996,2.47027399399351,9.24376978537198,5.34558140155486,-0.5235115,0.15790866,0.26297748,86.94573,-69.856964,-2.169248,WAL
8479137887000,0.654985,2.42143100654655,9.2313803553455,5.33247718662415,-0.57818395,0.22632557,0.3313944,86.781525,-69.707016,-2.094809,WAL
8479142878000,0.659976,2.37256843882802,9.21898595862028,5.31936771845033,-0.6356053,0.28588495,0.38912117,86.6954,-69.36721,-1.8569155,WAL
8479147925000,0.665023,2.32315762350536,9.20645249433011,5.30611115946951,-0.6768387,0.3555236,0.45173484,86.57925,-69.02237,-1.6123403,WAL
8479152896000,0.669994,2.27449085850259,9.19410776459236,5.29305422372677,-0.73914695,0.45142943,0.5311473,86.431076,-68.66093,-1.3621279,WAL
8479157886000,0.674984,2.22563808091985,9.18171585121651,5.2799473821745,-0.7806858,0.5448918,0.5983425,86.25861,-68.2989,-1.1113585,WAL
8479163895000,0.680993,2.16680915496901,9.16679340482863,5.26416401325916,-0.82894415,0.6533204,0.6765333,86.046196,-67.92314,-0.8545686,WAL
8479167900000,0.684998,2.12759966113757,9.15684759058609,5.25364439393716,-0.8894198,0.7663304,0.76174897,85.799194,-67.53763,-0.59534526,WAL
8479172919000,0.690017,2.07846296961697,9.14438366007839,5.24046138035984,-0.9615019,0.874759,0.8539896,85.5151,-67.14069,-0.3320122,WAL
8479177914000,0.695012,2.02956124135529,9.13197932995567,5.22734140569981,-1.0424415,0.98837996,0.9440922,85.19062,-66.72965,-0.0674396,WAL
8479182903000,0.700001,1.98071825390833,9.11958989992919,5.2142371907691,-1.1218541,1.087951,1.0390818,84.83076,-66.30423,0.20397036,WAL
8479187884000,0.704982,1.93195358754769,9.1072203366977,5.20115398881082,-1.1914927,1.1554517,1.135904,84.439606,-65.86437,0.48166552,WAL
8479192885000,0.709983,1.88299311847127,9.09480110647873,5.18801825442147,-1.2620476,1.1847731,1.239751,84.02147,-65.40747,0.76993746,WAL
8479197902000,0.715,1.83387600722225,9.08234214266978,5.17484049408726,-1.3261884,1.1795808,1.3136657,83.58797,-64.93879,1.0623603,WAL
8479202894000,0.719992,1.78500364936793,9.06994526259518,5.16172839929189,-1.3698653,1.1374311,1.3494014,83.149956,-64.46223,1.3629423,WAL
8479207888000,0.724986,1.73611171124204,9.05754341582183,5.14861105125341,-1.393689,1.097114,1.4306464,82.69953,-63.978428,1.6845981,WAL
8479212902000,0.73,1.68702397040038,9.04509190206101,5.13544117078386,-1.4474452,1.0836749,1.4929546,82.2523,-63.4807,2.0018885,WAL
8479217900000,0.734998,1.63809287173134,9.03268012189016,5.12231331625917,-1.4767667,1.1554517,1.5537357,81.78497,-62.988846,2.3229108,WAL
8479222886000,0.739984,1.58927925469175,9.02029814191181,5.10921698119312,-1.5036448,1.2990049,1.5940529,81.299065,-62.489056,2.6354527,WAL
8479227929000,0.745027,1.53990759991223,9.00777461101913,5.09597092869852,-1.5204436,1.4202617,1.609019,80.79806,-61.99102,2.9389524,WAL
8479232868000,0.749966,1.49155411925469,8.99550934846135,5.08299804484549,-1.505172,1.5112807,1.6084082,80.267654,-61.502693,3.2225306,WAL
8479237870000,0.754968,1.44258386004249,8.98308763489301,5.06985968383458,-1.4495832,1.559539,1.5796975,79.72245,-61.03111,3.4815495,WAL
8479242882000,0.75998,1.39351569947241,8.97064108783093,5.05669505660814,-1.3768903,1.5894713,1.5467108,79.16334,-60.578777,3.7193735,WAL
8479247908000,0.765006,1.34431047700129,8.95815977387761,5.04349365667995,-1.2846496,1.5803084,1.5106697,78.61043,-60.1587,3.9387789,WAL
8479252910000,0.770008,1.29534021778909,8.94573806030927,5.03035529566904,-1.1887437,1.5311338,1.4850134,78.06744,-59.770546,4.1456943,WAL
8479257924000,0.775022,1.24625247694744,8.93328654654845,5.01718541519949,-1.0793989,1.4538593,1.4703526,77.541565,-59.422104,4.344294,WAL
8479262920000,0.780018,1.19734095854996,8.92087973307635,5.00406281391791,-0.9810496,1.3585643,1.4724907,77.03779,-59.10599,4.54352,WAL
8479267920000,0.785018,1.14839027960934,8.90846298620676,4.99092970615011,-0.8744536,1.2495248,1.4950926,76.55965,-58.829765,4.751037,WAL
8479272933000,0.790031,1.09931232890347,8.8960139557953,4.97776245230211,-0.77457714,1.1389582,1.53205,76.10662,-58.58452,4.9706054,WAL
8479277901000,0.794999,1.05067493430807,8.88367667610568,4.96471339642403,-0.7031059,1.061073,1.5509869,75.67514,-58.365967,5.1963425,WAL
8479282883000,0.799981,1.00190047781163,8.87130462952481,4.9516275678442,-0.6585127,1.0173961,1.5619824,75.26128,-58.170383,5.434155,WAL
8479287871000,0.804969,0.953067280500466,8.85891768284771,4.93852597953504,-0.6239988,1.0424415,1.5439619,74.85419,-57.995827,5.664457,WAL
8479292883000,0.809981,0.903999119930386,8.84647113578563,4.9253613523086,-0.61483586,1.1215485,1.5131133,74.44774,-57.829697,5.8863363,WAL
8479297901000,0.814999,0.854872218545576,8.83400968862731,4.91218096535283,-0.6178902,1.1670581,1.4636332,74.05195,-57.674713,6.0946326,WAL
8479303516000,0.820614,0.799900606095256,8.82006568189276,4.8974324853296,-0.61575216,1.2516629,1.4364496,73.6317,-57.527428,6.2777624,WAL
8479307882000,0.82498,0.757156873244304,8.80922337852623,4.88596465562675,-0.62858033,1.3295482,1.3707817,73.218666,-57.38363,6.428864,WAL
8479312943000,0.830041,0.707608996020605,8.79665514734483,4.87267132394419,-0.61208695,1.3799446,1.3267993,72.79606,-57.252583,6.5659313,WAL
8479317942000,0.83504,0.65866810721577,8.78424088382461,4.85954084279794,-0.5888741,1.3897184,1.2788464,72.37875,-57.12794,6.6771154,WAL
8479322889000,0.839987,0.610236305471917,8.77195575447183,4.84654694597248,-0.5516113,1.3570372,1.2479976,71.96745,-57.017323,6.7779236,WAL
8479327915000,0.845013,0.561031083000803,8.75947444051852,4.83334554604429,-0.4859433,1.2938126,1.2318097,71.57015,-56.926792,6.871703,WAL
8479332899000,0.849997,0.63573278677353,8.57473454050688,4.78336872982779,-0.4147775,1.201572,1.2159272,71.19626,-56.85331,6.965646,WAL
8479337892000,0.85499,0.837710782200801,8.2122099153038,4.69532704672371,-0.3213151,1.0968086,1.210735,70.845085,-56.807255,7.068116,WAL
8479342877000,0.859975,0.94188295819735,7.88495933995816,4.59705848492852,-0.23396139,0.9947941,1.196685,70.42769,-56.84197,6.977458,WAL
8479347902000,0.865,0.992221281157601,7.57453943933054,4.49218688385635,-0.12644911,0.9193522,1.1823297,70.03465,-56.910492,6.9001117,WAL
8479352892000,0.86999,1.0119666223009,7.27212754036387,4.40262466206558,-0.05681047,0.86193085,1.1704178,69.59415,-56.942444,6.8611183,WAL
8479357891000,0.874989,0.975457093768384,6.98005120318117,4.34003684440571,0.023518313,0.8323039,1.1609493,69.170044,-57.009655,6.82747,WAL
8479362884000,0.879982,0.936602380361239,6.69497595040138,4.29551085212156,0.099571034,0.818254,1.1499538,68.706,-57.066826,6.797153,WAL
8479367900000,0.884998,0.895285908572248,6.41494231508028,4.26796666542431,0.18203785,0.7993172,1.1313224,68.25505,-57.150482,6.768468,WAL
8479373607000,0.890705,0.900113633747951,6.17819110114743,4.22217703878122,0.23732115,0.80481493,1.1166617,67.753624,-57.23014,6.7110195,WAL
8479377920000,0.895018,0.943923541538907,6.06269223821232,4.17637573184842,0.3051272,0.838718,1.0913107,67.25609,-57.33896,6.6460037,WAL
8479382889000,0.899987,0.994396862154084,5.92962619371324,4.12360812365249,0.3585779,0.8579602,1.0519099,66.71373,-57.437862,6.5450053,WAL
8479387886000,0.904984,1.04515459673127,5.79581033048886,4.07054317332948,0.41263947,0.8689558,1.0375546,66.166824,-57.556606,6.4416666,WAL
8479392886000,0.909984,1.11850075614167,5.69121509096781,4.05418739642588,0.47128254,0.86834496,1.029308,65.54604,-57.70006,6.281959,WAL
8479397883000,0.914981,1.25244822185381,5.66545598363656,4.13661686265475,0.5137377,0.8558222,1.0247264,64.9292,-57.854916,6.1232243,WAL
8479402866000,0.919964,1.37408167733652,5.66396781128695,4.20066689549119,0.52381694,0.83291477,1.0183123,64.214035,-58.021126,5.9111714,WAL
8479407877000,0.924975,1.47916444709864,5.69740340579277,4.23887857599283,0.5564982,0.81153446,1.0051788,63.5061,-58.206238,5.7033772,WAL
8479412943000,0.930041,1.5753331180909,5.73900915294584,4.27545961915041,0.5934556,0.7852673,1.0012082,62.63352,-58.403343,5.399669,WAL
8479417944000,0.935042,1.65595405141103,5.79117554017229,4.30865657308644,0.634689,0.75808376,0.99265605,61.7751,-58.61153,5.1049547,WAL
8479422818000,0.939916,1.70637438740399,5.83972647403994,4.34063629404762,0.6609562,0.73639804,0.9810496,60.590508,-58.8828,4.581005,WAL
8479427899000,0.944997,1.71104601958525,5.88644279585253,4.37333767053571,0.6988298,0.69913524,0.9755518,59.43527,-59.166264,4.087296,WAL
8479432824000,0.949922,1.71306342097134,5.9243914951433,4.39219937528746,0.72601336,0.68691796,0.9633345,57.71443,-59.539227,3.2015562,WAL
8479437888000,0.954986,1.70890202443796,5.94519847781019,4.37971522914021,0.7476991,0.6704246,0.960891,56.059143,-59.909847,2.3831015,WAL
8479443403000,0.960501,1.70303320469886,5.97781938079433,4.36604096281932,0.7648033,0.6398814,0.93951076,53.898273,-60.327286,1.2413235,WAL
8479447875000,0.964973,1.6830688892038,6.11756975603207,4.35406237352228,0.799928,0.6542367,0.9260717,51.835335,-60.733467,0.19618902,WAL
8479452825000,0.969923,1.66097064195413,6.27225767137796,4.34080342517248,0.8155051,0.66737026,0.9098838,49.877995,-61.123287,-0.7598246,WAL
8479457882000,0.97498,1.68201548746803,6.43128249652905,4.334689616076,0.82986045,0.6948592,0.89736104,48.00087,-61.504715,-1.6377693,WAL
8479462924000,0.980022,1.71288903324808,6.59006082407746,4.33027910953599,0.83108217,0.74128497,0.88331115,46.19621,-61.87069,-2.4465504,WAL
8479467973000,0.985071,1.7294475638719,6.74469536775819,4.32309437741993,0.82894415,0.8029824,0.8765916,44.408394,-62.236725,-3.213376,WAL
8479472890000,0.989988,1.73791987866139,6.89296087657431,4.31462197416337,0.8219192,0.88361657,0.8668178,42.674145,-62.58771,-3.9234643,WAL
8479477909000,0.995007,1.74916117842975,7.04537666318182,4.33841412085744,0.8060367,1.0027353,0.8454375,40.964836,-62.9451,-4.5912685,WAL
8479482900000,0.999998,1.76397454892562,7.19844836454545,4.4075432347314,0.75228053,1.1093313,0.8145888,39.297474,-63.27777,-5.210251,WAL
8479487888000,1.004986,1.79817062961817,7.32688582480425,4.50979190858386,0.6960809,1.2342533,0.7761043,37.633583,-63.612934,-5.8039017,WAL
8479492881000,1.009979,1.85363742982117,7.42857496655389,4.64845898148864,0.636827,1.2974777,0.7324274,36.011787,-63.921505,-6.35545,WAL
8479497891000,1.014989,1.90449801228534,7.51884148592623,4.80638151028351,0.6032294,1.4123205,0.7165449,34.38169,-64.22179,-6.8820453,WAL
8479502894000,1.019992,1.94831622932629,7.5918717629306,4.99139149452291,0.5510005,1.5121969,0.68569624,32.78912,-64.4912,-7.3773847,WAL
8479507885000,1.024983,1.99838979584348,7.65280383347826,5.17704251175652,0.4810564,1.6071864,0.65301496,31.20858,-64.74207,-7.836484,WAL
8479513198000,1.030296,2.06033263064348,7.70147322347826,5.37614436855652,0.4156938,1.690875,0.627664,29.645218,-64.976524,-8.263861,WAL
8479517984000,1.035082,2.10539758504895,7.73580997757342,5.55881776024918,0.33322698,1.7605137,0.5873469,28.110765,-65.18372,-8.665534,WAL
8479522885000,1.039983,2.09611529556017,7.72188654334026,5.76302832285177,0.27397305,1.8377881,0.5546656,26.586615,-65.37968,-9.037892,WAL
8479527937000,1.045035,2.07708716915221,7.71039527028788,5.98716009203275,0.21746802,1.9086485,0.52473325,25.082457,-65.55023,-9.381655,WAL
8479532903000,1.050001,1.99335010904129,7.7187688757461,6.30117388164451,0.1572978,1.9682078,0.4905248,23.5932,-65.70507,-9.701728,WAL
8479537843000,1.054941,1.91005146285765,7.72709864033806,6.61354362000176,0.11026118,2.0247128,0.4297437,22.117943,-65.838776,-10.022433,WAL
8479542888000,1.059986,1.9160548630262,7.82771860788931,6.84011241133353,0.04886922,2.1025982,0.37659842,20.649218,-65.95664,-10.320651,WAL
8479547838000,1.064936,1.93931325719753,7.9440103358846,7.04478590117751,-0.026572637,2.1661282,0.3359759,19.198887,-66.06015,-10.599535,WAL
8479552894000,1.069992,1.95717396629746,8.03331383148727,7.14243634336687,-0.081855945,2.1691825,0.28008172,17.791023,-66.123566,-10.887004,WAL
8479557875000,1.074973,1.97330723451425,8.11398017257124,7.21100290175023,-0.16432275,2.196977,0.25442538,16.382652,-66.16958,-11.151634,WAL
8479562864000,1.079962,2.02673250889997,8.20598941349316,7.28954302376154,-0.22571471,2.2617285,0.25442538,14.981225,-66.21138,-11.394534,WAL
8479567900000,1.084998,2.12905310964252,8.31342657314098,7.38163125458789,-0.24037547,2.3054054,0.2452624,13.601764,-66.25077,-11.614993,WAL
8479572886000,1.089984,2.24901221945046,8.4556504203444,7.4770815662934,-0.2724459,2.339003,0.20861048,12.210343,-66.28562,-11.821914,WAL
8479577935000,1.095033,2.3855134334243,8.6285517078197,7.57718261174367,-0.32742378,2.372906,0.21746802,10.822006,-66.32747,-11.992915,WAL
8479582852000,1.09995,2.57209163739192,8.81923173054526,7.74356733739192,-0.36010507,2.3448062,0.23396139,9.443718,-66.39288,-12.126797,WAL
8479587892000,1.10499,2.83612556010235,9.04493781842245,8.00760126010235,-0.38637227,2.2800546,0.2489276,8.082743,-66.45763,-12.23036,WAL
8479592905000,1.110003,3.06608904477568,9.23362499425572,8.21380529404774,-0.40194935,2.2495112,0.27397305,6.6950636,-66.551216,-12.282189,WAL
8479597902000,1.115,3.13244288985837,9.24310429880162,8.13797234237892,-0.40530908,2.1832323,0.28924468,5.350618,-66.64988,-12.298483,WAL
8479602889000,1.119987,3.17210711023221,9.24793161997357,8.05497307185199,-0.38881573,2.1459696,0.31978795,3.9651606,-66.783615,-12.234344,WAL
8479607882000,1.12498,3.05475370066075,9.22536367472154,7.92859257844063,-0.37232238,2.117259,0.38026363,2.607132,-66.92772,-12.132752,WAL
8479613078000,1.130176,2.93153895249787,9.20745199829497,7.80095663953964,-0.37232238,2.096184,0.4382958,1.2354128,-67.10042,-12.002512,WAL
8479617878000,1.134976,2.80221533101449,9.2701548115942,7.73825439913043,-0.39370266,2.096184,0.49846604,359.87607,-67.28124,-11.837977,WAL
8479622860000,1.139958,2.66798818888321,9.33523510656437,7.67317469877238,-0.45142943,2.1053472,0.5839872,358.5162,-67.47614,-11.662909,WAL
8479628804000,1.145902,2.36157465787467,9.6109350555284,7.4943866082315,-0.54519725,2.080607,0.6765333,357.1755,-67.66363,-11.45178,WAL
8479632917000,1.150015,2.1112753468472,9.85353249359664,7.34420690098739,-0.657291,1.9767599,0.7684685,355.86182,-67.83988,-11.198306,WAL
8479637888000,1.154986,1.74552457621431,10.0670538295555,7.12356555843391,-0.70524395,1.7534887,0.8604037,354.57596,-68.02721,-10.927346,WAL
8479642912000,1.16001,1.33950033647336,10.237017953194,6.87806253089981,-0.6478226,1.4034629,0.9425651,353.36057,-68.216385,-10.6030245,WAL
8479647898000,1.164996,0.996074932021395,10.3248528432738,6.52344849635685,-0.4972443,0.9978484,0.98899084,352.2503,-68.42279,-10.273215,WAL
8479652899000,1.169997,0.691574191391664,10.3586859280452,6.09328078660813,-0.30726522,0.6056729,1.0164797,351.23932,-68.64927,-9.891188,WAL
8479657874000,1.174972,0.278865469164099,10.1210045978428,5.66891620570108,-0.07819075,0.25534168,1.0253373,350.31708,-68.93368,-9.544263,WAL
8479662900000,1.179998,-0.207841790292758,9.70846215408321,5.24246784992296,0.14996742,-0.004581489,0.98868537,349.49283,-69.24661,-9.174835,WAL
8479667889000,1.184987,-0.715796108205078,9.12611576080776,4.86296548255073,0.36713,-0.2321288,0.89552844,348.78882,-69.61357,-8.846637,WAL
8479672884000,1.189982,-1.24569362849721,8.39457570689148,4.52064238025684,0.61727935,-0.47311515,0.75777835,348.1815,-70.01851,-8.520248,WAL
8479677892000,1.19499,-1.7084210021523,7.82031420185508,4.17455433637389,0.86406887,-0.74097955,0.59131753,347.7667,-70.41539,-8.291225,WAL
8479682907000,1.200005,-2.1022116313416,7.406834210823,3.82506516967306,1.0464121,-1.0326678,0.4382958,347.4462,-70.83012,-8.078697,WAL
8479687926000,1.205024,-2.50812982735831,7.27431067002882,3.31955677775216,1.1395692,-1.1450669,0.3173445,347.318,-71.18939,-7.9823804,WAL
8479692884000,1.209982,-2.91863541492795,7.37009508645533,2.69467617648415,1.1453724,-1.2666291,0.26450464,347.2849,-71.55165,-7.8905587,WAL
8479698682000,1.21578,-3.53689047496168,7.67161894787941,2.36806990832908,1.1090258,-1.0919216,0.10629055,347.29642,-71.86675,-7.9495635,WAL
8479702892000,1.21999,-4.07254566228922,8.00949371333674,2.38455159580991,0.84482664,-0.9477574,0.04550946,347.34894,-72.11943,-7.990354,WAL
8479707886000,1.224984,-4.7005015583614,8.38248067812562,2.32221920422033,0.68661255,-0.5925393,-0.09040806,347.3184,-72.40059,-8.227385,WAL
8479712930000,1.230028,-5.32740964470973,8.73182639914801,2.17865249282742,0.3640757,-0.1459968,-0.2556471,347.23267,-72.54508,-8.509564,WAL
8479717894000,1.234992,-5.74527573927179,9.01986332769275,2.38269574083088,0.1695151,0.3182608,-0.37782016,347.11377,-72.61964,-8.936304,WAL
8479722898000,1.239996,-5.95939765565168,9.25220895674494,2.94761342266375,0.15363261,0.58184916,-0.44318274,346.93494,-72.62586,-9.404099,WAL
8479727898000,1.244996,-5.87293939413979,9.47562470729474,3.54050897399532,0.27091873,0.5183192,-0.44990227,346.7549,-72.57498,-9.994143,WAL
8479732906000,1.250004,-5.30691693244481,9.68544304242548,4.17972400022383,0.47891834,0.16279559,-0.4083634,346.58514,-72.5167,-10.571357,WAL
8479737867000,1.254965,-4.60151500429217,9.81969918900602,4.60863615737952,0.75808376,-0.38240165,-0.3631594,346.5498,-72.409164,-11.116717,WAL
8479742875000,1.259973,-3.68509823712349,9.85129993298193,4.75309602786145,1.0732902,-1.0824533,-0.34300083,346.6574,-72.340195,-11.610889,WAL
8479747951000,1.265049,-2.818761447941,9.87244035263023,4.64708808411629,1.3738359,-1.8145752,-0.33628133,346.88605,-72.32685,-11.93355,WAL
8479752894000,1.269992,-2.1164987883025,9.86840427871089,3.97307730976213,1.599856,-2.4801128,-0.35796702,347.29514,-72.34868,-12.2144165,WAL
8479758361000,1.275459,-1.34373263498661,9.85289977612463,3.16519823786102,1.7800614,-2.9654453,-0.4129449,347.74197,-72.498344,-12.316908,WAL
8479762859000,1.279957,-0.789536744889813,9.61161707281638,1.20854753115701,1.9052887,-3.227812,-0.5036584,348.31686,-72.65585,-12.4142275,WAL
8479768097000,1.285195,-0.144165897329337,9.33063912707859,-1.07000658216349,1.9538525,-3.2348368,-0.6041457,348.73264,-72.96462,-12.469449,WAL
8479772890000,1.289988,0.117735571258765,9.24788541903172,-1.98893805659432,1.9092593,-3.0488284,-0.6976081,349.17484,-73.230606,-12.557301,WAL
8479777923000,1.295021,0.238436916866966,9.24285609505426,-2.40636349187187,1.7693712,-2.7220156,-0.7828238,349.58478,-73.43659,-12.690207,WAL
8479782905000,1.300003,0.314885913473072,9.47169969571758,-2.48036316311303,1.5354098,-2.293188,-0.84604836,350.12283,-73.79726,-12.713389,WAL
8479787890000,1.304988,0.377128910444288,9.77812696078628,-2.44205985496941,1.2928963,-2.05098,-0.8582657,350.61908,-74.09712,-12.763875,WAL
8479792876000,1.309974,0.464829136503979,9.8442227151213,-2.18847164491322,1.1887437,-1.5448782,-0.8555168,350.94272,-74.384895,-12.840098,WAL
8479797943000,1.315041,0.562541224750216,9.83026405081983,-1.8581116988206,1.0751228,-1.1038336,-0.8384125,351.21088,-74.60947,-12.927599,WAL
8479802891000,1.319989,0.62863604944113,9.93042583631663,-1.67963719194511,1.0461067,-0.7666359,-0.8384125,351.3431,-74.82186,-13.019471,WAL
8479807871000,1.324969,0.680805640013922,10.0869343208035,-1.57055528383055,1.078788,-0.52320606,-0.84116143,351.3706,-75.007416,-13.122594,WAL
8479812973000,1.330071,0.796757147290041,10.1027779622632,-1.38581366305339,1.1704178,-0.30848694,-0.8323039,351.2616,-75.17832,-13.227468,WAL
8479817898000,1.334996,0.940103635487793,10.0454394567926,-1.17079398065039,1.323745,-0.11911872,-0.7816021,351.08603,-75.347,-13.327331,WAL
8479822886000,1.339984,0.995334677653836,10.0774834089787,-0.958555433299808,1.4761559,0.040927973,-0.73975784,350.84064,-75.507614,-13.418177,WAL
8479827939000,1.345037,1.00860840090518,10.1527011278687,-0.746175676474353,1.570229,0.22082779,-0.7131852,350.53293,-75.65996,-13.501831,WAL
8479832894000,1.349992,0.959528422104813,10.3439221120856,-0.500085447683422,1.7027869,0.3817908,-0.6786713,350.17087,-75.82983,-13.545587,WAL
8479838123000,1.355221,0.841699903339037,10.6706289135829,-0.200158329343316,1.8515326,0.52687126,-0.63407815,349.76175,-75.987625,-13.578171,WAL
8479842881000,1.359979,0.781575724006154,10.9912302314646,0.0547873600134629,1.9654589,0.627664,-0.5726862,349.30167,-76.12804,-13.59417,WAL
8479847902000,1.365,0.744583589795173,11.34265532782,0.31373228017694,2.0622811,0.7104363,-0.48747048,348.80756,-76.26166,-13.5869665,WAL
8479852890000,1.369988,0.648551216715949,11.636291037239,0.620762396562558,2.1181753,0.7648033,-0.3998113,348.2599,-76.353226,-13.583937,WAL
8479857876000,1.374974,0.502945172055073,11.8833800028645,0.969334476658658,2.1297817,0.75441855,-0.31398472,347.71445,-76.43636,-13.550903,WAL
8479862921000,1.380019,0.348052565695751,12.1197260302735,1.31303213883663,2.1148155,0.6227771,-0.24923302,347.15662,-103.50568,-13.505296,WAL
8479867930000,1.385028,0.182083583081414,12.3323743003568,1.63978357674343,2.0815234,0.40744713,-0.15760323,346.63806,-103.4442,-13.422821,WAL
8479872888000,1.389986,0.0814548555579265,12.3781376370503,1.71441480522141,2.053118,0.1459968,-0.076358154,346.1323,-103.441475,-13.3733015,WAL
8479877925000,1.395023,0.0359082798142763,12.277934580965,1.56866573126239,2.046704,-0.08002335,-0.008246681,345.6938,-103.43433,-13.298272,WAL
8479882883000,1.399981,-0.00735361926785714,12.0619878392857,1.5088600625,2.0485365,-0.14966199,0.052839845,345.23624,-103.48027,-13.261034,WAL
8479887891000,1.404989,-0.0487942716380568,11.6752087870584,1.56871878830645,2.0421226,-0.28008172,0.0571159,344.87836,-103.53088,-13.218683,WAL
8479892871000,1.409969,-0.0542062497140791,11.2747024286747,1.56088593633922,2.0366247,-0.4370741,0.05222898,344.5684,-103.5911,-13.166412,WAL
8479897902000,1.415,0.0154696932787935,10.8367393536825,1.41158039692181,1.9938642,-0.56688297,0.040927973,344.30054,-103.65806,-13.115066,WAL
8479902878000,1.419976,0.0536944406805584,10.3825917274934,1.21614020607728,1.9614882,-0.6600399,0.03023783,344.07114,-103.76467,-13.091284,WAL
8479907881000,1.424979,0.044001387287983,9.89309225611976,0.944734677684604,1.9339994,-0.69913524,0.02076942,343.87335,-103.876144,-13.0705805,WAL
8479912917000,1.430015,0.0206568810253999,9.46609921690983,0.693516366951134,1.88849,-0.6713409,-0.0067195175,343.6841,-104.01508,-13.064476,WAL
8479917976000,1.435074,-0.021924473426437,9.12970639637898,0.472093314197574,1.840537,-0.6151413,-0.035124753,343.50583,-104.15725,-13.060812,WAL
8479922868000,1.439966,-0.05423421804385,8.81283084551946,0.265363170522981,1.779756,-0.52626044,-0.06047566,343.3392,-104.33033,-13.070878,WAL
8479927933000,1.445031,-0.0298419192260887,8.53963718515539,0.0994955372377552,1.7256943,-0.41691554,-0.09285152,343.15555,-104.51054,-13.088343,WAL
8479932905000,1.450003,0.00244906245644397,8.29073847433047,-0.0510405004769409,1.6811012,-0.29229903,-0.10629055,342.96463,-104.72456,-13.11909,WAL
8479937890000,1.454988,0.0809162865930581,8.14765118969351,-0.134123443255148,1.6487253,-0.16676621,-0.12614368,342.74622,-104.94427,-13.156043,WAL
8479942894000,1.459992,0.154008516879778,8.00955015635858,-0.19977525164797,1.6548339,-0.051923547,-0.1414153,342.51556,-105.17788,-13.18339,WAL
8479947902000,1.465,0.163531129694232,7.93336939305073,-0.0664586473870744,1.6523905,0.016798794,-0.17104226,342.26596,-105.41489,-13.2161045,WAL
8479953728000,1.470826,0.173268687088898,7.86787537847491,0.136329685928092,1.6612481,0.028710667,-0.20616703,342.0114,-105.65318,-13.229481,WAL
8479957870000,1.474968,0.176403191001976,7.886682316855,0.415300445820624,1.641395,-0.05681047,-0.24190263,341.76883,-105.894135,-13.251437,WAL
8479962845000,1.479943,0.180168076798104,7.9092715294192,0.750375175532201,1.6032158,-0.19700404,-0.27091873,341.51804,-106.152596,-13.295231,WAL
8479967894000,1.484992,0.220935046643399,7.96159312018209,0.977354555101669,1.5589281,-0.34269542,-0.29077184,341.29785,-106.40945,-13.348559,WAL
8479972882000,1.48998,0.293422322787051,8.03891292311583,1.10299914151745,1.5329664,-0.4813618,-0.28496864,341.12088,-106.659515,-13.407114,WAL
8479977888000,1.494986,0.397300166569012,8.0815196556633,1.04850326472045,1.5302174,-0.59712076,-0.2883284,340.91974,-106.92076,-13.513444,WAL
8479982898000,1.499996,0.525985412040437,8.09636773695069,0.850525987848153,1.5399913,-0.65057147,-0.28680122,340.7474,-107.16855,-13.615813,WAL
8479987889000,1.504987,0.675196377826131,8.09447144034005,0.547521813895355,1.5427402,-0.7495316,-0.2950479,340.60382,-107.399605,-13.708934,WAL
8479992879000,1.509977,0.837215102600951,8.08238050015181,0.179956954417569,1.5757269,-0.81581056,-0.28863382,340.472,-107.62615,-13.7948265,WAL
8479997890000,1.514988,0.999915669704483,8.07023867624734,-0.189154771202307,1.6126842,-0.8396343,-0.27030787,340.37308,-107.82972,-13.829178,WAL
8480002893000,1.519991,1.16235648734946,8.05811623661573,-0.55767721448234,1.6334536,-0.82558435,-0.2574797,340.2846,-108.03198,-13.864218,WAL
8480007870000,1.524968,1.40495274796962,8.08193480295063,-0.90886593345019,1.6551393,-0.7657196,-0.23396139,340.18246,-108.24525,-13.888384,WAL
8480012933000,1.530031,1.69297783976044,8.12443042711072,-1.2582734291265,1.6829338,-0.6771441,-0.20311269,340.0715,-108.455,-13.903996,WAL
8480017913000,1.535011,1.88676554461824,8.21091591529692,-1.18459412433722,1.7006488,-0.6096435,-0.18478674,340.0056,-108.620186,-13.800039,WAL
8480023706000,1.540804,2.04855319194062,8.34328796182397,-0.80218701378579,1.7110336,-0.56016344,-0.16493362,339.92252,-108.785645,-13.685532,WAL
8480027937000,1.545035,2.12750898360376,8.48713659201537,-0.457736154207942,1.7296649,-0.5564982,-0.16310102,339.83597,-108.92982,-13.495642,WAL
8480032903000,1.550001,2.15796909598634,8.73081727903501,0.0499327141652434,1.7250835,-0.56505036,-0.16615535,339.74164,-109.07554,-13.302806,WAL
8480037890000,1.554988,2.15629896098189,8.95848493331045,0.488477964633079,1.6942347,-0.56230146,-0.17073683,339.61816,-109.16733,-13.07556,WAL
8480042883000,1.559981,2.11936198891082,9.16779495596944,0.84963971788516,1.6438384,-0.5516113,-0.16493362,339.49734,-109.258766,-12.85082,WAL
8480047888000,1.564986,2.05118877665812,9.36684490976548,1.16841340196043,1.5393804,-0.52534413,-0.12889257,339.3459,-109.283134,-12.6139965,WAL
8480052895000,1.569993,1.80080299926713,9.50301962275559,1.23430443946501,1.4019357,-0.5018258,-0.11056661,339.19278,-109.29594,-12.385145,WAL
8480058449000,1.575547,1.51300854377303,9.64981548931467,1.2911681725129,1.2586879,-0.4569272,-0.119729586,338.99832,-109.25873,-12.165886,WAL
8480062991000,1.580089,1.16441661243552,9.72193772991894,1.15493683196389,1.1374311,-0.3924809,-0.1572978,338.79153,-109.20113,-11.951655,WAL
8480067883000,1.584981,0.788962687269713,9.79961760685335,1.00820769987104,1.03786,-0.32467487,-0.20372356,338.54507,-109.18494,-11.820655,WAL
8480072894000,1.589992,0.450896607046358,9.87146705237125,0.866354118349336,0.95294976,-0.2968805,-0.267559,338.2886,-109.15427,-11.705011,WAL
8480077972000,1.59507,0.120747084216953,9.9422133287751,0.724861467044904,0.8894198,-0.30024028,-0.34300083,338.01855,-109.11572,-11.604117,WAL
8480082901000,1.599999,-0.0204788199412171,9.99445900276161,0.620370040314627,0.84757555,-0.30970868,-0.37873647,337.71027,-109.19542,-11.631023,WAL
8480087890000,1.604988,-0.100589059818227,10.0415826394122,0.526122693204458,0.82802784,-0.33841935,-0.45356745,337.40353,-109.27888,-11.685249,WAL
8480093548000,1.610646,-0.0765418971135545,10.0740918300841,0.468482202605562,0.784351,-0.4364632,-0.5390886,337.16098,-109.39844,-11.792086,WAL
8480097908000,1.615006,-0.0263882043851058,10.0933816979581,0.437618393864917,0.77549344,-0.48197266,-0.5589417,336.91354,-109.51619,-11.893141,WAL
8480102893000,1.619991,0.0551630781523643,10.1461568274956,0.413857262189142,0.7788532,-0.5552765,-0.5897904,336.70493,-109.65947,-12.029159,WAL
8480107875000,1.624973,0.157289594449309,10.2250724248881,0.39993091927807,0.81153446,-0.6261369,-0.6178902,336.50897,-109.80409,-12.166772,WAL
8480112895000,1.629993,0.235823899481328,10.3211745373444,0.426922926058091,0.8454375,-0.6826419,-0.625526,336.31412,-109.95473,-12.294632,WAL
8480117902000,1.635,0.287934328654416,10.4348708340249,0.497982614344991,0.8686504,-0.732122,-0.6178902,336.13812,-110.10614,-12.424982,WAL
8480122889000,1.639987,0.341265097312086,10.5760773680522,0.656145971623308,0.9053023,-0.76052725,-0.59223384,335.94037,-110.268776,-12.5356455,WAL
8480127940000,1.645038,0.396988377112412,10.7525341039647,0.920831560372468,0.93126404,-0.81000733,-0.55863625,335.76624,-110.42446,-12.642201,WAL
8480132876000,1.649974,0.429284231778864,10.9319978636706,1.16411059521437,0.9456194,-0.8686504,-0.5222898,335.59753,-110.55527,-12.725619,WAL
8480137888000,1.654986,0.424771358367807,11.1260512318541,1.38524153372508,0.9425651,-0.9300423,-0.4896085,335.44824,-110.67702,-12.80112,WAL
8480142847000,1.659945,0.41786233242888,11.3012108317757,1.5772352564753,0.89888823,-1.0177015,-0.44868052,335.32568,-110.72714,-12.841863,WAL
8480147904000,1.665002,0.402940926047037,11.425556317757,1.68665887903872,0.8188649,-1.0903945,-0.41538838,335.2194,-110.7615,-12.877343,WAL
8480152822000,1.66992,0.426951335735898,11.5072057891995,1.70999296096584,0.7339546,-1.1548407,-0.38515055,335.1445,-110.73231,-12.889726,WAL
8480157869000,1.674967,0.548016709651338,11.4926781556958,1.52597355620679,0.6411031,-1.1930199,-0.36285394,335.08432,-110.68004,-12.8979025,WAL
8480163316000,1.680414,0.852154712153835,11.4321264027422,1.11224278727588,0.52381694,-1.1911873,-0.35613444,334.99948,-110.61699,-12.902301,WAL
8480167905000,1.685003,1.37195516382854,11.3129361681483,0.436833359334036,0.41416663,-1.1548407,-0.37201694,334.91467,-110.537,-12.906264,WAL
8480172824000,1.689922,1.92913503347069,11.1851748336598,-0.287145497943348,0.30879238,-1.1187997,-0.38056904,334.78943,-110.46451,-12.898359,WAL
8480177967000,1.695065,2.39097151735078,10.854110834424,-0.867541317549078,0.20861048,-0.99173975,-0.4184427,334.62442,-110.37862,-12.89183,WAL
8480182894000,1.699992,2.76991052638311,10.4330672739441,-1.33068898982748,0.16737708,-0.8509353,-0.45356745,334.44464,-110.28548,-12.881888,WAL
8480187895000,1.704993,3.11213152453265,10.1950424986647,-1.31393096452712,0.10354166,-0.6462954,-0.5842926,334.25934,-110.1298,-12.7557335,WAL
8480192878000,1.709976,3.4285444988673,10.0675985681923,-1.01509652190809,0.07452556,-0.52870387,-0.6762278,334.0616,-109.97812,-12.629684,WAL
8480197928000,1.715026,3.70937545566684,10.0807375555087,-0.588171425767001,0.09010262,-0.48349985,-0.6945538,333.85187,-109.83077,-12.457594,WAL
8480202940000,1.720038,3.94215894496574,10.2578558758039,-0.0213940954348972,0.110872045,-0.5030475,-0.6627888,333.62827,-109.69117,-12.297157,WAL
8480207880000,1.724978,3.95890620894309,10.5675858540551,0.61949007797442,0.12889257,-0.5155703,-0.6035349,333.3819,-109.48415,-12.07665,WAL
8480212973000,1.730071,3.80899396097561,10.9931427144557,1.34487196451517,0.1337795,-0.54000485,-0.5458081,333.15176,-109.27955,-11.854904,WAL
8480217962000,1.73506,3.56108711265585,11.5128665808569,2.01865028115684,0.101098195,-0.57757306,-0.51159966,332.91534,-108.98215,-11.584964,WAL
8480222887000,1.739985,3.23830643556764,12.1053685050155,2.65536828926596,0.023823744,-0.643852,-0.49754974,332.70193,-108.67706,-11.315017,WAL
8480227888000,1.744986,2.87559016941992,12.7473158915511,3.15804560233291,-0.10262536,-0.73975784,-0.48380527,332.48486,-108.29857,-11.061349,WAL
8480232882000,1.74998,2.46346546246322,13.4459175039933,3.45457442849937,-0.2666427,-0.8723156,-0.45814893,332.30225,-107.899414,-10.814801,WAL
8480237853000,1.754951,2.133190305929,13.9991398079683,3.45354285378588,-0.47158796,-1.0207558,-0.4016439,332.11325,-107.440895,-10.619806,WAL
8480242885000,1.759983,1.87840672979607,14.4177127037387,3.15781190023603,-0.6743952,-1.1151345,-0.31520647,331.9512,-106.950554,-10.420206,WAL
8480247858000,1.764956,1.68956814326968,14.6579652631579,2.79168601057289,-0.86284715,-1.0955868,-0.21105394,331.75034,-106.45405,-10.267348,WAL
8480252856000,1.769954,1.60039274246856,14.6222953263158,2.30568025778295,-1.0754282,-0.9767735,-0.11178834,331.5511,-105.91139,-10.094639,WAL
8480257867000,1.774965,1.54633511626574,14.4581043144641,1.87364850025591,-1.2690725,-0.7641924,-0.020463986,331.28766,-105.40677,-9.937597,WAL
8480262906000,1.780004,1.60561349136043,13.8801399380694,1.61677555870611,-1.4776831,-0.5158757,0.028099801,330.98044,-104.860596,-9.758484,WAL
8480267900000,1.784998,1.68733051127074,13.2843214463806,1.41193144958754,-1.6878207,-0.27977628,0.0729984,330.623,-104.33664,-9.567905,WAL
8480272930000,1.790028,1.82574110845305,12.6279873347854,1.32709918719066,-1.8976529,-0.093767814,0.10140363,330.20834,-103.7787,-9.361603,WAL
8480277888000,1.794986,1.97131794254435,12.0112346812635,1.22570198424059,-2.1087067,0.002443461,0.112704635,329.7899,-103.199875,-9.148276,WAL
8480282905000,1.800003,2.17922290014712,11.587108659801,1.00532269357854,-2.2342396,0.18570304,0.15485434,329.29398,-102.60113,-8.909943,WAL
8480287842000,1.80494,2.38381265013414,11.1697456604068,0.788457523556902,-2.4611762,0.35705075,0.20891592,328.81912,-101.9393,-8.655674,WAL
8480292881000,1.809979,2.65404391470389,10.9649145408173,0.56513242869288,-2.656653,0.50732356,0.28619036,328.29785,-101.26676,-8.382192,WAL
8480297841000,1.814939,2.93397422018163,10.8134771299391,0.344859408501594,-2.840218,0.64599,0.37720928,327.73044,-100.562996,-8.090228,WAL
8480302808000,1.819906,3.11873649130479,10.8711244566776,0.326911026554691,-3.0283644,0.7504479,0.49418998,327.19373,-99.79878,-7.743601,WAL
8480307789000,1.824887,3.27018710200737,11.0030327025809,0.380651588545678,-3.2226195,0.81061816,0.59742624,326.6297,-99.01716,-7.381271,WAL
8480312839000,1.829937,3.18681498512688,11.4699648607975,0.427804048540653,-3.4177911,0.82833326,0.6750061,326.09225,-98.186066,-6.959942,WAL
8480317757000,1.834855,3.04046987320559,12.0163197687209,0.471707587210772,-3.6141841,0.83077675,0.7180721,325.5421,-97.36124,-6.52973,WAL
8480322807000,1.839905,2.77742524241256,12.7718981611909,0.114053422499277,-3.7595701,0.8323039,0.7641924,324.9947,-96.53921,-6.067252,WAL
8480327783000,1.844881,2.49734965131516,13.5524373853936,-0.312947224699875,-3.8151588,0.8359691,0.8368854,324.44516,-95.78696,-5.5983715,WAL
8480332810000,1.849908,2.03538678103343,13.9751965951896,-0.922388397998369,-3.7916405,0.77304995,0.8927795,323.8914,-95.17921,-5.1560793,WAL
8480337791000,1.854889,1.5249181945373,14.2863395421932,-1.57870516221769,-3.687488,0.7067711,0.97433007,323.3354,-85.27779,-4.699545,WAL
8480342809000,1.859907,0.944685027910896,14.5532776186925,-1.90435708083293,-3.4968982,0.6123924,1.0616838,322.7859,-85.52768,-4.2821937,WAL
8480347807000,1.864905,0.351299542460048,14.8082477447942,-2.15005575961259,-3.3142493,0.40866885,1.1346822,322.2847,-85.617935,-3.8581047,WAL
8480352885000,1.869983,-0.659425783447149,15.0298138315989,-1.6500656269846,-3.1786373,0.11056661,1.1511755,321.83832,-85.56294,-3.5081494,WAL
8480357872000,1.87497,-1.78491925678335,15.2351961371807,-0.914797972374645,-3.0909781,-0.21624629,1.1392636,321.458,-85.42848,-3.1528997,WAL
8480364069000,1.881167,-2.82297971419275,15.5249756215267,-0.214626913443859,-3.068376,-0.5384777,1.1029172,321.10132,-85.22246,-2.896795,WAL
8480367891000,1.884989,-3.27668356625349,15.7215802332404,0.106746621783907,-3.0586023,-0.8402451,1.0598512,320.8339,-84.97975,-2.647234,WAL
8480372887000,1.889985,-3.76192515968778,15.9421307558542,0.420411495443138,-3.046385,-0.97524637,0.9779953,320.51385,-84.54926,-2.5988114,WAL
8480377871000,1.894969,-4.13920652382176,16.1260551783421,0.627916221094754,-3.023783,-1.215011,0.94897914,320.3113,-84.11593,-2.534273,WAL
8480383594000,1.900692,-4.35021350546278,16.1247706476861,0.761253991828974,-2.9452868,-1.4651603,0.840856,320.2546,-83.57683,-2.5355995,WAL
8480387932000,1.90503,-4.36693143300805,15.9868475599598,0.79468996038833,-2.744312,-1.4944818,0.8002335,320.197,-83.08445,-2.5203807,WAL
8480392881000,1.909979,-4.23194638969244,15.7784944494448,0.857654460520782,-2.6584857,-1.4358387,0.7272351,320.22556,-82.52631,-2.5599954,WAL
8480397917000,1.915015,-3.93338937874619,15.513110560676,0.947695458480888,-2.5109615,-1.2672399,0.6817256,320.22595,-82.0461,-2.6008935,WAL
8480402892000,1.91999,-3.49514742544148,15.288209719545,0.822166421005687,-2.4361305,-1.0118983,0.6417139,320.2046,-81.54825,-2.6612692,WAL
8480407860000,1.924958,-2.88755190529782,15.1078296345406,0.442419232068243,-2.4333818,-0.73914695,0.61300325,320.12805,-81.07742,-2.7336178,WAL
8480412890000,1.929988,-2.22022438409786,14.8602507961922,-0.0994875051415606,-2.4791965,-0.41080686,0.6392705,319.94763,-80.61287,-2.7850904,WAL
8480417967000,1.935065,-1.48157367247706,14.5292972080497,-0.842934727161882,-2.4813347,-0.03176499,0.7272351,319.67328,-80.173454,-2.8369968,WAL
8480422873000,1.939971,-0.729076558729416,14.1677238492702,-1.35780717324102,-2.4098635,0.39522982,0.82253003,319.20963,-79.83796,-2.8604908,WAL
8480427977000,1.945075,0.107847495611901,13.7332549226235,-1.60934172952844,-2.293188,0.8481864,0.93126404,318.6347,-79.52888,-2.8695242,WAL
8480432849000,1.949947,0.885267056705671,13.2892289393939,-1.63160574860486,-2.204002,1.2947289,1.0506883,318.02026,-79.31394,-2.7874527,WAL
8480437926000,1.955024,1.63897489675968,12.7494771717172,-1.0821284210321,-2.1432207,1.681712,1.1902709,317.29794,-79.13299,-2.6879392,WAL
8480442829000,1.959927,2.23157673562708,12.2137559988901,-0.559398189145394,-2.1270328,1.9156734,1.3234396,316.67093,-78.94654,-2.4419255,WAL
8480447870000,1.964968,2.47999875167995,11.6243618312986,-0.0430700282817072,-2.13925,1.9037615,1.4153748,316.00238,-78.76869,-2.179875,WAL
8480452828000,1.969926,2.60495365529232,11.064332633932,0.309392702055789,-2.1203132,1.7803668,1.4630222,315.32513,-78.51193,-1.8135747,WAL
8480457872000,1.97497,2.43882873469622,10.5428852823844,0.286319813549866,-2.0540345,1.668273,1.4672983,314.64755,-78.25429,-1.4403397,WAL
8480462929000,1.980027,2.26412638945012,10.0559029908776,0.175994362184306,-1.9792033,1.5971072,1.4437801,313.97842,-77.9125,-1.0343995,WAL
8480467934000,1.985032,2.06169415691359,9.70367088428077,-0.249113444513895,-1.8967366,1.6282613,1.4040737,313.31375,-77.57839,-0.6389826,WAL
8480472888000,1.989986,1.86132467040291,9.35502795599291,-0.669889483351634,-1.7922786,1.6939293,1.3796391,312.66132,-77.244606,-0.26959193,WAL
8480477933000,1.995031,1.56912226844143,8.85384562633108,-0.89895898625363,-1.7528778,1.8500054,1.317331,311.981,-76.90772,0.063804224,WAL
8480482832000,1.99993,1.26936360331075,8.34062249748306,-1.08517272690223,-1.7281377,1.9220876,1.2229522,311.31134,-76.59071,0.37641788,WAL
8480487929000,2.005027,1.00715998820109,7.80536138225474,-1.56622373202026,-1.724778,2.0409007,1.1609493,310.63193,-76.31902,0.6428658,WAL
8480492851000,2.009949,0.768424245638717,7.2881006374789,-2.11443163258301,-1.7345519,2.2241604,1.0867293,309.9245,-76.05068,0.8661966,WAL
8480497871000,2.014969,0.494779925185348,6.69239905224948,-2.47919301050489,-1.7763962,2.3689353,0.98532563,309.21185,-75.78564,1.0217121,WAL
8480502904000,2.020002,0.203172417224728,6.05616462833572,-2.73368692401276,-1.8280143,2.4623978,0.86529064,308.4733,-75.51945,1.1396459,WAL
8480507882000,2.02498,-0.0944891550274941,5.54078455840534,-2.71921512018853,-1.8594738,2.5072963,0.7254025,307.77682,-75.30263,1.1975645,WAL
8480512940000,2.030038,-0.398900713071485,5.04135935685389,-2.64786871249018,-1.885741,2.5042422,0.6010914,307.07892,-75.080376,1.2218819,WAL
8480517902000,2.035,-0.685383082425688,4.56315691020184,-2.33153608719266,-1.8829921,2.4410176,0.48197266,306.4131,-74.87591,1.1828899,WAL
8480523029000,2.040127,-0.978182980929358,4.07215404494495,-1.93963465122018,-1.8594738,2.3130412,0.36743546,305.778,-74.6791,1.1153241,WAL
8480527932000,2.04503,-1.28479061425399,3.7338834970321,-1.55313455665253,-1.7873917,2.1499403,0.2846632,305.168,-74.47735,0.9925512,WAL
8480532910000,2.050008,-1.61204552020997,3.46919199055118,-1.15369101233596,-1.6847663,2.0073032,0.23823744,304.5968,-74.29853,0.85655797,WAL
8480537927000,2.055025,-1.95506662938449,3.28716292488657,-0.819845685853225,-1.5754215,1.8704693,0.20861048,304.03235,-74.07318,0.6675432,WAL
8480542882000,2.05998,-2.30143945770369,3.15610297938449,-0.52964142376011,-1.42973,1.7443258,0.19914207,303.512,-73.89201,0.48372653,WAL
8480547858000,2.064956,-2.6312008580272,3.0477269053854,-0.343511110698621,-1.2605205,1.6508633,0.20372356,302.97214,-73.69577,0.24991228,WAL
8480552897000,2.069995,-2.95270938748034,2.95395357263811,-0.227410834818173,-1.1200215,1.5864171,0.2144137,302.4739,-73.53473,0.032793444,WAL
8480557866000,2.074964,-3.23547522288362,2.8740766588746,-0.0935661587585574,-0.96791595,1.5402967,0.24404067,301.99146,-73.37139,-0.2132885,WAL
8480564123000,2.081221,-3.53563586181332,2.79403375914176,0.10654097042745,-0.82863873,1.4877623,0.27305678,301.5445,-73.245804,-0.43803796,WAL
8480568029000,2.085127,-3.69733129816493,2.73816845301791,0.235829125502985,-0.68783426,1.4483615,0.3032946,301.11447,-73.13715,-0.68867373,WAL
8480572890000,2.089988,-3.57382159582136,2.59407387193235,0.451971066988724,-0.54244834,1.4285084,0.31612277,300.70645,-73.07017,-0.9230477,WAL
8480577890000,2.094988,-3.43946593385559,2.43153505858311,0.702836590378552,-0.48075095,1.4037683,0.33536503,300.31326,-72.97458,-1.1824664,WAL
8480582898000,2.099996,-3.28077953930518,2.22150881771117,1.04821303258953,-0.33414328,1.3322971,0.34055737,299.95065,-72.94451,-1.4277291,WAL
8480587867000,2.104965,-3.12502778846877,2.03149540464635,1.37095885694131,-0.16737708,1.2513574,0.3417791,299.5833,-72.89211,-1.6587927,WAL
8480592881000,2.109979,-2.97598744018059,1.92761878397291,1.60129400925508,-0.031154128,1.1053606,0.30879238,299.2649,-72.87126,-1.8806752,WAL
8480598011000,2.115109,-2.82754492017403,1.82300717698856,1.82746814507708,0.11789699,0.94989544,0.27885997,298.94916,-72.82687,-2.0762427,WAL
8480602893000,2.119991,-2.73468256644283,1.74341090677197,1.92917447752766,0.2742785,0.8268061,0.2611449,298.67258,-72.82131,-2.2647839,WAL
8480608591000,2.125689,-2.62018188354052,1.66161225562202,2.05261068045612,0.4456262,0.7315111,0.23151793,298.41415,-72.81657,-2.4328365,WAL
8480612909000,2.130007,-2.46944312283391,1.71572358802692,2.19561925658473,0.5910121,0.65240407,0.20005837,298.19165,-72.845894,-2.5949948,WAL
8480617893000,2.134991,-2.29545470612207,1.77818094807926,2.36068519994392,0.75441855,0.5681047,0.17592919,297.99026,-72.903725,-2.7408903,WAL
8480622963000,2.140061,-2.10019768087243,1.84523866383539,2.53493898465844,0.926988,0.4746423,0.15760323,297.82007,-73.00111,-2.8842852,WAL
8480627885000,2.144983,-1.90621809596708,1.911191721893,2.70564091242798,1.0852021,0.38606682,0.12492194,297.67987,-73.135124,-3.0296185,WAL
8480632897000,2.149995,-1.66571113306677,2.04374907301281,2.94305339861258,1.2647965,0.28924468,0.07727446,297.55597,-73.29483,-3.148206,WAL
8480637892000,2.15499,-1.35230344586184,2.28802266839773,3.28872366520859,1.4257594,0.18845193,0.027794369,297.46472,-73.48728,-3.267195,WAL
8480642856000,2.159954,-0.980124495114912,2.58934225625869,3.66340030120791,1.577254,0.09621128,-0.008246681,297.3883,-73.69167,-3.346971,WAL
8480647843000,2.164941,-0.454284606745056,3.03860346783538,4.11776685741315,1.7067575,0.030848695,-0.052839845,297.3407,-73.926125,-3.4354682,WAL
8480652880000,2.169978,0.0567646877417413,3.52249775559485,4.53385303360674,1.8246545,-0.008552114,-0.0983493,297.29263,-74.15005,-3.4640884,WAL
8480657898000,2.174996,0.537726639385958,4.04685489092483,4.88824606451953,1.9477439,-0.005497787,-0.1328632,297.2559,-74.40342,-3.4991205,WAL
8480662910000,2.180008,1.01811350699074,4.57058505478968,5.24221534928136,2.0604484,0.015882496,-0.1704314,297.20975,-74.629196,-3.4437494,WAL
8480667898000,2.184996,1.66535852130688,5.53957528793345,5.87466557434356,2.129171,0.01740966,-0.18570304,297.16815,-74.86926,-3.3920689,WAL
8480672844000,2.189942,2.35843984570054,6.63616277251954,6.58673546416115,2.1542163,0.023518313,-0.21013765,297.12265,-75.11804,-3.3564079,WAL
8480677925000,2.195023,3.01703001984611,8.13786822710103,7.4091938112921,2.119397,-0.004886922,-0.22327125,297.01538,-75.33207,-3.2189288,WAL
8480682832000,2.19993,3.6369088175677,9.70165331794744,8.23100294081143,1.9981402,-0.01863139,-0.21197024,296.90125,-75.51989,-3.086999,WAL
8480687928000,2.205026,3.97603998034138,12.3628071442866,9.46110731657277,1.7644843,-0.0021380284,-0.21991149,296.7176,-75.592896,-2.8453166,WAL
8480692879000,2.209977,4.21125997963508,15.2691698654671,10.7727576418902,1.3784174,0.025961773,-0.20341812,296.53204,-75.584496,-2.6017687,WAL
8480697913000,2.215011,4.16616251046688,17.337954220304,11.5553771296417,0.8533788,0.04550946,-0.15149458,296.2889,-75.406006,-2.246482,WAL
8480702957000,2.220055,3.6731431107709,18.014544112595,11.471459428013,0.24098633,0.18417588,0.020463986,296.0008,-75.10136,-1.8819665,WAL
8480708381000,2.225479,2.98372921792536,18.5038724092467,11.23565764737,-0.40439278,0.3894266,0.22235495,295.68323,-74.5968,-1.4772278,WAL
8480712931000,2.230029,2.31361543302968,18.7770399868743,10.9539534158096,-0.9450085,0.689056,0.38606682,295.30444,-73.985954,-1.0928931,WAL
8480717889000,2.234987,1.609380483296,18.7528295644,11.0337686236,-1.3888022,1.0613784,0.5103779,294.82788,-73.34109,-0.8007736,WAL
8480722889000,2.239987,0.924638803296,18.4128525644,11.4934556236,-1.7528778,1.402852,0.65118235,294.2728,-72.6004,-0.5090333,WAL
8480727972000,2.24507,0.201029326161319,16.9552409689923,11.7488570954764,-2.064419,1.5662584,0.81092364,293.70428,-71.84311,-0.31167677,WAL
8480732924000,2.250022,-0.529578330877245,14.4981660542636,11.8000457411441,-2.262034,1.5424347,0.9596693,293.0879,-71.04443,-0.10733989,WAL
8480737921000,2.255019,-1.05335825991917,11.8210571114628,11.7021572918777,-2.2944098,1.5387696,1.0079277,292.41367,-70.16837,0.017073765,WAL
8480742975000,2.260073,-1.34089933394527,8.88908065258083,11.4334718265485,-2.1267273,1.5858061,1.0173961,291.72324,-69.32425,0.15629713,WAL
8480747849000,2.264947,-1.50166467007557,6.29299327546374,10.8970109089214,-1.7782288,1.5112807,0.9560041,291.0035,-68.44169,0.2293686,WAL
8480752896000,2.269994,-1.49692091606635,3.94483325767985,9.93402805250761,-1.317331,1.2962561,0.8017606,290.31454,-67.661125,0.28427193,WAL
8480757864000,2.274962,-1.6019024023731,2.23428096130521,8.85921572577455,-0.8399397,0.98715824,0.59315014,289.643,-66.88951,0.3030808,WAL
8480763804000,2.280902,-1.9501090173086,1.4092993709483,7.31639260306997,-0.41905355,0.66828656,0.39492437,289.0433,-66.24306,0.30742487,WAL
8480767859000,2.284957,-2.24810646365843,1.16153605369432,6.21020416016466,-0.0720821,0.52503866,0.30940324,288.48175,-65.706894,0.30345985,WAL
8480772892000,2.28999,-2.79248130046443,1.76696233861094,4.68391965737809,0.06841691,0.25167647,0.16371189,288.06485,-65.23253,0.2849806,WAL
8480778479000,2.295577,-3.34207484025362,2.59344275565217,3.30855944624094,0.28038713,-0.13958271,-0.029626964,287.76175,-65.01289,0.22672358,WAL
8480782936000,2.300034,-3.72097103115942,3.42082860869565,2.55849943460145,0.59956425,-0.32284227,-0.1020145,287.47763,-64.86024,0.17150457,WAL
8480787824000,2.304922,-4.15570638101577,4.34243586278927,1.7389288345853,0.70280045,-0.806953,-0.24953845,287.56012,-64.87742,0.051813826,WAL
8480792879000,2.309977,-4.73072686534917,5.38837789033381,0.911097929388695,0.88697636,-1.4639386,-0.40439278,287.74487,-65.00552,-0.04678167,WAL
8480797843000,2.314941,-5.32622677921471,6.39808603184793,0.0611763627734497,1.0057896,-2.1029036,-0.5720753,288.16693,-65.31252,-0.20285872,WAL
8480802895000,2.319993,-6.07002423262699,7.34793571012777,-0.969083906182611,1.0106765,-2.5329528,-0.7828238,288.72922,-65.636635,-0.3631567,WAL
8480807892000,2.32499,-6.84586908238552,8.28807797082385,-1.90378318339432,0.86559606,-2.7220156,-1.0262536,289.47287,-66.13224,-0.60837805,WAL
8480812893000,2.329991,-7.73164777524478,9.23069747275245,-2.6095638622886,0.68630713,-2.5705209,-1.2403619,290.2594,-66.61329,-0.8996002,WAL
8480817886000,2.334984,-8.58829012568469,10.0974141735883,-3.04998556491385,0.50976706,-2.0360138,-1.4343116,291.0526,-67.26523,-1.3617264,WAL
8480822886000,2.339984,-9.36084365620954,10.7364401670152,-2.67801519343691,0.22174409,-1.0326678,-1.6514742,291.70294,-67.810394,-1.9533858,WAL
8480827887000,2.344985,-9.94259495443971,11.4034828511051,-1.97141121772005,-0.25595254,0.37384954,-1.9165897,292.18005,-68.369286,-2.8046322,WAL
8480832919000,2.350017,-9.90989524680109,12.1649264959287,-0.177581361031407,-0.9309586,1.5586227,-2.117259,292.45294,-68.73204,-3.7531216,WAL
8480837894000,2.354992,-9.68458886411545,12.8832243949219,1.71593032551831,-1.5088371,1.9960022,-2.1313088,292.57623,-68.87368,-4.849952,WAL
8480842882000,2.35998,-8.55460418248242,13.4416722009316,4.1765916341675,-1.6282613,1.6261233,-1.8842138,292.57782,-68.89453,-5.923879,WAL
8480848320000,2.365418,-7.25308030158974,13.943963746519,6.73590457264554,-1.3090842,0.6411031,-1.398576,292.56592,-68.61037,-6.8925104,WAL
8480852959000,2.370057,-5.29013726959763,13.0672156338121,7.40807827830282,-0.7058548,-0.766025,-0.8906415,292.733,-68.370316,-7.6773014,WAL
8480857914000,2.375012,-3.33278362822156,12.1059586114991,7.73799163674543,0.15118915,-2.2046127,-0.5522222,293.03696,-68.05419,-8.085889,WAL
8480862907000,2.380005,-2.06107937732708,11.0126583155075,6.11862732268248,1.1426234,-2.840218,-0.35979962,293.46597,-67.97922,-8.325374,WAL
8480867918000,2.385016,-0.844276521831278,9.9321074600888,4.44993137958165,1.6291776,-3.8557813,-0.28710666,294.2884,-67.998535,-8.088046,WAL
8480872891000,2.389989,-0.360268401373458,9.0627725950666,2.26484621968624,2.5014932,-4.480086,-0.16340645,295.14572,-68.409294,-7.7740655,WAL
8480878046000,2.395144,0.11097784850872,8.20359307887436,0.0522586963357114,3.1199942,-4.780326,-0.13469578,296.17593,-69.119644,-7.2506495,WAL
8480882930000,2.400028,0.185132614537257,7.90233951882679,-1.4030288065656,3.3851097,-4.8569894,-0.17837265,297.302,-69.96104,-6.712685,WAL
8480888141000,2.405239,0.24700702375752,7.60894217364827,-2.89223109012733,3.3298264,-4.7186284,-0.2415972,298.54474,-71.077675,-6.2138863,WAL
8480892877000,2.409975,0.100536140858092,7.67171536722643,-3.49903919612475,3.0680707,-4.4232755,-0.31031954,299.771,-72.19042,-5.779818,WAL
8480897846000,2.414944,-0.0531407630961432,7.7375768534785,-4.13570082591807,2.6590965,-4.071111,-0.40653083,301.07452,-73.33793,-5.479287,WAL
8480902906000,2.420004,-0.259588024145987,7.99298766441191,-4.64879794805654,2.264172,-3.6477818,-0.539394,302.28375,-74.39829,-5.267002,WAL
8480907868000,2.424966,-0.470681922091671,8.27604509217567,-5.1285567204947,1.9617938,-3.143818,-0.6835582,303.37695,-75.35122,-5.140987,WAL
8480912912000,2.43001,-0.481469855689368,8.78773589475747,-5.30216703522783,1.7330247,-2.5692992,-0.7910705,304.381,-76.274414,-5.129188,WAL
8480917837000,2.434935,-0.462982539814797,9.31924643125919,-5.42695630396864,1.59558,-1.9507982,-0.8393288,305.22885,-77.111084,-5.19098,WAL
8480922892000,2.43999,-0.309643469918863,9.85228543411312,-5.25177767840292,1.627345,-1.29198,-0.8570439,305.93274,-77.95339,-5.353933,WAL
8480927854000,2.444952,-0.13140199122061,10.3729383816997,-5.01724944144704,1.7305813,-0.70554936,-0.8344419,306.4705,-78.73521,-5.5550914,WAL
8480932909000,2.450007,0.177904826828469,10.7098527664287,-4.21469878234306,1.7690657,-0.2134974,-0.782213,306.84186,-79.48845,-5.776186,WAL
8480937822000,2.45492,0.508831460508083,10.991386852194,-3.30094617898383,1.7116444,0.08246681,-0.75869465,307.0889,-80.175415,-6.016297,WAL
8480942879000,2.459977,0.796541669351817,11.2573963372049,-2.46687724815474,1.6563611,0.18020524,-0.7180721,307.22137,-80.808266,-6.209079,WAL
8480947836000,2.464934,1.07223277407269,11.5153014881978,-1.66203702618958,1.7214183,0.14385876,-0.63713247,307.29514,-81.38431,-6.385996,WAL
8480952892000,2.46999,1.53631984173881,12.0428481716707,-0.834632182751888,1.9055941,-0.004581489,-0.47067168,307.328,-81.87803,-6.4558024,WAL
8480957863000,2.474961,2.04929993884693,12.643516928532,-0.0191253854208879,2.116648,-0.07727446,-0.23732115,307.34262,-82.349754,-6.4824333,WAL
8480964780000,2.481878,2.92626118427105,13.3935772128337,0.598782455823409,2.1612413,-0.18203785,-0.025961773,307.37485,-82.77371,-6.4012394,WAL
8480967919000,2.485017,3.35527166597536,13.7176497965606,0.780880415743326,2.137723,-0.17012598,0.06719518,307.39267,-83.18542,-6.2912803,WAL
8480972888000,2.489986,3.68305552678742,13.7301994817922,1.06753182341277,2.1248949,-0.122478485,0.23793201,307.3929,-83.667786,-5.9966183,WAL
8480977873000,2.494971,3.82413767979028,13.4753417132031,1.35424716354623,2.1157317,-0.056199603,0.37934732,307.3854,-84.12026,-5.693356,WAL
8480982891000,2.499989,3.47654649193084,12.9453870014409,1.49620352089337,2.0934353,-0.14202617,0.4801401,307.3807,-84.6593,-5.25124,WAL
8480987891000,2.504989,2.72947370051674,12.1935557880851,1.51761644447481,1.9840903,-0.344528,0.5305365,307.3922,-85.174225,-4.797923,WAL
8480992882000,2.50998,1.9837456401272,11.4430778709132,1.5389908247938,1.8915442,-0.5186246,0.569021,307.41174,-85.68855,-4.3097496,WAL
8480997934000,2.515032,1.2289032916824,10.6834276129385,1.56062644278048,1.8530598,-0.6795876,0.5742133,307.48682,-93.839516,-3.8314664,WAL
8481002889000,2.519987,0.410997456367969,9.94484871201144,1.52982500957102,1.8176296,-0.82711154,0.5357288,307.61404,-93.4162,-3.3664124,WAL
8481007879000,2.524977,-0.481900537816969,9.2068410313632,1.45237973387989,1.7507398,-0.8906415,0.49846604,307.76346,-93.04688,-2.9147372,WAL
8481012956000,2.530054,-1.37232642084883,8.47947579260556,1.30389338068256,1.6450601,-0.82344633,0.46089783,307.98712,-92.97394,-2.7468302,WAL
8481017923000,2.535021,-2.22045411279808,7.79785148129512,1.06974774018814,1.520749,-0.68569624,0.4166101,308.20486,-92.93451,-2.5991192,WAL
8481022890000,2.539988,-2.84787996002295,7.27491459296098,0.853350647092578,1.3811663,-0.48899764,0.3643811,308.4277,-93.05537,-2.6285024,WAL
8481027898000,2.544996,-3.33409166943382,6.85291970696251,0.646940055049732,1.2498302,-0.30115658,0.2837469,308.6104,-93.18318,-2.679321,WAL
8481033429000,2.550527,-3.68059025395852,6.44448267425682,0.780834102666258,1.1688906,-0.13041973,0.18112154,308.75742,-93.43247,-2.822597,WAL
8481037887000,2.554985,-3.83759938359383,6.15227108927367,1.12102062611094,1.1539245,-0.049785517,0.06078109,308.877,-93.69487,-2.9933279,WAL
8481042875000,2.559973,-3.82672173847364,5.95054240228167,1.55571499701023,1.1435398,-0.09468412,-0.08155051,309.00623,-94.061325,-3.2657464,WAL
8481047903000,2.565001,-3.66097367891424,5.85109367533438,2.03875215818253,1.0986412,-0.26083946,-0.23548855,309.14862,-94.44643,-3.575371,WAL
8481052888000,2.569986,-3.3619039683004,5.86460656324111,2.40648110367589,1.0167851,-0.5140431,-0.40317106,309.3224,-94.84087,-3.9391375,WAL
8481057892000,2.57499,-2.93571704624506,5.98299170948617,2.67166402905138,0.9086621,-0.66645396,-0.5543602,309.5156,-95.25373,-4.3414288,WAL
8481062923000,2.580021,-2.37633490538103,6.18983158416411,2.6686130670994,0.86315256,-0.96852684,-0.6243043,309.8014,-95.60853,-4.7282968,WAL
8481068007000,2.585105,-1.67671846586067,6.48897810415222,2.38876650136756,0.77854776,-1.2299771,-0.7443393,310.1184,-95.99164,-5.1713276,WAL
8481072889000,2.589987,-0.969883940604273,6.73415433292214,1.98465474072584,0.75319684,-1.432479,-0.82924956,310.47943,-96.29451,-5.5435925,WAL
8481077888000,2.594986,-0.208137839921337,6.93956881524091,1.42404385860374,0.7635816,-1.5351044,-0.8900307,310.88608,-96.6187,-5.9410973,WAL
8481082828000,2.599926,0.535535244470767,7.10660481701886,0.862483422087558,0.7699956,-1.5442673,-0.93951076,311.30063,-96.8669,-6.2395306,WAL
8481087891000,2.604989,1.26608504747655,7.1525515060362,0.260583892549986,0.7837401,-1.4590516,-0.9822713,311.71445,-97.13144,-6.548497,WAL
8481092891000,2.609989,1.97453251445066,7.21051332733437,-0.299124918784935,0.786489,-1.3035865,-1.0366384,312.08868,-97.3093,-6.723945,WAL
8481097906000,2.615004,2.59506797174929,7.3557449333089,-0.620395078589755,0.7965683,-1.103528,-1.0714576,312.41858,-97.49533,-6.902511,WAL
8481103526000,2.620624,3.27928369540764,7.52078863280014,-0.950078882404541,0.84421575,-0.86834496,-1.078788,312.65027,-97.63359,-6.981653,WAL
8481107877000,2.624975,3.68063336109391,7.67487816776746,-0.856908436326109,0.915687,-0.6432411,-1.0467176,312.82553,-97.774315,-7.054924,WAL
8481112945000,2.630043,4.14812131919505,7.85436007151703,-0.74838446006192,1.0002918,-0.42424592,-1.003957,312.89813,-97.8437,-7.010623,WAL
8481117924000,2.635022,4.55746091999251,8.09104965860971,-0.3582115099822,1.1071932,-0.22143865,-0.9288206,312.91122,-97.914894,-6.942826,WAL
8481122889000,2.639987,4.9361051976766,8.36278316900881,0.198618705518081,1.1826351,-0.059253927,-0.8454375,312.87384,-97.98833,-6.855655,WAL
8481127878000,2.644976,5.2327962835234,8.69213971981911,0.846172828062328,1.2348641,0.058643065,-0.7733554,312.76245,-97.965744,-6.6465645,WAL
8481132904000,2.650002,5.44100075462053,9.08488811974046,1.59381525548073,1.2819008,0.16065755,-0.70707655,312.61218,-97.951004,-6.412656,WAL
8481137860000,2.654958,5.53802966471991,9.38992979013968,2.02633009213997,1.3005321,0.23976462,-0.6753115,312.40805,-97.80875,-6.078109,WAL
8481142889000,2.659987,5.50052595902078,9.59620004910693,2.08258562621307,1.2944235,0.28863382,-0.6713409,312.18713,-97.68045,-5.735211,WAL
8481147825000,2.664923,5.46371579967879,9.79865580537305,2.1378008412031,1.2611313,0.34238997,-0.6658431,311.9269,-97.42498,-5.3269134,WAL
8481152894000,2.669992,5.42591379447121,10.0065667106634,2.19450382434419,1.2574661,0.3707952,-0.6441574,311.66367,-97.19064,-4.9214554,WAL
8481157875000,2.674973,5.21703494063325,10.2339801036939,2.20587973651715,1.2562444,0.39858958,-0.6258314,311.38498,-96.97309,-4.522011,WAL
8481164030000,2.681128,4.54307868073879,10.5709585043096,2.11256268260334,1.2608259,0.43554693,-0.5513059,311.1006,-96.76401,-4.108424,WAL
8481167945000,2.685043,4.10744303849597,10.7676147116284,2.07689144225604,1.328021,0.4465425,-0.51007247,310.82013,-96.578926,-3.7162986,WAL
8481173233000,2.690331,3.43241587287377,10.8129522236148,2.32372979068935,1.3371841,0.48472157,-0.43371433,310.527,-96.38917,-3.3026826,WAL
8481178020000,2.695118,2.81897252760931,10.8659704018286,2.54688532203313,1.3356569,0.5128214,-0.37293324,310.25757,-96.30765,-3.0022275,WAL
8481182897000,2.699995,2.16786927612927,11.0519996752059,2.77096627649136,1.3090842,0.5018258,-0.31856623,309.99207,-96.22995,-2.6917481,WAL
8481187826000,2.704924,1.509823771404,11.2400124470897,2.99743644760569,1.2492194,0.46670106,-0.26419923,309.75836,-96.161995,-2.4887862,WAL
8481192885000,2.709983,0.690684878865979,11.5203785732584,3.09901996289701,1.1456778,0.38637227,-0.23915374,309.54135,-96.08094,-2.2874663,WAL
8481197858000,2.714956,-0.142500256701031,11.8129854810997,3.17341154788087,1.0253373,0.2602286,-0.23365596,309.34802,-95.98396,-2.0857494,WAL
8481202894000,2.719992,-0.671440119854836,11.8293175355609,3.11857419642673,0.9285152,0.118507855,-0.24556783,309.19193,-95.894485,-2.0289953,WAL
8481207873000,2.724971,-1.16702795556605,11.8211262637004,3.0530418831644,0.8008443,-0.013133603,-0.28038713,309.06555,-95.77209,-1.9809685,WAL
8481212963000,2.730061,-1.57770732862225,11.767130788578,3.02345703533314,0.70005155,-0.1337795,-0.34972036,308.99918,-95.69583,-2.06719,WAL
8481217898000,2.734996,-1.91395899346217,11.6853396045573,3.01891304903375,0.6047566,-0.25259277,-0.46120325,308.96524,-95.60363,-2.1739833,WAL
8481222891000,2.739989,-2.12415086950396,11.6744395130613,3.14012435198122,0.505491,-0.36377025,-0.5589417,308.9837,-95.56535,-2.3807359,WAL
8481227896000,2.744994,-2.21325240526367,11.7307143012425,3.37929156516975,0.36896262,-0.47678033,-0.63071835,309.03262,-95.51769,-2.606881,WAL
8481232865000,2.749963,-2.21468518144109,11.9468671051956,3.67491792191576,0.23457226,-0.59315014,-0.6954701,309.1244,-95.51486,-2.9092796,WAL
8481237849000,2.754947,-2.11773354047466,12.3448789871713,4.03721103066068,0.08460484,-0.72784597,-0.71837753,309.251,-95.50328,-3.2131774,WAL
8481242942000,2.76004,-1.94427044550562,12.7695241477814,4.30222432133879,-0.076358154,-0.8579602,-0.7330383,309.40018,-95.47625,-3.5358303,WAL
8481247860000,2.764958,-1.72900295449438,13.1910897505237,4.49058311255951,-0.24129178,-0.9789116,-0.7498371,309.58203,-95.45546,-3.8571372,WAL
8481252862000,2.76996,-1.41960973154354,13.6017210344215,4.51710075859552,-0.4120286,-1.0366384,-0.7715228,309.7522,-95.398674,-4.1551714,WAL
8481257908000,2.775006,-1.01448220290758,13.9973156891212,4.37411471663872,-0.49693888,-1.128879,-0.7693848,309.96298,-95.37312,-4.4421897,WAL
8481262889000,2.779987,-0.553739704119391,14.3456681174145,4.20373085325163,-0.6789767,-1.1365148,-0.76144356,310.1293,-95.31308,-4.6844964,WAL
8481267929000,2.785027,-0.0194527013125123,14.6509751583317,3.9986027536272,-0.88086766,-1.0943651,-0.732122,310.3026,-95.2928,-4.9095793,WAL
8481272902000,2.79,0.573350507109752,14.8708109003057,3.91379471961345,-1.0781772,-1.0247264,-0.6783658,310.42587,-95.25312,-5.0515633,WAL
8481277905000,2.795003,1.24897667315847,14.9936520393452,3.97049048573119,-1.287704,-0.9370673,-0.5858198,310.52542,-95.237335,-5.1653485,WAL
8481282891000,2.799989,1.88682142273397,14.9769153898305,4.02913951845984,-1.4996742,-0.8903361,-0.46273044,310.5354,-95.183,-5.1740594,WAL
8481287929000,2.805027,2.48236541682019,14.7680305169492,4.09136053553795,-1.7186694,-0.8368854,-0.33322698,310.51086,-84.840515,-5.1510158,WAL
8481292840000,2.809938,2.98425058978074,14.5386618611031,4.02497359495798,-1.9446895,-0.7974846,-0.19120082,310.4322,-84.91614,-4.99407,WAL
8481297903000,2.815001,3.25120512605042,14.2201897226891,3.55194899243697,-2.1600194,-0.7165449,-0.036957346,310.3188,-84.92523,-4.801947,WAL
8481302754000,2.819852,3.45148998820411,13.8944739383698,3.10866697806494,-2.3313673,-0.58276546,0.13622294,310.20142,-84.88979,-4.500756,WAL
8481307793000,2.824891,3.35022055849348,13.4414264310802,2.70358942618732,-2.4596488,-0.44104472,0.33475417,310.05313,-84.73821,-4.159454,WAL
8481312780000,2.829878,3.09840793051323,13.0207799657177,2.37883038466319,-2.588236,-0.30085114,0.5305365,309.89093,-84.50032,-3.759347,WAL
8481317810000,2.834908,2.55759106343224,12.6489688801123,2.19533889899759,-2.7705793,-0.14874569,0.655153,309.6809,-84.1246,-3.3380902,WAL
8481322770000,2.839868,2.03438443272763,12.3101461973985,1.75237110119353,-2.9950724,0.052534413,0.7538077,309.43594,-83.64751,-2.9041762,WAL
8481327828000,2.844926,1.51973592102075,12.0167480454771,0.809650474097905,-3.2006285,0.31948254,0.8570439,309.12314,-83.06111,-2.452424,WAL
8481332779000,2.849877,1.11555089628225,11.8196992830046,-0.17712915780349,-3.2907312,0.6001751,0.96486163,308.7237,-82.415665,-2.0619054,WAL
8481337810000,2.854908,0.900783880918058,11.7968517484825,-1.30579819341995,-3.3084462,0.86162543,1.0870347,308.24445,-81.706085,-1.6594781,WAL
8481342803000,2.859901,0.722296436992554,11.7384384067305,-2.25830389159656,-3.2803464,1.0742066,1.2144,307.71082,-81.08493,-1.3179773,WAL
8481347814000,2.864912,0.657326789196403,11.5620924926023,-2.66204390736873,-3.2140675,1.1447614,1.319469,307.13754,-80.46081,-0.9647158,WAL
8481352872000,2.86997,0.585539119341372,11.4596972666112,-2.98543670648649,-3.1606169,1.2324207,1.350623,306.62122,-79.9388,-0.6518975,WAL
8481358480000,2.875578,0.473882706082329,11.7366049166736,-2.90951044918919,-3.072652,1.2742649,1.3884968,306.0945,-79.44255,-0.31886554,WAL
8481364460000,2.881558,0.356763698125064,12.0491149608665,-2.71801967668131,-2.9458976,1.3066407,1.3640621,305.60043,-79.00215,-0.013120793,WAL
8481367895000,2.884993,0.302984061275161,12.3482640813835,-1.84073929243691,-2.7617218,1.2629639,1.3426818,305.11655,-78.601685,0.29750556,WAL
8481372822000,2.88992,0.225845117822622,12.7773492973332,-0.582410193987943,-2.7262917,1.1023064,1.2977833,304.6568,-78.19277,0.5730692,WAL
8481377879000,2.894977,-0.0940989721428571,13.3323376028571,1.57842195954286,-2.7021625,0.8054258,1.2452488,304.25226,-77.83351,0.844172,WAL
8481382928000,2.900026,-0.470444841083744,13.9135302313301,3.94130234533202,-2.724459,0.40042216,1.1753048,303.92914,-77.47317,1.1074595,WAL
8481387891000,2.904989,-0.86841392381802,14.052524176628,4.23113750900981,-2.7430904,0.01740966,1.0998629,303.5781,-76.99895,1.3400635,WAL
8481392997000,2.910095,-1.28523711465953,14.0816044382991,3.99364519643176,-2.7565293,-0.2706133,1.0036516,303.31894,-76.52789,1.5605168,WAL
8481397878000,2.914976,-1.54190308601712,13.9774273376791,3.23762314836783,-2.7449229,-0.45051312,0.91751957,303.039,-75.77554,1.7307568,WAL
8481402892000,2.91999,-1.76651007632365,13.8340617682126,2.3153008423965,-2.7666087,-0.48624873,0.8210029,302.79837,-75.030525,1.878102,WAL
8481407874000,2.924972,-1.74369299918406,13.6656283062619,0.889816259914611,-2.8093693,-0.41722095,0.75655663,302.63483,-74.313,1.9727093,WAL
8481412947000,2.930045,-1.64228603946869,13.4858612087287,-0.7234759528463,-2.819754,-0.18570304,0.7476991,302.43185,-73.61615,2.045106,WAL
8481417975000,2.935073,-1.58070490438426,13.2480919707716,-2.10365238224864,-2.7714956,0.24281894,0.79412484,302.20383,-73.05052,2.0666726,WAL
8481422888000,2.939986,-1.53944829322876,12.9868002118083,-3.34593425297155,-2.6600127,0.80573124,0.8915578,301.86768,-72.51089,2.06909,WAL
8481428569000,2.945667,-1.59766821714771,12.5397552041596,-4.14595251511036,-2.48164,1.3863586,0.981355,301.4917,-72.22079,2.0632806,WAL
8481432901000,2.949999,-1.68571308327674,12.1391511598048,-4.49372955704584,-2.349693,1.9507982,1.0543534,300.96283,-71.95079,2.0333505,WAL
8481437887000,2.954985,-1.75633537876557,11.7114691237259,-4.16938702723669,-2.317928,2.4471262,1.1047498,300.4478,-71.80966,2.007101,WAL
8481442876000,2.959974,-1.81495400999434,11.2966294890997,-3.56065524691393,-2.363743,2.7620273,1.1301007,299.825,-71.68352,1.9615899,WAL
8481447875000,2.964973,-1.79741384908262,10.8950127340106,-2.80576922385197,-2.4471262,2.8643472,1.1252137,299.16394,-71.57488,1.896825,WAL
8481452896000,2.969994,-1.72763131759096,10.5012402755261,-1.94844094263502,-2.486527,2.9434543,1.1206323,298.4217,-71.46665,1.8151344,WAL
8481457867000,2.974965,-1.56979711063649,10.1019328960868,-1.16583017244224,-2.4959953,2.8625145,1.1255192,297.65927,-71.244675,1.7322203,WAL
8481462962000,2.98006,-1.3627511560396,9.68784079471947,-0.397459612211221,-2.4217753,2.674979,1.1392636,296.90826,-71.03968,1.6543956,WAL
8481467910000,2.985008,-1.12258317324926,9.32321532881674,0.0959016886396566,-2.312125,2.415972,1.1285735,296.161,-70.72336,1.5930207,WAL
8481472887000,2.989985,-0.849755971639388,8.98644433807352,0.390043541526697,-2.2262983,2.1019874,1.1313224,295.4844,-70.426094,1.5626453,WAL
8481477865000,2.994963,-0.601179054551142,8.63701765968095,0.56471608231467,-2.1340578,1.7965547,1.1301007,294.85,-70.03486,1.5802073,WAL
8481482924000,3.000022,-0.404170011229277,8.25310254003753,0.468737310315921,-2.042428,1.5396858,1.1713341,294.2896,-69.672516,1.6352446,WAL
8481487891000,3.004989,-0.289135007868534,7.81665218591988,0.256184229109296,-1.9159788,1.321607,1.2034045,293.80798,-69.27564,1.7560058,WAL
8481492879000,3.009977,-0.293780007689615,7.28712292415403,-0.138640202753792,-1.8115209,1.1670581,1.2235631,293.37744,-68.903,1.900126,WAL
8481498297000,3.015395,-0.366436895288145,6.64222531315221,-0.558256625676413,-1.6963727,1.0916162,1.2333369,292.98447,-68.56278,2.0823681,WAL
8481502895000,3.019993,-0.519606394605622,6.00056937726803,-0.901853066586443,-1.604743,1.0751228,1.2125676,292.6187,-68.249374,2.2662723,WAL
8481507867000,3.024965,-0.703044751108559,5.29891962817772,-1.22819401607632,-1.4761559,1.0983357,1.1911873,292.29028,-67.996346,2.4536176,WAL
8481512972000,3.03007,-0.962154006651356,4.54750276906634,-1.38365959645791,-1.3038919,1.135904,1.1737776,291.96533,-67.78527,2.632184,WAL
8481518366000,3.035464,-1.24440510154558,3.73124470964757,-1.55931411547549,-1.0827587,1.2311989,1.1093313,291.63446,-67.64197,2.7582874,WAL
8481522896000,3.039994,-1.66721575984446,2.55677072323292,-1.95649985971648,-0.9224065,1.3912456,0.99387777,291.28622,-67.53584,2.8520677,WAL
8481528502000,3.0456,-2.19236863019077,1.11016291548244,-2.43688303359137,-0.7348709,1.6184875,0.84329945,290.89313,-67.483345,2.8593643,WAL
8481532900000,3.049998,-2.65039250577827,0.139773174758087,-2.54556664791263,-0.55863625,1.8799378,0.677755,290.46606,-67.48119,2.8096468,WAL
8481537840000,3.054938,-3.16486225234541,-0.950205297087826,-2.66764419560409,-0.4175264,2.1569653,0.50915617,289.96808,-67.529175,2.626496,WAL
8481542880000,3.059978,-3.46340128623927,-1.65589058492111,-2.61210223808668,-0.28802297,2.4184155,0.4016439,289.41754,-67.63134,2.3873909,WAL
8481547835000,3.064933,-3.67664164593569,-2.20557678059716,-2.49363538258438,-0.13041973,2.538756,0.36926803,288.8424,-67.78802,2.108098,WAL
8481552895000,3.069993,-3.65719277030408,-2.43365642969592,-2.15667219571729,-0.057726767,2.7299569,0.35430184,288.15402,-67.91497,1.6824884,WAL
8481557871000,3.074969,-3.55275475017807,-2.53809444982193,-1.74762336686147,0.12217305,2.8545732,0.37384954,287.45132,-68.11815,1.2489957,WAL
8481562853000,3.079951,-3.35769644069792,-2.41648394425058,-1.18702274770233,0.32375857,2.869234,0.3943135,286.7082,-68.292145,0.7641585,WAL
8481567968000,3.085066,-3.07966307276645,-2.09726031034265,-0.481641704928526,0.5684101,2.8182268,0.41813725,285.94788,-68.52803,0.27575287,WAL
8481572885000,3.089983,-2.75086957865817,-1.57937043637269,0.234428722225762,0.82894415,2.7220156,0.43982297,285.17493,-68.737755,-0.18951076,WAL
8481577901000,3.094999,-2.38267635492733,-0.938618577563209,0.985160385446944,1.0916162,2.590374,0.44318274,284.4272,-69.0155,-0.6463238,WAL
8481582917000,3.100015,-1.99716151821009,-0.133925387809772,1.94056357209792,1.3261884,2.4098635,0.45142943,283.71036,-69.25677,-1.0320308,WAL
8481587891000,3.104989,-1.60526092156115,0.755019837573994,3.00156273621952,1.5183055,2.133447,0.43554693,283.06174,-69.556854,-1.3997114,WAL
8481592869000,3.109967,-1.18533176366965,2.72440547900732,5.39270868538107,1.6539177,1.7736472,0.38973203,282.6057,-69.74616,-1.6190044,WAL
8481597940000,3.115038,-0.741885192026037,5.34117942891239,8.58025561686104,1.7168368,1.3338243,0.31978795,282.2597,-69.96198,-1.8083844,WAL
8481602887000,3.119985,-0.596583097932817,7.66562763875969,11.2453245245478,1.6869044,0.820392,0.21868975,282.0471,-70.03543,-1.8848879,WAL
8481607882000,3.12498,-0.824781797619757,9.71466167587955,13.3561622794673,1.5515977,0.32070425,0.13225232,281.9576,-70.090294,-1.931718,WAL
8481612897000,3.129995,-1.0499937459011,11.6514328438905,14.9481355360033,1.2403619,-0.116675265,0.027794369,281.98145,-69.60389,-1.8069783,WAL
8481617915000,3.135013,-1.26994952193707,13.4228627188394,15.8122478501839,0.7602218,-0.376293,-0.03390302,282.0761,-69.05896,-1.6673377,WAL
8481623238000,3.140336,-1.50623985064689,15.2600446215284,16.6703105066414,0.1301143,-0.4025602,-0.05131268,282.12933,-68.22703,-1.5705014,WAL
8481627886000,3.144984,-1.77499182898051,15.9818356444713,16.1865568975332,-0.50732356,-0.1777618,-0.08093964,282.17688,-67.325325,-1.497681,WAL
8481632891000,3.149989,-2.06438590203554,16.7590654357426,15.6656475142315,-0.99265605,0.23426682,-0.1301143,282.15576,-66.389175,-1.4923515,WAL
8481637896000,3.154994,-2.25031349296804,16.6741918,15.0591046237443,-1.2241739,0.7272351,-0.1337795,282.04697,-65.42719,-1.5213593,WAL
8481642888000,3.159986,-2.38129268225266,16.1357214,14.4090590980213,-1.2889256,0.95905846,-0.08857546,281.89502,-64.44891,-1.5691794,WAL
8481648048000,3.165146,-2.51684526347775,15.1495049502058,13.3202911691825,-1.3112222,1.4785993,-0.055283304,281.56946,-63.63042,-1.7733829,WAL
8481652894000,3.169992,-2.64421811268379,14.0440906447755,12.1238963250343,-1.3393221,2.062892,0.011911872,281.15994,-62.839462,-1.9924964,WAL
8481657858000,3.174956,-2.83148276962149,12.9742068663463,11.0743082451461,-1.3906348,2.604424,0.06169739,280.64087,-62.10751,-2.2916305,WAL
8481662964000,3.180062,-3.05684672922142,11.9097220255933,10.0961332296529,-1.3610078,2.934902,0.08827003,280.02676,-61.420635,-2.623444,WAL
8481667972000,3.18507,-2.73734171880928,11.3135740858297,9.57685097558456,-1.2348641,2.7232373,0.094989546,279.42194,-60.831104,-2.9776325,WAL
8481672888000,3.189986,-2.09629185651235,10.9996803996619,9.33369386224058,-1.0024298,1.568702,0.17684549,278.96158,-60.29839,-3.2101107,WAL
8481677903000,3.195001,-1.50061919190078,10.563543744471,8.1864866315003,-0.5384777,0.06261369,0.37110063,278.64114,-59.91662,-3.3691225,WAL
8481683547000,3.200645,-0.902918860958358,9.92815068091253,5.77414668370193,-0.05467244,-1.2794572,0.54428095,278.55716,-59.61671,-3.3650846,WAL
8481687890000,3.204988,-1.02693185731132,9.33542122877359,3.52166748938679,0.41355577,-2.2525656,0.61819565,278.70673,-59.468586,-3.0927975,WAL
8481692884000,3.209982,-1.75072239683569,8.55053138620283,0.537206516018082,0.8744536,-2.7210991,0.57757306,279.04822,-59.45922,-2.6935837,WAL
8481697868000,3.214966,-2.67876496248734,7.84167599372088,-1.97613352359733,1.2516629,-2.761111,0.42852196,279.5576,-59.75794,-2.1849298,WAL
8481702896000,3.219994,-3.89305425647154,7.22721660988455,-3.88290933704679,1.4541647,-2.558609,0.2125811,280.1388,-60.131905,-1.6908795,WAL
8481707867000,3.224965,-5.25936790934597,6.71979410565015,-4.80007614246323,1.5351044,-1.9862283,0.009162978,280.787,-60.862167,-1.4176598,WAL
8481712964000,3.230062,-6.86505832306502,6.32309404334365,-4.54505468088235,1.4694363,-0.87109387,-0.22968534,281.29364,-61.60545,-1.32746,WAL
8481717938000,3.235036,-8.01822230531685,6.46849122581911,-3.32826069268197,1.0946705,0.79626286,-0.559858,281.65213,-62.46348,-1.6539825,WAL
8481722885000,3.239983,-8.54803532903669,7.40728323141063,-0.674546684942123,0.22540927,2.1099286,-0.8903361,281.8429,-63.151264,-2.144837,WAL
8481727865000,3.244963,-8.25083053118053,8.59703631881446,2.10855163849004,-0.5842926,2.195755,-1.0958922,281.96335,-63.66992,-2.9330218,WAL
8481732909000,3.250007,-6.35963068630219,10.2705796595574,5.14124343126064,-0.8958339,1.2434162,-1.0821478,282.0149,-64.04506,-3.7718527,WAL
8481737823000,3.254921,-4.61812816316183,11.4740059953227,7.02414414667914,-0.62980205,0.63041294,-0.93187493,281.87936,-64.036156,-4.7169905,WAL
8481742877000,3.259975,-3.02437540780168,11.8769714855005,6.86567453470533,0.020463986,-0.5222898,-0.8558222,282.12775,-64.0215,-5.474719,WAL
8481747907000,3.265005,-1.67523453728323,12.1300914509689,6.32908275654727,0.42241332,-1.3115277,-0.7431176,282.29535,-63.78907,-5.8480763,WAL
8481753561000,3.270659,-1.12411731706205,11.8121394415737,4.1829051991192,1.2339478,-1.772731,-0.6389651,282.66583,-63.857906,-6.0933285,WAL
8481757898000,3.274996,-0.796704040574054,11.5563787948819,2.65571548537694,2.2446244,-1.8261817,-0.61819565,283.09546,-64.19915,-6.0221434,WAL
8481764260000,3.281358,-0.880982958799526,11.1109042757633,1.12063497360933,2.4810293,-1.885741,-0.548557,283.62473,-64.55825,-5.8619,WAL
8481767885000,3.284983,-0.957893511595086,11.0215845558421,0.371760432891973,2.9022207,-1.8887954,-0.50976706,284.19666,-65.48442,-5.627753,WAL
8481772926000,3.290024,-1.22499066496624,11.8092949313578,0.0277030500975244,2.9788845,-1.8802432,-0.40683624,284.77408,-66.371025,-5.3752866,WAL
8481778310000,3.295408,-1.47840126559002,12.6026508059277,-0.287588926992109,2.980106,-1.8252654,-0.2770274,285.3656,-67.45693,-5.2036147,WAL
8481782927000,3.300025,-1.42159954064966,12.8704302392641,-0.109069092939989,2.8625145,-1.6285667,-0.12980886,285.9137,-68.51936,-5.034643,WAL
8481787896000,3.304994,-1.36046725318407,13.1586251719582,0.0830610901670031,2.755613,-1.4236214,0.02076942,286.46936,-69.65316,-4.891229,WAL
8481792874000,3.309972,-1.09606172284514,13.1700920160701,-0.313701626219868,2.6395488,-1.42973,0.14782938,287.02643,-70.735794,-4.7307553,WAL
8481797832000,3.31493,-0.792580469466764,13.1267375836377,-0.825284282030679,2.381458,-1.5784758,0.22052236,287.56726,-71.73218,-4.567859,WAL
8481802892000,3.31999,-0.449382857227761,12.9983190161043,-1.65068822833589,2.0674734,-1.627345,0.29749137,288.06894,-72.66026,-4.3735056,WAL
8481807902000,3.325,-0.0906381621069786,12.8235462802914,-2.63953577770322,1.8781052,-1.5210545,0.39858958,288.56772,-73.5374,-4.1692004,WAL
8481812904000,3.330002,0.219312746647374,12.4568216020531,-2.90138130119035,1.8869628,-1.350623,0.49418998,289.06165,-74.45058,-3.9305928,WAL
8481817923000,3.335021,0.492265857387791,11.9371607987332,-2.59168444607404,2.0409007,-1.2266175,0.5497787,289.53845,-75.33925,-3.693327,WAL
8481823356000,3.340454,0.822964568401487,11.5145256654275,-2.01942453420074,2.24157,-1.185384,0.569021,290.0002,-76.372154,-3.4306471,WAL
8481827890000,3.344988,1.10854895881232,11.1999686649509,-1.47722814735488,2.4058928,-1.1273518,0.59131753,290.42163,-77.424446,-3.1732388,WAL
8481832866000,3.349964,1.13155355273302,10.7423365794412,-0.594617561223741,2.5433373,-1.0155635,0.6261369,290.7964,-78.46499,-2.8897002,WAL
8481837895000,3.354993,0.979298321196206,10.2118991375688,0.471168910807669,2.563496,-0.97494096,0.63407815,291.17883,-79.501495,-2.6181319,WAL
8481842870000,3.359968,0.646793722228592,9.72013584302274,0.869206424720999,2.4190264,-0.9651671,0.61666846,291.50476,-80.42976,-2.3051467,WAL
8481847903000,3.365001,0.218021438329589,9.23939140731422,0.938502970234522,2.3096814,-1.0088439,0.5714644,291.8391,-81.35564,-2.0088658,WAL
8481852948000,3.370046,-0.247058094512434,8.81706284088329,0.702008305815705,2.0497584,-1.0164797,0.5140431,292.14545,-82.01308,-1.73884,WAL
8481857899000,3.374997,-0.74610943596182,8.47457635579404,0.100211093428955,1.8716911,-0.9798279,0.47250426,292.45523,-82.646095,-1.4882469,WAL
8481862887000,3.379985,-1.16880297427119,8.213227272056,-0.627390129618335,1.7599027,-0.89980453,0.4260785,292.79187,-83.16654,-1.3324338,WAL
8481867908000,3.385006,-1.51463975701956,8.03339236651323,-1.48045420657077,1.7076738,-0.7458665,0.398895,293.09845,-83.64231,-1.1960924,WAL
8481872888000,3.389986,-1.87060137561263,7.81624005900804,-1.95718689427563,1.7052304,-0.5216789,0.3494149,293.41516,-84.15791,-1.1699867,WAL
8481877891000,3.394989,-2.24631412152519,7.54384823730641,-1.91961560006861,1.6978999,-0.30543262,0.25289822,293.69446,-84.64243,-1.1756963,WAL
8481882860000,3.399958,-2.53896358881217,7.37769080566396,-1.72937020679476,1.6142114,-0.22479841,0.12858713,293.97476,-85.2352,-1.2644287,WAL
8481887890000,3.404988,-2.69804029600721,7.38733201651156,-1.27624245797058,1.4456125,-0.2049453,0.010995574,294.21655,-85.77004,-1.3863287,WAL
8481893067000,3.410165,-2.78412583240072,7.43942619328515,-0.773020308433979,1.2614367,-0.23273966,-0.074830994,294.48682,-86.192154,-1.6013038,WAL
8481897868000,3.414966,-2.75553904336675,7.54662651224062,-0.254885067820005,1.1517864,-0.3036,-0.13775012,294.7688,-86.522865,-1.8425324,WAL
8481902834000,3.419932,-2.7259697881402,7.65751107460947,0.281057361859019,1.10139,-0.4728097,-0.17989981,295.05984,-86.70864,-2.094847,WAL
8481907921000,3.425019,-2.58887160587952,7.86017580814458,0.893967919745542,1.1016954,-0.7171558,-0.2049453,295.3952,-86.80829,-2.3562305,WAL
8481912858000,3.429956,-2.42937057879518,8.07892012144578,1.50462943265542,1.1273518,-1.0051788,-0.21624629,295.79282,-86.830055,-2.621292,WAL
8481917857000,3.434955,-2.17787552888283,8.21645655313352,1.79563822833787,1.1374311,-1.2421945,-0.21746802,296.17856,-86.77345,-2.8523703,WAL
8481922859000,3.439957,-1.89172144627961,8.32188201184238,1.96130633452106,1.110553,-1.3710871,-0.22876903,296.6155,-86.6714,-3.0873888,WAL
8481927870000,3.444968,-1.62713510166208,8.39526371036585,1.87655116811566,1.0421361,-1.428203,-0.22907446,297.05396,-86.55428,-3.2670634,WAL
8481932919000,3.450017,-1.36558602704563,8.46183970121951,1.73388801845004,0.92485,-1.4761559,-0.2275473,297.52524,-86.4175,-3.4479587,WAL
8481937910000,3.455008,-1.12674971392629,8.51110336968785,1.59778345373261,0.8145888,-1.5158621,-0.22388211,297.98953,-86.318985,-3.5695436,WAL
8481942876000,3.459974,-0.894233880658142,8.55581791350132,1.46363977560173,0.7651087,-1.5543466,-0.21746802,298.46457,-86.215775,-3.6891103,WAL
8481947905000,3.465003,-0.669577828088547,8.58087224320226,1.26970672053978,0.6722572,-1.5714508,-0.21624629,298.9412,-86.15949,-3.753991,WAL
8481952912000,3.47001,-0.451464192780754,8.59541344576974,1.04674606832104,0.5815437,-1.5512923,-0.2180789,299.4144,-86.100655,-3.8183606,WAL
8481957919000,3.475017,-0.301025296280602,8.52085621570373,0.71897240353423,0.50335294,-1.4795157,-0.23335053,299.87427,-86.08567,-3.8375413,WAL
8481962860000,3.479958,-0.183075326034007,8.40711864479658,0.348272481963856,0.45265114,-1.3765849,-0.24587326,300.31448,-86.066345,-3.8581934,WAL
8481967931000,3.485029,-0.133994008339907,8.34457778556094,0.279236919731389,0.43310347,-1.2644911,-0.26297748,300.73648,-86.081924,-3.8472524,WAL
8481972888000,3.489986,-0.176657154360178,8.35168845344251,0.603950885890459,0.42730024,-1.1618657,-0.2864958,301.12598,-86.08798,-3.8448339,WAL
8481977879000,3.494977,-0.219612926356783,8.35884789330471,0.930892061016526,0.40744713,-1.0848967,-0.32406402,301.50574,-86.12758,-3.8204095,WAL
8481982904000,3.500002,-0.262861324329722,8.36605610514754,1.26006044510959,0.39767328,-1.0726794,-0.37751472,301.86954,-86.14967,-3.8122668,WAL
8481987891000,3.504989,-0.295933477544854,8.39170317133564,1.48708692553772,0.39706242,-1.1209377,-0.4269948,302.2187,-86.16574,-3.8088078,WAL
8481992880000,3.509978,-0.315985394485364,8.44183291134194,1.58233343154968,0.4147775,-1.2257011,-0.48899764,302.57648,-86.15709,-3.8278518,WAL
8481997902000,3.515,-0.285626104464091,8.5083822291646,1.58307360665541,0.46089783,-1.3359623,-0.56107974,302.90808,-86.11186,-3.8733342,WAL
8482002889000,3.519987,-0.209719416866991,8.58903272434688,1.49767860044701,0.5296202,-1.3906348,-0.6356053,303.25012,-86.049194,-3.9374063,WAL
8482007906000,3.525004,-0.11397402181922,8.68477506964796,1.47202896787821,0.59650993,-1.3946054,-0.71868294,303.60007,-85.96797,-4.0201616,WAL
8482012970000,3.530068,0.00138504011037106,8.79551959410086,1.50432948228354,0.6762278,-1.3448198,-0.79320854,303.94656,-85.86987,-4.121423,WAL
8482017892000,3.53499,0.120471949311516,8.90829521814581,1.60009982991606,0.74464476,-1.2840388,-0.8741482,304.28812,-85.76344,-4.232086,WAL
8482022888000,3.539986,0.251333596056776,9.03013202885976,1.789623652985,0.79229224,-1.2483032,-0.94714653,304.6191,-85.63758,-4.3611913,WAL
8482027859000,3.544957,0.383031890975018,9.16955977737957,1.98162980202382,0.8396343,-1.2556335,-1.0115929,304.93878,-85.52064,-4.479363,WAL
8482032905000,3.550003,0.520563607513439,9.3580292336882,2.18538038878465,0.8671232,-1.2791518,-1.0668762,305.2497,-94.61633,-4.6149917,WAL
8482037875000,3.554973,0.658313999103148,9.57408225668185,2.35199043187488,0.89644474,-1.3228287,-1.0818423,305.54773,-94.72808,-4.723856,WAL
8482042875000,3.559973,0.80051565224114,9.83952523826965,2.46575176626411,0.90316427,-1.4031575,-1.1191051,305.85977,-94.86264,-4.8540845,WAL
8482047880000,3.564978,0.930047655872552,10.1174106445484,2.54641996471792,0.9272934,-1.4703526,-1.1334605,306.16034,-94.95943,-4.9464674,WAL
8482052926000,3.570024,1.03834590792751,10.4187625042385,2.56996319552762,0.9492846,-1.559539,-1.1334605,306.4865,-95.06358,-5.0454288,WAL
8482057878000,3.574976,1.12321900678053,10.7222315055226,2.55188714340356,0.95722586,-1.6417004,-1.1181889,306.81378,-95.130554,-5.107941,WAL
8482062925000,3.580023,1.16276424931479,11.0484794338311,2.44313776514625,0.9633345,-1.6914859,-1.1261301,307.15244,-95.2071,-5.178946,WAL
8482067826000,3.584924,1.2058499863809,11.3510414364508,2.29841267829736,0.96761054,-1.7507398,-1.1163563,307.50256,-95.249695,-5.2153683,WAL
8482072892000,3.58999,1.25917505266787,11.6370578345324,2.0754169557554,0.9630291,-1.8264871,-1.0412198,307.86646,-95.28022,-5.2389917,WAL
8482077832000,3.59493,1.30429153443073,11.7884076663727,1.81702598923182,0.9593639,-1.8768835,-0.96791595,308.23477,-95.3061,-5.254496,WAL
8482082873000,3.599971,1.33740309053498,11.7032633686067,1.47644973662551,0.9761627,-1.9126191,-0.9092729,308.61505,-95.32234,-5.258246,WAL
8482087817000,3.604915,1.36859701010262,11.5512509031583,1.11462887852745,0.9502009,-1.9089539,-0.8900307,308.99927,-95.33698,-5.2559843,WAL
8482092861000,3.609959,1.39747344525257,11.238422897579,0.681482783463186,0.90010995,-1.8860464,-0.9233228,309.38287,-95.358246,-5.258707,WAL
8482097855000,3.614953,1.40150519794806,10.9508027707672,0.323949150089909,0.8512407,-1.8493946,-0.96486163,309.78952,-95.40087,-5.275164,WAL
8482102896000,3.619994,1.34886407573354,10.7115254195083,0.127741383758921,0.80848014,-1.8069394,-1.0201449,310.18286,-95.46142,-5.30995,WAL
8482107920000,3.625018,1.29091092344815,10.6179552301529,0.0616750561711181,0.7715228,-1.7886134,-1.1050552,310.58884,-95.57637,-5.3869653,WAL
8482112908000,3.630006,1.2205198521643,10.8643235202616,0.299244771075889,0.7528914,-1.8139644,-1.1542299,310.9912,-95.699974,-5.4719377,WAL
8482117892000,3.63499,1.15389990534031,11.1568291068063,0.566295124460733,0.7284568,-1.8976529,-1.1734722,311.4204,-95.86445,-5.5940213,WAL
8482122891000,3.639989,1.11379567648168,11.7834587296335,1.04754626859058,0.6988298,-2.003638,-1.1685852,311.85913,-96.03572,-5.72413,WAL
8482127868000,3.644966,1.09005736559801,12.4123806269975,1.5106498608933,0.6411031,-2.1142046,-1.1597277,312.31152,-96.19532,-5.859019,WAL
8482132899000,3.649997,1.12831513695285,13.0675451611911,1.91713893121588,0.5555819,-2.1658227,-1.1395692,312.77252,-96.345924,-5.990222,WAL
8482137876000,3.654974,1.19352869891191,13.6646137446901,2.27651569132138,0.4990769,-2.244319,-1.1215485,313.2437,-96.45412,-6.100956,WAL
8482142876000,3.659974,1.37276037544394,14.0522543261664,2.45991554334088,0.38637227,-2.288912,-1.0821478,313.71347,-96.540726,-6.2011724,WAL
8482148477000,3.665575,1.57639084109276,14.4817185962755,2.66097264711876,0.24587326,-2.2886066,-0.9828822,314.17743,-96.56421,-6.2640944,WAL
8482152895000,3.669993,1.88858940874912,14.5672013078004,2.58663964188334,-0.029321533,-2.2678373,-0.93554014,314.6405,-96.57816,-6.33207,WAL
8482157947000,3.675045,2.24558967217147,14.6649511173577,2.50163956437105,-0.12003502,-2.2015584,-0.8142834,315.07062,-96.5111,-6.314203,WAL
8482162892000,3.67999,2.65485151379554,14.6342081870017,2.39860879422747,-0.2910773,-2.0619757,-0.6762278,315.46606,-96.41566,-6.2800097,WAL
8482167887000,3.684985,3.10381314322333,14.5280025602987,2.28274773019477,-0.48258355,-1.8796324,-0.5384777,315.8226,-96.297775,-6.214287,WAL
8482172895000,3.689993,3.29739533699324,14.4407113609234,2.37355444155405,-0.6591236,-1.6872098,-0.40042216,316.13937,-96.10558,-6.066724,WAL
8482177907000,3.695005,3.34694386739865,14.3641363166291,2.58075718164414,-0.8491027,-1.5628988,-0.2565634,316.41928,-95.89213,-5.883751,WAL
8482182895000,3.699993,3.22286619462377,14.1711991696135,2.84223247876234,-1.0320568,-1.4920384,-0.12736541,316.65332,-84.37508,-5.6240788,WAL
8482187886000,3.704984,2.93297380002056,13.8665665481086,3.15669184979441,-1.2373075,-1.459968,-0.02076942,316.86194,-84.63414,-5.337444,WAL
8482192893000,3.709991,2.59994663651753,13.512005929867,3.32960200677146,-1.461495,-1.4089607,0.07727446,317.0431,-84.86954,-5.0160584,WAL
8482197903000,3.715001,2.23399523841503,13.1192775706446,3.39208156718445,-1.7003434,-1.3628404,0.18295415,317.21286,-85.047714,-4.670341,WAL
8482202891000,3.719989,1.83557666315789,12.7012278687259,3.2876373606584,-1.9065105,-1.2922854,0.2910773,317.344,-85.10128,-4.3381133,WAL
8482207950000,3.725048,1.38268965789474,12.2384953976834,2.94304939952245,-2.0980167,-1.1881329,0.40225476,317.44257,-85.0463,-3.9825747,WAL
8482212958000,3.730056,0.643071162397551,11.5998457150193,2.35045682584181,-2.2583687,-1.040609,0.5314528,317.50507,-84.83263,-3.6559124,WAL
8482218142000,3.73524,-0.479568547210427,10.7174211091143,1.42881380358448,-2.3753495,-0.89461213,0.6441574,317.52298,-84.51259,-3.3095605,WAL
8482222849000,3.739947,-1.27573065213618,10.2036412427428,1.03177465732472,-2.4620924,-0.77579886,0.72051555,317.50354,-84.10316,-3.0103002,WAL
8482227881000,3.744979,-1.81949452182467,10.050272249783,1.21302929673064,-2.4813347,-0.7351763,0.76083267,317.44876,-83.64245,-2.6954918,WAL
8482232836000,3.749934,-2.26929486787284,9.9489199482209,1.47352463262686,-2.4678955,-0.70371675,0.7663304,317.48303,-83.15809,-2.518413,WAL
8482237850000,3.754948,-2.55474762889636,9.94478286904454,1.89963510497975,-2.4517076,-0.7816021,0.76174897,317.52518,-82.6637,-2.3324382,WAL
8482243147000,3.760245,-2.83407095261617,9.94205307743322,2.34680460245152,-2.398257,-0.9789116,0.73945236,317.64307,-82.11495,-2.2108266,WAL
8482247891000,3.764989,-2.82575897164288,9.95867682240212,2.7125244748262,-2.3539693,-1.2632693,0.6969972,317.7985,-81.569016,-2.0901632,WAL
8482252873000,3.769971,-2.8170299899378,9.97613455794914,3.09659201364801,-2.2721133,-1.5830573,0.6545421,318.04874,-80.95626,-1.9983771,WAL
8482258030000,3.775128,-2.64631001604973,9.99442089178032,3.42579418023008,-2.1697934,-1.9089539,0.6075055,318.3717,-80.366585,-1.9060801,WAL
8482262843000,3.779941,-2.45815730340477,10.0115258177939,3.72085206649968,-2.0607538,-2.1981986,0.56016344,318.765,-79.8086,-1.8115194,WAL
8482267950000,3.785048,-2.16690657595877,10.2545175473194,3.95620542711327,-1.9248364,-2.4178047,0.52503866,319.2217,-79.226,-1.7064846,WAL
8482272931000,3.790029,-1.840730398791,10.5948751858091,4.15002017976415,-1.7916678,-2.5885415,0.5152648,319.73456,-78.682884,-1.5936785,WAL
8482277913000,3.795011,-1.5999123892187,10.9579577418842,4.19790328800755,-1.666135,-2.6554313,0.54519725,320.2586,-78.13774,-1.4396482,WAL
8482282917000,3.800015,-1.40009724941924,11.3338007153777,4.17411563416063,-1.5378532,-2.6355782,0.5751296,320.79373,-77.64081,-1.2833906,WAL
8482287860000,3.804958,-1.34358097583347,11.5825239930746,3.99968627897407,-1.4517213,-2.5760188,0.57940567,321.3146,-77.16151,-1.0780365,WAL
8482292886000,3.809984,-1.36296126906909,11.7685750347882,3.73998968585118,-1.4019357,-2.48164,0.56596667,321.80667,-76.718094,-0.8746892,WAL
8482297916000,3.815014,-1.39647877520422,11.9335751963921,3.46991854965963,-1.3399329,-2.3102922,0.53878313,322.24283,-76.329865,-0.6626882,WAL
8482302792000,3.81989,-1.49581615566712,11.9931775748809,3.1599860155548,-1.2690725,-2.1056526,0.50762904,322.63303,-75.96717,-0.4677143,WAL
8482307822000,3.82492,-1.59829093493873,12.0546623910824,2.84026480010211,-1.217149,-1.921782,0.46822822,323.00317,-75.674774,-0.30086094,WAL
8482312851000,3.829949,-1.67118235923053,11.9654259675018,2.51781774747877,-1.1960741,-1.7574593,0.45020768,323.31387,-75.40128,-0.15322009,WAL
8482317781000,3.834879,-1.73552637904392,11.8416875672502,2.20104723610441,-1.2095132,-1.5198327,0.48166725,323.5451,-75.139755,-0.024218144,WAL
8482322803000,3.839901,-1.62356567621716,11.5926478733578,1.63729354887461,-1.235475,-1.3674219,0.54641896,323.77734,-74.94058,0.08278021,WAL
8482327827000,3.844925,-1.48877989012751,11.3277245688756,1.04237694315591,-1.2232577,-1.0280862,0.5885687,323.88638,-74.75392,0.15860401,WAL
8482332810000,3.849908,-1.29675048089465,10.9239282796823,0.646732718093646,-1.2061534,-0.68539083,0.68019843,323.96548,-74.60421,0.24489886,WAL
8482337768000,3.854866,-1.09328541588629,10.4921853494983,0.294390706989967,-1.1841623,-0.39706242,0.7492262,323.96204,-74.46313,0.31331086,WAL
8482342802000,3.8599,-0.789558318446026,10.088059004745,0.0913204694365362,-1.1340714,-0.14752395,0.81031275,323.8748,-74.42303,0.38772547,WAL
8482347763000,3.864861,-0.479584435755239,9.69354671016212,-0.0918458934984184,-1.071763,0.043982297,0.8784242,323.7218,-74.39155,0.46446654,WAL
8482352812000,3.86991,0.0295561897790315,9.30123729487541,0.526471370824636,-1.0009027,0.118507855,0.9642508,323.62708,-74.36415,0.5986821,WAL
8482357784000,3.874882,0.557875346375176,8.91619084146686,1.24731365127221,-0.9550878,0.08827003,1.0500773,323.50482,-74.34576,0.74222654,WAL
8482363635000,3.880733,0.758399485155925,8.78810002390853,1.79424767151767,-0.90041536,-0.0067195175,1.1398746,323.4344,-74.31722,0.9618159,WAL
8482367834000,3.884932,0.821101685561331,8.75883906107068,2.12865939246362,-0.8222246,-0.116675265,1.2220359,323.37003,-74.304985,1.2017046,WAL
8482372813000,3.889911,0.752177555462185,8.69148384859461,2.34352586983483,-0.7266242,-0.25350907,1.2965615,323.26007,-74.16412,1.5509068,WAL
8482377810000,3.894908,0.655107961036415,8.61752626968029,2.52379782138511,-0.6258314,-0.35430184,1.3530666,323.16202,-74.03949,1.916254,WAL
8482382817000,3.899915,0.406974022065819,8.54745089881074,2.56283245492106,-0.5296202,-0.4269948,1.3918564,323.07697,-73.85853,2.316217,WAL
8482387789000,3.904887,0.114073374630921,8.47910756274349,2.55795083175108,-0.4437936,-0.47494772,1.3967434,323.00427,-73.695206,2.7188327,WAL
8482392805000,3.909903,-0.254041441016043,8.31976058665082,2.39548767101406,-0.38637227,-0.48991394,1.3594806,322.95288,-73.50173,3.1127298,WAL
8482397804000,3.914902,-0.638061145775401,8.13960252762923,2.19636643172906,-0.3191771,-0.47433686,1.3121386,322.89862,-73.32983,3.496412,WAL
8482403358000,3.920456,-1.04930196965025,7.87747885366928,2.00638368748128,-0.267559,-0.4184427,1.2452488,322.87857,-73.1611,3.8279676,WAL
8482407925000,3.925023,-1.38452733370628,7.65014235670866,1.85611023593516,-0.2406809,-0.31948254,1.1670581,322.8404,-73.0057,4.129795,WAL
8482412972000,3.93007,-1.80554533649506,7.51485107843994,1.65699677915757,-0.25442538,-0.21533,1.1044444,322.83328,-72.874146,4.3567557,WAL
8482417890000,3.934988,-2.25620410543942,7.47566328823713,1.43656588124805,-0.27183503,-0.105068825,1.0250319,322.80173,-72.756546,4.54283,WAL
8482422888000,3.939986,-2.54539974182725,7.19221668187135,1.53095510480299,-0.29352075,-0.03023783,0.97127575,322.80707,-72.65745,4.6642756,WAL
8482427889000,3.944987,-2.72905836247723,6.75602712222222,1.82480908961749,-0.2687807,0.13897185,0.96944314,322.75763,-72.57116,4.757404,WAL
8482432892000,3.94999,-2.96535072445757,6.26907207670368,2.004561195355,-0.25625798,0.1704314,0.98471475,322.7924,-72.52555,4.7921987,WAL
8482438025000,3.955123,-3.2557806434756,5.72326445359071,2.08467981173475,-0.2312125,0.15393804,0.95722586,322.79916,-72.496506,4.8025465,WAL
8482442870000,3.959968,-3.46952268083966,5.1967912296561,2.01078133016525,-0.1994475,0.109650314,0.8918633,322.79938,-72.415855,4.8015823,WAL
8482447954000,3.965052,-3.64783688503796,4.63575377793658,1.81941966099151,-0.118507855,0.081855945,0.7910705,322.8064,-72.363846,4.780895,WAL
8482452891000,3.969989,-3.7243094374502,4.19906746294821,1.61142175099602,-0.034513887,0.08399397,0.64660084,322.8312,-72.30978,4.706897,WAL
8482457857000,3.974955,-3.60464050010484,3.97967439379325,1.35712532421891,0.033292156,0.1020145,0.4813618,322.87183,-72.28526,4.5983667,WAL
8482462957000,3.980055,-3.44251106901253,3.90384438488221,1.10289294362907,0.0842994,0.12889257,0.36468655,322.96277,-72.279884,4.453284,WAL
8482467890000,3.984988,-3.2341236918797,4.02698225233083,0.866088964360902,0.12064589,0.16798794,0.30176744,323.05865,-72.29903,4.2739744,WAL
8482473469000,3.990567,-2.99141265301539,4.12851788941986,0.631491682819459,0.15363261,0.21044308,0.26267207,323.20877,-72.33613,4.102291,WAL
8482477874000,3.994972,-2.79384922397974,4.17690089716143,0.474247353927172,0.18142697,0.2687807,0.22632557,323.35226,-72.387535,3.908608,WAL
8482482835000,3.999933,-2.58183051982857,4.19333890942857,0.335346946,0.2003638,0.31978795,0.17806722,323.49207,-72.49049,3.7176335,WAL
8482487886000,4.004984,-2.38834070831429,4.12884220938095,0.275457239,0.22388211,0.3866777,0.10903945,323.6197,-72.605034,3.5039756,WAL
8482492837000,4.009935,-2.2290908364528,4.05919611969759,0.255767663277483,0.2669481,0.45234573,0.025045475,323.74054,-72.761284,3.3023682,WAL
8482497869000,4.014967,-2.1749331910094,3.96565114715979,0.373929886187168,0.31764993,0.49663344,-0.06841691,323.8581,-72.92781,3.0747933,WAL
8482502824000,4.019922,-2.14705875151145,3.85457753443257,0.50032942458626,0.3827071,0.49388456,-0.17287487,323.96954,-73.111206,2.852444,WAL
8482507889000,4.024987,-2.19149217929771,3.68671781524682,0.658315033242748,0.46486846,0.44593164,-0.27275133,324.09137,-73.313896,2.6060073,WAL
8482512928000,4.030026,-2.21434337961117,3.56018765615316,0.763154171844469,0.58032197,0.38759398,-0.38820487,324.23965,-73.50383,2.352683,WAL
8482517891000,4.034989,-2.19089047405507,3.52266290930623,0.753773009622027,0.74281216,0.34269542,-0.48716503,324.40704,-73.728584,2.079978,WAL
8482522859000,4.039957,-2.13591590545657,3.53478013496659,0.738405906681515,0.9370673,0.33169982,-0.5693264,324.61667,-73.94028,1.7993281,WAL
8482527887000,4.044985,-1.99739343229399,3.67777111714922,0.707126670155902,1.0430524,0.34513888,-0.6026186,324.83847,-74.168564,1.5071168,WAL
8482532867000,4.049965,-1.82749162653955,3.85301259028354,0.69064324637042,1.2999213,0.40286562,-0.68600166,325.07617,-74.49197,1.1944987,WAL
8482537886000,4.054984,-1.42103075350356,4.27142817040292,0.778311286947438,1.5607607,0.48624873,-0.74464476,325.30563,-74.83717,0.8765882,WAL
8482543209000,4.060307,-0.989950612604875,4.71518711301608,0.871289366244404,1.8258762,0.5879578,-0.8020661,325.5215,-75.25767,0.5636722,WAL
8482547883000,4.064981,-0.270907692874096,5.47970196712012,1.15093444487603,2.026851,0.70280045,-0.8246681,325.71423,-75.71908,0.23753072,WAL
8482552916000,4.070014,0.617294252483357,6.42835749698987,1.51830588068114,2.1875083,0.79779,-0.8072584,325.88806,-76.22627,-0.098294996,WAL
8482557884000,4.074982,2.54038808699738,8.60072087101994,3.11078725039228,2.271197,0.82436264,-0.76144356,326.00967,-76.73676,-0.34063378,WAL
8482564179000,4.081277,5.7084084442424,12.2170925454642,5.98811841364008,2.2568417,0.6429357,-0.6133087,326.15634,-77.24628,-0.54040915,WAL
8482567822000,4.08492,7.38712148751334,14.0677875991462,7.6087229886873,1.9920316,0.51159966,-0.5323691,326.16754,-77.662415,-0.5669628,WAL
8482572891000,4.089989,9.07090696008538,15.6220506545358,9.67589364759872,1.8267925,0.21563543,-0.3109304,326.25586,-78.090195,-0.49163282,WAL
8482577843000,4.094941,10.2940672589241,16.8857559715621,11.4891496389579,1.393689,-0.13927728,-0.019547688,326.0142,-77.97521,0.28308856,WAL
8482582905000,4.100003,10.6025668902257,17.6088015420105,12.8822173742667,0.8881981,-0.42943826,0.31031954,325.83813,-77.76182,1.0860207,WAL
8482587829000,4.104927,10.62506825,18.2049105416667,13.8414785208333,0.34330627,-0.602924,0.6105598,325.59918,-77.15172,2.195591,WAL
8482592896000,4.109994,9.98607055306604,18.5625592792846,13.8843961502555,-0.14844026,-0.6536258,0.8445212,325.41367,-76.4005,3.2819057,WAL
8482597865000,4.114963,9.27076428608365,18.5198916608365,13.7768444319392,-0.5635232,-0.4831944,1.0436633,325.17947,-75.39899,4.3798223,WAL
8482602891000,4.119989,8.3053582621673,17.403497621673,13.2598262138783,-0.81183994,-0.28588495,1.219287,324.95007,-74.341705,5.438877,WAL
8482607922000,4.12502,7.34063328444105,16.120735734997,12.5385762153467,-0.8304713,-0.27214047,1.2739595,324.75635,-73.34108,6.346299,WAL
8482612966000,4.130064,6.38116763758594,14.0541942495544,10.8533604448689,-0.7150178,-0.36713,1.1972959,324.53784,-72.36186,7.19723,WAL
8482617907000,4.135005,5.4412945683728,12.0298521639929,9.20255728826076,-0.5323691,-0.4184427,1.0180069,324.33786,-71.49777,7.8879733,WAL
8482622892000,4.13999,3.99076678732421,10.0931667362743,6.9971548223849,-0.37720928,-0.47891834,0.89736104,324.16125,-70.694244,8.550516,WAL
8482627857000,4.144955,2.43359004016567,8.18791536910037,4.67970974821807,-0.30604348,-0.571159,0.6215554,324.03088,-69.990616,9.101731,WAL
8482632898000,4.149996,0.897392083887368,7.12107132397341,2.28007759882675,-0.19364429,-0.79473567,0.39370266,324.01895,-69.4933,9.552113,WAL
8482637895000,4.154993,-0.609198432792335,6.37713371517403,-0.11549475408682,-0.061391957,-1.0940597,0.2773328,324.05908,-69.05083,9.964393,WAL
8482642870000,4.159968,-2.09207469955626,5.57688599013904,-2.07310522013608,0.11728613,-1.3411547,0.25961772,324.2655,-68.9149,10.191993,WAL
8482647906000,4.165004,-3.58540294288532,4.73986117522927,-3.86129451618184,0.3304781,-1.3918564,0.21319197,324.5068,-68.84258,10.38485,WAL
8482652894000,4.169992,-4.72913235628272,4.25187158068063,-4.80844944534031,0.4896085,-1.3377949,0.19058995,324.95895,-69.096344,10.407224,WAL
8482657896000,4.174994,-5.70726036204188,3.93418897380454,-5.34349391856894,0.59315014,-1.2134838,0.17684549,325.4097,-69.39784,10.409505,WAL
8482662905000,4.180003,-6.62904659266911,3.77819939026744,-5.57563518001049,0.7110472,-0.98837996,0.18875736,325.96872,-69.99096,10.213385,WAL
8482667905000,4.185003,-7.45264192565286,3.89370363777661,-5.29942946422653,0.8509353,-0.5491679,0.2171626,326.43155,-70.62271,9.97874,WAL
