timestamp,rel_time,acc_x,acc_y,acc_z,gyro_x,gyro_y,gyro_z,azimuth,pitch,roll,label
2209615597000,0,-0.716412244381782,9.82682765765203,-1.87304562669168,-0.082161374,-0.0015271631,0.024740042,314.5568,-98.85736,-3.165266,STD
2209620550000,0.004953,-0.72138892502528,9.82161401121126,-1.88015517223566,-0.08399397,-0.002443461,0.025350908,314.51105,-98.92636,-3.1381867,STD
2209625547000,0.00995,-0.726409816035892,9.81635404931653,-1.88732787546264,-0.08460484,0.002443461,0.025045475,314.46338,-98.99134,-3.1093938,STD
2209630559000,0.014962,-0.731445778762565,9.81107829806251,-1.89452210971792,-0.092240654,-0.0015271631,0.033292156,314.41998,-99.05189,-3.0793602,STD
2209635575000,0.019978,-0.736485760613521,9.80579833631268,-1.90172208558075,-0.086132,0.0036651916,0.026572637,314.37314,-99.116295,-3.0539892,STD
2209640547000,0.02495,-0.741481532097364,9.80056469001679,-1.90885890376057,-0.10354166,0.006414085,0.032986723,314.33008,-99.16908,-3.0238101,STD
2209645550000,0.029953,-0.7465084517944,9.79529841237835,-1.91604021939887,-0.09621128,0.01160644,0.020158553,314.28488,-99.231445,-3.0015569,STD
2209650724000,0.035127,-0.751707189054537,9.78985213604389,-1.92346698875977,-0.10293079,0.011301007,0.016493361,314.24225,-99.28269,-2.9759157,STD
2209655572000,0.039975,-0.756578367685605,9.78474901511821,-1.93042581710566,-0.106901415,0.009468411,0.018936822,314.19943,-99.33607,-2.9528105,STD
2209660565000,0.044968,-0.761595239571934,9.7794932637193,-1.93759277872509,-0.11148291,0.011911872,0.020463986,314.1564,-99.386665,-2.931572,STD
2209665607000,0.05001,-0.76666134573073,9.77418593374668,-1.94483007503697,-0.10323623,0.010079277,0.015882496,314.11603,-99.43882,-2.9123712,STD
2209670555000,0.054958,-0.771633002468874,9.76897755042567,-1.95193244357151,-0.10781772,-0.0021380284,0.013439035,314.07916,-99.48476,-2.8932064,STD
2209675544000,0.059947,-0.77664585523092,9.76372600952257,-1.9590936635834,-0.09285152,-0.003970624,0.009162978,314.04062,-99.537636,-2.8761685,STD
2209680543000,0.064946,-0.781668755803673,9.75846394237994,-1.96626923761416,-0.093462385,-0.00580322,0.005497787,314.00644,-99.58402,-2.8608387,STD
2209685580000,0.069983,-0.786729838057115,9.75316187552709,-1.97349935691661,-0.093462385,-0.017104227,0.00061086525,313.97614,-99.63389,-2.8482041,STD
2209690541000,0.074944,-0.79171455694918,9.74793980809469,-1.98062038567567,-0.089186326,-0.01863139,-0.0018325958,313.94446,-99.68364,-2.8361237,STD
2209695520000,0.079923,-0.796717361900517,9.74269879343112,-1.9877672516687,-0.09315695,-0.014660766,0.0021380284,313.91534,-99.72983,-2.8243988,STD
2209700523000,0.084926,-0.801744281597554,9.73743251579268,-1.994948567307,-0.08002335,-0.0076358155,0.0027488936,313.88632,-99.78114,-2.8147361,STD
2209705582000,0.089985,-0.806827469034553,9.73210729121286,-2.00221026545095,-0.07574729,0.002443461,0.005497787,313.85645,-99.82727,-2.8035243,STD
2209710568000,0.094971,-0.811837307453386,9.72685890818162,-2.00936717925718,-0.077579886,0.0070249503,-0.0036651916,313.82645,-99.87502,-2.7959464,STD
2209715682000,0.100085,-0.816975757849278,9.72147578928436,-2.01670782450489,-0.07544186,0.015882496,0.0012217305,313.79407,-99.922424,-2.7834728,STD
2209720559000,0.104962,-0.821876075131398,9.71634214226403,-2.02370827950549,-0.08552113,0.025350908,-0.004886922,313.76022,-99.96633,-2.7768838,STD
2209725557000,0.10996,-0.82689797092308,9.71108112774536,-2.03088241813436,-0.0711658,0.03634648,-0.0070249503,313.72485,-100.015594,-2.7677464,STD
2209730549000,0.114952,-0.831913838028338,9.7058264289704,-2.03804794435191,-0.07880162,0.048563786,0.0018325958,313.68768,-100.05447,-2.7570999,STD
2209735586000,0.119989,-0.83697492028178,9.70052436211755,-2.04527806365435,-0.06261369,0.040927973,0.00030543262,313.6535,-100.10358,-2.7507885,STD
2209740552000,0.124955,-0.841964663079198,9.69529703156538,-2.05240626942285,-0.069027774,0.05100725,-0.0027488936,313.61237,-100.14256,-2.7413774,STD
2209745546000,0.129949,-0.846982539746598,9.69004022754252,-2.05957466644417,-0.06963864,0.04917465,-0.00030543262,313.57797,-100.186035,-2.7322125,STD
2209750619000,0.135022,-0.852079794118587,9.68470026622734,-2.06685646021453,-0.07849618,0.054367006,-0.002443461,313.5395,-100.224846,-2.724744,STD
2209755559000,0.139962,-0.857043412608166,9.67950030389796,-2.07394734553398,-0.06811147,0.060170226,-0.004886922,313.5025,-100.26744,-2.7171094,STD
2209760549000,0.144952,-0.862057270151282,9.67424771037091,-2.08111000094776,-0.06719518,0.06963864,-0.00580322,313.46405,-100.30393,-2.7095332,STD
2209766609000,0.151012,-0.868146243440117,9.66786880921381,-2.08980853638012,-0.058337633,0.08735373,-0.011301007,313.42236,-100.34485,-2.7035723,STD
2209770577000,0.15498,-0.872133214728911,9.66369199736705,-2.09550421106587,-0.07391469,0.09590584,-0.009162978,313.38205,-100.37761,-2.695996,STD
2209775541000,0.159944,-0.877120947964188,9.65846677206279,-2.1026295460306,-0.06536258,0.09560041,-0.007330383,313.3402,-100.41871,-2.6898863,STD
2209780543000,0.164946,-0.882146862880154,9.6532015470483,-2.10980942626701,-0.062002823,0.09743301,-0.01282817,313.29633,-100.45334,-2.6849496,STD
2209785579000,0.169982,-0.887206940352525,9.6479005328194,-2.11703811016757,-0.05375614,0.10323623,-0.016187929,313.25287,-100.49027,-2.6789773,STD
2209790580000,0.174983,-0.89223185048742,9.64263636042887,-2.1242165550021,-0.045814894,0.118507855,-0.017104227,313.20728,-100.52716,-2.6735187,STD
2209795534000,0.179937,-0.897209535911989,9.63742166136414,-2.13132753594796,-0.040927973,0.12675454,-0.026267206,313.16266,-100.56517,-2.6715975,STD
2209800652000,0.185055,-0.901737120841181,9.63487490585741,-2.12723249185697,-0.03940081,0.12217305,-0.028710667,313.119,-100.60282,-2.6681273,STD
2209805550000,0.189953,-0.905239262028789,9.63627576584307,-2.10785398154379,-0.03023783,0.11942416,-0.029321533,313.0735,-100.64325,-2.6663477,STD
2209810560000,0.194963,-0.908821484844207,9.63770865856014,-2.08803235298744,-0.040927973,0.1255328,-0.030543262,312.97388,-100.73075,-2.6854901,STD
2209815590000,0.199993,-0.912418007950306,9.63914727140781,-2.06813159617337,-0.04153884,0.113926366,-0.02443461,312.88165,-100.821236,-2.7030885,STD
2209820558000,0.204961,-0.915970200155295,9.6405681518506,-2.04847613695821,-0.03390302,0.103847094,-0.026267206,312.7881,-100.9099,-2.722171,STD
2209825541000,0.209944,-0.919533117578294,9.64199332239134,-2.02876133154976,-0.015882496,0.101098195,-0.020463986,312.69775,-100.9985,-2.7369826,STD
2209830542000,0.214945,-0.923108905262906,9.64342364104964,-2.00897531070938,-0.023823744,0.09254608,-0.015882496,312.61304,-101.08042,-2.7528894,STD
2209836080000,0.220483,-0.927068655752285,9.64500754521473,-1.98706469614948,-0.019547688,0.076358154,-0.01282817,312.5328,-101.168526,-2.7676837,STD
2209840553000,0.224956,-0.930266915762936,9.64628685242499,-1.96936766131264,-0.02321288,0.06352998,-0.010995574,312.4555,-101.25014,-2.7813976,STD
2209845526000,0.229929,-0.933822683040596,9.64770916290043,-1.94969242003305,-0.01985312,0.053145275,-0.007330383,312.3836,-101.33271,-2.7941134,STD
2209850570000,0.234973,-0.93742921635017,9.64915177983953,-1.92973627343859,-0.02107485,0.035430185,-0.013439035,312.3181,-101.411804,-2.8098176,STD
2209855577000,0.23998,-0.941009294121986,9.650583814537,-1.90992651412089,-0.016187929,0.032986723,-0.013439035,312.287584141959,-101.449235786164,-2.81437293530997,STD
2209860587000,0.24499,-0.944591516937404,9.65201670725407,-1.89010488556454,-0.028405234,0.02107485,0.00061086525,312.25705,-101.48669,-2.818931,STD
2209865610000,0.250013,-0.948183034941764,9.65345331805603,-1.87023182364067,-0.023823744,0.016187929,-0.0021380284,312.19812,-101.564445,-2.8346226,STD
2209870564000,0.254967,-0.951725216943278,9.65487019440739,-1.85063175420591,-0.011911872,0.006414085,0.0021380284,312.14676,-101.639114,-2.845248,STD
2209875578000,0.259981,-0.955310299816831,9.65630423115058,-1.83079429999801,-0.005497787,-0.013744468,0.0061086523,312.10046,-101.71213,-2.8573864,STD
2209880510000,0.264913,-0.958836751498596,9.65771481535827,-1.81128127164672,-0.01038471,-0.013439035,0.0021380284,312.0519,-101.783905,-2.869795,STD
2209885584000,0.269987,-0.962464735244191,9.65916601249328,-1.7912064326657,-0.005497787,-0.026267206,0.0015271631,312.01395,-101.85804,-2.881922,STD
2209890563000,0.274966,-0.966024792609055,9.6605900390079,-1.77150745290879,-0.01740966,-0.026572637,0.0015271631,311.993913169876,-101.891977287405,-2.88849610743081,STD
2209895556000,0.279959,-0.969594860177394,9.66201806961395,-1.75175308337149,-0.013744468,-0.029932396,-0.0012217305,311.97382,-101.92601,-2.8950887,STD
2209900584000,0.284987,-0.973189953254425,9.66345611044856,-1.7318602393832,-0.01740966,-0.016187929,0.0021380284,311.93347,-101.99467,-2.9063067,STD
2209905683000,0.290086,-0.97683581236337,9.66491445774683,-1.71168649008004,-0.020463986,-0.01038471,-0.0033597588,311.89645,-102.06051,-2.9212837,STD
2209910522000,0.294925,-0.980295767693472,9.66629844334721,-1.6925414081271,-0.01160644,0.00030543262,-0.005497787,311.8554,-102.1267,-2.9331582,STD
2209915572000,0.299975,-0.98390659109025,9.66774277632548,-1.67256152305533,-0.020158553,0.0061086523,-0.005497787,311.833613908012,-102.155061219196,-2.93823742278759,STD
2209920545000,0.304948,-0.98746235836791,9.66916508680093,-1.65288628177574,-0.029321533,0.016798794,0.0012217305,311.81216,-102.18299,-2.9432392,STD
2209925559000,0.309962,-0.991047441241464,9.67059912354411,-1.63304882756784,-0.03481932,0.02687807,0.0036651916,311.76825,-102.24408,-2.954695,STD
2209930532000,0.314935,-0.994603208519123,9.67202143401955,-1.61337358628825,-0.031154128,0.029626964,0.00580322,311.72314,-102.30097,-2.9636781,STD
2209935580000,0.319983,-0.998212601886834,9.67346519498477,-1.59340161404225,-0.046120327,0.022907447,0.0036651916,311.67877,-102.34995,-2.9730206,STD
2209940545000,0.324948,-1.00176264904822,9.67488521740797,-1.57375802406574,-0.029932396,0.022602014,0.007941248,311.6334,-102.40668,-2.9793391,STD
2209945544000,0.329947,-1.00533700670376,9.6763149640532,-1.55397991605113,-0.04153884,0.0125227375,0.019242255,311.5939,-102.449974,-2.9851542,STD
2209950642000,0.335045,-1.00898215079818,9.67777302534494,-1.53381012316085,-0.041233405,0.00030543262,0.014966198,311.55542,-102.50057,-2.9942236,STD
2209955572000,0.339975,-1.01250717245087,9.67918303753957,-1.51430500763534,-0.039095376,-0.00061086525,0.017104227,311.5185,-102.54608,-2.9982564,STD
2209960506000,0.344909,-1.01603505416171,9.68059419376033,-1.49478406645828,-0.03481932,-0.0125227375,0.017715093,311.48856,-102.59154,-3.005288,STD
2209965587000,0.34999,-1.01966804300904,9.68204739294105,-1.47468153258705,-0.028099801,-0.013744468,0.023518313,311.4571,-102.63667,-3.0096567,STD
2209970559000,0.354962,-1.02322309527216,9.68346941740996,-1.45501024772035,-0.028099801,-0.0106901415,0.02321288,311.4281,-102.68041,-3.0160193,STD
2209975625000,0.360028,-1.02684535890149,9.68491832649272,-1.43496706004241,-0.024740042,-0.008246681,0.020463986,311.40054,-102.72563,-3.021604,STD
2209980551000,0.364954,-1.03036752049605,9.68632719466124,-1.41547777016844,-0.023518313,-0.01282817,0.016493361,311.37466,-102.76927,-3.0278997,STD
2209985573000,0.369976,-1.03395832348587,9.68776351945667,-1.39560866465746,-0.02687807,-0.025350908,0.010995574,311.35077,-102.81178,-3.0357606,STD
2209990498000,0.374901,-1.0374797700659,9.68917210161865,-1.37612333119637,-0.021685716,-0.040317107,0.014049901,311.3298,-102.85564,-3.0427747,STD
2209995554000,0.379957,-1.04109488354988,9.69061815063611,-1.35611970764728,-0.025350908,-0.051618114,0.010995574,311.31116,-102.895874,-3.0535252,STD
2210000576000,0.384979,-1.04163005829299,9.6922758146327,-1.34091704438981,-0.023823744,-0.06780604,0.0143553335,311.29913,-102.93736,-3.062836,STD
2210005587000,0.38999,-1.03175802850928,9.6946836249354,-1.34163938748062,-0.02687807,-0.07941248,0.009162978,311.2887,-102.97643,-3.0757449,STD
2210010576000,0.394979,-1.02192934030516,9.69708086412921,-1.34235855923876,-0.029932396,-0.09437868,0.014660766,311.23718,-102.9634,-3.08011,STD
2210015663000,0.400066,-1.01190758506475,9.69952519280808,-1.34309185784242,-0.035124753,-0.094989546,0.013439035,311.1839,-102.94977,-3.087412,STD
2210020585000,0.404988,-1.00221089167114,9.70189023817026,-1.34380137145108,-0.02687807,-0.09193522,0.016798794,311.13412,-102.938416,-3.0923815,STD
2210025563000,0.409966,-0.9924038742568,9.70428219180962,-1.34451895754289,-0.026572637,-0.07147124,0.021380283,311.0794,-102.92351,-3.096067,STD
2210030541000,0.414944,-0.982596856842459,9.70667414544898,-1.34523654363469,-0.03940081,-0.087964594,0.017104227,311.03363,-102.90768,-3.1031878,STD
2210035581000,0.419984,-0.972667694976594,9.70909589039522,-1.34596306711857,-0.028405234,-0.09285152,0.013133603,310.9791,-102.89822,-3.1068451,STD
2210040499000,0.424902,-0.96297888187018,9.7114590137376,-1.34667200412128,-0.018325957,-0.087964594,0.018325957,310.92664,-102.88469,-3.1094,STD
2210045537000,0.42994,-0.953053660147912,9.71387979767394,-1.34739823930218,-0.017715093,-0.07147124,0.016187929,310.87146,-102.87239,-3.1145198,STD
2210050644000,0.435047,-0.942992503471529,9.71633373645181,-1.34813442093554,-0.005192355,-0.055588737,0.02076942,310.81583,-102.86535,-3.1159127,STD
2210055509000,0.439912,-0.933408104170451,9.71867139303186,-1.34883571790956,-0.00061086525,-0.047036625,0.029626964,310.75775,-102.85608,-3.1160047,STD
2210060577000,0.44498,-0.923423780294219,9.72110659211669,-1.34956627763501,-0.00030543262,-0.0106901415,0.020463986,310.6868,-102.849884,-3.1170628,STD
2210065605000,0.450008,-0.91351825928994,9.72352257100353,-1.35029107130106,-0.008246681,0.02107485,0.020158553,310.61606,-102.84126,-3.1128967,STD
2210070587000,0.45499,-0.903703361588404,9.72591644666269,-1.35100923399881,0.008246681,0.0580322,0.014966198,310.53323,-102.84029,-3.1100266,STD
2210075587000,0.45999,-0.89385300259449,9.72831897141094,-1.35172999142328,0.011301007,0.07727446,0.008552114,310.4469,-102.83327,-3.106669,STD
2210080536000,0.464939,-0.884103117262314,9.73069699040676,-1.35244339712203,0.0125227375,0.08735373,0.012217305,310.35388,-102.829636,-3.1001794,STD
2210085580000,0.469983,-0.874166075109253,9.7331206573728,-1.35317049721184,0.018020526,0.092240654,0.014660766,310.25732,-102.82818,-3.0948868,STD
2210091186000,0.475589,-0.863121852605277,9.73581436812054,-1.35397861043616,0.016493361,0.07849618,0.014660766,310.210320599198,-102.827573338677,-3.09517698633267,STD
2210095560000,0.479963,-0.854504758557401,9.73791609677031,-1.35460912903109,0.022296581,0.0421497,0.002443461,310.17365,-102.8271,-3.0954034,STD
2210100662000,0.485065,-0.844453452240012,9.74036763302343,-1.35534458990703,0.00580322,-0.020158553,0.0021380284,310.09387,-102.82036,-3.092339,STD
2210105516000,0.489919,-0.83489072372872,9.74270000404903,-1.35604430121471,-0.01863139,-0.0720821,0.0015271631,310.02527,-102.813095,-3.0951009,STD
2210110576000,0.494979,-0.824922160426879,9.74513135909426,-1.35677370772828,-0.025961773,-0.10934488,0.0036651916,309.97073,-102.80563,-3.0999415,STD
2210115577000,0.49998,-0.815069831361166,9.74753436434746,-1.35749460930424,-0.02321288,-0.12797627,0.008552114,309.92596,-102.79403,-3.1059885,STD
2210120563000,0.504966,-0.805247053372436,9.74993016202642,-1.35821334860793,-0.028099801,-0.11056661,0.018936822,309.88217,-102.777824,-3.1097167,STD
2210125506000,0.509909,-0.795508988471052,9.75230529799254,-1.35892588939776,-0.0290161,-0.08093964,0.023823744,309.84024,-102.76363,-3.1137762,STD
2210130547000,0.51495,-0.785577856533388,9.75472752344373,-1.35965255703312,-0.02107485,-0.048563786,0.028099801,309.7934,-102.74997,-3.1137147,STD
2210135571000,0.519974,-0.775680215816303,9.75714158031078,-1.36037677409323,-0.025045475,0.00580322,0.027183503,309.7324,-102.73285,-3.1104743,STD
2210140561000,0.524964,-0.765849557540377,9.75953930000953,-1.36109609000286,-0.016493361,0.04520403,0.024740042,309.66714,-102.72123,-3.1053607,STD
2210145552000,0.529955,-0.756016929192653,9.76193750021324,-1.36181555006397,-0.03023783,0.08857546,0.03268129,309.58685,-102.70161,-3.0940268,STD
2210150578000,0.534981,-0.74611534833197,9.76435251809018,-1.36254005542705,-0.021991149,0.10415252,0.040011674,309.50403,-102.69055,-3.0828636,STD
2210155602000,0.540005,-0.736217707614886,9.76676657495723,-1.36326427248717,-0.02565634,0.118507855,0.034208454,309.41016,-102.67264,-3.0706701,STD
2210161366000,0.545769,-0.724862213766702,9.76953620548701,-1.3640951616461,-0.026267206,0.13530666,0.03176499,309.31308,-102.65695,-3.0545578,STD
2210165536000,0.549939,-0.716647014365777,9.77153991112706,-1.36469627333812,-0.024740042,0.13133603,0.03145956,309.2188,-102.64097,-3.0399978,STD
2210170569000,0.554972,-0.706731643002504,9.77395829253865,-1.36542178776159,-0.027794369,0.13805555,0.038179077,309.11847,-102.62307,-3.0226095,STD
2210175541000,0.559944,-0.696936446018956,9.77634736314831,-1.36613850894449,-0.030543262,0.1255328,0.031154128,309.02505,-102.60649,-3.0106997,STD
2210180541000,0.564944,-0.687086087025042,9.77874988789656,-1.36685926636897,-0.045814894,0.10567969,0.030543262,308.93396,-102.584564,-2.995326,STD
2210185576000,0.569979,-0.677166775518171,9.78116923031805,-1.36758506909542,-0.062308256,0.053450707,0.03481932,308.85657,-102.56157,-2.9833875,STD
2210190472000,0.574875,-0.66752130399133,9.78352178255154,-1.36829083476546,-0.07819075,-0.007330383,0.025350908,308.78745,-102.535515,-2.9772696,STD
2210195536000,0.579939,-0.657544860402294,9.78595505961657,-1.36902081788497,-0.0870483,-0.06078109,0.030848695,308.73297,-102.50571,-2.9685345,STD
2210200646000,0.585049,-0.652680900374701,9.78613012518395,-1.37659115475259,-0.099265605,-0.09162979,0.026572637,308.68866,-102.472206,-2.9674075,STD
2210205551000,0.589954,-0.656442863466709,9.7826032861662,-1.39493073237564,-0.1020145,-0.1151481,0.031154128,308.65845,-102.43837,-2.9649553,STD
2210210582000,0.594985,-0.660301464142733,9.77898584944891,-1.4137414184147,-0.10934488,-0.13958271,0.03604105,308.57507,-102.4018,-2.9284222,STD
2210215589000,0.599992,-0.664141657659896,9.7753856694363,-1.43246236951738,-0.12980886,-0.13927728,0.03390302,308.49173,-102.36145,-2.893117,STD
2210220555000,0.604958,-0.667950405614007,9.7718149696275,-1.45103002343708,-0.1282817,-0.1282817,0.03970624,308.41345,-102.32482,-2.8556337,STD
2210225549000,0.609952,-0.671780628586788,9.76822413699659,-1.46970236811588,-0.12767084,-0.11636983,0.04153884,308.33493,-102.283264,-2.8203363,STD
2210231111000,0.615514,-0.676046487652588,9.76422489568839,-1.4904984396224,-0.12736541,-0.10629055,0.03848451,308.25443,-102.24257,-2.7848504,STD
2210235575000,0.619978,-0.679470219200545,9.76101514861902,-1.50718913778943,-0.12186762,-0.10476339,0.040317107,308.17392,-102.2036,-2.7479253,STD
2210240542000,0.624945,-0.683279734119608,9.75744372978087,-1.52576053066481,-0.1160644,-0.111177474,0.039095376,308.09305,-102.165726,-2.7132063,STD
2210245525000,0.629928,-0.687101520477911,9.75386080647293,-1.54439174683111,-0.11789699,-0.13225232,0.03268129,308.01636,-102.12793,-2.6808236,STD
2210250642000,0.635045,-0.69102608013985,9.75018153323056,-1.56352398305887,-0.13408493,-0.15210545,0.025961773,307.94168,-102.08828,-2.649777,STD
2210255553000,0.639956,-0.694792645021573,9.74665038003664,-1.58188599441603,-0.13500121,-0.16615535,0.01985312,307.87152,-102.05318,-2.6217673,STD
2210260564000,0.644967,-0.698635906398546,9.74304732390658,-1.60062190134144,-0.1432479,-0.1908954,0.02107485,307.8105,-102.01201,-2.59582,STD
2210265605000,0.650008,-0.702502176724095,9.73942269689568,-1.61946997693732,-0.14721853,-0.2144137,0.017104227,307.75284,-101.973,-2.5741599,STD
2210270554000,0.654957,-0.706297886274013,9.73586422058603,-1.63797406861041,-0.15454891,-0.23945917,0.019242255,307.70334,-101.93089,-2.5523171,STD
2210275559000,0.659962,-0.710136545861272,9.73226547863214,-1.65668754180173,-0.15454891,-0.2556471,0.023518313,307.6581,-101.890465,-2.5321226,STD
2210280548000,0.664951,-0.71396293400929,9.72867824114803,-1.67534119170212,-0.14813483,-0.24953845,0.028710667,307.61398,-101.850266,-2.5115151,STD
2210285540000,0.669943,-0.717791623052166,9.72508884657584,-1.69400605846956,-0.1459968,-0.23457226,0.024740042,307.57172,-101.80986,-2.4929872,STD
2210290542000,0.674945,-0.721627981744567,9.72149226171003,-1.71270831479383,-0.116675265,-0.19853121,0.025350908,307.52252,-101.77892,-2.4704883,STD
2210295526000,0.679929,-0.725450535067823,9.71790861937273,-1.73134326991581,-0.105068825,-0.17562376,0.022907447,307.47256,-101.74464,-2.450174,STD
2210300666000,0.685069,-0.729392734923668,9.71421280845505,-1.75056150212427,-0.08399397,-0.15699236,0.0076358155,307.41342,-101.72232,-2.4318452,STD
2210305575000,0.689978,-0.733157765875487,9.71068309331985,-1.76891603557006,-0.06811147,-0.14996742,0.0070249503,307.35236,-101.70134,-2.4098067,STD
2210310563000,0.694966,-0.736983387058553,9.70709657486511,-1.78756594651477,-0.062002823,-0.14966199,-0.0033597588,307.2872,-101.68513,-2.3944132,STD
2210315572000,0.699975,-0.740825114505621,9.70349495679377,-1.80629437552882,-0.04337143,-0.1469131,-0.011301007,307.2202,-101.67677,-2.37827,STD
2210320556000,0.704959,-0.744647667828877,9.69991131445647,-1.8249293306508,-0.04153884,-0.16890424,-0.015577064,307.16046,-101.66577,-2.3656282,STD
2210325560000,0.709963,-0.748485560451183,9.69631329153194,-1.84363906488643,-0.025350908,-0.1863139,-0.021380283,307.09894,-101.66444,-2.3554237,STD
2210330533000,0.714936,-0.752299677159961,9.69273755851761,-1.8622328914959,-0.020463986,-0.20158553,-0.025961773,307.04352,-101.660484,-2.347337,STD
2210335588000,0.719991,-0.756176684994845,9.68910286509565,-1.88113331247134,-0.013439035,-0.22418754,-0.025350908,306.99564,-101.6615,-2.3409388,STD
2210340552000,0.724955,-0.75998389901905,9.68553360334558,-1.89969348847967,-0.0012217305,-0.22204952,-0.025045475,306.94537,-101.665405,-2.335451,STD
2210345560000,0.729963,-0.763824859501166,9.68193270430361,-1.91841817853804,-0.0070249503,-0.21777347,-0.025961773,306.90137,-101.666046,-2.3313494,STD
2210350636000,0.735039,-0.767717973600052,9.67828291126505,-1.93739711758281,-0.0033597588,-0.22082779,-0.033292156,306.85895,-101.67282,-2.3293414,STD
2210355558000,0.739961,-0.771492975096253,9.67474384874816,-1.95580025745247,-0.0076358155,-0.20066923,-0.029626964,306.80988,-101.674904,-2.323008,STD
2210360576000,0.744979,-0.775341605227894,9.67113575941257,-1.97456233706766,-0.004276057,-0.17134771,-0.019547688,306.75958,-101.679955,-2.3165994,STD
2210365591000,0.749994,-0.779187934464677,9.66752982716507,-1.9933131998158,-0.007941248,-0.14935656,-0.030848695,306.70526,-101.68256,-2.3144956,STD
2210370547000,0.75495,-0.782989012769263,9.66396631764989,-2.01184346417867,-0.003970624,-0.13652839,-0.01863139,306.64795,-101.68604,-2.3019457,STD
2210375551000,0.759954,-0.786826905391569,9.66036829472536,-2.0305531984143,-0.008857546,-0.11209377,-0.016493361,306.5808,-101.68691,-2.2935665,STD
2210380532000,0.764935,-0.790647157819967,9.65678680947614,-2.04917693666924,-0.019547688,-0.10934488,-0.019242255,306.5175,-101.686516,-2.2838068,STD
2210385582000,0.769985,-0.794520330830088,9.65315571120099,-2.06805866286627,-0.008246681,-0.102319926,-0.0036651916,306.44824,-101.68945,-2.266865,STD
2210390499000,0.774902,-0.798291497501527,9.6496202438309,-2.08644310795751,-0.018020526,-0.09315695,0.0015271631,306.3779,-101.68397,-2.2534947,STD
2210395582000,0.779985,-0.80218998035508,9.64596541758682,-2.10544821969207,-0.018936822,-0.09773844,0.002443461,306.31104,-101.68321,-2.237624,STD
2210400541000,0.784944,-0.805217131412951,9.64413201013404,-2.11322157019627,-0.03604105,-0.09621128,0.005192355,306.2414,-101.674515,-2.2192342,STD
2210405589000,0.789992,-0.807139317926671,9.64485281966472,-2.10505227425138,-0.028405234,-0.09865474,0.017715093,306.1757,-101.67172,-2.1986375,STD
2210410440000,0.794843,-0.808986490426286,9.64554549934643,-2.09720178799372,-0.04428773,-0.09896017,0.021991149,306.06168,-101.748505,-2.1965327,STD
2210415982000,0.800385,-0.811096783147965,9.64633684768617,-2.08823304034582,-0.04734206,-0.1001819,0.02321288,305.9507,-101.8286,-2.1920536,STD
2210420432000,0.804835,-0.812791262146787,9.64697226813218,-2.08103150172562,-0.064751714,-0.10262536,0.02076942,305.8418,-101.89835,-2.1875837,STD
2210425425000,0.809828,-0.814692505661645,9.64768522415173,-2.07295121356143,-0.07360926,-0.112399206,0.027794369,305.73743,-101.96736,-2.1807194,STD
2210430439000,0.814842,-0.816601745594251,9.64840117878461,-2.06483694060824,-0.076052725,-0.10720685,0.024129177,305.6303,-102.03234,-2.1768832,STD
2210435422000,0.819825,-0.818499181291134,9.64911270689304,-2.0567728356769,-0.07971791,-0.1142318,0.028405234,305.53165,-102.092186,-2.170296,STD
2210440430000,0.824833,-0.820406136532954,9.64982780477925,-2.04866827266343,-0.09315695,-0.124311075,0.032375857,305.43356,-102.14728,-2.1648414,STD
2210445410000,0.829813,-0.822302429884445,9.65053890451435,-2.04060902270195,-0.09285152,-0.12339478,0.027488936,305.33548,-102.20402,-2.1605916,STD
2210450523000,0.834926,-0.824249367215002,9.65126899546726,-2.0323345357435,-0.08857546,-0.124311075,0.026572637,305.24255,-102.256355,-2.1549869,STD
2210455486000,0.839889,-0.826139187275935,9.65197766775346,-2.02430279727787,-0.08155051,-0.1151481,0.029626964,305.14777,-102.30829,-2.1491003,STD
2210460480000,0.844883,-0.828040811572591,9.65269076656412,-2.0162208907904,-0.086437434,-0.11209377,0.034208454,305.05634,-102.356735,-2.143583,STD
2210465550000,0.849953,-0.829971375285856,9.65341471749924,-2.00801599173322,-0.09560041,-0.11148291,0.03756821,304.96448,-102.40453,-2.137279,STD
2210470529000,0.854932,-0.831867287855549,9.65412567444323,-1.99995836009503,-0.10781772,-0.1001819,0.03573562,304.8701,-102.44884,-2.130494,STD
2210475481000,0.859884,-0.83375291931671,9.6548327760272,-1.99194442318554,-0.10048734,-0.101098195,0.03634648,304.7806,-102.49459,-2.1229618,STD
2210480528000,0.864931,-0.835674725048632,9.65555344276676,-1.98377674556393,-0.103847094,-0.09040806,0.03756821,304.68604,-102.53282,-2.1145377,STD
2210486147000,0.87055,-0.837814337968718,9.65635578602208,-1.97468338702306,-0.11056661,-0.10751228,0.03970624,304.60095,-102.57097,-2.1076145,STD
2210490495000,0.874898,-0.839469977224196,9.65697664177473,-1.96764691737797,-0.09437868,-0.10140363,0.040011674,304.50772,-102.61355,-2.098956,STD
2210495492000,0.879895,-0.841372743866245,9.65769016895871,-1.95956015592064,-0.092240654,-0.08277224,0.030543262,304.41656,-102.6496,-2.0928833,STD
2210500619000,0.885022,-0.843325012141966,9.65842225898719,-1.9512630124362,-0.1001819,-0.06566802,0.03359759,304.3263,-102.68565,-2.0831146,STD
2210505505000,0.889908,-0.845185512004493,9.65911993635781,-1.94335588486355,-0.1001819,-0.059253927,0.029932396,304.2342,-102.72421,-2.077509,STD
2210510603000,0.895006,-0.847126737608087,9.65984788544406,-1.93510567275438,-0.093462385,-0.049785517,0.032986723,304.13852,-102.760895,-2.0680635,STD
2210515592000,0.899995,-0.849026457995756,9.66056027029915,-1.92703185788333,-0.103847094,-0.035124753,0.027794369,304.04034,-102.79225,-2.0613515,STD
2210520557000,0.90496,-0.850917039620284,9.66126922816757,-1.91899688277113,-0.09743301,-0.014049901,0.027794369,303.93976,-102.82879,-2.051486,STD
2210525517000,0.90992,-0.852805717335825,9.66197747208044,-1.91096999927536,-0.09987647,-0.0106901415,0.031154128,303.8415,-102.85896,-2.0424523,STD
2210530541000,0.914944,-0.854718765086405,9.66269485462443,-1.90283954308932,-0.09743301,0.0036651916,0.035430185,303.736,-102.891235,-2.031271,STD
2210535586000,0.919989,-0.856639809254733,9.66341523578177,-1.89467510211428,-0.10415252,0.016798794,0.021685716,303.6306,-102.91987,-2.0242195,STD
2210540517000,0.92492,-0.858517444298147,9.66411933875241,-1.88669514999379,-0.099265605,0.022296581,0.026572637,303.52652,-102.950424,-2.0105338,STD
2210545553000,0.929956,-0.860435061430297,9.66483843478974,-1.87854527392832,-0.099265605,0.029626964,0.027794369,303.41885,-102.9775,-2.00088,STD
2210550637000,0.93504,-0.862370956088726,9.66556438480043,-1.87031771834515,-0.087659165,0.03634648,0.03359759,303.3122,-103.007835,-1.9884194,STD
2210555566000,0.939969,-0.864247829568545,9.66626820218884,-1.86234100287123,-0.09682214,0.035430185,0.032070424,303.207,-103.03159,-1.9778484,STD
2210560532000,0.944935,-0.866138791974871,9.66697730284837,-1.85430440943574,-0.0888809,0.03940081,0.024129177,303.1003,-103.06249,-1.9669188,STD
2210565593000,0.949996,-0.868065928651958,9.66769996866349,-1.84611407528814,-0.0842994,0.03756821,0.018020526,302.99725,-103.0889,-1.9565308,STD
2210570525000,0.954928,-0.86994394447717,9.66840421442523,-1.83813250484436,-0.08277224,0.033292156,0.029321533,302.89612,-103.1153,-1.9435407,STD
2210575526000,0.959929,-0.871848234246408,9.66911831277367,-1.83003927009389,-0.076358154,0.030543262,0.028710667,302.79565,-103.14421,-1.9357055,STD
2210580539000,0.964942,-0.873757093397216,9.66983412461544,-1.82192661546398,-0.0711658,0.033292156,0.03145956,302.69748,-103.17163,-1.9238827,STD
2210585577000,0.96998,-0.875675472092961,9.670553506235,-1.81377350275195,-0.08032878,0.032986723,0.024129177,302.60187,-103.196304,-1.915591,STD
2210590622000,0.975025,-0.877596516261288,9.67127388739234,-1.80560906177691,-0.056199603,0.027183503,0.031154128,302.5098,-103.2302,-1.9028972,STD
2210595638000,0.980041,-0.879506517757489,9.67199012760744,-1.79749155217715,-0.057726767,0.015577064,0.02687807,302.41983,-103.25413,-1.8959503,STD
2210600656000,0.985059,-0.882081943906611,9.67283997735298,-1.79037710941592,-0.054061573,0.0061086523,0.015577064,302.33246,-103.28538,-1.8894379,STD
2210605474000,0.989877,-0.887389811739639,9.67422464208905,-1.78783856382579,-0.05589417,0.0067195175,0.01740966,302.24756,-103.31335,-1.8806989,STD
2210610429000,0.994832,-0.892848608981784,9.67564867981574,-1.78522783460223,-0.044593163,0.004886922,0.015271631,302.11536,-103.32568,-1.8771076,STD
2210615457000,0.99986,-0.898387828463824,9.67709369731117,-1.7825786425667,-0.038179077,0.0021380284,0.006414085,301.98404,-103.33573,-1.8748132,STD
2210620431000,1.004834,-0.903867557521832,9.67852319552561,-1.77995790247427,-0.031154128,0.006414085,0.0067195175,301.85297,-103.34824,-1.8700808,STD
2210625427000,1.00983,-0.90937152341926,9.67995901641009,-1.77732557084946,-0.025045475,0.009468411,-0.0033597588,301.723,-103.36245,-1.870788,STD
2210630455000,1.014858,-0.914910742901299,9.68140403390551,-1.77467637881393,-0.028099801,0.004581489,-0.005497787,301.5958,-103.37502,-1.8693101,STD
2210635436000,1.019839,-0.920398183680941,9.6828355438786,-1.77205195050666,-0.022602014,0.01038471,-0.0076358155,301.4654,-103.39145,-1.8695546,STD
2210640429000,1.024832,-0.925898844554812,9.6842705025808,-1.76942119954536,-0.011911872,0.016187929,-0.0143553335,301.33722,-103.408066,-1.8717978,STD
2210645412000,1.029815,-0.931388488683492,9.68570258734208,-1.76679571746241,-0.0067195175,0.013439035,-0.017715093,301.21118,-103.423935,-1.8736925,STD
2210650538000,1.034941,-0.937035672268403,9.68717576945853,-1.76409489041903,-0.008246681,0.0125227375,-0.016187929,301.0843,-103.440254,-1.8753719,STD
2210655503000,1.039906,-0.942505486255739,9.68860268112615,-1.76147889231712,-0.0125227375,0.014966198,-0.021685716,300.9579,-103.45691,-1.8796706,STD
2210660491000,1.044894,-0.948000638757015,9.69003620285789,-1.758850775795,-0.003970624,0.0015271631,-0.010995574,300.83875,-103.4753,-1.8799216,STD
2210665586000,1.049989,-0.953613670431834,9.69150047575748,-1.75616628227451,0.0076358155,0.006414085,-0.004581489,300.71454,-103.49305,-1.8812646,STD
2210670561000,1.054964,-0.959094501164361,9.69293026136602,-1.75354501529424,0.0009162979,0.011911872,-0.0021380284,300.59573,-103.50703,-1.881403,STD
2210675576000,1.059979,-0.964619398877652,9.69437154273825,-1.75090267280057,0.009162978,0.022296581,-0.0018325958,300.47583,-103.527596,-1.8795835,STD
2210680544000,1.064947,-0.970092517888545,9.69579931658814,-1.74828509403515,0.007941248,0.03176499,-0.00030543262,300.35626,-103.542694,-1.8763491,STD
2210685569000,1.069972,-0.975628432347028,9.69724347190129,-1.74563748266313,0.008552114,0.04642576,-0.00030543262,300.23373,-103.55994,-1.8723446,STD
2210690541000,1.074944,-0.981105958055997,9.69867239532755,-1.74301779634637,0.0036651916,0.04520403,-0.007330383,300.1141,-103.57474,-1.8702413,STD
2210695532000,1.079935,-0.98660441558083,9.70010677924157,-1.74038809916074,0.007330383,0.040317107,-0.013439035,299.99298,-103.59135,-1.8671271,STD
2210700632000,1.085035,-0.992222955628245,9.70157248911162,-1.73770097120107,0.0076358155,0.042455133,-0.010995574,299.8719,-103.60483,-1.863124,STD
2210705623000,1.090026,-0.997721413153077,9.70300687302564,-1.73507127401544,0.007330383,0.04337143,-0.004581489,299.75388,-103.618576,-1.8600079,STD
2210710568000,1.094971,-1.00316919365003,9.70442803681141,-1.73246581367024,0.0125227375,0.030543262,-0.02107485,299.63922,-103.63406,-1.8632813,STD
2210715571000,1.099974,-1.00868087126909,9.70586586945453,-1.72982979383059,0.0070249503,0.025961773,-0.027794369,299.52463,-103.6451,-1.8613915,STD
2210720566000,1.104969,-1.014183735492,9.70730140294491,-1.72719798909362,0.01282817,0.013133603,-0.013744468,299.41766,-103.65998,-1.8595585,STD
2210725547000,1.10995,-1.01967117627164,9.70873291291801,-1.72457356078634,0.01740966,0.018020526,-0.016493361,299.30692,-103.67325,-1.8631905,STD
2210730552000,1.114955,-1.02518505723974,9.71017132034931,-1.72193648717102,0.024129177,0.015882496,-0.01282817,299.20444,-103.68734,-1.8623452,STD
2210735573000,1.119976,-1.03071656500015,9.71161432608609,-1.71929098335034,0.032375857,0.016493361,-0.019242255,299.10037,-103.703026,-1.8644464,STD
2210741379000,1.125782,-1.03711288725805,9.71328293618522,-1.716231872579,0.024740042,0.01740966,-0.018020526,298.99896,-103.71501,-1.8634299,STD
2210745569000,1.129972,-1.04172890349308,9.7144871174314,-1.71402421254939,0.024740042,0.013439035,-0.016798794,298.89972,-103.73106,-1.8643646,STD
2210750558000,1.134961,-1.04722515766888,9.71592092655723,-1.71139556913943,0.029626964,0.009468411,-0.019242255,298.8014,-103.74578,-1.8658149,STD
2210755544000,1.139947,-1.05271810682111,9.71735387350079,-1.70876850639298,0.029932396,0.00580322,-0.017104227,298.70584,-103.75837,-1.8657911,STD
2210760541000,1.144944,-1.05822317439306,9.71878998177935,-1.70613564788034,0.024740042,0.0067195175,-0.025350908,298.6106,-103.77067,-1.8691735,STD
2210765601000,1.150004,-1.06379764745971,9.72024419588572,-1.70346959543408,0.024740042,0.01282817,-0.026267206,298.51685,-103.78356,-1.8697255,STD
2210770568000,1.154971,-1.06926966479609,9.72167168234153,-1.7008525435565,0.020463986,0.01038471,-0.027488936,298.42596,-103.79353,-1.8730192,STD
2210775500000,1.159903,-1.07470312352429,9.7230891100041,-1.69825393275315,0.010079277,0.017104227,-0.017104227,298.33286,-103.8008,-1.8721601,STD
2210780539000,1.164942,-1.08025446142604,9.72453728883454,-1.69559894495144,0.003970624,0.010079277,-0.02107485,298.2445,-103.808174,-1.8765746,STD
2210785598000,1.170001,-1.08582783281817,9.72599121554682,-1.69293341939301,0.004276057,0.017104227,-0.009468411,298.1534,-103.81295,-1.8722796,STD
2210790449000,1.174852,-1.09117205591033,9.72738536428793,-1.69037748650432,0.005497787,0.013439035,-0.0106901415,298.06735,-103.816536,-1.8737555,STD
2210795558000,1.179961,-1.09680051102842,9.72885366070482,-1.68768561655413,0.0027488936,0.021685716,-0.0070249503,297.9784,-103.81802,-1.8693463,STD
2210800609000,1.185012,-1.0992589701872,9.73694876604268,-1.68966565962561,0.002443461,0.01863139,-0.0076358155,297.89447,-103.82041,-1.8674479,STD
2210805545000,1.189948,-1.08833429147215,9.77336436175949,-1.7115150170557,0.00030543262,0.009162978,-0.0070249503,297.81158,-103.82093,-1.8640809,STD
2210811443000,1.195846,-1.07528045130575,9.81687716231415,-1.73762269738849,-0.0018325958,-0.003970624,-0.009468411,297.68005,-103.824,-1.8740498,STD
2210815592000,1.199995,-1.08132720322381,9.83743701022938,-1.766244972298,0.004276057,-0.005192355,0.008246681,297.5504,-103.82748,-1.8777483,STD
2210820562000,1.204965,-1.09608129373838,9.85710902820831,-1.80558926502377,0.009773844,0.0033597588,0.013439035,297.4218,-103.83028,-1.8854655,STD
2210825509000,1.209912,-1.10715156883663,9.86702044517732,-1.82250268441832,0.0021380284,0.010079277,0.0067195175,297.23727,-103.84379,-1.8840612,STD
2210830545000,1.214948,-1.11637224846573,9.8716308812733,-1.82711302423287,-0.004886922,0.0106901415,0.0027488936,297.05408,-103.85771,-1.8801626,STD
2210835456000,1.219859,-1.10644920869326,9.85965075983494,-1.82215150434663,-0.010995574,0.0106901415,0.005192355,296.8152,-103.886505,-1.8727052,STD
2210840502000,1.224905,-1.07986074497937,9.83306220357634,-1.80885727248968,-0.014660766,0.01160644,0.009773844,296.5775,-103.91263,-1.865502,STD
2210845557000,1.22996,-1.04883886330041,9.80629623542529,-1.79192765205479,-0.019242255,0.019547688,0.006414085,296.2686,-103.95089,-1.850659,STD
2210850599000,1.235002,-1.01038212865562,9.77937638865881,-1.76885359520548,-0.021380283,0.021991149,0.004276057,295.96393,-103.98656,-1.8345468,STD
2210855480000,1.239883,-0.973153385735903,9.75331614033131,-1.74651633390411,-0.028099801,0.019547688,0.010995574,295.57327,-104.03242,-1.7994443,STD
2210860547000,1.24495,-0.927581068055434,9.72754763169897,-1.75019268986931,-0.03756821,0.025350908,0.017715093,295.18365,-104.07432,-1.7645851,STD
2210865590000,1.249993,-0.880983898447505,9.70213137172178,-1.75866489448294,-0.047647487,0.015882496,0.014049901,294.80286,-104.111694,-1.7324476,STD
2210870553000,1.254956,-0.870676236736111,9.68880773284933,-1.77965966737163,-0.05100725,-0.004276057,0.013133603,294.3107,-104.16275,-1.6733663,STD
2210875541000,1.259944,-0.885754891458333,9.68378142013889,-1.80981696631944,-0.04734206,-0.010995574,0.01282817,293.82407,-104.209724,-1.616119,STD
2210881297000,1.2657,-0.904191340857422,9.70150667539063,-1.82927063769531,-0.046731193,-0.0061086523,0.018020526,293.18744,-104.28589,-1.5225087,STD
2210885594000,1.269997,-0.918256806632813,9.7216001859375,-1.83931739296875,-0.038789943,-0.007941248,0.009773844,292.56622,-104.36053,-1.4361087,STD
2210890503000,1.274906,-0.934325545634766,9.74455551367187,-1.85079505683594,-0.03756821,-0.009773844,0.013744468,291.77872,-104.469025,-1.3211746,STD
2210895552000,1.279955,-0.950852549753906,9.76816550546875,-1.86260005273438,-0.03573562,-0.0015271631,0.016187929,291.00916,-104.57261,-1.2118992,STD
2210900630000,1.285033,-0.966334818272425,9.7663812358804,-1.86459259390919,-0.039095376,-0.00030543262,0.018020526,290.01358,-104.71686,-1.0627664,STD
2210905560000,1.289963,-0.980594444971308,9.74736849954697,-1.85983938500956,-0.028710667,0.024129177,0.013744468,289.04462,-104.85407,-0.9182847,STD
2210910521000,1.294924,-0.969732018282003,9.73405319482436,-1.86068034453409,-0.032070424,0.034513887,0.01282817,288.13568,-104.973595,-0.7881022,STD
2210915578000,1.299981,-0.941140114469153,9.72452236947752,-1.86544565768966,-0.037873644,0.05467244,0.018020526,287.24744,-105.08515,-0.6599133,STD
2210920548000,1.304951,-0.925426109053223,9.71576016830129,-1.8651278718844,-0.036957346,0.06291912,0.018325957,286.42456,-105.181885,-0.54523826,STD
2210925542000,1.309945,-0.919171823378667,9.70742116137047,-1.8609583466501,-0.045814894,0.059253927,0.011911872,285.62314,-105.26586,-0.4347611,STD
2210930522000,1.314925,-0.912935070743647,9.69910553171178,-1.8568005101129,-0.03176499,0.070554934,0.0125227375,284.8258,-105.35259,-0.3180067,STD
2210935580000,1.319983,-0.90660063403121,9.69065965725121,-1.85257755083475,-0.047036625,0.07513642,0.01863139,284.05408,-105.42083,-0.20668706,STD
2210940895000,1.325298,-0.900401176351119,9.68178935972461,-1.84705448554217,-0.04153884,0.07238753,0.015577064,283.32297,-105.487495,-0.10684471,STD
2210945549000,1.329952,-0.904236841342513,9.67411786953528,-1.82020483060241,-0.04428773,0.06994407,0.014966198,282.611,-105.54093,-0.008209887,STD
2210951089000,1.335492,-0.908802716729776,9.66498592805508,-1.78824370289157,-0.04520403,0.059864793,0.013439035,281.8893,-105.59519,0.09238858,STD
2210955506000,1.339909,-0.915976853291966,9.66454308099281,-1.77974103514043,-0.03970624,0.06047566,0.013439035,281.18622,-105.6441,0.18977202,STD
2210960530000,1.344933,-0.925646517290358,9.66696054810832,-1.77732359326735,-0.03970624,0.04642576,0.013439035,280.50958,-105.68511,0.2809029,STD
2210965591000,1.349994,-0.935387394976637,9.66939581902226,-1.77488834778174,-0.04886922,0.043676864,0.013439035,279.84424,-105.714096,0.36899498,STD
2210970558000,1.354961,-0.944947351401799,9.67178585866452,-1.77249833309551,-0.04062254,0.04520403,0.01985312,279.2002,-105.74274,0.45446843,STD
2210975571000,1.359974,-0.960121182054501,9.67858378366816,-1.78372654773996,-0.04520403,0.03390302,0.014966198,278.56854,-105.76044,0.53029835,STD
2210980531000,1.364934,-0.977792681310454,9.6874197062872,-1.80139807006138,-0.04428773,0.03970624,0.0106901415,277.94952,-105.77727,0.606107,STD
2210985575000,1.369978,-0.988958121276596,9.69682288297872,-1.82529862765957,-0.044593163,0.03481932,0.013439035,277.35944,-105.78528,0.67344314,STD
2210990536000,1.374939,-0.993771748915907,9.7064498366768,-1.85418039349544,-0.044593163,0.03573562,0.009162978,276.78052,-105.789314,0.73565716,STD
2210995513000,1.379916,-1.00234741478522,9.70579442535878,-1.86493349939833,-0.043676864,0.03145956,0.008552114,276.22943,-105.79074,0.79148877,STD
2211000671000,1.385074,-1.01452802275485,9.69605001020861,-1.86006126638556,-0.038179077,0.04428773,0.014660766,275.68695,-105.78987,0.8469126,STD
2211005573000,1.389976,-1.02610408717266,9.68678922636485,-1.8554308502885,-0.038179077,0.048258353,0.015271631,275.17352,-105.7871,0.8951035,STD
2211010496000,1.394899,-1.03772974305371,9.67748876964048,-1.85078059764758,-0.03481932,0.054367006,0.0061086523,274.66766,-105.78355,0.9411998,STD
2211015572000,1.399975,-1.05350719512195,9.66775730182927,-1.83627970609756,-0.047647487,0.05955936,0.007941248,274.17126,-105.77223,0.9866851,STD
2211020607000,1.40501,-1.07310849105691,9.65795644918699,-1.81177808617886,-0.04062254,0.06261369,0.0076358155,273.68417,-105.764465,1.027382,STD
2211025491000,1.409894,-1.06701036262761,9.65108740769011,-1.79343869157523,-0.031154128,0.067500606,0.004581489,273.20898,-105.74886,1.0614176,STD
2211030546000,1.414949,-1.03698746798493,9.6464686492224,-1.77958195798588,-0.039095376,0.06169739,0.0027488936,272.74612,-105.72781,1.0933936,STD
2211035500000,1.419903,-1.00756443731037,9.64194217455395,-1.76600208494896,-0.037873644,0.057726767,0.0033597588,272.2932,-105.70463,1.1205178,STD
2211040501000,1.424904,-0.977862262016983,9.63737275593932,-1.75229337581338,-0.036651913,0.05589417,0.00030543262,271.8502,-105.67692,1.1443835,STD
2211045557000,1.42996,-0.950759617416093,9.64257332107053,-1.74989989125621,-0.027183503,0.047036625,-0.0009162979,271.4311,-105.64757,1.1622276,STD
2211050608000,1.435011,-0.929674944236771,9.66787499581554,-1.7709845908552,-0.03848451,0.04153884,0.013439035,271.0207,-105.61121,1.1825007,STD
2211055735000,1.440138,-0.909108156553083,9.69310599970455,-1.79327266206421,-0.032375857,0.019242255,0.005497787,270.60986,-105.58014,1.208729,STD
2211060503000,1.444906,-0.900114226594446,9.7110937657081,-1.82475141691944,-0.026267206,0.014966198,0.009162978,270.206,-105.54476,1.2414052,STD
2211066718000,1.451121,-0.892612352895893,9.72905133298889,-1.86183908579179,-0.023518313,0.0143553335,0.013744468,269.8111,-105.512924,1.2739213,STD
2211070553000,1.454956,-0.898937510564023,9.72588868810815,-1.87448940112805,-0.013133603,0.007941248,0.014049901,269.42715,-105.4834,1.3038759,STD
2211075499000,1.459902,-0.907095067233273,9.72180982459313,-1.89080451446655,-0.018020526,0.008246681,0.015271631,269.0315,-105.45681,1.3352419,STD
2211080525000,1.464928,-0.919418908216686,9.71885525958877,-1.88498175156188,-0.017715093,0.015882496,0.023823744,268.64502,-105.43309,1.3671427,STD
2211085586000,1.469989,-0.933792638507315,9.71645958951166,-1.86821241122974,-0.01863139,0.01160644,0.02076942,268.2696,-105.40572,1.3936988,STD
2211090544000,1.474947,-0.947873838819692,9.71411267541518,-1.85178435563464,-0.02443461,0.015882496,0.01863139,267.91064,-105.3779,1.4207618,STD
2211095529000,1.479932,-0.962031721747726,9.71175298062475,-1.83526683705022,-0.019547688,0.017715093,0.017104227,267.56082,-105.35139,1.4452248,STD
2211100610000,1.485013,-0.982251191710545,9.70338516197285,-1.80518020265688,-0.020158553,0.016187929,0.02076942,267.20306,-105.322235,1.4689418,STD
2211105597000,1.49,-1.00532232425004,9.69184960774842,-1.76826640504807,-0.029932396,0.022907447,0.022296581,266.8502,-105.29035,1.4910259,STD
2211110513000,1.494916,-1.02806499270084,9.68047828539684,-1.73187814977537,-0.03604105,0.015271631,0.019547688,266.51074,-105.25035,1.5051283,STD
2211115574000,1.499977,-1.05147846809333,9.66877155992464,-1.69441660381624,-0.037873644,0.01282817,0.017104227,266.17545,-105.20776,1.5194241,STD
2211120508000,1.504911,-1.058717199511,9.65976675305624,-1.671632799511,-0.04550946,0.01038471,0.015882496,265.84912,-105.16079,1.5316095,STD
2211125502000,1.509905,-1.04989187053559,9.65314786575633,-1.66280747053559,-0.04153884,0.004581489,0.016493361,265.53122,-105.1157,1.5421337,STD
2211130523000,1.514926,-1.04101882752687,9.64649319352309,-1.65393442752687,-0.05131268,0.0012217305,0.014049901,265.21814,-105.047874,1.5399473,STD
2211135822000,1.520225,-1.03165450669373,9.63947006901324,-1.64457010669373,-0.04795292,-0.005497787,0.007330383,264.91333,-104.984406,1.5353761,STD
2211140458000,1.524861,-1.02185793251418,9.63784345935728,-1.64263955056711,-0.03756821,-0.0070249503,0.0070249503,264.62378,-104.91876,1.531357,STD
2211145546000,1.529949,-1.00138880485192,9.6634298689351,-1.67846057741021,-0.03481932,-0.013744468,0.016187929,264.34293,-104.85182,1.5267177,STD
2211150597000,1.535,-0.979499768707545,9.68445570292546,-1.71388671239924,-0.049785517,-0.015577064,0.01282817,264.06036,-104.780624,1.5218889,STD
2211155557000,1.53996,-0.953686362675482,9.69305989457477,-1.74830460208314,-0.04795292,-0.015577064,0.013439035,263.78534,-104.71521,1.5197005,STD
2211160738000,1.545141,-0.926839785415773,9.70236025341114,-1.78093435253583,-0.04337143,-0.01985312,0.01740966,263.51743,-104.65238,1.5199463,STD
2211165611000,1.550014,-0.902811061306101,9.71437485591693,-1.77692952685145,-0.035124753,-0.027488936,0.007941248,263.25467,-104.59059,1.5157238,STD
2211170450000,1.554853,-0.878949990925084,9.72630562988072,-1.77295264372265,-0.029626964,-0.0290161,0.015271631,262.993,-104.53869,1.5213336,STD
2211175550000,1.559953,-0.877440905407138,9.72408438894664,-1.78658794798164,-0.027794369,-0.0290161,0.013439035,262.73703,-104.487206,1.5206589,STD
2211180550000,1.564953,-0.885736842690575,9.71578830440055,-1.80732776953396,-0.03176499,-0.01985312,0.020463986,262.48526,-104.43581,1.5243126,STD
2211185559000,1.569962,-0.89674666909825,9.70070931462884,-1.82569691122269,-0.029626964,-0.02107485,0.014966198,262.23486,-104.38615,1.5279473,STD
2211190538000,1.574941,-0.911556547119785,9.67602617600166,-1.84050679439901,-0.032375857,-0.025045475,0.012217305,261.98874,-104.33397,1.5338374,STD
2211195512000,1.579915,-0.916188124152174,9.662998,-1.84620014869565,-0.032986723,-0.015577064,0.018020526,261.7495,-104.28706,1.5387824,STD
2211200600000,1.585003,-0.9092797959707,9.662998,-1.84159459497164,-0.03604105,-0.0125227375,0.020463986,261.51755,-104.23825,1.5406238,STD
2211205846000,1.590249,-0.902156940302458,9.662998,-1.83684602287335,-0.03573562,-0.003970624,0.01282817,261.28635,-104.19335,1.5403866,STD
2211210542000,1.594945,-0.895780857531191,9.662998,-1.83259529954631,-0.038789943,-0.0067195175,0.015577064,261.0635,-104.146675,1.5424137,STD
2211215601000,1.600004,-0.889438393810182,9.66540736760063,-1.82435146543015,-0.035430185,-0.0106901415,0.01038471,260.84262,-104.1011,1.5399711,STD
2211220561000,1.604964,-0.884752006122731,9.67478027999211,-1.80560603212313,-0.041233405,-0.0033597588,0.009162978,260.62476,-104.05198,1.5393358,STD
2211225562000,1.609965,-0.881543524241051,9.6811973375623,-1.78990825251473,-0.030543262,-0.0125227375,0.01740966,260.4004,-104.009415,1.539906,STD
2211230537000,1.61494,-0.883702331603987,9.67687965971908,-1.78559064229724,-0.03481932,-0.0125227375,0.008857546,260.17584,-103.96003,1.5359145,STD
2211235583000,1.619986,-0.885891948077028,9.67250036275487,-1.78121141392388,-0.04062254,-0.0061086523,0.013439035,259.96353,-103.90881,1.5389001,STD
2211240543000,1.624946,-0.88804424647304,9.6681957030358,-1.77690682162664,-0.03145956,-0.017104227,0.012217305,259.7602,-103.860016,1.536029,STD
2211245515000,1.629918,-0.890201752042592,9.6638806288174,-1.7725918149932,-0.036957346,-0.013439035,0.019242255,259.5568,-103.80569,1.5374687,STD
2211250616000,1.635019,-0.902423673730924,9.67477886385542,-1.78741673144578,-0.03176499,-0.016798794,0.013439035,259.36218,-103.75644,1.533147,STD
2211255482000,1.639885,-0.916460026917671,9.68881551506024,-1.80613192439759,-0.03604105,-0.025350908,0.014049901,259.17346,-103.70333,1.5318165,STD
2211260505000,1.644908,-0.92639935464351,9.6987546845521,-1.80650354767825,-0.03634648,-0.021685716,0.008552114,258.98572,-103.65079,1.5263112,STD
2211265537000,1.64994,-0.935209310329068,9.7075643642596,-1.80209856983547,-0.039095376,-0.015271631,0.012217305,258.80444,-103.5967,1.5226336,STD
2211270557000,1.65496,-0.930274984857537,9.71638349356618,-1.80594107867647,-0.028710667,-0.008552114,0.0067195175,258.6269,-103.548225,1.5127536,STD
2211276007000,1.66041,-0.915883383249081,9.72597809834559,-1.81553548308824,-0.03604105,-0.0067195175,0.008552114,258.45346,-103.494385,1.5056494,STD
2211280529000,1.664932,-0.900883226391688,9.73449257021411,-1.82405000982368,-0.027183503,-0.01160644,0.010995574,258.2835,-103.44616,1.4951597,STD
2211285572000,1.669975,-0.880607878765743,9.74462991057935,-1.83418766775819,-0.04062254,-0.0076358155,0.010995574,258.1142,-103.38964,1.4849077,STD
2211290507000,1.67491,-0.87405559367025,9.74662302069728,-1.82591593164875,-0.046120327,-0.008552114,0.005192355,257.95914,-103.338776,1.4754102,STD
2211295568000,1.679971,-0.878925299768914,9.74175372139054,-1.80156740115543,-0.03726278,-0.0070249503,0.004886922,257.8058,-103.28862,1.4675443,STD
2211300574000,1.684977,-0.889933559934243,9.73296234984185,-1.77312818013151,-0.029321533,-0.004581489,0.00030543262,257.654,-103.239006,1.4599725,STD
2211305563000,1.689966,-0.905841240161478,9.72103135608457,-1.74131281967704,-0.029932396,0.008246681,0.007941248,257.50275,-103.19006,1.4561497,STD
2211310518000,1.694921,-0.918245928681073,9.70919074068554,-1.7125571171386,-0.045814894,0.008857546,0.0067195175,257.35135,-103.13467,1.4477102,STD
2211315579000,1.699982,-0.910220070178838,9.69715211425733,-1.70051832309985,-0.03481932,0.014966198,0.0070249503,257.19852,-103.08729,1.4426131,STD
2211320488000,1.704891,-0.902435257021858,9.68547505100182,-1.68884109726776,-0.040317107,0.017715093,0.00061086525,257.04688,-103.023186,1.4312017,STD
2211325576000,1.709979,-0.896895182723852,9.6755025065839,-1.6921673545523,-0.035430185,0.03268129,0.007330383,256.8939,-102.966,1.4244117,STD
2211330553000,1.714956,-0.892412137802859,9.66653622949586,-1.70113344439428,-0.053145275,0.024129177,0.008857546,256.7489,-102.900894,1.4128089,STD
2211335592000,1.719995,-0.885163712665364,9.6684774445995,-1.69919226982975,-0.048258353,0.026572637,0.0036651916,256.5979,-102.842384,1.4040978,STD
2211340551000,1.724954,-0.87632726276863,9.67731405135361,-1.69035584761373,-0.053145275,0.034208454,0.0061086523,256.4513,-102.77686,1.397339,STD
2211345758000,1.730161,-0.864234380817753,9.68759318863049,-1.68914550959112,-0.05467244,0.04153884,0.0015271631,256.30283,-102.71674,1.3906076,STD
2211350571000,1.734974,-0.850222178841769,9.69810219379845,-1.69615161057912,-0.058643065,0.04428773,0.011911872,256.15735,-102.65554,1.3884723,STD
2211355523000,1.739926,-0.835805302842377,9.7089147002584,-1.70336004857881,-0.048258353,0.041233405,0.0070249503,256.01947,-102.59464,1.3833466,STD
2211360520000,1.744923,-0.821862472966526,9.72597486956522,-1.73485753612928,-0.04520403,0.036957346,0.0125227375,255.88489,-102.53177,1.3835635,STD
2211365522000,1.749925,-0.808038919592151,9.74440615217391,-1.77172034191997,-0.042455133,0.03573562,0.0106901415,255.75195,-102.47191,1.3798827,STD
2211370524000,1.754927,-0.814698996375542,9.74235773259509,-1.79153332210881,-0.03726278,0.035430185,0.0125227375,255.62238,-102.41655,1.3814439,STD
2211375564000,1.759967,-0.828642320169475,9.73306248753009,-1.80547662649013,-0.03940081,0.032070424,0.019547688,255.4966,-102.360466,1.3831296,STD
2211380529000,1.764932,-0.839527599551502,9.71575888413814,-1.81318919977575,-0.032986723,0.028099801,0.014049901,255.37517,-102.31559,1.3839669,STD
2211385581000,1.769984,-0.849171690566602,9.69405972970549,-1.8180112452833,-0.032375857,0.028099801,0.011911872,255.25647,-102.26914,1.3871199,STD
2211390545000,1.774948,-0.858647792664574,9.67273854945931,-1.82274929633229,-0.03390302,0.027183503,0.011911872,255.14342,-102.226616,1.3861309,STD
2211395569000,1.779972,-0.868238432660587,9.65115965954054,-1.82754461633029,-0.041233405,0.01863139,0.007941248,255.03421,-102.1827,1.3825628,STD
2211400587000,1.78499,-0.904580003658537,9.63391762195122,-1.81593387235772,-0.04184427,0.022602014,0.013744468,254.93372,-102.13926,1.3830938,STD
2211405437000,1.78984,-0.952993104033771,9.61939340368981,-1.7965686524286,-0.040317107,0.02443461,0.009162978,254.83694,-102.094315,1.3786446,STD
2211410448000,1.794851,-0.970655627548291,9.61851219851412,-1.78406660942051,-0.03573562,0.023518313,0.0061086523,254.7443,-102.05358,1.3728116,STD
2211415506000,1.799909,-0.975453988558692,9.62331065973254,-1.77446983729569,-0.03268129,0.016798794,0.010995574,254.65443,-102.01333,1.3674703,STD
2211420431000,1.804834,-0.986780871685124,9.644584212611,-1.74186948494463,-0.04428773,0.015882496,0.008857546,254.56421,-101.96501,1.35128,STD
2211425424000,1.809827,-1.00109304241245,9.6732086536965,-1.69893297276265,-0.044898596,0.004886922,0.008857546,254.48038,-101.92138,1.3361231,STD
2211430422000,1.814825,-1.00229638171531,9.69849359142347,-1.68878631828469,-0.044898596,0.0033597588,0.010079277,254.39453,-101.872826,1.3203802,STD
2211435487000,1.81989,-0.997481363648998,9.72256868175501,-1.693601336351,-0.043982297,0.00030543262,0.008552114,254.31323,-101.824844,1.3031808,STD
2211440437000,1.82484,-1.00240471681539,9.73324447541146,-1.69188639159231,-0.03756821,-0.008857546,0.012217305,254.23788,-101.768524,1.2807928,STD
2211445443000,1.829846,-1.01191125276621,9.73799784265318,-1.68713312361689,-0.033292156,-0.009162978,0.017104227,254.16197,-101.712654,1.2588985,STD
2211450597000,1.835,-1.03752413180236,9.72682267665829,-1.67912297188165,-0.0290161,-0.01160644,0.0070249503,254.0849,-101.66019,1.2324712,STD
2211455568000,1.839971,-1.0697465652485,9.70840950048347,-1.66991657605879,-0.03390302,-0.013744468,0.013439035,254.01025,-101.60768,1.2122661,STD
2211460598000,1.845001,-1.07650135629644,9.69846631529815,-1.67488116555534,-0.024129177,-0.014966198,0.01038471,253.93578,-101.559135,1.185158,STD
2211465614000,1.850017,-1.06734966477424,9.69389085178129,-1.68860870283864,-0.040927973,-0.020158553,0.016493361,253.86505,-101.50282,1.1623574,STD
2211470572000,1.854975,-1.06801297466546,9.69297573951102,-1.70257586199819,-0.042455133,-0.016798794,0.016493361,253.7931,-101.451614,1.1321415,STD
2211475576000,1.859979,-1.0776562601469,9.69538635949291,-1.71704079022034,-0.0290161,-0.006414085,0.0125227375,253.72174,-101.400764,1.1030205,STD
2211480531000,1.864934,-1.08720511697354,9.69777337428313,-1.73136407546031,-0.03970624,-0.0021380284,0.015882496,253.65323,-101.347244,1.0767623,STD
2211485603000,1.870006,-1.09697944630244,9.70021675249019,-1.74602556945367,-0.047036625,-0.0067195175,0.01038471,253.58461,-101.29881,1.0473807,STD
2211490564000,1.874967,-1.09363908931615,9.69617602021804,-1.74999102977205,-0.03940081,-0.0030543262,0.006414085,253.51382,-101.25241,1.0204005,STD
2211496101000,1.880504,-1.07787296198216,9.68566559791873,-1.74473565399405,-0.05681047,-0.0015271631,0.01038471,253.44606,-101.19757,0.99410856,STD
2211500604000,1.885007,-1.05523898751831,9.67967146440082,-1.73305686481102,-0.046731193,-0.004581489,0.008857546,253.37747,-101.158615,0.96255535,STD
2211505638000,1.890041,-1.02227993079402,9.67496293641957,-1.71422314620568,-0.04184427,-0.004581489,0.009468411,253.30891,-101.11402,0.9333849,STD
2211510582000,1.894985,-0.998737589445438,9.68167776654741,-1.71149871055456,-0.038789943,-0.015271631,0.007941248,253.24695,-101.0727,0.900893,STD
2211515572000,1.899975,-0.984489458258796,9.70067517561121,-1.7257468417412,-0.043066,-0.020158553,0.010079277,253.18457,-101.03136,0.87042844,STD
2211520500000,1.904903,-0.974839392277742,9.71686684815055,-1.73938672316678,-0.04153884,-0.028099801,0.0125227375,253.12735,-100.99018,0.8452477,STD
2211525540000,1.909943,-0.970364832900714,9.73029080661908,-1.75281040129786,-0.029626964,-0.020158553,0.016187929,253.06818,-100.95145,0.82196796,STD
2211530703000,1.915106,-0.9672575,9.73194288903872,-1.76443344129744,-0.036957346,-0.018020526,0.014049901,253.01167,-100.911316,0.7991528,STD
2211535553000,1.919956,-0.9672575,9.70957365382393,-1.77114423521961,-0.035430185,-0.018936822,0.013133603,252.95505,-100.87768,0.7782402,STD
2211541052000,1.925455,-0.9672575,9.68421109208245,-1.77875303022539,-0.028710667,-0.022296581,0.015577064,252.89641,-100.84725,0.75787413,STD
2211545548000,1.929951,-0.9672575,9.66347458042766,-1.78497400537469,-0.026572637,-0.007330383,0.018020526,252.83392,-100.81632,0.73846793,STD
2211550697000,1.9351,-0.964225917737504,9.64308708959589,-1.78707341920418,-0.027183503,-0.009468411,0.01985312,252.77837,-100.78692,0.7187426,STD
2211555638000,1.940041,-0.947452067839419,9.6388935450195,-1.7661060904112,-0.032375857,-0.0030543262,0.011301007,252.7169,-100.75699,0.6982505,STD
2211560481000,1.944884,-0.931010911179546,9.63478317538107,-1.74555462849167,-0.033292156,0.00580322,0.0076358155,252.65508,-100.73329,0.6824715,STD
2211565612000,1.950015,-0.924539637844854,9.60339353069327,-1.74738941215515,-0.027794369,0.008857546,0.00061086525,252.59354,-100.70998,0.6635319,STD
2211570523000,1.954926,-0.919751725313041,9.56987794299094,-1.75217732468696,-0.032070424,0.014049901,0.009773844,252.53069,-100.68406,0.6488699,STD
2211575503000,1.959906,-0.92805162772077,9.57156917947706,-1.74821651113962,-0.043982297,0.01038471,0.00580322,252.4674,-100.653496,0.6312827,STD
2211580520000,1.964923,-0.937532990444006,9.57630995984213,-1.743475829778,-0.037873644,-0.009468411,0.0067195175,252.40918,-100.627396,0.6171075,STD
2211585562000,1.969965,-0.942630491354882,9.59732417106803,-1.75118568270976,-0.033292156,-0.0009162979,0.0061086523,252.35156,-100.598946,0.60406625,STD
2211590447000,1.97485,-0.947069222758468,9.61951778946203,-1.76006314551694,-0.035430185,-0.002443461,0.004276057,252.3032,-100.570625,0.58953595,STD
2211595555000,1.979958,-0.951710582023467,9.64272454539992,-1.76934586404693,-0.027794369,-0.003970624,0.011301007,252.25668,-100.54405,0.5794319,STD
2211600600000,1.985003,-0.956294696646004,9.66564507862361,-1.77851409329201,-0.03023783,-0.013744468,0.009162978,252.21312,-100.51417,0.56584084,STD
2211605629000,1.990032,-0.960864272946646,9.68849292036434,-1.78765324589329,-0.03359759,-0.019547688,0.005192355,252.16989,-100.486595,0.55390793,STD
2211610445000,1.994848,-0.96524030783706,9.71037305673804,-1.79640531567412,-0.021685716,-0.023823744,0.0067195175,252.12985,-100.46308,0.5425761,STD
2211615599000,2.000002,-0.973101578868552,9.72338110045757,-1.79751766056572,-0.014660766,-0.020158553,0.0030543262,252.08969,-100.43833,0.52516687,STD
2211620576000,2.004979,-0.983015000998336,9.72833791503744,-1.79256094950083,-0.018325957,-0.01160644,0.010995574,252.05067,-100.41443,0.5117041,STD
2211625562000,2.009965,-0.989541664989539,9.72377473926472,-1.76581834739464,-0.022296581,-0.0036651916,0.006414085,252.0169,-100.39339,0.49481058,STD
2211630529000,2.014932,-0.994280926282754,9.7142960187307,-1.72790420756202,-0.020463986,-0.00030543262,0.0067195175,251.98325,-100.37343,0.48187035,STD
2211635906000,2.020309,-1.01204323602467,9.71409312755817,-1.69819309750491,-0.018020526,0.00061086525,0.007941248,251.94438,-100.352196,0.46591112,STD
2211640566000,2.024969,-1.03289548403887,9.71826365554621,-1.67734089303803,-0.028405234,-0.0015271631,0.005497787,251.90594,-100.32804,0.44925004,STD
2211645552000,2.029955,-1.05571558675911,9.72282776681965,-1.65925822321062,-0.03145956,-0.002443461,0.0027488936,251.86493,-100.29965,0.4318103,STD
2211650712000,2.035115,-1.07984227751196,9.72765320574163,-1.64478215837321,-0.026267206,0.00580322,0.013439035,251.82318,-100.271225,0.4180249,STD
2211655522000,2.039925,-1.08563081952875,9.72595246107446,-1.64580082861451,-0.03604105,0.0009162979,0.01160644,251.78854,-100.23145,0.39527637,STD
2211660577000,2.04498,-1.07194258465598,9.71682678058435,-1.6640518560886,-0.040927973,-0.0030543262,0.007941248,251.75237,-100.19524,0.3757126,STD
2211665589000,2.049992,-1.05803088625607,9.71254693355582,-1.67261140242718,-0.042760566,-0.021685716,0.004886922,251.72095,-100.15409,0.35094237,STD
2211670571000,2.054974,-1.04355522373584,9.71737223836974,-1.66296099433657,-0.04062254,-0.027794369,0.009162978,251.68782,-100.11343,0.32801306,STD
2211675440000,2.059843,-1.0359389764976,9.72374678732524,-1.66171917799775,-0.034208454,-0.031154128,0.01038471,251.66095,-100.07756,0.30920586,STD
2211680559000,2.064962,-1.0409419514032,9.73375284161649,-1.67672794599449,-0.046731193,-0.038789943,0.016798794,251.6378,-100.03762,0.2927722,STD
2211685456000,2.069859,-1.03156133446475,9.74137151697128,-1.69958731105309,-0.033292156,-0.03573562,0.013744468,251.61182,-100.00576,0.27685767,STD
2211690573000,2.074976,-0.998389309428489,9.74610997476066,-1.73749814025723,-0.046120327,-0.040317107,0.01282817,251.59082,-99.96358,0.26269168,STD
2211695460000,2.079863,-0.977506401433257,9.74515644754459,-1.76280450143326,-0.03848451,-0.038179077,0.019547688,251.56848,-99.934135,0.24984568,STD
2211700671000,2.085074,-0.97974860410208,9.73170341883452,-1.76504670410208,-0.046731193,-0.026267206,0.02107485,251.54462,-99.89706,0.23568659,STD
2211705564000,2.089967,-0.981853976901649,9.71907135790987,-1.76715207690165,-0.04428773,-0.018936822,0.01985312,251.52481,-99.8739,0.22901684,STD
2211710578000,2.094981,-0.984011413896752,9.70612691616121,-1.76930951389675,-0.042455133,-0.01038471,0.023518313,251.50192,-99.84872,0.22471207,STD
2211715553000,2.099956,-0.986152069870153,9.69328315914095,-1.77145016987015,-0.047036625,-0.0067195175,0.022602014,251.47415,-99.82497,0.21407568,STD
2211720572000,2.104975,-1.0098152859024,9.6683248140976,-1.73426250255616,-0.052534413,-0.009773844,0.02443461,251.44666,-99.801865,0.20534325,STD
2211725553000,2.109956,-1.03398446387079,9.64368967869177,-1.69478416387079,-0.046731193,-0.0030543262,0.022296581,251.41568,-99.78101,0.19589022,STD
2211730536000,2.114939,-1.02969665270228,9.64154572833461,-1.69049635270228,-0.05100725,-0.0009162979,0.025350908,251.38837,-99.75796,0.18729264,STD
2211735538000,2.119941,-1.0253924922638,9.63939360317175,-1.6861921922638,-0.05375614,0.002443461,0.028710667,251.36288,-99.73019,0.17011975,STD
2211740569000,2.124972,-1.02106337767645,9.63722900067389,-1.68186307767645,-0.051923547,0.0027488936,0.019547688,251.33755,-99.702934,0.15045214,STD
2211745552000,2.129955,-1.01677556650793,9.63508505031673,-1.67757526650793,-0.05589417,0.008552114,0.01985312,251.31076,-99.67378,0.13502102,STD
2211750653000,2.135056,-0.998816482112436,9.62120805387564,-1.67920620357751,-0.058948494,0.00030543262,0.016493361,251.28761,-99.64582,0.11556517,STD
2211755602000,2.140005,-0.973584591567291,9.60102264682709,-1.68425258168654,-0.049785517,-0.0036651916,0.01160644,251.26198,-99.62068,0.09648329,STD
2211760594000,2.144997,-0.94686238163891,9.5993599000757,-1.69571555208176,-0.047647487,-0.009773844,0.005192355,251.23889,-99.591644,0.07714188,STD
2211765589000,2.149992,-0.919703326396669,9.60388602800908,-1.70929507024981,-0.040011674,-0.0125227375,0.008857546,251.21657,-99.56727,0.059513144,STD
2211770485000,2.154888,-0.90678468095355,9.61457312584408,-1.72930829523225,-0.04886922,-0.005192355,0.01160644,251.19276,-99.5389,0.05233804,STD
2211775541000,2.159944,-0.901830690693677,9.62943540699816,-1.75407824653161,-0.04734206,-0.014049901,0.015882496,251.1749,-99.516075,0.04573154,STD
2211780559000,2.164962,-0.904887216919447,9.64204693090664,-1.78546922521065,-0.037873644,-0.017104227,0.017715093,251.15488,-99.496635,0.04477701,STD
2211785615000,2.170018,-0.911881335646396,9.65370379950888,-1.82043987970533,-0.03970624,-0.01985312,0.018936822,251.13776,-99.474785,0.04425792,STD
2211790495000,2.174898,-0.918631988215128,9.66495489103953,-1.85419320129038,-0.040317107,-0.0067195175,0.018936822,251.11613,-99.4614,0.044660907,STD
2211795549000,2.179952,-0.925623340281188,9.67660714853869,-1.88915002245655,-0.029932396,0.008246681,0.02076942,251.09521,-99.45091,0.045649577,STD
2211800552000,2.184955,-0.934051331783701,9.67194988969759,-1.9210878453511,-0.027794369,0.0070249503,0.018936822,251.07541,-99.4381,0.0452039,STD
2211805520000,2.189923,-0.943805825356228,9.652441004408,-1.95035132606868,-0.03390302,0.025045475,0.018020526,251.04657,-99.42606,0.04686705,STD
2211810501000,2.194904,-0.95569210242645,9.63878606820547,-1.95818657385299,-0.043066,0.02107485,0.018325957,251.02936,-99.4269,0.04586301,STD
2211815526000,2.199929,-0.969349326080787,9.6296810781383,-1.94908177392867,-0.043676864,0.023518313,0.01985312,251.00577,-99.42834,0.045921065,STD
2211821105000,2.205508,-0.964408023934411,9.61972039096087,-1.93166551095903,-0.02443461,0.03023783,0.016493361,250.98453,-99.438896,0.04342976,STD
2211825562000,2.209965,-0.944803099182436,9.6118782654786,-1.91206056573581,-0.025961773,0.03023783,0.016798794,250.96518,-99.44317,0.042082503,STD
2211830543000,2.214946,-0.9303252829597,9.60759959251343,-1.8907075681612,-0.03634648,0.021380283,0.018020526,250.95018,-99.44721,0.03840616,STD
2211835578000,2.219981,-0.935353090477556,9.61514146128982,-1.87059633808978,-0.0290161,0.02687807,0.013133603,250.93118,-99.4557,0.033710398,STD
2211840467000,2.22487,-0.940235106555967,9.62246463834003,-1.85106827377613,-0.028099801,0.031154128,0.01282817,250.91447,-99.455376,0.03354306,STD
2211845540000,2.229943,-0.945300859790939,9.63006342688077,-1.83080526083624,-0.036651913,0.014660766,0.007330383,250.90195,-99.45436,0.02967888,STD
2211850608000,2.235011,-0.943843935618729,9.6406577826087,-1.82385321438127,-0.03604105,0.019547688,0.013439035,250.88225,-99.45498,0.034055322,STD
2211855686000,2.240089,-0.93427655603974,9.65500865217391,-1.83342059396026,-0.03390302,0.014660766,0.0143553335,250.86978,-99.45358,0.03399556,STD
2211860439000,2.244842,-0.92777683520453,9.66769169839048,-1.83053298601692,-0.032070424,0.02443461,0.009773844,250.84915,-99.44406,0.032663673,STD
2211865557000,2.24996,-0.924658695576691,9.68016436109167,-1.80870598094663,-0.02076942,0.015882496,0.003970624,250.83536,-99.438,0.029965747,STD
2211870447000,2.25485,-0.921679464865449,9.69208138348495,-1.78785133952542,-0.028405234,0.015882496,0.006414085,250.81961,-99.42804,0.031714275,STD
2211875543000,2.259946,-0.918574728729563,9.70450043177047,-1.76611815901775,-0.03359759,0.008857546,0.0070249503,250.80817,-99.422066,0.030425075,STD
2211880528000,2.264931,-0.915537619303073,9.71664897095871,-1.74485836607609,-0.029626964,0.006414085,0.0070249503,250.79575,-99.41664,0.029694248,STD
2211885669000,2.270072,-0.912405466933647,9.72917768509447,-1.72293327169031,-0.031154128,0.004276057,0.0076358155,250.78546,-99.408325,0.02882681,STD
2211891153000,2.275556,-0.913126946106271,9.74072307939825,-1.70726182132502,-0.030543262,-0.002443461,0.005192355,250.77722,-99.40188,0.02661554,STD
2211895511000,2.279914,-0.925201311207046,9.7447478098621,-1.71665298982288,-0.03268129,-0.018020526,0.0076358155,250.77246,-99.394356,0.025293894,STD
2211900625000,2.285028,-0.939370265572664,9.74947072670288,-1.72767328254846,-0.03970624,-0.015882496,0.009468411,250.75479,-99.371506,0.026472103,STD
2211905578000,2.289981,-0.95309315000225,9.75404495570414,-1.73834663215147,-0.044898596,-0.01863139,0.016187929,250.74341,-99.34901,0.028529702,STD
2211910567000,2.29497,-0.966915776777781,9.75865243167572,-1.74909755909865,-0.03940081,-0.0076358155,0.01282817,250.72726,-99.32803,0.028734602,STD
2211915577000,2.29998,-0.980796586588447,9.76327930171333,-1.75989373949661,-0.037873644,-0.0030543262,0.0125227375,250.7143,-99.30494,0.030962951,STD
2211920491000,2.304894,-0.994411416809927,9.76781751316339,-1.77048304697676,-0.05222898,0.008552114,0.010995574,250.70004,-99.2802,0.027723737,STD
2211925542000,2.309945,-1.01726655716835,9.75132019869126,-1.75894203236169,-0.06169739,0.0143553335,0.014049901,250.68648,-99.2577,0.025505632,STD
2211930503000,2.314906,-1.04081930554234,9.73247813771565,-1.74481041284949,-0.0580322,0.015271631,0.007330383,250.67068,-99.235306,0.020246387,STD
2211935574000,2.319977,-1.03584128679102,9.72802828501089,-1.73093276163242,-0.056505036,0.024740042,0.005192355,250.65485,-99.215485,0.009934509,STD
2211940447000,2.32485,-1.02700351229524,9.72581880101316,-1.71767613449484,-0.055588737,0.019242255,0.009468411,250.64313,-99.196884,-0.00094768876,STD
2211945550000,2.329953,-1.01774860499953,9.72350503190986,-1.70379380979074,-0.05375614,0.028099801,0.013439035,250.62357,-99.17667,-0.015296209,STD
2211950609000,2.335012,-1.00857349702206,9.72121121300066,-1.69003118375154,-0.059253927,0.040317107,0.013744468,250.60486,-99.155,-0.029395428,STD
2211955552000,2.339955,-0.978000958155614,9.72352170016555,-1.69164327241211,-0.04428773,0.031154128,0.014660766,250.58759,-99.140816,-0.04337512,STD
2211961013000,2.345416,-0.932164906324861,9.72861469821794,-1.70182905579901,-0.056199603,0.025961773,0.010995574,250.56589,-99.117714,-0.057715107,STD
2211965606000,2.350009,-0.907598114438101,9.71531684975962,-1.72527841033654,-0.0580322,0.03176499,0.017104227,250.54291,-99.096886,-0.0662887,STD
2211970654000,2.355057,-0.888229625055088,9.69110626963141,-1.75917322251603,-0.058948494,0.030848695,0.013744468,250.52301,-99.07336,-0.07903043,STD
2211975653000,2.360056,-0.89031903297892,9.66056197264782,-1.79021485951671,-0.046731193,0.04062254,0.014966198,250.50053,-99.05593,-0.080948,STD
2211980535000,2.364938,-0.904741871613368,9.62690855197943,-1.8190605267455,-0.052534413,0.03970624,0.019242255,250.48164,-99.03348,-0.08361349,STD
2211985576000,2.369979,-0.916047294197374,9.62292729478636,-1.82291946417091,-0.04428773,0.034208454,0.017715093,250.47183,-99.02413,-0.08126904,STD
2211990564000,2.374967,-0.925410106022148,9.6346308126225,-1.813556649902,-0.045814894,0.03023783,0.01740966,250.46225,-99.010605,-0.07767633,STD
2211995567000,2.37997,-0.934801073856821,9.6463695254802,-1.80416567961584,-0.038789943,0.041233405,0.01985312,250.45393,-99.00939,-0.078475475,STD
2212000660000,2.385063,-0.944360977750882,9.65831940846727,-1.79460577322619,-0.04428773,0.043676864,0.016493361,250.44894,-99.00424,-0.08162933,STD
2212005606000,2.390009,-0.967789032811101,9.68268328558639,-1.79648723375112,-0.038789943,0.049785517,0.01740966,250.44284,-99.004974,-0.08563693,STD
2212010558000,2.394961,-1.00081106034517,9.71570548552671,-1.80592209172386,-0.044593163,0.051618114,0.01740966,250.43716,-99.00095,-0.090937175,STD
2212015547000,2.39995,-1.0204655896545,9.71938787628462,-1.7940442032397,-0.043676864,0.044898596,0.0106901415,250.43304,-98.99579,-0.10342449,STD
2212020548000,2.404951,-1.029840861613,9.70063743026329,-1.76591833841636,-0.042760566,0.03176499,0.0070249503,250.43042,-98.9891,-0.11512631,STD
2212025589000,2.409992,-1.0468750612086,9.68669692093849,-1.76010358723383,-0.03940081,0.04062254,0.0070249503,250.41959,-98.98478,-0.13288142,STD
2212030590000,2.414993,-1.07048196027208,9.67725398383281,-1.77426774639196,-0.03634648,0.042455133,0.007330383,250.41437,-98.980774,-0.15207091,STD
2212035473000,2.419876,-1.07544857346581,9.67706217806351,-1.79474735306838,-0.043982297,0.043066,0.0021380284,250.40495,-98.969604,-0.17411372,STD
2212040541000,2.424944,-1.06126528229106,9.68651790298071,-1.82311393541788,-0.028099801,0.04184427,0.0018325958,250.39587,-98.96618,-0.19427142,STD
2212045542000,2.429945,-1.05239746134341,9.69383161144533,-1.83769556134341,-0.031154128,0.04886922,0.0033597588,250.38501,-98.95831,-0.21862464,STD
2212050692000,2.435095,-1.04994529011087,9.69873580027843,-1.83524339011087,-0.038179077,0.047647487,0.0027488936,250.3768,-98.95391,-0.24351747,STD
2212055513000,2.439916,-1.04764977214737,9.70332669238801,-1.83294787214737,-0.044593163,0.057421334,0.002443461,250.36758,-98.955795,-0.2683608,STD
2212060568000,2.444971,-1.04524283514145,9.70814041560185,-1.83054093514145,-0.032375857,0.062308256,0.009162978,250.36044,-98.96091,-0.29104245,STD
2212065530000,2.449933,-1.04101976324945,9.71183276212945,-1.82346563642646,-0.036651913,0.0711658,0.0067195175,250.34917,-98.95954,-0.3152131,STD
2212070553000,2.454956,-1.03414180588123,9.7141254544848,-1.80970974562959,-0.035430185,0.0693332,0.016798794,250.34058,-98.96295,-0.33368737,STD
2212075438000,2.459841,-1.02745281090935,9.71635515827852,-1.79633177896769,-0.04520403,0.070249505,0.008552114,250.32852,-98.961266,-0.35761222,STD
2212080529000,2.464932,-1.02048174163569,9.71867888847584,-1.78238966468401,-0.046120327,0.06383542,0.00580322,250.31998,-98.96226,-0.37713507,STD
2212085531000,2.469934,-1.01775314818939,9.71958843545327,-1.76822701453436,-0.042455133,0.05681047,0.011911872,250.30972,-98.961685,-0.39496055,STD
2212090501000,2.474904,-1.02953163412522,9.71566220514724,-1.75252242128186,-0.03726278,0.055588737,0.006414085,250.29916,-98.96148,-0.4164147,STD
2212095528000,2.479931,-1.04144520531222,9.71169094564052,-1.73663771498804,-0.049480084,0.047036625,0.0027488936,250.2894,-98.95132,-0.43235508,STD
2212100640000,2.485043,-1.04779838234881,9.70695553565339,-1.72162285295357,-0.054367006,0.04886922,0.015577064,250.27776,-98.94464,-0.44445848,STD
2212105544000,2.489947,-1.05250850442283,9.70224531521412,-1.70749248673152,-0.053450707,0.039095376,0.008857546,250.2709,-98.936615,-0.46369803,STD
2212110630000,2.495033,-1.07172231681844,9.70861455937558,-1.72659982018212,-0.046731193,0.043982297,0.012217305,250.26184,-98.92405,-0.47725642,STD
2212115535000,2.499938,-1.09354642200335,9.71734438375767,-1.75278874640401,-0.044593163,0.035430185,0.004886922,250.25858,-98.910995,-0.496467,STD
2212120581000,2.504984,-1.09526472154048,9.72349299698824,-1.76415510338022,-0.04520403,0.032375857,0.006414085,250.25198,-98.89645,-0.51250327,STD
2212125545000,2.509948,-1.08612578298677,9.7280624026465,-1.76720143213611,-0.047036625,0.036957346,0.007330383,250.2453,-98.88257,-0.53045887,STD
2212130539000,2.514942,-1.07693161313639,9.73265942356861,-1.77026617142033,-0.042455133,0.03390302,0.01038471,250.24557,-98.87472,-0.5497123,STD
2212135584000,2.519987,-1.0676435500817,9.73730339043927,-1.77336220860274,-0.04337143,0.035124753,0.009468411,250.24316,-98.86504,-0.5690443,STD
2212140448000,2.524851,-1.05868871585018,9.74178074521803,-1.77634716893083,-0.047036625,0.031154128,0.010079277,250.24323,-98.85602,-0.5870804,STD
2212145586000,2.529989,-1.04922943577585,9.74651031940662,-1.77950027875108,-0.05589417,0.042760566,0.008857546,250.23837,-98.84549,-0.604792,STD
2212150597000,2.535,-1.04293136763592,9.74166405895003,-1.78222672254219,-0.04642576,0.032070424,0.016187929,250.24127,-98.839195,-0.6207142,STD
2212155522000,2.539925,-1.04072641076154,9.72402468023935,-1.78443165639288,-0.059253927,0.03268129,0.01038471,250.23701,-98.82453,-0.63937694,STD
2212160440000,2.544843,-1.03852458783601,9.70641037272685,-1.78663345632743,-0.05131268,0.03481932,0.016187929,250.22678,-98.82136,-0.64646554,STD
2212165571000,2.549974,-1.03622740332383,9.6880331844701,-1.78893061685288,-0.0571159,0.038179077,0.016187929,250.21565,-98.811005,-0.65663797,STD
2212170518000,2.554921,-1.03520091320576,9.6737827404317,-1.79207064673728,-0.04642576,0.03573562,0.0143553335,250.20593,-98.80767,-0.6657877,STD
2212175563000,2.559966,-1.0424431122914,9.6834389218547,-1.801726878575,-0.053450707,0.032986723,0.019547688,250.19583,-98.7976,-0.6727533,STD
2212180633000,2.565036,-1.04972119938043,9.69314295353253,-1.81143096091736,-0.04734206,0.043066,0.02076942,250.16985,-98.79975,-0.6804769,STD
2212185587000,2.56999,-1.05683276613371,9.70262496002798,-1.82091301691816,-0.049785517,0.03726278,0.023823744,250.14992,-98.79723,-0.6870105,STD
2212190495000,2.574898,-1.06462442495784,9.71141495278246,-1.82757127504216,-0.048563786,0.03970624,0.0143553335,250.12485,-98.79769,-0.69596225,STD
2212195559000,2.579962,-1.07825481146712,9.71595850983699,-1.81394088853288,-0.047647487,0.030543262,0.018325957,250.10593,-98.79693,-0.70102715,STD
2212200885000,2.585288,-1.09226175945486,9.72096477001704,-1.79993394054514,-0.044593163,0.037873644,0.018325957,250.087,-98.80042,-0.71319944,STD
2212205553000,2.589956,-1.09987751795571,9.72858068756388,-1.79231818204429,-0.050701816,0.03756821,0.020158553,250.07343,-98.80131,-0.72428054,STD
2212210504000,2.594907,-1.10795498589438,9.7366583241908,-1.78424071410562,-0.038789943,0.04520403,0.018936822,250.05447,-98.8051,-0.7378122,STD
2212216284000,2.600687,-1.10744308662107,9.72574665690835,-1.76742001028728,-0.043066,0.032375857,0.014966198,250.04184,-98.80254,-0.752372,STD
2212220544000,2.604947,-1.10372241466484,9.71086365827633,-1.75253728361149,-0.03940081,0.033292156,0.0143553335,250.02356,-98.80552,-0.7651575,STD
2212225555000,2.609958,-1.09566406398501,9.69790380574491,-1.73617631678202,-0.04153884,0.021380283,0.014660766,250.01196,-98.80338,-0.78133124,STD
2212230573000,2.614976,-1.08316045197481,9.69040174298798,-1.72117198236978,-0.05100725,0.026267206,0.012217305,249.9955,-98.80028,-0.79739726,STD
2212235585000,2.619988,-1.07067179047718,9.6829086504137,-1.70618558857262,-0.050701816,0.016798794,0.014966198,249.98605,-98.79618,-0.81251055,STD
2212240545000,2.624948,-1.05831270008846,9.67549329942239,-1.69135468010616,-0.047036625,0.01160644,0.009468411,249.97377,-98.790726,-0.8299789,STD
2212245571000,2.629974,-1.04500343511355,9.67398258775998,-1.69396335018886,-0.046731193,0.007330383,0.008552114,249.96439,-98.78431,-0.8454919,STD
2212250614000,2.635017,-1.03114853103992,9.67629178264404,-1.70781823015061,-0.049480084,0.004886922,0.014966198,249.95619,-98.778114,-0.86031675,STD
2212255563000,2.639966,-1.01755187820225,9.67855793483146,-1.72141485932584,-0.044898596,0.0021380284,0.015882496,249.95074,-98.766174,-0.8680579,STD
2212260538000,2.644941,-1.00388379417165,9.68083599244561,-1.73508291956969,-0.043066,0.0018325958,0.008246681,249.94524,-98.753044,-0.87643445,STD
2212265551000,2.649954,-0.999097149967114,9.68940685165697,-1.7429788,-0.04795292,0.005192355,0.005497787,249.93973,-98.73944,-0.88314235,STD
2212270544000,2.654947,-1.00635497375664,9.70634162226157,-1.7429788,-0.037873644,-0.0027488936,0.013439035,249.93765,-98.73079,-0.88944244,STD
2212275506000,2.659909,-1.01356773595244,9.72317125008854,-1.7429788,-0.043066,0.002443461,0.013744468,249.93445,-98.722885,-0.8945161,STD
2212280548000,2.664951,-1.02089678613205,9.74027221411586,-1.7429788,-0.044593163,0.005497787,0.011911872,249.93431,-98.718864,-0.89843035,STD
2212286046000,2.670449,-1.01920050921779,9.73815347605181,-1.7457376953911,-0.041233405,0.01863139,0.019242255,249.92433,-98.717285,-0.902061,STD
2212290559000,2.674962,-1.01052090315293,9.72079435455367,-1.75007749842354,-0.04428773,0.005497787,0.013133603,249.92041,-98.713974,-0.91099083,STD
2212295535000,2.679938,-1.01026109067866,9.71323024437858,-1.75960021053761,-0.032070424,0.021380283,0.01863139,249.90562,-98.713196,-0.91280967,STD
2212300630000,2.685033,-1.02023529264105,9.7182174495094,-1.77456156555601,-0.04062254,0.028099801,0.01740966,249.89673,-98.70613,-0.9192137,STD
2212305417000,2.68982,-1.02117033715134,9.72282435796241,-1.77892077908506,-0.03726278,0.0290161,0.02107485,249.88635,-98.7072,-0.92079514,STD
2212310436000,2.694839,-1.01403888919881,9.72757875588526,-1.77416645562809,-0.047036625,0.034208454,0.021685716,249.87294,-98.70227,-0.9232118,STD
2212315452000,2.699855,-1.00691170391691,9.73233031196835,-1.76941497396637,-0.04520403,0.03848451,0.021991149,249.86063,-98.70407,-0.9259476,STD
2212320434000,2.704837,-0.999832828902077,9.73704966053413,-1.76469569931751,-0.034513887,0.030543262,0.02321288,249.85065,-98.70559,-0.9286561,STD
2212325411000,2.709814,-0.989491808960574,9.73744759109916,-1.76429776367981,-0.04337143,0.029321533,0.024129177,249.83469,-98.702354,-0.9301468,STD
2212330484000,2.714887,-0.974980725806452,9.73261046236559,-1.76913479139785,-0.041233405,0.02321288,0.027794369,249.82286,-98.70511,-0.931187,STD
2212335414000,2.719817,-0.973585281925926,9.71738039209876,-1.74850733293827,-0.045814894,0.03023783,0.02076942,249.80707,-98.70166,-0.9325788,STD
2212340435000,2.724838,-0.987832722755556,9.68888541125926,-1.69626671656296,-0.04886922,0.027488936,0.022296581,249.79655,-98.69894,-0.9314056,STD
2212345396000,2.729799,-1.00192515564907,9.66663782701258,-1.6564689532528,-0.036957346,0.025961773,0.01985312,249.78769,-98.69965,-0.9303416,STD
2212350546000,2.734949,-1.01657626565997,9.65198692098228,-1.63205038557283,-0.043676864,0.024129177,0.018020526,249.77997,-98.69425,-0.92904884,STD
2212355425000,2.739828,-1.02657243760799,9.64940733538107,-1.61477202478403,-0.046120327,0.017715093,0.0106901415,249.77046,-98.68449,-0.933776,STD
2212360505000,2.744908,-1.03124225369553,9.66341658859666,-1.60543239260895,-0.039095376,0.025045475,0.015271631,249.75818,-98.67542,-0.93525314,STD
2212365470000,2.749873,-1.03115347390003,9.67728737354086,-1.60403913914996,-0.04062254,0.021380283,0.011911872,249.74738,-98.66006,-0.9446237,STD
2212370501000,2.754904,-1.0215394100868,9.69170826848249,-1.6184602348698,-0.050396383,0.014049901,0.013744468,249.7362,-98.64424,-0.95101607,STD
2212375476000,2.759879,-1.01823674306714,9.70440030770759,-1.63579522382797,-0.049480084,0.0067195175,0.01038471,249.72302,-98.62808,-0.9574168,STD
2212380483000,2.764886,-1.0277621776321,9.71392594119984,-1.65960885997219,-0.046731193,0.00061086525,0.017104227,249.71225,-98.60968,-0.9608067,STD
2212385457000,2.76986,-1.03150001386336,9.72465157083294,-1.69131418834455,-0.03848451,-0.00030543262,0.015882496,249.70663,-98.59707,-0.96939176,STD
2212390480000,2.774883,-1.0223833140813,9.73832643011466,-1.74145608474367,-0.028405234,-0.0067195175,0.018325957,249.70473,-98.58577,-0.97553635,STD
2212395470000,2.779873,-1.01324378871495,9.74681686089369,-1.78081166722481,-0.03176499,-0.006414085,0.013439035,249.69908,-98.57737,-0.9825093,STD
2212400555000,2.784958,-1.00359392683048,9.73475453353809,-1.77839917656296,-0.03176499,0.002443461,0.015882496,249.69327,-98.57262,-0.9866387,STD
2212405480000,2.789883,-0.99424769875161,9.72307174843951,-1.77606259514515,-0.034513887,0.0027488936,0.015271631,249.70087,-98.57453,-0.9910432,STD
2212410477000,2.79488,-0.98476483546022,9.71121816932527,-1.77369185456752,-0.040011674,0.010995574,0.018936822,249.70389,-98.57547,-0.9928637,STD
2212415560000,2.799963,-0.979944287319264,9.70052756811855,-1.7670442190211,-0.041233405,0.015271631,0.021380283,249.70773,-98.57695,-0.995381,STD
2212420516000,2.804919,-0.996994173551863,9.69626545262685,-1.7414693896722,-0.044593163,0.021685716,0.02107485,249.70862,-98.5763,-0.9972818,STD
2212425441000,2.809844,-1.01393741198922,9.69202999685676,-1.71605453201617,-0.048563786,0.015577064,0.014660766,249.70506,-98.57761,-0.99972737,STD
2212430491000,2.814894,-1.01289544411178,9.68274458882236,-1.70301812055888,-0.04428773,0.014660766,0.016493361,249.69873,-98.58004,-0.99958056,STD
2212435561000,2.819964,-1.01047257105788,9.67305289421158,-1.69090375528942,-0.047647487,0.009468411,0.015882496,249.69507,-98.5795,-1.0024667,STD
2212440479000,2.824882,-1.00812233640719,9.66365175928144,-1.67915258203593,-0.05589417,0.0018325958,0.014966198,249.69037,-98.57332,-1.0086232,STD
2212445472000,2.829875,-1.00573626043912,9.65410725608782,-1.66722220219561,-0.04734206,0.004581489,0.016187929,249.67892,-98.572754,-1.0151883,STD
2212450568000,2.834971,-1.00103677290149,9.65794902165885,-1.68447610839405,-0.05131268,0.004886922,0.017104227,249.67046,-98.56643,-1.0224773,STD
2212455470000,2.839873,-0.996351128266294,9.66263476414812,-1.70321868693482,-0.047647487,-0.00061086525,0.01985312,249.66315,-98.56466,-1.0289925,STD
2212460559000,2.844962,-0.991488533423127,9.68099560725332,-1.7249187730869,-0.04153884,0.00061086525,0.016187929,249.65253,-98.558784,-1.0365906,STD
2212465544000,2.849947,-0.986725453706475,9.70004807532675,-1.74635265667964,-0.03970624,0.002443461,0.019242255,249.64383,-98.55255,-1.0417175,STD
2212471216000,2.855619,-0.981305957587549,9.72172622957198,-1.77074041750973,-0.03848451,0.0036651916,0.01985312,249.6352,-98.55359,-1.0508066,STD
2212475444000,2.859847,-0.977266178040507,9.73788547430909,-1.78891944656291,-0.038789943,0.003970624,0.019242255,249.62659,-98.55461,-1.0592365,STD
2212480541000,2.864944,-0.981020657613401,9.73542655495953,-1.7887697211933,-0.03390302,-0.002443461,0.025045475,249.62357,-98.556145,-1.0653899,STD
2212485521000,2.869924,-0.985508937681159,9.73093818115942,-1.78652558115942,-0.01985312,-0.005497787,0.021991149,249.6192,-98.56053,-1.0739872,STD
2212490555000,2.874958,-0.990045885846038,9.72640113824581,-1.78425710707698,-0.021380283,0.0009162979,0.021685716,249.61699,-98.56861,-1.0775275,STD
2212495534000,2.879937,-0.994533264652739,9.72191366572558,-1.78201341767363,-0.03023783,0.008246681,0.019547688,249.61523,-98.578545,-1.0824921,STD
2212500549000,2.884952,-1.01290250574366,9.71707601526797,-1.7745202365081,-0.035430185,0.008857546,0.025961773,249.61511,-98.58668,-1.0817391,STD
2212505561000,2.889964,-1.03782929315538,9.71209056408392,-1.76454949030951,-0.03604105,0.0143553335,0.021380283,249.61105,-98.593956,-1.0842649,STD
2212510554000,2.894957,-1.02938068223691,9.70363638840493,-1.75126392586362,-0.040927973,0.018020526,0.018325957,249.61206,-98.59617,-1.0856808,STD
2212515610000,2.900013,-1.00998732527285,9.69393977320517,-1.73671892712526,-0.04734206,0.0070249503,0.0125227375,249.61536,-98.59802,-1.0896431,STD
2212520510000,2.904913,-0.991192339291078,9.68454234154401,-1.72262270603785,-0.043982297,0.004276057,0.015577064,249.60635,-98.601685,-1.0962831,STD
2212525537000,2.90994,-0.971910217958346,9.67490134379694,-1.70816113391409,-0.047647487,0.0030543262,0.016798794,249.59982,-98.60178,-1.1053724,STD
2212530552000,2.914955,-0.961009886985244,9.68194626458476,-1.69530020494166,-0.047647487,0.004886922,0.019242255,249.5935,-98.60369,-1.1131397,STD
2212535551000,2.919954,-0.952795311114447,9.69426792467399,-1.6829783733013,-0.048258353,-0.004886922,0.019547688,249.59087,-98.60441,-1.1216264,STD
2212541224000,2.925627,-0.957615686329192,9.70368300563926,-1.66167343929862,-0.0421497,-0.011911872,0.018936822,249.58615,-98.6023,-1.124463,STD
2212545537000,2.92994,-0.972173723975681,9.70732258630716,-1.63983637332805,-0.03848451,-0.01282817,0.017104227,249.58249,-98.59948,-1.1277916,STD
2212550620000,2.935023,-0.984752323067681,9.70839386924309,-1.62096846539848,-0.034513887,-0.016798794,0.015271631,249.57434,-98.59488,-1.1263466,STD
2212555584000,2.939987,-0.975233052903484,9.69411516279535,-1.63524737064477,-0.04428773,-0.020463986,0.014660766,249.5665,-98.58756,-1.1253169,STD
2212560545000,2.944948,-0.966435575875722,9.68187802004709,-1.64967647094243,-0.038179077,-0.01740966,0.025045475,249.55623,-98.58001,-1.1252211,STD
2212565605000,2.950008,-0.96124987005422,9.68014941834915,-1.66523357938218,-0.034513887,-0.015882496,0.014966198,249.54666,-98.570045,-1.1314175,STD
2212570541000,2.954944,-0.956191244770636,9.67846317764144,-1.68040944642934,-0.0421497,-0.013744468,0.021685716,249.53207,-98.563545,-1.1303467,STD
2212575550000,2.959953,-0.951057805944567,9.67675199860883,-1.69580975397375,-0.038789943,-0.004886922,0.022907447,249.51483,-98.56183,-1.133409,STD
2212580557000,2.96496,-0.945926416804594,9.67504150281801,-1.71120391246344,-0.040927973,0.0009162979,0.018020526,249.49817,-98.55645,-1.1364745,STD
2212585534000,2.969937,-0.940825772956053,9.67334125565385,-1.72650583513234,-0.034208454,0.0018325958,0.019242255,249.48108,-98.55431,-1.1374531,STD
2212590535000,2.974938,-0.927415225218763,9.66979698506521,-1.74173587076146,-0.04337143,-0.004581489,0.01985312,249.4646,-98.54733,-1.1401771,STD
2212595552000,2.979955,-0.90720201821098,9.66474357646193,-1.75689577997476,-0.03268129,0.016493361,0.020463986,249.44055,-98.54785,-1.1414771,STD
2212600642000,2.985045,-0.906896765672897,9.65298277570093,-1.76880934401869,-0.05131268,0.014660766,0.01985312,249.42822,-98.54586,-1.141267,STD
2212605442000,2.989845,-0.916443726420561,9.63866252647975,-1.77835635959502,-0.04642576,0.012217305,0.019242255,249.41058,-98.55338,-1.1402216,STD
2212610660000,2.995063,-0.926537875888933,9.62710342449061,-1.76337499787255,-0.048563786,0.009162978,0.013133603,249.39505,-98.556755,-1.1380712,STD
2212615460000,2.999863,-0.935720584638434,9.61792052397124,-1.74041817805633,-0.04520403,0.002443461,0.015882496,249.38202,-98.56265,-1.1341021,STD
2212620433000,3.004836,-0.922185059448068,9.61838246704955,-1.7268652024141,-0.047647487,-0.0036651916,0.014966198,249.37032,-98.568726,-1.1344541,STD
2212625428000,3.009831,-0.898902617118661,9.62303905373309,-1.71755222353743,-0.04734206,-0.01038471,0.010995574,249.361,-98.576385,-1.135354,STD
2212630468000,3.014871,-0.902237761765305,9.65367773927943,-1.73598846959341,-0.03940081,-0.013744468,0.019242255,249.3516,-98.580696,-1.1352687,STD
2212635441000,3.019844,-0.91988171888858,9.69778760905807,-1.76907089495693,-0.03970624,-0.011911872,0.02443461,249.34251,-98.58296,-1.1372771,STD
2212640407000,3.02481,-0.937500840359359,9.74183538973789,-1.80210675346393,-0.039095376,-0.01282817,0.021685716,249.33499,-98.58585,-1.1361927,STD
2212645408000,3.029811,-0.955244140092618,9.78619361591183,-1.83537544625359,-0.025961773,-0.004276057,0.021380283,249.32483,-98.59191,-1.1327189,STD
2212650563000,3.034966,-0.972004308405716,9.81306239497525,-1.84840688318857,-0.026267206,0.0015271631,0.021685716,249.31581,-98.59438,-1.1302118,STD
2212655448000,3.039851,-0.98511236892687,9.80432350546372,-1.82219076214626,-0.027183503,0.0143553335,0.018020526,249.30249,-98.60047,-1.1284629,STD
2212660454000,3.044857,-0.999288692188065,9.79212188065099,-1.7921877109132,-0.025961773,0.019242255,0.0143553335,249.29329,-98.6173,-1.130707,STD
2212665550000,3.049953,-1.01693909826401,9.76564664014466,-1.74806164964738,-0.02321288,0.03573562,0.018936822,249.27771,-98.63371,-1.1305603,STD
2212670795000,3.055198,-1.03499033650465,9.73914950093071,-1.70328112941055,-0.04153884,0.035430185,0.01985312,249.27113,-98.63949,-1.1400696,STD
2212675463000,3.059866,-1.04885941344364,9.72990328872802,-1.67554302380558,-0.04795292,0.049480084,0.021380283,249.25638,-98.64888,-1.1465561,STD
2212680435000,3.064838,-1.06180251740401,9.71984746828047,-1.64619146627713,-0.043676864,0.057726767,0.016493361,249.24023,-98.64791,-1.1586087,STD
2212685476000,3.069879,-1.03157918717654,9.7047360398581,-1.62100540158598,-0.05009095,0.06841691,0.013133603,249.21991,-98.64199,-1.1689792,STD
2212690454000,3.074857,-1.00375916050354,9.69112714093234,-1.59872485350118,-0.059253927,0.060170226,0.009162978,249.2095,-98.62894,-1.1829925,STD
2212695492000,3.079895,-0.989523936742722,9.6863819672502,-1.59397977891424,-0.052839845,0.044898596,0.006414085,249.19821,-98.61879,-1.1972758,STD
2212700471000,3.084874,-0.97442855751322,9.68258939360756,-1.5897499,-0.058643065,0.040011674,-0.0018325958,249.18816,-98.60021,-1.2134993,STD
2212705568000,3.089971,-0.949301366006832,9.68715782643081,-1.5897499,-0.057421334,0.032986723,0.004276057,249.18355,-98.585304,-1.22691,STD
2212710848000,3.095251,-0.923272021067902,9.6918902818569,-1.5897499,-0.06414085,0.03604105,0.004581489,249.17706,-98.566696,-1.2418528,STD
2212715575000,3.099978,-0.899968855627311,9.69612708428097,-1.5897499,-0.06352998,0.03176499,0.008857546,249.17499,-98.55048,-1.2543259,STD
2212720503000,3.104906,-0.875674800350976,9.70054404267865,-1.5897499,-0.059864793,0.01160644,0.014049901,249.18091,-98.53173,-1.2652674,STD
2212725563000,3.109966,-0.883588386916846,9.70937115270764,-1.63411285553778,-0.051618114,0.0106901415,0.01160644,249.18225,-98.515076,-1.2764204,STD
2212730501000,3.114904,-0.897776180171509,9.71882987084354,-1.68613476825341,-0.047036625,0.01160644,0.015577064,249.189,-98.49838,-1.284943,STD
2212735592000,3.119995,-0.912403570908545,9.72858165983299,-1.73976853853193,-0.050396383,0.01863139,0.020463986,249.19571,-98.48195,-1.2859968,STD
2212740441000,3.124844,-0.92633565059503,9.73786989884494,-1.79085283475674,-0.043066,0.02687807,0.022907447,249.20157,-98.4702,-1.286646,STD
2212745567000,3.12997,-0.940028306685568,9.739613,-1.79490065719773,-0.04550946,0.030543262,0.021685716,249.20236,-98.45459,-1.2840633,STD
2212750606000,3.135009,-0.953268896732669,9.739613,-1.78828034489208,-0.052534413,0.04428773,0.01863139,249.19794,-98.4401,-1.2808353,STD
2212755605000,3.140008,-0.966404381877629,9.739613,-1.78171258517468,-0.046731193,0.05222898,0.01740966,249.19937,-98.448044,-1.2794195,STD
2212760545000,3.144948,-0.979384837291933,9.739613,-1.77522234052497,-0.05375614,0.0571159,0.021380283,249.1979,-98.45023,-1.2770898,STD
2212765568000,3.149971,-0.988651058498457,9.74185277138305,-1.76050940750772,-0.045814894,0.06047566,0.02107485,249.1945,-98.458435,-1.2761332,STD
2212770555000,3.154958,-0.993406560001991,9.74660787563477,-1.73673189999004,-0.044898596,0.06963864,0.023518313,249.18848,-98.462296,-1.272953,STD
2212775561000,3.159964,-1.01234011987268,9.74451709050398,-1.71448108829708,-0.048258353,0.07360926,0.0290161,249.17926,-98.46384,-1.2717301,STD
2212780532000,3.164935,-1.04769761660477,9.7344152801061,-1.69427683458886,-0.051923547,0.06414085,0.02321288,249.17114,-98.46587,-1.2733713,STD
2212785570000,3.169973,-1.06834542936416,9.71673642658959,-1.67487831349711,-0.061086524,0.05467244,0.014966198,249.16608,-98.4592,-1.2752419,STD
2212790563000,3.174966,-1.07755871691715,9.69370320770713,-1.65645169028902,-0.06047566,0.056505036,0.019547688,249.16086,-98.45411,-1.2751888,STD
2212795534000,3.179937,-1.07243452456177,9.68458821973603,-1.64964689429779,-0.06169739,0.056199603,0.01863139,249.15625,-98.44342,-1.2848508,STD
2212800547000,3.18495,-1.05263312287069,9.68953867354094,-1.65459729641163,-0.067500606,0.039095376,0.020463986,249.15625,-98.43154,-1.2930217,STD
2212805548000,3.189951,-1.04649706002167,9.68385365547129,-1.65416251256771,-0.06047566,0.035430185,0.01282817,249.15091,-98.42081,-1.3054373,STD
2212810503000,3.194906,-1.0511708553531,9.66983197665715,-1.64948866843298,-0.062308256,0.03268129,0.013744468,249.1505,-98.40582,-1.315492,STD
2212815545000,3.199948,-1.04613603733165,9.67762352533669,-1.64233554185641,-0.0720821,0.03023783,0.013133603,249.15146,-98.39201,-1.325231,STD
2212820577000,3.20498,-1.03212849193877,9.70563861612247,-1.63299721076446,-0.070249505,0.020463986,0.01740966,249.15543,-98.38101,-1.3336551,STD
2212825559000,3.209962,-1.0247183,9.72119730796837,-1.63174857045923,-0.065973446,0.0143553335,0.017715093,249.16092,-98.36819,-1.345495,STD
2212830544000,3.214947,-1.0247183,9.72278371539177,-1.63968045849339,-0.05681047,0.021380283,0.022602014,249.16556,-98.35723,-1.3545579,STD
2212835587000,3.21999,-1.0247183,9.72438858051439,-1.64770463328903,-0.057726767,0.024129177,0.017715093,249.17224,-98.34275,-1.3646642,STD
2212840558000,3.224961,-1.0247183,9.72597053263109,-1.65561424520835,-0.056199603,0.016798794,0.0143553335,249.17984,-98.33161,-1.3730334,STD
2212845535000,3.229938,-1.0247183,9.72755439416495,-1.66353340403403,-0.05589417,0.025961773,0.017715093,249.18188,-98.32011,-1.3800178,STD
2212850563000,3.234966,-1.0247183,9.72915448574467,-1.67153371156377,-0.057726767,0.027183503,0.014660766,249.18765,-98.30921,-1.3902744,STD
2212855465000,3.239868,-1.01764459729275,9.72902544993813,-1.67493067104182,-0.052839845,0.029932396,0.0125227375,249.1904,-98.30039,-1.3988065,STD
2212860541000,3.244944,-1.00080307996536,9.72661946864637,-1.67252473999505,-0.058643065,0.035124753,0.0143553335,249.19199,-98.28829,-1.4068462,STD
2212866059000,3.250462,-0.982495063296214,9.7240039830735,-1.66990930904232,-0.05681047,0.047647487,0.015882496,249.19037,-98.28601,-1.4167376,STD
2212870546000,3.254949,-0.967607772467211,9.72187718282603,-1.6677825532096,-0.06078109,0.03390302,0.01863139,249.1948,-98.28044,-1.4264702,STD
2212875438000,3.259841,-0.959442504802479,9.72574434082107,-1.66812620480248,-0.05467244,0.040317107,0.018936822,249.1977,-98.27604,-1.4342606,STD
2212880538000,3.264941,-0.964171559798606,9.73993130828815,-1.67285525979861,-0.05467244,0.035124753,0.02687807,249.2079,-98.26854,-1.4400374,STD
2212885525000,3.269928,-0.964173658254076,9.74610526290761,-1.68673461793478,-0.062002823,0.041233405,0.024740042,249.2135,-98.26044,-1.4430879,STD
2212890569000,3.274972,-0.954797589678765,9.73672951251941,-1.71955077228261,-0.060170226,0.042455133,0.019547688,249.22183,-98.25495,-1.4452827,STD
2212895551000,3.279954,-0.954390367069113,9.71872030734861,-1.74926532363343,-0.052839845,0.036957346,0.01863139,249.23965,-98.24587,-1.44495,STD
2212900748000,3.285151,-0.978047882788288,9.67613692233102,-1.77292286405552,-0.058643065,0.02321288,0.023823744,249.259,-98.23397,-1.444762,STD
2212905653000,3.290056,-0.999527112267587,9.63765134157562,-1.78732367849339,-0.054061573,0.025045475,0.022602014,249.27159,-98.237206,-1.4471292,STD
2212910546000,3.294949,-1.017491184493,9.60621402760207,-1.7693595593732,-0.051618114,0.02321288,0.028405234,249.28914,-98.23776,-1.4467758,STD
2212915591000,3.299994,-1.03514832021702,9.57595376641919,-1.75084916847516,-0.04642576,0.03390302,0.023823744,249.30234,-98.246925,-1.4520657,STD
2212920557000,3.30496,-1.04420193474205,9.56690001008947,-1.73274203396155,-0.04550946,0.03848451,0.022296581,249.31778,-98.25514,-1.4551437,STD
2212925828000,3.310231,-1.05271080930143,9.55780060091388,-1.71321521363848,-0.043676864,0.042455133,0.020463986,249.32838,-98.262245,-1.4615935,STD
2212930525000,3.314928,-1.03529200371747,9.56128442750929,-1.68882890037175,-0.034513887,0.04153884,0.015577064,249.33865,-98.27183,-1.4691417,STD
2212936178000,3.320581,-1.01432787598358,9.56547733186183,-1.65947913905669,-0.042760566,0.044593163,0.0033597588,249.345,-98.272865,-1.4784064,STD
2212940558000,3.324961,-0.999346972875537,9.5817381165236,-1.64928329734979,-0.038179077,0.03848451,0.007330383,249.35449,-98.27944,-1.4846549,STD
2212945563000,3.329966,-0.983918254849785,9.61773867339056,-1.65442625706009,-0.04337143,0.03481932,0.0106901415,249.36172,-98.28153,-1.4940255,STD
2212950555000,3.334958,-0.978106609853043,9.6393572128415,-1.65933221970609,-0.043066,0.021991149,0.009468411,249.37204,-98.27987,-1.5012696,STD
2212955564000,3.339967,-0.980472237193017,9.64881967279811,-1.66406347438603,-0.043066,0.015271631,0.010995574,249.38165,-98.27646,-1.5065511,STD
2212960516000,3.344919,-0.982810944836769,9.65817445453201,-1.66874088967354,-0.03848451,0.011301007,0.009773844,249.38966,-98.27438,-1.5084919,STD
2212965583000,3.349986,-0.985203964148338,9.66774648180294,-1.67352692829668,-0.03268129,-0.00061086525,0.0125227375,249.4018,-98.27257,-1.5095557,STD
2212970493000,3.354896,-0.994523294026628,9.67054690913998,-1.67999729701331,-0.035430185,0.005192355,0.013744468,249.40964,-98.26995,-1.5109154,STD
2212975503000,3.359906,-1.0117884138539,9.66623053904282,-1.68862985692695,-0.04062254,0.0067195175,0.015882496,249.42188,-98.26824,-1.511949,STD
2212980522000,3.364925,-1.02868145117039,9.67092430234077,-1.69905793737616,-0.040317107,0.011911872,0.013133603,249.43033,-98.26682,-1.5098735,STD
2212985593000,3.369996,-1.04454343979314,9.70264827958628,-1.71491987078933,-0.035124753,0.01282817,0.013133603,249.43954,-98.26529,-1.5067579,STD
2212990453000,3.374856,-1.04960354238556,9.71661368215817,-1.71421210615339,-0.03359759,0.023823744,0.015271631,249.44421,-98.2651,-1.5060198,STD
2212995535000,3.379938,-1.03989584283435,9.70690583055749,-1.68994298398325,-0.03634648,0.030543262,0.013744468,249.44955,-98.265465,-1.5065717,STD
2213000589000,3.384992,-1.02278449699802,9.6955497786274,-1.65867527546493,-0.03756821,0.028710667,0.013439035,249.45418,-98.26742,-1.5057364,STD
2213005820000,3.390223,-0.994409396006797,9.68136242565845,-1.61611257459643,-0.03573562,0.03726278,0.007330383,249.45364,-98.26988,-1.5064282,STD
2213010444000,3.394847,-0.970340911287478,9.67062701254164,-1.5929965909661,-0.043982297,0.028710667,0.009468411,249.4549,-98.26571,-1.5057552,STD
2213015581000,3.399984,-0.946239366622575,9.66339665735842,-1.60504735071527,-0.04184427,0.021685716,0.01282817,249.45317,-98.265305,-1.5061772,STD
2213020520000,3.404923,-0.923066789417989,9.65644498824221,-1.61663362721928,-0.038179077,0.026267206,0.015882496,249.44481,-98.25809,-1.5061464,STD
2213025500000,3.409903,-0.89970185026455,9.64943561140506,-1.6283160845973,-0.038179077,0.0027488936,0.013439035,249.44641,-98.25076,-1.5082986,STD
2213030528000,3.414931,-0.875120227727584,9.64879997344439,-1.64258888379226,-0.03848451,-0.011911872,0.01282817,249.44022,-98.24542,-1.5087873,STD
2213035600000,3.420003,-0.846561542722195,9.67259886104851,-1.6663878210975,-0.044898596,-0.02107485,0.02107485,249.43947,-98.23818,-1.5082937,STD
2213040510000,3.424913,-0.821393900485123,9.68951749353169,-1.6869923068564,-0.044593163,-0.039095376,0.01985312,249.44754,-98.2381,-1.5041957,STD
2213045546000,3.429949,-0.808024260488819,9.67614756967289,-1.6959054032896,-0.035430185,-0.03940081,0.016493361,249.45331,-98.238594,-1.4983469,STD
2213050797000,3.4352,-0.795162514928967,9.66501082861461,-1.70639687137531,-0.048258353,-0.03848451,0.018325957,249.45412,-98.23926,-1.4869828,STD
2213055552000,3.439955,-0.799750689886146,9.69712827848867,-1.73392594986398,-0.03726278,-0.040011674,0.021380283,249.45564,-98.24932,-1.4767257,STD
2213060792000,3.445195,-0.806665692650094,9.73161737952078,-1.76339750691914,-0.04153884,-0.025350908,0.01863139,249.45853,-98.25512,-1.4697939,STD
2213065593000,3.449996,-0.835549091163959,9.75224836614915,-1.77990233930719,-0.034513887,-0.017104227,0.013744468,249.46364,-98.26711,-1.4632349,STD
2213070487000,3.45489,-0.86499198896168,9.77327899488468,-1.79672688621556,-0.029626964,-0.0106901415,0.014049901,249.46669,-98.28149,-1.4557143,STD
2213075552000,3.459955,-0.893995935015726,9.78917310104187,-1.8417016841262,-0.035124753,-0.0027488936,0.010995574,249.4667,-98.295105,-1.4503832,STD
2213080556000,3.464959,-0.922257591532337,9.80330372026735,-1.89351472517201,-0.038179077,0.0018325958,0.017104227,249.46634,-98.31004,-1.4424729,STD
2213085550000,3.469953,-0.93074128604851,9.7815755327245,-1.87354591372318,-0.03573562,0.02107485,0.018020526,249.46585,-98.328674,-1.4445808,STD
2213090511000,3.474914,-0.933074005879609,9.74891750380517,-1.83155690804733,-0.040317107,0.025961773,0.013133603,249.46814,-98.34409,-1.4469329,STD
2213095531000,3.479934,-0.935434468196102,9.71587108066971,-1.78906853705504,-0.03726278,0.027183503,0.01038471,249.4697,-98.37145,-1.451531,STD
2213100685000,3.485088,-0.937857938869249,9.68194254185693,-1.7454460143271,-0.03726278,0.03726278,0.010079277,249.46735,-98.39621,-1.4560677,STD
2213105541000,3.489944,-0.951129713080977,9.65682169171059,-1.70819670673694,-0.040011674,0.032070424,0.004581489,249.46878,-98.42087,-1.4632196,STD
2213110473000,3.494876,-0.969235257594633,9.63418979060853,-1.67198566497365,-0.046120327,0.039095376,0.004886922,249.46431,-98.4437,-1.4676986,STD
2213115575000,3.499978,-0.982356189816488,9.61640828059333,-1.64298284662927,-0.046120327,0.033292156,0.00580322,249.46002,-98.45328,-1.4770347,STD
2213120568000,3.504971,-0.991449460216792,9.60276856489493,-1.62024962315299,-0.05467244,0.035430185,0.004886922,249.45163,-98.4586,-1.4860367,STD
2213125546000,3.509949,-0.9865007811317,9.60070441083881,-1.60415994056585,-0.058948494,0.028405234,-0.0036651916,249.44476,-98.458954,-1.501063,STD
2213130543000,3.514946,-0.967431137935844,9.61023893375174,-1.59462511896792,-0.055283304,0.016187929,0.003970624,249.43954,-98.4583,-1.5115869,STD
2213135567000,3.51997,-0.95262053501284,9.6262463748074,-1.59177396430406,-0.052534413,0.007330383,-0.0015271631,249.4316,-98.45316,-1.5290784,STD
2213140500000,3.524903,-0.942510452436227,9.64848858012327,-1.59581799395651,-0.049785517,0.00030543262,0.0015271631,249.4273,-98.44829,-1.5420961,STD
2213145523000,3.529926,-0.932215916700907,9.67113658281972,-1.59993580481082,-0.054367006,-0.008552114,0.0009162979,249.43066,-98.439606,-1.5559187,STD
2213150610000,3.535013,-0.921790214274953,9.69407315254237,-1.60410608229755,-0.043676864,-0.01038471,0.0009162979,249.431662163031,-98.438345115288,-1.56067007764599,STD
2213155472000,3.539875,-0.911825644745763,9.71599522881356,-1.60809190677966,-0.03756821,-0.003970624,0.011301007,249.43262,-98.43714,-1.5652113,STD
2213160520000,3.544923,-0.899728593792746,9.74395124559586,-1.64581970070812,-0.03726278,-0.005192355,0.015577064,249.4429,-98.428185,-1.5768934,STD
2213165549000,3.549952,-0.887251436336788,9.77306472590674,-1.69156922593264,-0.042455133,-0.0009162979,0.011911872,249.45016,-98.42246,-1.587276,STD
2213170547000,3.55495,-0.893994583838112,9.80042537033843,-1.71683407406769,-0.042760566,-0.0009162979,0.015577064,249.452516788659,-98.4207213030364,-1.58831891667002,STD
2213175495000,3.559898,-0.919531367563052,9.82596212739815,-1.72194142547963,-0.03848451,0.017715093,0.017715093,249.45485,-98.419,-1.5893514,STD
2213180533000,3.564936,-0.93194667208589,9.81740240490798,-1.73281446625767,-0.037873644,0.029321533,0.023518313,249.4599,-98.41354,-1.5925304,STD
2213185605000,3.570008,-0.936676785008277,9.7890216285909,-1.74700480502483,-0.044593163,0.032986723,0.020463986,249.46494,-98.41617,-1.5928104,STD
2213191050000,3.575453,-0.958118420490592,9.77138941247168,-1.73622947213082,-0.05009095,0.042455133,0.02076942,249.45427,-98.42001,-1.5898826,STD
2213195516000,3.579919,-0.983398703822284,9.76296248271106,-1.71516258768594,-0.042760566,0.052534413,0.02076942,249.4425,-98.425644,-1.5878276,STD
2213200707000,3.58511,-1.00170565140356,9.75018949230305,-1.69323609719288,-0.04795292,0.05100725,0.01740966,249.43256,-98.42974,-1.5872622,STD
2213205606000,3.590009,-1.01114658976758,9.73602828191971,-1.67435422046484,-0.052839845,0.054367006,0.011301007,249.41866,-98.43592,-1.586982,STD
2213210560000,3.594963,-1.01649398827451,9.71921600906863,-1.65148701485784,-0.057421334,0.048258353,0.0125227375,249.41342,-98.43621,-1.5938987,STD
2213215582000,3.599985,-1.01885157109804,9.70035519877451,-1.62555357918137,-0.058948494,0.040317107,0.015882496,249.40778,-98.43615,-1.6017545,STD
2213220582000,3.604985,-1.021198826,9.6815770125,-1.59973375075,-0.054367006,0.047647487,0.010079277,249.39804,-98.433914,-1.613205,STD
2213225582000,3.609985,-1.02354608090196,9.66279882622549,-1.57391392231863,-0.06261369,0.03573562,0.011301007,249.39648,-98.42718,-1.622706,STD
2213230536000,3.614939,-1.02915630838363,9.6600781168427,-1.55880050739344,-0.062002823,0.022296581,0.01038471,249.39212,-98.42321,-1.6309193,STD
2213235578000,3.619981,-1.03826352786684,9.67373916003395,-1.55424692142588,-0.056199603,0.02107485,0.010995574,249.38782,-98.418396,-1.6382853,STD
2213240565000,3.624968,-1.04197676069401,9.68594232029443,-1.57418535398528,-0.056199603,0.023823744,0.015577064,249.3833,-98.4036,-1.6471423,STD
2213245571000,3.629974,-1.03693554498423,9.69602433059937,-1.63467936347003,-0.05100725,0.019242255,0.0070249503,249.38068,-98.392914,-1.6597936,STD
2213250686000,3.635089,-1.02957859221652,9.69658863996444,-1.67343916167523,-0.0421497,0.021685716,0.008857546,249.37521,-98.38147,-1.6691481,STD
2213255590000,3.639993,-1.02030071248518,9.68731105086922,-1.68735598127222,-0.05222898,0.024129177,0.012217305,249.37077,-98.36685,-1.6805052,STD
2213261157000,3.64556,-1.01071414748014,9.68038102200807,-1.69420932949603,-0.043982297,0.015577064,0.0070249503,249.36682,-98.36991,-1.688177,STD
2213265584000,3.649987,-1.00381277790077,9.67762041652559,-1.69282905558015,-0.04520403,0.0290161,0.013439035,249.35666,-98.3667,-1.6906317,STD
2213270449000,3.654852,-0.996228598320094,9.67458668133872,-1.69131221966402,-0.042760566,0.03023783,0.004581489,249.35281,-98.370895,-1.6980286,STD
2213275561000,3.659964,-0.988259363784347,9.67139892095325,-1.68971837275687,-0.04886922,0.027183503,-0.002443461,249.34683,-98.37183,-1.702774,STD
2213280501000,3.664904,-0.980558264682901,9.66831841698138,-1.68817815293658,-0.054061573,0.020463986,0.004886922,249.34192,-98.37334,-1.7060491,STD
2213285570000,3.669973,-0.97265606400573,9.66515747069931,-1.68659771280115,-0.055588737,0.03023783,0.0067195175,249.33282,-98.37485,-1.7122589,STD
2213290514000,3.674917,-0.96326932899522,9.66831552432281,-1.69216494010685,-0.062002823,0.028710667,0.006414085,249.32541,-98.37522,-1.7194885,STD
2213295539000,3.679942,-0.949737553641391,9.68635776586372,-1.71471785978067,-0.05467244,0.03634648,0.0070249503,249.3129,-98.37882,-1.7251394,STD
2213300565000,3.684968,-0.942432903983932,9.7020861862949,-1.72949615009452,-0.06047566,0.03268129,0.008552114,249.30453,-98.376175,-1.7278405,STD
2213305583000,3.689986,-0.965143883464083,9.70662847230624,-1.70678519432892,-0.049785517,0.025961773,0.014049901,249.29529,-98.3799,-1.7291334,STD
2213310637000,3.69504,-0.987495358212219,9.71103689703403,-1.6847435293863,-0.0571159,0.030543262,0.012217305,249.29001,-98.37769,-1.7253461,STD
2213315598000,3.700001,-1.00264748494692,9.71320152854344,-1.67392057526083,-0.054061573,0.022907447,0.016493361,249.29068,-98.38074,-1.7193192,STD
2213320817000,3.70522,-1.01858760779079,9.71547873310857,-1.66253476643583,-0.046731193,0.018020526,0.012217305,249.28336,-98.38042,-1.7206228,STD
2213325581000,3.709984,-1.03313804757392,9.71755740767233,-1.65214158896077,-0.04520403,0.02107485,0.0143553335,249.27652,-98.37878,-1.7190546,STD
2213330887000,3.71529,-1.04934389003599,9.71987257291904,-1.64056598029523,-0.04550946,0.015577064,0.015271631,249.27335,-98.379036,-1.7197173,STD
2213335584000,3.719987,-1.06610962223756,9.72678954332183,-1.64079910555939,-0.04428773,0.024129177,0.021380283,249.26573,-98.37975,-1.7177322,STD
2213340558000,3.724961,-1.0848912893445,9.73618057299162,-1.64549452233613,-0.0421497,0.02565634,0.018936822,249.26144,-98.38112,-1.7185504,STD
2213345558000,3.729961,-1.094713718878,9.73369743870717,-1.6560838875182,-0.039095376,0.024129177,0.02443461,249.25883,-98.37826,-1.7233405,STD
2213350637000,3.73504,-1.09943472899156,9.72425522129477,-1.6702469671552,-0.05375614,0.028099801,0.018020526,249.2537,-98.37199,-1.7318667,STD
2213355539000,3.739942,-1.09860066553616,9.71226271072319,-1.67320906553616,-0.036651913,0.022296581,0.022296581,249.25497,-98.37416,-1.7380782,STD
2213360518000,3.744921,-1.09384426781047,9.69799371620948,-1.66845266781047,-0.03970624,0.019242255,0.01985312,249.25378,-98.36754,-1.7476484,STD
2213365604000,3.750007,-1.09038043189698,9.68897780633977,-1.65811097701833,-0.044898596,0.020463986,0.016493361,249.26057,-98.364746,-1.7540854,STD
2213370525000,3.754928,-1.0880462351263,9.68430931530461,-1.6441057720208,-0.04550946,0.024129177,0.010079277,249.26712,-98.36288,-1.7620598,STD
2213375559000,3.759962,-1.08565843863299,9.67953362258544,-1.62977896812779,-0.052839845,0.011301007,0.015271631,249.2781,-98.35682,-1.7677009,STD
2213380517000,3.76492,-1.08330669151065,9.67483003011392,-1.61566846083705,-0.044898596,0.020158553,0.0143553335,249.28125,-98.35579,-1.7757629,STD
2213385559000,3.769962,-1.07714275757277,9.67509327380365,-1.60638527878638,-0.04642576,0.03390302,0.016187929,249.28177,-98.34957,-1.7792238,STD
2213390527000,3.77493,-1.0677539973557,9.67978775194869,-1.60169089867785,-0.05955936,0.023823744,0.005497787,249.28589,-98.34328,-1.7871183,STD
2213395593000,3.779996,-1.05808346871289,9.68338755539901,-1.58944245032706,-0.06536258,0.009468411,0.0021380284,249.28625,-98.33315,-1.7920434,STD
2213400682000,3.785085,-1.04827437896246,9.68583987264768,-1.56982429643252,-0.05589417,0.01038471,0.014660766,249.28531,-98.3236,-1.7952623,STD
2213405437000,3.78984,-1.03910907698501,9.68813124001208,-1.55149371640334,-0.04886922,0.0106901415,0.011911872,249.28763,-98.31211,-1.8029689,STD
2213410438000,3.794841,-1.02946960796518,9.69054115130321,-1.53221480352722,-0.053450707,0.004276057,0.016798794,249.29227,-98.29911,-1.8052598,STD
2213415438000,3.799841,-1.01542025787055,9.69405331635389,-1.53665928746649,-0.05589417,-0.002443461,0.0143553335,249.29193,-98.2916,-1.8119942,STD
2213420430000,3.804833,-0.997110267215626,9.69863043163539,-1.56412432124665,-0.04184427,-0.010079277,0.013133603,249.29387,-98.28729,-1.8173143,STD
2213425426000,3.809829,-0.984371123852459,9.70742505625,-1.60465283507172,-0.032375857,-0.0125227375,0.013439035,249.29419,-98.27397,-1.8209206,STD
2213430415000,3.814818,-0.979475769836066,9.722111425,-1.66339713438525,-0.045814894,-0.0143553335,0.009468411,249.29611,-98.258865,-1.8264234,STD
2213435410000,3.819813,-0.979034117514462,9.72343640963495,-1.69949443502892,-0.046731193,-0.0125227375,0.015271631,249.30313,-98.25262,-1.8237805,STD
2213440427000,3.82483,-0.983826338300419,9.7090594470377,-1.70907887660084,-0.04520403,-0.007330383,0.01985312,249.30922,-98.243965,-1.8226956,STD
2213445407000,3.82981,-0.978382465299539,9.7053193959447,-1.7202698681659,-0.036957346,-0.007941248,0.015271631,249.31166,-98.249565,-1.8209205,STD
2213450641000,3.835044,-0.959903189124424,9.71455921493088,-1.73412930720737,-0.034513887,0.008857546,0.016493361,249.30812,-98.25335,-1.8155595,STD
2213455510000,3.839913,-0.954008207756494,9.72111505307075,-1.73510632070791,-0.03573562,0.0106901415,0.014660766,249.3166,-98.261024,-1.8168272,STD
2213460570000,3.844973,-0.97357340110807,9.72328900758153,-1.70901938867256,-0.054061573,0.016798794,0.017715093,249.3193,-98.264114,-1.8156127,STD
2213465528000,3.849931,-0.992744197281414,9.72541913929389,-1.68345831969405,-0.04886922,0.01740966,0.023823744,249.32434,-98.27543,-1.8111329,STD
2213470570000,3.854973,-1.01223979113095,9.72758536036966,-1.65746418702167,-0.04550946,0.02321288,0.015271631,249.32568,-98.281845,-1.8097204,STD
2213475492000,3.859895,-1.03127138830021,9.72970002521197,-1.6320887167691,-0.03848451,0.03268129,0.020463986,249.3266,-98.2895,-1.802767,STD
2213480653000,3.865056,-1.01809076955178,9.72193366557187,-1.5915973987925,-0.049480084,0.019242255,0.014049901,249.33157,-98.29423,-1.8024032,STD
2213485516000,3.869919,-1.00009541468315,9.71293580023184,-1.55110789731453,-0.037873644,0.014049901,0.015271631,249.33215,-98.30634,-1.7979306,STD
2213490504000,3.874907,-0.98580915971131,9.71766796857299,-1.53508010228394,-0.044898596,0.018020526,0.0143553335,249.3289,-98.30045,-1.8036777,STD
2213495510000,3.879913,-0.972669713118947,9.72642778256897,-1.52632037975516,-0.04734206,0.004276057,0.021380283,249.33252,-98.298584,-1.8077248,STD
2213500720000,3.885123,-0.954780394671495,9.733155337403,-1.53207004935334,-0.040927973,-0.004276057,0.0125227375,249.33083,-98.290634,-1.8144302,STD
2213505572000,3.889975,-0.935549481376099,9.73796315985515,-1.54649326570098,-0.029321533,-0.0076358155,0.005497787,249.3318,-98.28324,-1.8190806,STD
2213510500000,3.894903,-0.912070995989377,9.73398646939143,-1.56832193932301,-0.027794369,-0.012217305,0.0076358155,249.33514,-98.27291,-1.8221473,STD
2213516219000,3.900622,-0.882487038377746,9.72412495282679,-1.59790587119193,-0.032070424,0.0033597588,0.014049901,249.33345,-98.2646,-1.8253045,STD
2213520499000,3.904902,-0.87542651075866,9.7224275903235,-1.61677769685084,-0.037873644,-0.005192355,0.012217305,249.35147,-98.2593,-1.8330896,STD
2213525501000,3.909904,-0.884569234999523,9.72699903359099,-1.63506308805229,-0.029321533,-0.004886922,0.013133603,249.36255,-98.25646,-1.8372635,STD
2213530540000,3.914943,-0.896387632056279,9.72572747985668,-1.64577455661103,-0.029321533,-0.003970624,0.016798794,249.37468,-98.25742,-1.839276,STD
2213535582000,3.919985,-0.91326649703749,9.7130680634449,-1.64155483926418,-0.04062254,0.00580322,0.014049901,249.38367,-98.258,-1.8424569,STD
2213540628000,3.925031,-0.92996222116304,9.70164233017855,-1.63830854979022,-0.040317107,0.014049901,0.02076942,249.39412,-98.26298,-1.8403947,STD
2213545547000,3.92995,-0.943751379476046,9.70623880427359,-1.64750135399551,-0.03359759,0.01985312,0.016798794,249.4017,-98.26753,-1.8419242,STD
2213550805000,3.935208,-0.957458161634639,9.71110454185093,-1.65545237445525,-0.036957346,0.023518313,0.009773844,249.40674,-98.26888,-1.8451034,STD
2213555546000,3.939949,-0.953807454402187,9.71475530626357,-1.6335482073008,-0.03481932,0.028710667,0.01740966,249.41003,-98.27296,-1.844982,STD
2213560442000,3.944845,-0.950037392683123,9.71852542703224,-1.61092791571922,-0.04642576,0.023823744,0.016798794,249.41457,-98.274925,-1.8511239,STD
2213565551000,3.949954,-0.953371255811369,9.72572650206415,-1.5808908002858,-0.034208454,0.028099801,0.019242255,249.4154,-98.283394,-1.8536521,STD
2213570574000,3.954977,-0.963555312543665,9.73591074489256,-1.54524664160051,-0.04337143,0.02321288,0.022907447,249.42018,-98.28265,-1.8565651,STD
2213575543000,3.959946,-0.961526357392422,9.745343948115,-1.52942343617669,-0.04886922,0.0106901415,0.016493361,249.4177,-98.284065,-1.86351,STD
2213580574000,3.964977,-0.952352517602818,9.75451747658035,-1.5248365282559,-0.039095376,0.003970624,0.014966198,249.41537,-98.28667,-1.8680121,STD
2213586185000,3.970588,-0.951301981791349,9.75236997017812,-1.5163159698117,-0.048258353,0.004276057,0.009468411,249.4144,-98.27769,-1.8801131,STD
2213590557000,3.97496,-0.955563558198473,9.74384712885496,-1.50779286149618,-0.040317107,0.00061086525,0.015577064,249.41673,-98.27566,-1.8895694,STD
2213595535000,3.979938,-0.947302198165492,9.73442364748479,-1.51393714247369,-0.036651913,0.0036651916,0.014966198,249.41635,-98.26966,-1.9007665,STD
2213600662000,3.985065,-0.928339055291108,9.72494189041228,-1.5329003596022,-0.04520403,0.004581489,0.019547688,249.418,-98.2619,-1.9088345,STD
2213605506000,3.989909,-0.921610285826658,9.72493276508059,-1.55305015577647,-0.046120327,0.008246681,0.023518313,249.41771,-98.25723,-1.9199836,STD
2213610560000,3.994963,-0.926281760317537,9.73427590917865,-1.57640747945179,-0.037873644,0.01038471,0.014660766,249.41718,-98.25346,-1.9332846,STD
2213615607000,4.00001,-0.929949230441397,9.739613,-1.59674277352103,-0.04184427,0.012217305,0.013439035,249.42227,-98.25054,-1.9445559,STD
2213620569000,4.004972,-0.932244110510938,9.739613,-1.61280695797073,-0.04917465,0.022296581,0.021991149,249.42426,-98.24893,-1.9548208,STD
2213625499000,4.009902,-0.934524190870237,9.739613,-1.6287675442942,-0.051923547,0.018325957,0.026572637,249.43059,-98.25174,-1.9664403,STD
2213630554000,4.014957,-0.936862082597672,9.739613,-1.64513281079828,-0.043676864,0.022296581,0.023518313,249.43173,-98.2555,-1.9768627,STD
