timestamp,rel_time,acc_x,acc_y,acc_z,gyro_x,gyro_y,gyro_z,azimuth,pitch,roll,label
11385011900000,0,-0.295340401063878,9.82426359267257,-0.892866541465487,-0.042760566,-0.1160644,0.024740042,237.83974,113.97802,18.515387,STD
11385016907000,0.005007,-0.296538758830409,9.82546194918779,-0.892626870162443,-0.052534413,-0.109650314,0.030543262,237.66663,114.33553,18.707708,STD
11385021903000,0.010003,-0.297734483895637,9.82665767300445,-0.89238772539911,-0.04153884,-0.10873401,0.027488936,237.48853,114.69682,18.906437,STD
11385026892000,0.014992,-0.298928533605488,9.82785172146749,-0.892148915706503,-0.043982297,-0.101098195,0.022296581,237.311,115.0673,19.106955,STD
11385031912000,0.020012,-0.300130002746289,9.82905318935373,-0.891908622129255,-0.033292156,-0.09896017,0.025961773,237.12907,115.43795,19.30726,STD
11385036920000,0.02502,-0.301328599849303,9.83025178520518,-0.891668902958964,-0.03970624,-0.09621128,0.0290161,236.94534,115.81934,19.511559,STD
11385041935000,0.030035,-0.302528872307692,9.83145205641025,-0.891428848717949,-0.030848695,-0.09193522,0.029321533,236.759,116.20165,19.717615,STD
11385046934000,0.035034,-0.303725315382366,9.83264849823562,-0.891189560352876,-0.040317107,-0.09407325,0.02443461,236.56754,116.59494,19.925552,STD
11385051945000,0.040045,-0.304924630494827,9.83384781209577,-0.890949697580847,-0.03145956,-0.086437434,0.022296581,236.37654,116.98845,20.135479,STD
11385056847000,0.044947,-0.306097857930724,9.83502103830659,-0.890715052338681,-0.025961773,-0.084910266,0.022907447,236.17892,117.39081,20.346786,STD
11385061820000,0.04992,-0.305959889209732,9.83554696294964,-0.892634782467826,-0.03756821,-0.08307768,0.020158553,235.97894,117.80195,20.561808,STD
11385066817000,0.054917,-0.305242633470624,9.83578602805755,-0.89550380442566,-0.040011674,-0.07360926,0.022602014,235.77802,118.21513,20.777596,STD
11385071804000,0.059904,-0.304526813104217,9.8360246147482,-0.898367084894684,-0.0290161,-0.07819075,0.019242255,235.56769,118.62903,20.98652,STD
11385076798000,0.064898,-0.303809987976918,9.83626353633094,-0.901234384405875,-0.03573562,-0.086437434,0.02076942,235.35548,119.05135,21.195248,STD
11385081767000,0.069867,-0.303096751281375,9.8365012618705,-0.904087330195044,-0.03970624,-0.07696902,0.021991149,235.1423,119.47806,21.407461,STD
11385086786000,0.074886,-0.302376337722322,9.8367413794964,-0.906968983428257,-0.041233405,-0.08032878,0.020158553,234.91843,119.91214,21.619024,STD
11385091800000,0.0799,-0.30165664184962,9.83698125791367,-0.909847765917066,-0.044593163,-0.07849618,0.01740966,234.69421,120.35356,21.832993,STD
11385096795000,0.084895,-0.300939673185052,9.83722022733813,-0.912715639577138,-0.038789943,-0.07849618,0.021380283,234.46439,120.79881,22.04603,STD
11385101884000,0.089984,-0.300209212017086,9.83746369388489,-0.915637483232014,-0.04184427,-0.07513642,0.02076942,234.23042,121.254364,22.262415,STD
11385106887000,0.094987,-0.299491095054357,9.83770304604317,-0.918509950083134,-0.039095376,-0.08002335,0.020463986,233.98975,121.71312,22.477468,STD
11385111882000,0.099982,-0.298774126389788,9.83794201546763,-0.921377823743206,-0.043676864,-0.086437434,0.016798794,233.74414,122.18118,22.694382,STD
11385116878000,0.104978,-0.29805701418795,9.83818103273381,-0.924246271552158,-0.04520403,-0.083383106,0.019547688,233.49553,122.65329,22.91074,STD
11385121879000,0.109979,-0.29733918429976,9.83842028920864,-0.927117590105516,-0.042760566,-0.08093964,0.023823744,233.23953,123.132454,23.127264,STD
11385126887000,0.114987,-0.296620349650679,9.83865988057554,-0.929992927701039,-0.042760566,-0.093767814,0.021380283,232.9743,123.61976,23.34363,STD
11385131880000,0.11998,-0.295903668060651,9.83889875431655,-0.932859653063349,-0.044898596,-0.08735373,0.022296581,232.7109,124.11195,23.560755,STD
11385136882000,0.124982,-0.295185694635192,9.83913805863309,-0.935731545765587,-0.03848451,-0.09407325,0.026267206,232.43486,124.60889,23.774572,STD
11385141916000,0.130016,-0.294463128017086,9.83937889388489,-0.938621811232014,-0.032070424,-0.08307768,0.022296581,232.15915,125.11426,23.993092,STD
11385146901000,0.135001,-0.29374759472522,9.83961738489209,-0.941483943403277,-0.04734206,-0.0842994,0.015577064,231.87267,125.62906,24.208635,STD
11385151859000,0.139959,-0.293035936939648,9.83985458417266,-0.944330573554756,-0.04550946,-0.09621128,0.016187929,231.58115,126.145,24.422964,STD
11385156882000,0.144982,-0.292314949231515,9.84009489316547,-0.947214523383493,-0.04337143,-0.087964594,0.019242255,231.28847,126.67151,24.64039,STD
11385161896000,0.149996,-0.291595253358813,9.84033477158273,-0.950093305872302,-0.04428773,-0.09132435,0.02076942,230.98328,127.205124,24.854223,STD
11385166883000,0.154983,-0.290879432992406,9.84057335827338,-0.952956586341327,-0.03359759,-0.08735373,0.016493361,230.67603,127.74312,25.070042,STD
11385171934000,0.160034,-0.290154426240707,9.84081500683453,-0.955856612338729,-0.038179077,-0.07666359,0.021991149,230.3654,128.2889,25.282549,STD
11385176920000,0.16502,-0.289438749411571,9.84105354568345,-0.958719318658873,-0.03940081,-0.086132,0.019547688,230.04234,128.84084,25.494688,STD
11385181884000,0.169984,-0.288726230402378,9.84129103201439,-0.961569393703637,-0.03940081,-0.06780604,0.01282817,229.72382,129.3999,25.710829,STD
11385186868000,0.174968,-0.288010840647782,9.84152947517986,-0.964430951726019,-0.03940081,-0.07452556,0.008246681,229.38957,129.96594,25.920538,STD
11385191879000,0.179979,-0.28729157538689,9.84176921007194,-0.967308011768185,-0.043982297,-0.06352998,0.009468411,229.05858,130.5398,26.134306,STD
11385196887000,0.184987,-0.28657274073781,9.84200880143885,-0.970183349363709,-0.038789943,-0.061391957,0.008246681,228.71574,131.11966,26.345713,STD
11385201861000,0.189961,-0.285858786355915,9.84224676618705,-0.973039165897282,-0.040927973,-0.062308256,0.013133603,228.36978,131.7073,26.554678,STD
11385206883000,0.194983,-0.285137942185052,9.84248702733813,-0.975922541577138,-0.045814894,-0.058643065,0.0036651916,228.01628,132.30408,26.766354,STD
11385211886000,0.199986,-0.284419825222322,9.8427263794964,-0.978795008428258,-0.04428773,-0.061086524,0.0143553335,227.6588,132.90181,26.9687,STD
11385216880000,0.20498,-0.283703000095024,9.84296530107914,-0.981662307939449,-0.04153884,-0.049480084,0.0106901415,227.29492,133.51154,27.177128,STD
11385221876000,0.209976,-0.282985887893185,9.84320431834533,-0.984530755748401,-0.042760566,-0.04337143,0.018325957,226.92632,134.1242,27.376453,STD
11385226896000,0.214996,-0.282265330796863,9.84344448381295,-0.987412983130496,-0.03390302,-0.045814894,0.022296581,226.55042,134.74213,27.575186,STD
11385231884000,0.219984,-0.281549366893185,9.84368311834533,-0.990276837748401,-0.03573562,-0.03726278,0.021685716,226.17274,135.36859,27.773123,STD
11385236858000,0.224958,-0.280835412511291,9.84392108309352,-0.993132654281975,-0.03848451,-0.020158553,0.01740966,225.78987,135.99982,27.96889,STD
11385241876000,0.229976,-0.280115142489508,9.8441611528777,-0.996013733366307,-0.03268129,-0.029932396,0.01863139,225.39653,136.63512,28.156895,STD
11385246889000,0.234989,-0.279395590154077,9.84440098345324,-0.998891941706235,-0.031154128,-0.036957346,0.020463986,225.00069,137.2791,28.345663,STD
11385251877000,0.239977,-0.2786796262504,9.84463961798561,-1.00175579632414,-0.03176499,-0.029321533,0.021380283,224.5993,137.92863,28.531479,STD
11385256894000,0.244994,-0.277959499765887,9.84487963992806,-1.00463630125959,-0.02565634,-0.022602014,0.013133603,224.18759,138.58408,28.713373,STD
11385261891000,0.249991,-0.279992196453685,9.84463346797771,-1.00249104713911,-0.025045475,-0.01740966,0.012217305,223.77237,139.24562,28.890343,STD
11385267628000,0.255728,-0.283836319901847,9.84408432501562,-0.99727402155836,-0.027183503,-0.016187929,0.016187929,223.35036,139.91331,29.064102,STD
11385271863000,0.259963,-0.286674016050176,9.84367895279242,-0.993422861834729,-0.035430185,-0.017104227,0.014660766,222.9141,140.5939,29.224072,STD
11385276894000,0.264994,-0.29004507846393,9.84319738782079,-0.98884784776871,-0.028710667,-0.004886922,0.01160644,222.47539,141.27753,29.381239,STD
11385281869000,0.269969,-0.293378617622829,9.84272118314301,-0.984323758128789,-0.021991149,-0.0070249503,0.0125227375,222.02734,141.96881,29.529503,STD
11385286852000,0.274952,-0.296717517246708,9.84224421270896,-0.979792393570854,-0.030543262,-0.0030543262,0.01740966,221.5776,142.66805,29.67571,STD
11385291872000,0.279972,-0.300081209021115,9.84176370065219,-0.975227382517105,-0.036651913,-0.0030543262,0.013439035,221.348724239705,143.020421063915,29.7460695871971,STD
11385296881000,0.284981,-0.303437530156176,9.84128424151028,-0.970672374475624,-0.036957346,0.00030543262,0.018020526,221.12035,143.37202,29.816275,STD
11385301881000,0.289981,-0.306787820768135,9.84080564384418,-0.96612555071691,-0.03145956,-0.0018325958,0.018936822,220.658,144.08038,29.949432,STD
11385306927000,0.295027,-0.310168934053724,9.84032264307954,-0.961536896179615,-0.04520403,0.007941248,0.019242255,220.19322,144.80049,30.079527,STD
11385311955000,0.300055,-0.313537986293111,9.8398413652665,-0.956964610207851,-0.040011674,0.012217305,0.01985312,219.72136,145.52078,30.201256,STD
11385316880000,0.30498,-0.316838022545891,9.83936994656538,-0.952485988805517,-0.03726278,0.005192355,0.017715093,219.24304,146.25096,30.316296,STD
11385321876000,0.309976,-0.32018563292536,9.83889173177741,-0.94794280250581,-0.038789943,0.0030543262,0.0143553335,218.76118,146.98679,30.426413,STD
11385326883000,0.314983,-0.323540613944177,9.83841246407457,-0.943389613193833,-0.03268129,0.01160644,0.015271631,218.27545,147.7255,30.529726,STD
11385331895000,0.319995,-0.326898945253605,9.83793271777406,-0.938831877058097,-0.03573562,0.009162978,0.013744468,217.78058,148.47316,30.623615,STD
11385337617000,0.325717,-0.330733017829931,9.83738501060496,-0.933628491948624,-0.04795292,0.017715093,0.01863139,217.28694,149.22571,30.712976,STD
11385341932000,0.330032,-0.333624318628052,9.83697198081911,-0.929704583044854,-0.03970624,0.011301007,0.02107485,216.78433,149.98024,30.791075,STD
11385346883000,0.334983,-0.336941776392014,9.83649807341013,-0.925202318158975,-0.03176499,0.010995574,0.01985312,216.28076,150.74265,30.86415,STD
11385351850000,0.33995,-0.340269955085934,9.83602263448862,-0.920685503437067,-0.027488936,0.016187929,0.016798794,215.77327,151.50894,30.92852,STD
11385356929000,0.345029,-0.343673180289562,9.83553647497939,-0.916066839862965,-0.04337143,0.01160644,0.017715093,215.26117,152.28258,30.98145,STD
11385361934000,0.350034,-0.347026821192134,9.83505739871561,-0.911515469280492,-0.03573562,0.0125227375,0.019242255,214.7471,153.05495,31.028555,STD
11385366878000,0.354978,-0.350339588549239,9.83458416134336,-0.907019569947875,-0.03940081,0.01740966,0.017104227,214.22923,153.83882,31.066895,STD
11385371875000,0.359975,-0.353687868986831,9.83410585083585,-0.902475474283415,-0.03634648,0.025350908,0.018325957,213.71088,154.62308,31.0963,STD
11385376894000,0.364994,-0.357050890703116,9.83362543449861,-0.897911372594418,-0.034513887,0.016798794,0.014049901,213.1862,155.41415,31.114504,STD
11385381887000,0.369987,-0.360396490908219,9.83314750686924,-0.893370914388965,-0.03176499,0.031154128,0.019242255,212.6678,156.2068,31.129435,STD
11385386867000,0.374967,-0.36373338035773,9.83267082359379,-0.888842277925285,-0.04428773,0.029932396,0.0143553335,212.13985,157.00906,31.130554,STD
11385391876000,0.379976,-0.367089701492791,9.83219136445189,-0.884287269883805,-0.0421497,0.028710667,0.021380283,211.61815,157.80841,31.123257,STD
11385396916000,0.385016,-0.370466794429646,9.83170893800445,-0.879704071535021,-0.040011674,0.02321288,0.014966198,211.08946,158.6175,31.106888,STD
11385401857000,0.389957,-0.373777551612384,9.8312359877908,-0.875210900296659,-0.03726278,0.026572637,0.019242255,210.56697,159.42674,31.080204,STD
11385406886000,0.394986,-0.377147273909893,9.83075461425823,-0.870637704960144,-0.038789943,0.018020526,0.016798794,210.03833,160.24207,31.0403,STD
11385411893000,0.399993,-0.380502254928709,9.83027534655539,-0.866084515648167,-0.04337143,0.01740966,0.024129177,209.51625,161.05858,30.991455,STD
11385416886000,0.404986,-0.383847855133811,9.82979741892601,-0.861544057442715,-0.038179077,0.02321288,0.019547688,208.9906,161.87851,30.933205,STD
11385421911000,0.410011,-0.387214897198831,9.82931642827157,-0.856974499565207,-0.03359759,0.019242255,0.025045475,208.47081,162.69998,30.859844,STD
11385426880000,0.41498,-0.390544416008996,9.82884079791099,-0.852455866113796,-0.03604105,0.014049901,0.019547688,207.94885,163.52708,30.778711,STD
11385431891000,0.419991,-0.393902077260301,9.82836114733002,-0.847899039342812,-0.03359759,0.025045475,0.022296581,207.43512,164.35242,30.689003,STD
11385436854000,0.424954,-0.397227575721732,9.82788609128664,-0.843385862079912,-0.036957346,0.016187929,0.019242255,206.9183,165.18391,30.58289,STD
11385441872000,0.429972,-0.400589927379895,9.82740577066893,-0.838822669755666,-0.023518313,0.014966198,0.018020526,206.4084,166.01227,30.470837,STD
11385446880000,0.43498,-0.403945578456833,9.82692640724656,-0.834268571078937,-0.0290161,0.020158553,0.012217305,205.89983,166.84927,30.348083,STD
11385451843000,0.439943,-0.407271076918264,9.82645135120318,-0.829755393816037,-0.031154128,0.0143553335,0.018936822,205.39832,167.68237,30.210522,STD
11385456897000,0.444997,-0.410657550668832,9.82596758468227,-0.825159464360729,-0.026572637,0.0143553335,0.01740966,204.8982,168.51892,30.06647,STD
11385461894000,0.449994,-0.41258726151103,9.82486249989286,-0.820310118964474,-0.021991149,0.03176499,0.02107485,204.40813,169.35574,29.914358,STD
11385466875000,0.454975,-0.413775826141944,9.82343621886072,-0.815318149500376,-0.03390302,0.02076942,0.01863139,203.91946,170.19792,29.744333,STD
11385471871000,0.459971,-0.414967970068072,9.82200564266386,-0.810311147002357,-0.027183503,0.020158553,0.019547688,203.45122,171.02397,29.549173,STD
11385476882000,0.464982,-0.416163693289414,9.82057077130228,-0.805289111470417,-0.03634648,0.028099801,0.025961773,202.99081,171.85805,29.342924,STD
11385481881000,0.469981,-0.417356553074585,9.81913933607248,-0.800279102365613,-0.04428773,0.02321288,0.022296581,202.53424,172.69281,29.123163,STD
11385486851000,0.474951,-0.418542492889007,9.8177162048278,-0.795298157126391,-0.02687807,0.021685716,0.026267206,202.0907,173.5227,28.895966,STD
11385491852000,0.479952,-0.41973582991354,9.81628419690937,-0.790286143617065,-0.03756821,0.028405234,0.021991149,201.65172,174.36426,28.660263,STD
11385496881000,0.484981,-0.42093584828914,9.81484417135012,-0.785246068444419,-0.03756821,0.025045475,0.025350908,201.22473,175.19794,28.411161,STD
11385501858000,0.489958,-0.422123458441329,9.81341903569524,-0.780258107789367,-0.048563786,0.022907447,0.022602014,200.80371,176.03908,28.155045,STD
11385506918000,0.495018,-0.423330874027039,9.81197013346224,-0.775186964346617,-0.04886922,0.00580322,0.018020526,200.3922,176.8777,27.884216,STD
11385511886000,0.499986,-0.4245163366021,9.81054757490619,-0.770208023511917,-0.036957346,0.0106901415,0.022602014,199.99298,177.71533,27.609716,STD
11385516875000,0.504975,-0.425706810190461,9.80911900311953,-0.765208036429728,-0.040011674,0.020463986,0.023518313,199.60104,178.55794,27.322798,STD
11385521906000,0.510006,-0.426907305805423,9.80767840487166,-0.76016595685256,-0.03756821,0.009468411,0.020158553,199.2196,179.39586,27.022484,STD
11385526919000,0.515019,-0.428103506266127,9.80624296082144,-0.755141916916096,-0.03756821,0.004886922,0.020463986,198.85056,-179.76582,26.7182,STD
11385531891000,0.519991,-0.429289923319912,9.80481925688814,-0.750158967272351,-0.03604105,0.005192355,0.021991149,198.49188,-178.92883,26.403828,STD
11385536862000,0.524962,-0.430476101754015,9.80339583929915,-0.745177019830867,-0.040011674,0.00580322,0.02107485,198.14392,-178.09096,26.080105,STD
11385541891000,0.529991,-0.431676120129615,9.8019558137399,-0.740136944658222,-0.03268129,0.0067195175,0.02107485,197.80833,-177.25769,25.748734,STD
11385546861000,0.534961,-0.432862059944038,9.80053268249523,-0.735155999418999,-0.03268129,-0.0021380284,0.02107485,197.48453,-176.42258,25.407139,STD
11385551869000,0.539969,-0.434057067306337,9.79909867016659,-0.730136970493843,-0.03481932,0.014049901,0.019547688,197.17163,-175.59,25.065619,STD
11385556969000,0.545069,-0.435274027679286,9.79763831416099,-0.725025738960637,-0.029321533,0.0070249503,0.016798794,196.87143,-174.76082,24.707855,STD
11385561916000,0.550016,-0.436454479241046,9.79622176883556,-0.720067844373427,-0.031154128,0.016493361,0.01985312,196.5839,-173.93144,24.352787,STD
11385566878000,0.554978,-0.437638510098021,9.7948009283454,-0.715094916752296,-0.03481932,0.017104227,0.01740966,196.3068,-173.10399,23.986462,STD
11385571858000,0.559958,-0.438826836109253,9.79337493365758,-0.71010394949046,-0.028405234,0.0061086523,0.02076942,196.04517,-172.28186,23.613688,STD
11385576908000,0.565008,-0.440031865498154,9.79192889486772,-0.705042828070324,-0.02321288,0.01160644,0.019242255,195.79318,-171.45992,23.239576,STD
11385581885000,0.569985,-0.441219475650343,9.79050375921284,-0.700054867415272,-0.028099801,0.03604105,0.018325957,195.55469,-170.63995,22.862278,STD
11385586847000,0.574947,-0.442403506507318,9.78908291872268,-0.695081939794141,-0.03940081,0.021685716,0.018325957,195.3307,-169.82225,22.470282,STD
11385591858000,0.579958,-0.44359922972866,9.7876480473611,-0.6900599042622,-0.041233405,0.021685716,0.021685716,195.11804,-169.00885,22.084368,STD
11385596888000,0.584988,-0.444799486723941,9.78620773545754,-0.685018826887293,-0.04184427,0.026267206,0.01863139,194.91692,-168.1951,21.690615,STD
11385601884000,0.589984,-0.445991630650069,9.78477715926068,-0.680011824389274,-0.050396383,0.024129177,0.018936822,194.73125,-167.38266,21.29097,STD
11385606880000,0.59498,-0.447183774576197,9.78334658306382,-0.675004821891255,-0.046120327,0.01740966,0.0143553335,194.55624,-166.57597,20.886683,STD
11385611885000,0.599985,-0.448378066079453,9.78191342976813,-0.669988799572883,-0.04428773,0.019547688,0.015882496,194.39566,-165.77054,20.480883,STD
11385616885000,0.604985,-0.449571164484305,9.78048170819401,-0.664977788265818,-0.05589417,0.0143553335,0.017715093,194.24802,-164.96587,20.067377,STD
11385621878000,0.609978,-0.45076259255139,9.77905199103009,-0.659973792374583,-0.04917465,0.008246681,0.021685716,194.11444,-164.17079,19.651308,STD
11385626885000,0.614985,-0.451957361294009,9.77761826504577,-0.654955765651689,-0.03848451,0.0033597588,0.020158553,193.99327,-163.37727,19.23093,STD
11385631881000,0.619981,-0.453149505220136,9.77618768884891,-0.649948763153669,-0.031154128,0.008246681,0.020463986,193.88652,-162.58934,18.809433,STD
11385636846000,0.624946,-0.454334251936154,9.77476598932581,-0.644972828925754,-0.039095376,0.008246681,0.019242255,193.840594491931,-162.20109757621,18.5975336455469,STD
11385641919000,0.630019,-0.455544769577717,9.77331336461671,-0.639888656853606,-0.038179077,0.0018325958,0.01985312,193.79367,-161.80441,18.381025,STD
11385646917000,0.635017,-0.456737390743207,9.77188221573122,-0.634879649951064,-0.034208454,-0.009773844,0.02076942,193.71442,-161.02898,17.950743,STD
11385651854000,0.639954,-0.457915456108157,9.77046853384894,-0.629931777386468,-0.031154128,-0.013133603,0.019547688,193.6472,-160.25563,17.518986,STD
11385656895000,0.644995,-0.459118337919929,9.76902507215791,-0.624879675786686,-0.025961773,-0.01282817,0.019242255,193.5943,-159.48875,17.083874,STD
11385662520000,0.65062,-0.458099974653349,9.77310319976498,-0.644707016451234,-0.029626964,-0.014049901,0.01985312,193.55475,-158.72499,16.64631,STD
11385666880000,0.65498,-0.455966686552394,9.77950297496551,-0.674573065457518,-0.024740042,-0.0143553335,0.019242255,193.52745,-157.9697,16.208075,STD
11385671857000,0.659957,-0.453531508827977,9.78680840642722,-0.708665571398866,-0.021685716,-0.010995574,0.018020526,193.53702,-157.2168,15.745055,STD
11385676897000,0.664997,-0.451065506069075,9.7942063117049,-0.743189628048332,-0.029626964,-0.012217305,0.014049901,193.5594,-156.46617,15.279894,STD
11385681878000,0.669978,-0.447214409157264,9.80286414448328,-0.791313871502746,-0.025045475,-0.00061086525,0.013744468,193.63242,-155.72604,14.778389,STD
11385686863000,0.674963,-0.442447509751373,9.8123981125312,-0.848516534957564,-0.015271631,0.0012217305,0.0143553335,193.71983,-154.98897,14.274236,STD
11385691914000,0.680014,-0.443417311247531,9.82776374861715,-0.908984058879889,-0.025350908,0.008857546,0.008246681,193.88037,-154.2591,13.706567,STD
11385696895000,0.684995,-0.448129104039905,9.8466107623469,-0.970237222500988,-0.026572637,0.004886922,0.011301007,194.05998,-153.53923,13.139895,STD
11385701877000,0.689977,-0.435474049771011,9.85320343878385,-1.01993752951845,-0.027488936,0.011911872,0.018020526,194.35016,-152.8298,12.4801035,STD
11385706895000,0.694995,-0.410043701090586,9.85089154259874,-1.06155084008755,-0.03604105,0.009162978,0.015577064,194.65747,-152.12112,11.820778,STD
11385711889000,0.699989,-0.384734980223698,9.84859070370905,-1.10296512326454,-0.031154128,0.013439035,0.015271631,195.13979,-151.42744,11.013856,STD
11385716879000,0.704979,-0.359446530659066,9.84629170770193,-1.14434623520951,-0.03756821,0.010995574,0.016187929,195.64195,-150.73073,10.213545,STD
11385721852000,0.709952,-0.338535214230207,9.8470336505118,-1.18290675001044,-0.038789943,0.015882496,0.014660766,196.45412,-150.04028,9.150497,STD
11385726890000,0.71499,-0.323416783484437,9.85207322916231,-1.21818306386046,-0.04153884,0.016493361,0.018325957,197.29024,-149.3476,8.104034,STD
11385731862000,0.719962,-0.309063614973438,9.84988681213175,-1.24470276689848,-0.03848451,0.0012217305,0.01740966,198.62157,-148.63802,6.6627517,STD
11385736852000,0.724952,-0.295215957695354,9.84065533623104,-1.26316629708297,-0.023823744,-0.0036651916,0.01282817,199.97267,-147.92514,5.2616677,STD
11385741854000,0.729954,-0.281019327130072,9.83747578043324,-1.27790523274687,-0.03573562,-0.0070249503,0.018325957,202.3034,-147.10626,3.1058853,STD
11385746840000,0.73494,-0.266451044410658,9.84233146394793,-1.28761746179193,-0.03634648,-0.0106901415,0.02443461,204.64459,-146.27602,1.0482907,STD
11385751864000,0.739964,-0.26078118190495,9.84937190217822,-1.2884541669703,-0.035124753,-0.010079277,0.021991149,206.98697,-145.31613,-0.8184263,STD
11385756883000,0.744983,-0.265540202674257,9.85889011267327,-1.27893610555446,-0.036651913,-0.02443461,0.02321288,209.34048,-144.34706,-2.5751514,STD
11385761836000,0.749936,-0.26606083348542,9.86202119638961,-1.2632665001587,-0.025961773,-0.015882496,0.021685716,211.64682,-143.27576,-4.091883,STD
11385766834000,0.754934,-0.261313263921841,9.85727354255108,-1.23952872670105,-0.034513887,-0.029626964,0.016798794,213.95567,-142.20142,-5.5034013,STD
11385771825000,0.759925,-0.260421099562391,9.8452973811224,-1.20735804295523,-0.03390302,-0.03940081,0.024740042,216.23615,-141.04034,-6.6955314,STD
11385776896000,0.764996,-0.264867140478806,9.82306724617779,-1.16289772664103,-0.032070424,-0.043676864,0.020158553,218.4993,-139.8909,-7.7828197,STD
11385781819000,0.769919,-0.267001479748408,9.80779914244971,-1.12316848329004,-0.02443461,-0.03940081,0.02076942,220.73051,-138.75829,-8.753104,STD
11385786923000,0.775023,-0.262022608980901,9.81277810939648,-1.09329527948052,-0.0290161,-0.021991149,0.020158553,222.93634,-137.63805,-9.622443,STD
11385801869000,0.789969,-0.252775666746202,9.81950617866579,-0.997507587111955,-0.034208454,-0.01863139,0.027183503,227.70581,-134.58385,-10.836433,STD
11385806848000,0.794948,-0.264586169633421,9.79982202774108,-0.942391923414795,-0.032986723,-0.008857546,0.02443461,229.258,-133.59827,-11.142224,STD
11385811754000,0.799854,-0.276223511903897,9.78042647754293,-0.88808434235469,-0.029321533,-0.013744468,0.01863139,230.77261,-132.62665,-11.398315,STD
11385816793000,0.804893,-0.288256486816752,9.78213149927619,-0.864219666370489,-0.029626964,0.00061086525,0.02076942,232.26257,-131.67001,-11.607493,STD
11385821769000,0.809869,-0.30015041099386,9.7868889159387,-0.84518939364848,-0.030848695,0.010995574,0.020158553,233.73247,-130.73112,-11.782026,STD
11385826796000,0.814896,-0.312166238332751,9.79169509229771,-0.825964075928718,-0.033292156,0.0012217305,0.014966198,235.15112,-129.81143,-11.916611,STD
11385831742000,0.819842,-0.323988454767633,9.7964238267858,-0.807048535558329,-0.018936822,0.004581489,0.008246681,236.54247,-128.91226,-12.014555,STD
11385836792000,0.824892,-0.337865603331382,9.79298862295082,-0.792197622259953,-0.019547688,0.011911872,0.019547688,237.9154,-128.02318,-12.079559,STD
11385841750000,0.82985,-0.351765429869243,9.78835573770492,-0.778297824750195,-0.039095376,0.011911872,0.012217305,239.26245,-127.15137,-12.1219425,STD
11385846792000,0.834892,-0.347388406160077,9.79445022875759,-0.765291193827595,-0.030848695,0.015577064,0.016493361,240.5824,-126.305115,-12.140359,STD
11385851876000,0.839976,-0.338814222477767,9.80302413489478,-0.75242988696839,-0.028405234,0.021991149,0.0125227375,241.8764,-125.46932,-12.13635,STD
11385856901000,0.845001,-0.336120624016255,9.80571759651202,-0.746058515983745,-0.029626964,0.010079277,0.0106901415,243.1405,-124.65359,-12.110929,STD
11385861890000,0.84999,-0.337738594053505,9.8040995926854,-0.744440545946495,-0.023823744,0.018325957,0.009468411,244.37491,-123.85618,-12.060159,STD
11385866869000,0.854969,-0.339353321015916,9.80248483200135,-0.742825818984084,-0.025350908,0.020158553,0.0125227375,245.59,-123.06824,-11.988352,STD
11385871902000,0.860002,-0.340985560582459,9.80085255834744,-0.741193579417541,-0.015577064,0.020463986,0.0143553335,246.78021,-122.300545,-11.897142,STD
11385876895000,0.864995,-0.342604827849644,9.7992332572638,-0.739574312150356,-0.024740042,0.024740042,0.009468411,247.95847,-121.54552,-11.796573,STD
11385881878000,0.869978,-0.344220852041991,9.79761719932272,-0.737958287958009,-0.029932396,0.016798794,0.015882496,249.11804,-120.80795,-11.677488,STD
11385886846000,0.874946,-0.334147453327717,9.80238190143218,-0.753340491095198,-0.021685716,0.013744468,0.013439035,250.24988,-120.08829,-11.544929,STD
11385891890000,0.87999,-0.317869305250211,9.81052114119629,-0.77775773020893,-0.016187929,0.02443461,0.01282817,251.35805,-119.38079,-11.395174,STD
11385896887000,0.884987,-0.310219707759455,9.81748098790106,-0.799890820782398,-0.025045475,0.030543262,0.014966198,252.44171,-118.688126,-11.234326,STD
11385901887000,0.889987,-0.323094066963614,9.82177252760351,-0.817056634548306,-0.026572637,0.021991149,0.022907447,253.50452,-118.013084,-11.060684,STD
11385907008000,0.895108,-0.335001753217599,9.82654994323505,-0.83523355558005,-0.02565634,0.023823744,0.018325957,254.55551,-117.34988,-10.874468,STD
11385911886000,0.899986,-0.332856275565353,9.8351318090383,-0.858833820956186,-0.038179077,0.016187929,0.014966198,255.58981,-116.69676,-10.678095,STD
11385916887000,0.904987,-0.330656699153118,9.84393006875172,-0.883029172974649,-0.033292156,0.025045475,0.011911872,256.59763,-116.06745,-10.474459,STD
11385921860000,0.90996,-0.328469437905759,9.85267906806283,-0.907089058115183,-0.03268129,0.017104227,0.0033597588,257.5891,-115.449646,-10.267783,STD
11385926891000,0.914991,-0.326256666674015,9.86153010677873,-0.93142955321714,-0.029626964,0.021991149,0.013439035,258.5435,-114.849495,-10.047187,STD
11385931878000,0.919978,-0.328927754412199,9.86079461633055,-0.958424953787506,-0.04337143,0.013439035,0.0125227375,259.481,-114.26179,-9.827822,STD
11385936900000,0.925,-0.333659155258239,9.85606311667486,-0.986813383566158,-0.035430185,0.01038471,0.01740966,260.39752,-113.69289,-9.597649,STD
11385941899000,0.929999,-0.332000694224588,9.84178388346643,-1.00873808310165,-0.03940081,0.014966198,0.008552114,261.3109,-113.13351,-9.364071,STD
11385946893000,0.934993,-0.327285468039042,9.82292307719609,-1.02759898784383,-0.040317107,0.0106901415,0.010995574,262.2093,-112.58961,-9.123241,STD
11385951851000,0.939951,-0.32920129776032,9.81443203457204,-1.03609003731427,-0.03481932,0.0027488936,0.01038471,263.08936,-112.065155,-8.8814125,STD
11385956965000,0.945065,-0.334965358226969,9.81154994565569,-1.03897208108983,-0.035430185,-0.0012217305,0.01160644,263.95093,-111.55264,-8.635521,STD
11385962106000,0.950206,-0.340759850768823,9.80865264039191,-1.04186934097449,-0.034208454,0.008246681,0.013133603,264.80057,-111.05749,-8.385858,STD
11385966863000,0.954963,-0.346121531574425,9.80597174540265,-1.04455019397417,-0.026572637,0.0070249503,0.011911872,265.6355,-110.57806,-8.136066,STD
11385971835000,0.959935,-0.351725541867773,9.8031696832024,-1.04735221228705,-0.025045475,0.0036651916,0.01282817,266.45068,-110.110825,-7.883184,STD
11385976891000,0.964991,-0.357424229728426,9.8003202812546,-1.05020156960603,-0.028710667,0.004886922,0.01282817,267.24716,-109.65818,-7.629683,STD
11385981865000,0.969965,-0.363030494249566,9.7975170919175,-1.0530047150381,-0.029626964,0.009162978,0.004276057,268.02585,-109.22108,-7.377844,STD
11385987502000,0.975602,-0.372700411739788,9.80585493513616,-1.00514909665753,-0.023518313,0.004581489,0.008552114,268.7629,-108.79835,-7.1177015,STD
11385991847000,0.979947,-0.380569397367625,9.81372408509834,-0.961869614079047,-0.01985312,0.008246681,0.0106901415,269.48062,-108.38901,-6.8601637,STD
11385996900000,0.985,-0.373294815075554,9.80970856725688,-0.95462216363215,-0.016493361,0.007941248,0.008552114,270.1847,-108.00057,-6.612373,STD
11386001851000,0.989951,-0.360108182054325,9.8009172949847,-0.963413275261889,-0.020158553,0.007330383,0.01038471,270.8744,-107.62298,-6.3637958,STD
11386006963000,0.995063,-0.357384096671338,9.80924220081923,-0.961173010773957,-0.017104227,0.01740966,0.005192355,271.53043,-107.25772,-6.122126,STD
11386011896000,0.999996,-0.362476513875175,9.82961229503072,-0.950988149779023,-0.009468411,0.01863139,0.0067195175,272.17712,-106.90357,-5.8804803,STD
11386016877000,1.004977,-0.357133390248097,9.83198829781556,-0.937925955999802,-0.018020526,0.009468411,0.0067195175,272.828,-106.5566,-5.6407714,STD
11386021892000,1.009992,-0.347638934945142,9.82724097598102,-0.923684287916378,-0.012217305,0.007941248,0.004276057,273.46362,-106.22723,-5.4025655,STD
11386026888000,1.014988,-0.360127155221843,9.81658654607508,-0.934735568430034,-0.014049901,0.01863139,0.018020526,274.09113,-105.900986,-5.1623535,STD
11386031876000,1.019976,-0.382158848932755,9.80336726482797,-0.956767266741998,-0.015882496,0.02076942,0.014660766,274.70767,-105.58957,-4.9305453,STD
11386036854000,1.024954,-0.387730773512874,9.79953220203216,-0.957420884457926,-0.022907447,0.0106901415,0.013744468,275.31223,-105.28336,-4.695038,STD
11386041851000,1.029951,-0.378289061059485,9.80425315191871,-0.938537454621683,-0.025961773,0.016187929,0.0125227375,275.89987,-104.98922,-4.461905,STD
11386046888000,1.034988,-0.368829767707298,9.81364868459515,-0.919618867850531,-0.026267206,0.014049901,0.018325957,276.48303,-104.711044,-4.2365007,STD
11386051840000,1.03994,-0.359587964413914,9.82751167904122,-0.901135266088863,-0.02107485,0.003970624,0.01863139,277.05527,-104.44477,-4.015799,STD
11386056907000,1.045007,-0.355933017049221,9.83485060324046,-0.896477304729103,-0.020158553,0.019547688,0.014660766,277.6015,-104.18456,-3.7939658,STD
11386061899000,1.049999,-0.359453875200687,9.833676959347,-0.909387122853075,-0.035430185,0.004886922,0.011911872,278.14856,-103.931526,-3.57745,STD
11386066823000,1.054923,-0.362926772944642,9.83251930258991,-0.92212108608273,-0.029626964,0.009773844,0.016493361,278.6698,-103.690865,-3.3593533,STD
11386071888000,1.059988,-0.366499118004173,9.83132849603535,-0.935219689607954,-0.02321288,0.0009162979,0.017104227,279.18842,-103.45669,-3.148139,STD
11386076811000,1.064911,-0.369971310448018,9.83017107438321,-0.947951066736222,-0.025350908,0.007941248,0.01863139,279.69177,-103.23124,-2.9372807,STD
11386081885000,1.069985,-0.373550003208543,9.82897815188413,-0.961072945173929,-0.025045475,0.015577064,0.019242255,280.1877,-103.01795,-2.7303545,STD
11386086811000,1.074911,-0.377024311552719,9.82782002491715,-0.973812080606358,-0.032070424,0.0027488936,0.019242255,280.68054,-102.81089,-2.5259063,STD
11386091873000,1.079973,-0.380594540711919,9.82662992367743,-0.986902925827421,-0.026572637,0.005192355,0.014966198,281.1574,-102.61701,-2.3245122,STD
11386096824000,1.084924,-0.382212243863111,9.825804,-0.994267867726222,-0.021991149,0.0009162979,0.0106901415,281.63013,-102.43018,-2.1277838,STD
11386101871000,1.089971,-0.379193814486979,9.825804,-0.988231008973959,-0.024740042,0.006414085,0.0125227375,282.09076,-102.25169,-1.9332386,STD
11386106855000,1.094955,-0.376213063147443,9.825804,-0.982269506294886,-0.027794369,0.006414085,0.02321288,282.322734858283,-102.172082289022,-1.83941853053892,STD
11386111891000,1.099991,-0.373201212476113,9.825804,-0.976245804952226,-0.029321533,-0.00061086525,0.020463986,282.55713,-102.091644,-1.7446196,STD
11386116845000,1.104945,-0.370238403058765,9.825804,-0.97032018611753,-0.03359759,0.011301007,0.023823744,283.00787,-101.93954,-1.5587918,STD
11386121878000,1.109978,-0.367228346579654,9.825804,-0.964300073159308,-0.022602014,0.011911872,0.02107485,283.45755,-101.79837,-1.3755819,STD
11386126851000,1.114951,-0.36425417394492,9.825804,-0.95835172788984,-0.025961773,0.0125227375,0.01863139,283.89572,-101.66,-1.1942375,STD
11386131894000,1.119994,-0.35974771280342,9.82163296569818,-0.970193541589739,-0.03970624,0.008246681,0.010079277,284.32642,-101.52994,-1.0192221,STD
11386136851000,1.124951,-0.355134730819162,9.81701988737732,-0.984032487542513,-0.02321288,0.0143553335,0.015271631,284.74664,-101.41493,-0.8439481,STD
11386141933000,1.130033,-0.358810681180364,9.82963327688914,-0.973004636458908,-0.036957346,0.0027488936,0.016187929,285.17538,-101.2904,-0.67335427,STD
11386147260000,1.13536,-0.364797068948546,9.84451783221477,-0.958998313422819,-0.030848695,0.016187929,0.01863139,285.58746,-101.18353,-0.50273055,STD
11386151858000,1.139958,-0.373006264772558,9.84041357718121,-0.971312107158837,-0.029321533,0.019547688,0.016187929,285.99884,-101.08097,-0.33996442,STD
11386156867000,1.144967,-0.381949253437733,9.83594245637584,-0.9847265901566,-0.03481932,0.021685716,0.016798794,286.39716,-100.98225,-0.17856023,STD
11386161881000,1.149981,-0.378734009173554,9.83971888842975,-0.960381572391529,-0.026572637,0.007330383,0.014660766,286.79114,-100.89451,-0.022800881,STD
11386166815000,1.154915,-0.373852611322314,9.8445998785124,-0.931093159798554,-0.03604105,0.007941248,0.015577064,287.173,-100.80648,0.13148807,STD
11386171886000,1.159986,-0.369255707391672,9.8407176015603,-0.924710497391672,-0.027488936,0.011911872,0.014049901,287.55225,-100.73487,0.27853614,STD
11386176862000,1.164962,-0.36477651227935,9.83623878061848,-0.92023130227935,-0.015882496,0.02076942,0.019242255,287.92313,-100.66728,0.42473412,STD
11386181888000,1.169988,-0.360120943406679,9.82778541612306,-0.926968885169409,-0.03390302,0.008552114,0.0125227375,288.28036,-100.59414,0.5631974,STD
11386186859000,1.174959,-0.355485920282348,9.81851518596047,-0.93623893383799,-0.02565634,0.008552114,0.016493361,288.626,-100.53722,0.7039643,STD
11386191847000,1.179947,-0.350835046143511,9.80921325313991,-0.945540684543861,-0.024129177,0.008857546,0.015882496,288.9676,-100.477325,0.8388197,STD
11386196890000,1.18499,-0.346132889310681,9.7998087528965,-0.954945000664492,-0.02443461,0.0070249503,0.013439035,289.30356,-100.42408,0.9710072,STD
11386201894000,1.189994,-0.347963945688923,9.80027196581358,-0.967277397025215,-0.020158553,0.0076358155,0.0143553335,289.63272,-100.37723,1.1010106,STD
11386206936000,1.195036,-0.35252399162716,9.80483209745963,-0.980957506270658,-0.015882496,0.014660766,0.013439035,289.95435,-100.33447,1.2269784,STD
11386211960000,1.20006,-0.358603347480315,9.80807052549213,-0.984990604173228,-0.027488936,0.008552114,0.016493361,290.2707,-100.296776,1.3518711,STD
11386216871000,1.204971,-0.365546998779528,9.81038512426181,-0.982676053740158,-0.022907447,0.01160644,0.01282817,290.57654,-100.26834,1.4724349,STD
11386221847000,1.209947,-0.372582553425197,9.81273035812008,-0.980330868858268,-0.0290161,0.004276057,0.012217305,290.89066,-100.23933,1.5898007,STD
11386226894000,1.214994,-0.37971849480315,9.81510905492126,-0.977952221732283,-0.025961773,0.013439035,0.023518313,291.19412,-100.21802,1.7075932,STD
11386231879000,1.219979,-0.385493100733288,9.81864788623392,-0.979255135677663,-0.025961773,0.008552114,0.01863139,291.49725,-100.19656,1.8167403,STD
11386236884000,1.224984,-0.390130034476154,9.82328490712973,-0.983892059736868,-0.01740966,0.008246681,0.014660766,291.79172,-100.18202,1.9271525,STD
11386241863000,1.229963,-0.381670290266815,9.82799980196814,-0.992998368337222,-0.02565634,0.007941248,0.015882496,292.07355,-100.16429,2.0298924,STD
11386246885000,1.234985,-0.357274059275642,9.83287914598762,-1.00763609470427,-0.025045475,0.014049901,0.018020526,292.34885,-100.15381,2.1295288,STD
11386251882000,1.239982,-0.34924608742043,9.83202014600338,-1.01178071618933,-0.032375857,0.0106901415,0.026267206,292.62225,-100.142426,2.2273836,STD
11386256902000,1.245002,-0.358533807507365,9.82505421410287,-1.00481492976093,-0.026267206,0.013133603,0.021685716,292.88745,-100.13655,2.320347,STD
11386261877000,1.249977,-0.367738271139338,9.81815072581502,-0.997911585641149,-0.02107485,0.008857546,0.009468411,293.15494,-100.13368,2.4161987,STD
11386266863000,1.254963,-0.376963086349191,9.81123197353296,-0.990992977845931,-0.025961773,0.0070249503,0.016493361,293.41736,-100.13276,2.5138295,STD
11386271848000,1.259948,-0.382307261452371,9.80741501452371,-0.985646101452371,-0.025350908,0.004581489,0.0106901415,293.67557,-100.13489,2.6016986,STD
11386276893000,1.264993,-0.380014083987849,9.80970823987849,-0.983352923987849,-0.02687807,0.0015271631,0.010995574,293.93082,-100.13778,2.6907017,STD
11386281844000,1.269944,-0.377763633714937,9.81195873714937,-0.981102473714937,-0.026267206,0.0033597588,0.0070249503,294.17758,-100.139366,2.7701592,STD
11386286853000,1.274953,-0.375486819855712,9.81423559855712,-0.978825659855712,-0.020463986,0.009162978,0.010995574,294.42044,-100.14411,2.8498247,STD
11386291929000,1.280029,-0.374091757796094,9.81503437950188,-0.975045403498477,-0.020158553,-0.0018325958,0.01038471,294.6632,-100.1482,2.9242504,STD
11386296884000,1.284984,-0.378343060788389,9.80653159595055,-0.962291472325748,-0.029321533,-0.005497787,0.01160644,294.89868,-100.15303,2.9988542,STD
11386302774000,1.290874,-0.382745512965069,9.79739975385865,-0.950064333915516,-0.02687807,0.0021380284,0.018325957,295.1193,-100.162094,3.0729423,STD
11386306928000,1.295028,-0.37915475322141,9.80099058859103,-0.97160891112465,-0.021685716,0.003970624,0.010995574,295.33862,-100.169395,3.140994,STD
11386311847000,1.299947,-0.374902719716581,9.80524271089448,-0.997121134353281,-0.027794369,-0.00030543262,0.007330383,295.55164,-100.1748,3.210693,STD
11386316878000,1.304978,-0.376906049129821,9.80835532839726,-0.998743528862959,-0.030543262,-0.004581489,0.015882496,295.7613,-100.183945,3.2799723,STD
11386321840000,1.30994,-0.381879115031134,9.81084191067971,-0.988797407445974,-0.033292156,-0.00030543262,0.017104227,295.96616,-100.191345,3.344535,STD
11386326885000,1.314985,-0.386935366033175,9.81337008633771,-0.978684916001256,-0.022296581,-0.005192355,0.013133603,296.17633,-100.20824,3.408842,STD
11386331841000,1.319941,-0.391902418553712,9.81585366187013,-0.968750821333264,-0.022602014,-0.002443461,0.012217305,296.38022,-100.22245,3.4730344,STD
11386336855000,1.324955,-0.381765224912592,9.82711069598012,-0.96362955082971,-0.024129177,-0.008552114,0.01863139,296.5832,-100.24092,3.5365243,STD
11386341907000,1.330007,-0.368885104064247,9.83999062853847,-0.959336180202325,-0.028099801,-0.0015271631,0.016798794,296.7782,-100.25825,3.5963569,STD
11386346878000,1.334978,-0.357901371038711,9.84194845133801,-0.963697985819693,-0.03726278,-0.003970624,0.01863139,296.96606,-100.270195,3.6523726,STD
11386351858000,1.339958,-0.347988668747207,9.83699225804105,-0.973610682935828,-0.031154128,-0.00580322,0.014966198,297.1486,-100.2849,3.7050514,STD
11386356894000,1.344994,-0.337964498317485,9.83198033244999,-0.983634848131982,-0.022907447,-0.0061086523,0.01282817,297.32813,-100.29813,3.760054,STD
11386361907000,1.350007,-0.327986109444531,9.82699129690829,-0.993613231795272,-0.028405234,-0.0030543262,0.019242255,297.5046,-100.310295,3.8148866,STD
11386366894000,1.354994,-0.332299159344745,9.81911614099025,-0.985956320982882,-0.025045475,-0.007941248,0.014966198,297.6857,-100.32834,3.867793,STD
11386371863000,1.359963,-0.341058062197681,9.81035705521811,-0.972817966703479,-0.018936822,-0.0076358155,0.01740966,297.8622,-100.34739,3.9230757,STD
11386376883000,1.364983,-0.347680767370838,9.79790295793758,-0.961426042213756,-0.021991149,0.0015271631,0.02107485,298.03787,-100.36987,3.9804063,STD
11386381848000,1.369948,-0.352643601239954,9.78301469470828,-0.951500369293393,-0.029626964,0.0012217305,0.014049901,298.2128,-100.39195,4.0331907,STD
11386386866000,1.374966,-0.3631654185824,9.7867434357361,-0.959868610132322,-0.028405234,-0.011911872,0.013133603,298.38437,-100.41372,4.0846696,STD
11386391855000,1.379955,-0.376428670696771,9.80000650319237,-0.977552969367077,-0.022602014,-0.013744468,0.018936822,298.5501,-100.43478,4.1349907,STD
11386396881000,1.384981,-0.38186768203529,9.80845690468132,-0.988820255929419,-0.029626964,0.01038471,0.019242255,298.70795,-100.45053,4.1815944,STD
11386401841000,1.389941,-0.379503334308753,9.81200350033598,-0.993548951382494,-0.029321533,0.0070249503,0.01985312,298.87177,-100.470505,4.227011,STD
11386406876000,1.394976,-0.377103235356512,9.81560372394913,-0.998349149286976,-0.01985312,0.00580322,0.016493361,299.0188,-100.49564,4.2708755,STD
11386411851000,1.399951,-0.374731737384834,9.81916104519549,-1.00309214523033,-0.023823744,0.0067195175,0.019242255,299.16428,-100.51805,4.3151364,STD
11386416861000,1.404961,-0.372343555507827,9.82274339282248,-1.00786850898435,-0.026572637,0.007941248,0.022602014,299.30774,-100.5428,4.357173,STD
11386421868000,1.409968,-0.369956803679849,9.82632359533113,-1.0126420126403,-0.029626964,0.005192355,0.014966198,299.44955,-100.56529,4.3953505,STD
11386426887000,1.414987,-0.367564331655758,9.82991237831313,-1.01742695668848,-0.035124753,0.005192355,0.015271631,299.58865,-100.587616,4.4355364,STD
11386431879000,1.419979,-0.36518473007292,9.83348185523008,-1.02218615985416,-0.03481932,0.008246681,0.01160644,299.725,-100.60913,4.4711843,STD
11386436852000,1.424952,-0.366108696083695,9.83319091818002,-1.02033822783261,-0.019242255,0.007330383,0.021380283,299.86053,-100.63329,4.5075583,STD
11386441891000,1.429991,-0.370871575594157,9.82842793920253,-1.01081246881169,-0.02687807,0.00580322,0.016798794,299.99246,-100.64922,4.5378227,STD
11386446868000,1.434968,-0.369344507499015,9.82165296081134,-1.01179112875148,-0.026572637,0.011911872,0.017104227,300.12347,-100.67653,4.573301,STD
11386451831000,1.439931,-0.359984590523828,9.8122928483655,-1.02583100421426,-0.03481932,0.0027488936,0.017104227,300.257,-100.69877,4.60538,STD
11386456835000,1.444935,-0.356123507859454,9.80486840795192,-1.03073180428109,-0.032986723,0.01160644,0.024129177,300.37964,-100.72208,4.638094,STD
11386461884000,1.449984,-0.360594452214517,9.80039760365233,-1.02178991557097,-0.030848695,0.005497787,0.020158553,300.50656,-100.74176,4.6654434,STD
11386466808000,1.454908,-0.364954707711512,9.79603748474341,-1.01306940457698,-0.021380283,0.004276057,0.015577064,300.6338,-100.767746,4.696363,STD
11386471855000,1.459955,-0.369423881044845,9.79156845141008,-1.00413105791031,-0.027794369,0.011911872,0.01740966,300.7582,-100.79017,4.7269416,STD
11386476855000,1.464955,-0.373114208900772,9.78864073737374,-0.997131653297683,-0.035124753,0.014966198,0.01863139,300.87994,-100.813576,4.7542853,STD
11386481877000,1.469977,-0.368351415317885,9.80292891919192,-1.01142003404635,-0.027488936,0.003970624,0.012217305,301.0012,-100.83809,4.778607,STD
11386487013000,1.475113,-0.36369750226732,9.81666932470259,-1.02449714226732,-0.028405234,0.0033597588,0.02076942,301.12228,-100.85664,4.8060803,STD
11386491917000,1.480017,-0.36134997516545,9.82136447695691,-1.02214961516545,-0.03176499,0.006414085,0.01740966,301.24255,-100.87397,4.8270817,STD
11386496888000,1.484988,-0.358970375405378,9.82612377586724,-1.01977001540538,-0.027183503,0.0027488936,0.016493361,301.3632,-100.895485,4.8492203,STD
11386501905000,1.490005,-0.356568755611317,9.83092711576527,-1.01736839561132,-0.032070424,0.007941248,0.01863139,301.47852,-100.91341,4.8709416,STD
11386506926000,1.495026,-0.354164964240877,9.8355578806127,-1.01425702305151,-0.03481932,0.004581489,0.017715093,301.5958,-100.9346,4.8926616,STD
11386511891000,1.499991,-0.351784781465686,9.83793785958853,-1.00235613402913,-0.02443461,0.009162978,0.016187929,301.70764,-100.95776,4.9145093,STD
11386517116000,1.505216,-0.349279956692196,9.84044246989037,-0.989832036316764,-0.038179077,-0.0009162979,0.016187929,301.82028,-100.9718,4.9342036,STD
11386521880000,1.50998,-0.346996131769535,9.84272609926416,-0.978412935550883,-0.025350908,0.008552114,0.013133603,301.9242,-100.99439,4.9529343,STD
11386526988000,1.515088,-0.345478800443241,9.84460014996306,-0.96761437984897,-0.021991149,0.0067195175,0.016493361,302.03278,-101.01162,4.971635,STD
11386531876000,1.519976,-0.353163516404826,9.84075811696627,-0.971456733817615,-0.022602014,0.0015271631,0.015271631,302.13766,-101.0298,4.987701,STD
11386536859000,1.524959,-0.36099758752524,9.83684141270623,-0.975373765287696,-0.021685716,0.0021380284,0.016187929,302.23004,-101.046135,5.0057893,STD
11386541892000,1.529992,-0.357928145125351,9.83388334078708,-0.979829555873516,-0.03848451,0.0027488936,0.018020526,302.32242,-101.0575,5.0227947,STD
11386546868000,1.534968,-0.348539546065114,9.83153614323006,-0.984523852952766,-0.027488936,0.0033597588,0.019547688,302.4132,-101.07598,5.0392704,STD
11386551882000,1.539982,-0.339079249504014,9.82917102093287,-0.98925399876373,-0.025961773,0.0021380284,0.019547688,302.50372,-101.087845,5.053098,STD
11386556933000,1.545033,-0.329549142218391,9.82678844559917,-0.994019049918731,-0.02687807,0.01160644,0.018020526,302.58966,-101.10164,5.066817,STD
11386561884000,1.549984,-0.326262533272563,9.82450178626027,-0.9959879,-0.033292156,0.0009162979,0.012217305,302.6816,-101.111206,5.0752745,STD
11386566875000,1.554975,-0.327397172421782,9.82223246057067,-0.9959879,-0.028099801,-0.00061086525,0.018325957,302.76736,-101.12464,5.087007,STD
11386571847000,1.559947,-0.328527492167308,9.81997177386887,-0.9959879,-0.0290161,-0.0012217305,0.01863139,302.8547,-101.136566,5.0984163,STD
11386576890000,1.56499,-0.329673952842425,9.81767880463372,-0.9959879,-0.022907447,0.0021380284,0.01282817,302.93985,-101.151344,5.109307,STD
11386581884000,1.569984,-0.330809274002754,9.81540811489342,-0.9959879,-0.024129177,0.0070249503,0.016187929,303.027,-101.1649,5.122474,STD
11386586846000,1.574946,-0.331937320377914,9.8131519750273,-0.9959879,-0.021685716,-0.0015271631,0.013439035,303.115,-101.179115,5.1312046,STD
11386591873000,1.579973,-0.333080143660447,9.81086628072924,-0.9959879,-0.023518313,0.006414085,0.012217305,303.19583,-101.19229,5.1417813,STD
11386596886000,1.584986,-0.334219784224469,9.80858695200114,-0.9959879,-0.028710667,0.0021380284,0.013744468,303.28116,-101.20496,5.1507754,STD
11386601891000,1.589991,-0.33379364980258,9.80804461786552,-0.997382488741204,-0.028405234,0.0067195175,0.0143553335,303.3592,-101.21833,5.159692,STD
11386606893000,1.594993,-0.324430240181783,9.81740821325254,-1.00674588858483,-0.02565634,0.013439035,0.019547688,303.43683,-101.23156,5.169702,STD
11386611887000,1.599987,-0.315585721280044,9.82535509190533,-1.01469260128004,-0.03634648,0.008552114,0.018020526,303.5151,-101.24031,5.1762276,STD
11386616877000,1.604977,-0.311184926363385,9.82095420508334,-1.01029180636339,-0.03756821,0.01160644,0.020158553,303.58844,-101.25306,5.1854606,STD
11386622755000,1.610855,-0.306934131320211,9.8167033212674,-1.00365945471916,-0.021685716,0.011301007,0.021685716,303.66348,-101.26911,5.195003,STD
11386626908000,1.615008,-0.31075289756121,9.82052216725876,-0.988384389755161,-0.032375857,0.017104227,0.025045475,303.73492,-101.278366,5.205578,STD
11386631881000,1.619981,-0.315325670139222,9.82509503533365,-0.970093299443111,-0.0421497,0.010079277,0.01863139,303.80502,-101.29029,5.2135787,STD
11386637686000,1.625786,-0.320669723536198,9.80726372137295,-0.98116278156908,-0.046120327,0.008552114,0.012217305,303.87097,-101.30112,5.222532,STD
11386641856000,1.629956,-0.324509290827805,9.79190556446496,-0.99268145938852,-0.032375857,0.0106901415,0.024740042,303.93738,-101.315414,5.23436,STD
11386646887000,1.634987,-0.322184059445533,9.79092408709045,-0.992560526603192,-0.029932396,0.011911872,0.021991149,304.0002,-101.318924,5.238676,STD
11386651871000,1.639971,-0.317728643513488,9.79537912153458,-0.98810511997573,-0.03359759,0.0106901415,0.020463986,304.0628,-101.326,5.2463727,STD
11386656886000,1.644986,-0.313028017464279,9.80909966130006,-0.971378071624069,-0.029626964,0.007941248,0.028405234,304.12283,-101.33885,5.254037,STD
11386661922000,1.650022,-0.308175052602133,9.82851192614208,-0.947113221976253,-0.044898596,0.012217305,0.026572637,304.17975,-101.34417,5.2584214,STD
11386666876000,1.654976,-0.312393268507229,9.83241321531848,-0.940010911352091,-0.035124753,0.0067195175,0.022602014,304.23883,-101.3574,5.26501,STD
11386671865000,1.659965,-0.321728688621532,9.82774541021884,-0.942344765162173,-0.022602014,0.014049901,0.021685716,304.29224,-101.36744,5.272364,STD
11386676881000,1.664981,-0.331114631153771,9.82305234339586,-0.944691249570145,-0.03145956,0.013744468,0.028099801,304.34534,-101.37127,5.28147,STD
11386681881000,1.669981,-0.340470634475381,9.818374246483,-0.947030249179367,-0.040927973,0.008246681,0.023823744,304.39648,-101.376335,5.2869835,STD
11386686856000,1.674956,-0.349766667360421,9.81872786329533,-0.968110351607717,-0.032375857,0.012217305,0.02321288,304.44467,-101.38488,5.2953534,STD
11386691890000,1.67999,-0.359161515171003,9.8234253803956,-1.00568972813505,-0.03634648,0.017104227,0.019547688,304.49295,-101.38677,5.3010345,STD
11386696882000,1.684982,-0.371224626072655,9.83067448808161,-1.03445960674508,-0.035124753,0.014660766,0.023823744,304.5431,-101.392555,5.304395,STD
11386701893000,1.689993,-0.386210379650255,9.84066467055272,-1.0544406497658,-0.033292156,0.017715093,0.02076942,304.589,-101.39593,5.3049164,STD
11386707959000,1.696059,-0.388861522221548,9.83738213755812,-1.04030026123914,-0.03756821,0.011301007,0.025961773,304.6426,-101.40537,5.30572,STD
11386711891000,1.699991,-0.38505557354154,9.82977049454215,-1.01746457710734,-0.044593163,0.013744468,0.027183503,304.6917,-101.413414,5.3049016,STD
11386716873000,1.704973,-0.385875252089612,9.82300095230017,-1.01117069295978,-0.03359759,0.020158553,0.016798794,304.7473,-101.42393,5.297393,STD
11386721871000,1.709971,-0.390651711163557,9.81822439846323,-1.02072362607025,-0.03390302,0.014660766,0.022296581,304.8055,-101.43194,5.2940598,STD
11386726876000,1.714976,-0.395434859956092,9.81344115477497,-1.03028993863886,-0.03940081,0.025350908,0.02321288,304.85248,-101.43488,5.288888,STD
11386731879000,1.719979,-0.400216097400459,9.80865982247281,-1.03985242850514,-0.03848451,0.01985312,0.020463986,304.90485,-101.43952,5.282992,STD
11386736881000,1.724981,-0.390055281975597,9.81070694790677,-1.03981511563527,-0.023823744,0.022602014,0.01282817,304.94736,-101.44871,5.2793603,STD
11386741901000,1.730001,-0.368980289880909,9.81773208708994,-1.03279008648352,-0.03359759,0.02107485,0.013133603,304.99222,-101.45245,5.2765203,STD
11386746842000,1.734942,-0.348236956028348,9.82464667129393,-1.02587561057938,-0.029321533,0.013744468,0.015271631,305.0373,-101.46492,5.26904,STD
11386751901000,1.740001,-0.352812907339158,9.81373195949166,-1.03276620095314,-0.03023783,0.023823744,0.015271631,305.07715,-101.47314,5.2617764,STD
11386756869000,1.744969,-0.362260403780778,9.79956043367752,-1.04221373685465,-0.02443461,0.02107485,0.0125227375,305.122,-101.483864,5.2532353,STD
11386761904000,1.750004,-0.371911486463512,9.80106949669206,-1.02788630534282,-0.03359759,0.025350908,0.011911872,305.1592,-101.49085,5.2518578,STD
11386766812000,1.754912,-0.381334689029671,9.80578119637129,-1.00903985101243,-0.024740042,0.028099801,0.015577064,305.19708,-101.50383,5.250508,STD
11386771911000,1.760011,-0.375351172110727,9.81437124913495,-1.01328578788927,-0.044593163,0.029626964,0.025350908,305.24243,-101.51071,5.25106,STD
11386776860000,1.76496,-0.366240141122645,9.823482470396,-1.02239681887735,-0.034513887,0.021685716,0.020158553,305.2884,-101.52566,5.2478423,STD
11386781912000,1.770012,-0.36391866,9.82217426673332,-1.0247183,-0.030543262,0.025350908,0.0143553335,305.32928,-101.53278,5.2478547,STD
11386786814000,1.774914,-0.36391866,9.81748079470133,-1.0247183,-0.03634648,0.022602014,0.015577064,305.37372,-101.54,5.2474127,STD
11386796827000,1.784927,-0.36391866,9.80789374136466,-1.0247183,-0.029932396,0.022602014,0.018325957,305.46124,-101.55936,5.245051,STD
11386801880000,1.78998,-0.367793976072006,9.81052539700334,-1.03246897260968,-0.04153884,0.017715093,0.020463986,305.5085,-101.56871,5.2471395,STD
11386806781000,1.794881,-0.372853359148432,9.81558488573893,-1.04258779159211,-0.034513887,0.014660766,0.016493361,305.5526,-101.5822,5.246476,STD
11386811796000,1.799896,-0.365145573254937,9.82040202838146,-1.04804694119282,-0.027488936,0.018020526,0.025961773,305.5957,-101.59195,5.24815,STD
11386816746000,1.804846,-0.355736982454103,9.82510641956932,-1.05275123413714,-0.043676864,0.01863139,0.01985312,305.63882,-101.59481,5.2438273,STD
11386821805000,1.809905,-0.34612121258311,9.82991440240151,-1.05755911656247,-0.027488936,0.023823744,0.02321288,305.6867,-101.60935,5.2428536,STD
11386826771000,1.814871,-0.336682210175648,9.83463399970229,-1.06227861530217,-0.030543262,0.023823744,0.018020526,305.73434,-101.61282,5.237345,STD
11386831783000,1.819883,-0.344407979913433,9.82616107396158,-1.05687911100311,-0.033292156,0.017104227,0.017715093,305.7856,-101.62148,5.2343907,STD
11386836804000,1.824904,-0.355362147945934,9.81520668479004,-1.04957633739844,-0.043676864,0.018020526,0.015271631,305.83362,-101.626274,5.229602,STD
11386841759000,1.829859,-0.368217558235741,9.80557525355785,-1.04172254078218,-0.030543262,0.016493361,0.018020526,305.88428,-101.63828,5.2279563,STD
11386846765000,1.834865,-0.389050360334601,9.80036694698533,-1.03130609078762,-0.036957346,0.01863139,0.01282817,305.93234,-101.64117,5.2234426,STD
11386851812000,1.839912,-0.403997514501377,9.79973050447482,-1.02294666734854,-0.03390302,0.022602014,0.019242255,305.98395,-101.64838,5.219848,STD
11386856828000,1.844928,-0.408721873171715,9.80681718307435,-1.01822231361133,-0.03726278,0.021991149,0.01985312,306.03488,-101.6508,5.2129245,STD
11386861767000,1.849867,-0.41337370879229,9.81379507494099,-1.01357048284815,-0.04550946,0.018936822,0.017715093,306.08453,-101.650215,5.2033334,STD
11386866807000,1.854907,-0.418120672049567,9.82091566109363,-1.0088235245476,-0.037873644,0.010995574,0.02321288,306.13544,-101.653854,5.195736,STD
11386871795000,1.859895,-0.418448430259389,9.82726956394592,-1.01142684866299,-0.035124753,0.015882496,0.022907447,306.17874,-101.65318,5.1860247,STD
11386876824000,1.864924,-0.408801604522784,9.83209307250876,-1.03072053035553,-0.04062254,0.030543262,0.01985312,306.22095,-101.652695,5.1771364,STD
11386881807000,1.869907,-0.400751578049698,9.83243233452133,-1.03797477680428,-0.045814894,0.014049901,0.01863139,306.26917,-101.65032,5.165394,STD
11386886788000,1.874888,-0.396029071287991,9.82298712375012,-1.0190847004455,-0.03145956,0.015882496,0.02321288,306.3076,-101.65196,5.1561766,STD
11386891817000,1.879917,-0.387867675685472,9.81417785647471,-1.00624775735165,-0.03573562,0.016493361,0.02565634,306.3597,-101.649635,5.146325,STD
11386896812000,1.884912,-0.371554072850044,9.80718641391406,-1.00857827065186,-0.046731193,0.014049901,0.02321288,306.4113,-101.64916,5.136269,STD
11386901929000,1.890029,-0.354842019655072,9.80002420939297,-1.01096570539803,-0.036651913,0.020158553,0.017104227,306.45728,-101.650116,5.1275473,STD
11386906895000,1.894995,-0.338623130429699,9.79307335779012,-1.01328268819059,-0.03390302,0.018936822,0.01740966,306.5054,-101.64695,5.119385,STD
11386911850000,1.89995,-0.324702483203167,9.78976938961928,-1.0183228502126,-0.037873644,0.016798794,0.016798794,306.55096,-101.64381,5.1095114,STD
11386916869000,1.904969,-0.320004178194614,9.80151513987586,-1.03476692510141,-0.03359759,0.024129177,0.024129177,306.59387,-101.64456,5.102371,STD
11386921830000,1.90993,-0.315360167206881,9.81312515522213,-1.05102097083232,-0.03634648,0.03023783,0.027488936,306.63458,-101.647095,5.101636,STD
11386926910000,1.91501,-0.310604759866087,9.82501366116026,-1.06766490397341,-0.040927973,0.023518313,0.017104227,306.67578,-101.64928,5.0985484,STD
11386931841000,1.919941,-0.30691423438374,9.83507671760155,-1.08080995621334,-0.04642576,0.022602014,0.019547688,306.7128,-101.65091,5.0988965,STD
11386936903000,1.925003,-0.311525750572344,9.83200231141199,-1.06697540122713,-0.033292156,0.03023783,0.019547688,306.74796,-101.65451,5.0955977,STD
11386942240000,1.93034,-0.31638779361829,9.82876088394584,-1.0523892653201,-0.027488936,0.025045475,0.020158553,306.78937,-101.660965,5.0935817,STD
11386946922000,1.935022,-0.320653127240384,9.82591727079304,-1.03959325851539,-0.036957346,0.020463986,0.024740042,306.828,-101.667114,5.0929,STD
11386951819000,1.939919,-0.325114327314583,9.82294307736944,-1.02620965208168,-0.03390302,0.01985312,0.019242255,306.86682,-101.678375,5.091083,STD
11386956943000,1.945043,-0.329782325921933,9.81983101547389,-1.0122056497606,-0.036957346,0.022296581,0.02107485,306.90598,-101.686844,5.0922484,STD
11386962018000,1.950118,-0.334405685198338,9.81674871373307,-0.998335565494499,-0.030848695,0.02076942,0.021685716,306.94534,-101.69733,5.091029,STD
11386966906000,1.955006,-0.338928543168864,9.81435681131252,-1.00346849852656,-0.04062254,0.03145956,0.015882496,306.97922,-101.70429,5.090985,STD
11386971835000,1.959935,-0.343504357097712,9.81206885895696,-1.01262011682823,-0.042455133,0.03176499,0.01985312,307.01633,-101.71581,5.0929265,STD
11386976884000,1.964984,-0.348191572461225,9.80972520477898,-1.02199453776658,-0.04337143,0.018936822,0.01740966,307.04913,-101.714935,5.088789,STD
11386981876000,1.969976,-0.352825872143273,9.80740800896665,-1.0312631274525,-0.037873644,0.02687807,0.01863139,307.07587,-101.71613,5.087745,STD
11386986847000,1.974947,-0.347498059576108,9.8134939362021,-1.03087320336116,-0.049480084,0.026267206,0.01863139,307.10516,-101.71278,5.0846267,STD
11386991895000,1.979995,-0.33714829788054,9.82384390323271,-1.02569832791693,-0.045814894,0.023823744,0.025350908,307.13272,-101.71568,5.083921,STD
11386997512000,1.985612,-0.330927581787464,9.825804,-1.02045764475342,-0.047647487,0.028710667,0.02076942,307.156,-101.7147,5.0769053,STD
11387001884000,1.989984,-0.326931100838053,9.825804,-1.01646116658606,-0.043676864,0.02321288,0.022296581,307.18314,-101.71765,5.072731,STD
11387006877000,1.994977,-0.322366958710786,9.825804,-1.01189702763602,-0.042760566,0.022296581,0.021685716,307.20532,-101.72069,5.071385,STD
11387011906000,2.000006,-0.317769908689151,9.825804,-1.00729998081451,-0.040317107,0.020463986,0.019242255,307.2289,-101.72493,5.069442,STD
11387016868000,2.004968,-0.313234103915367,9.825804,-1.00276417919822,-0.051923547,0.018020526,0.017104227,307.2525,-101.725555,5.0671515,STD
11387021859000,2.009959,-0.308671790004454,9.825804,-0.998201868463252,-0.04734206,0.018325957,0.022602014,307.27576,-101.73146,5.066231,STD
11387026891000,2.014991,-0.311776005978723,9.82314485425532,-0.998646990212766,-0.03390302,0.017104227,0.022907447,307.2885,-101.738434,5.064105,STD
11387032014000,2.020114,-0.322214728878723,9.81792538925532,-1.00386634621277,-0.035430185,0.018020526,0.017715093,307.30038,-101.74249,5.0619445,STD
11387036897000,2.024997,-0.330018433738434,9.81475797243156,-1.01144070289993,-0.032986723,0.014966198,0.02107485,307.3119,-101.75035,5.064875,STD
11387041852000,2.029952,-0.336808438083564,9.81249459195841,-1.02049405935801,-0.036651913,0.015577064,0.02321288,307.32153,-101.75518,5.066057,STD
11387046872000,2.034972,-0.343687514130497,9.81020152031861,-1.02966617831251,-0.036957346,0.018020526,0.02076942,307.33237,-101.76139,5.0646977,STD
11387051906000,2.040006,-0.350585774851665,9.8079020536583,-1.03886387688162,-0.04153884,0.017104227,0.020158553,307.34402,-101.7658,5.0641384,STD
11387056899000,2.044999,-0.358535320015555,9.81189182228271,-1.04177526014,-0.03023783,0.020463986,0.020158553,307.35352,-101.773766,5.0632687,STD
11387061883000,2.049983,-0.367816050351935,9.82349272914641,-1.03713487316741,-0.03634648,0.022602014,0.020158553,307.3634,-101.77579,5.061983,STD
11387066847000,2.054947,-0.377059538592261,9.83504708341435,-1.03251310733035,-0.0421497,0.021685716,0.025045475,307.38596,-101.78161,5.058293,STD
11387071858000,2.059958,-0.386390545758312,9.84671083628232,-1.02784758182481,-0.04337143,0.021685716,0.025961773,307.40714,-101.78636,5.053561,STD
11387076880000,2.06498,-0.394270264753363,9.85615521860987,-1.02715008559417,-0.03940081,0.028099801,0.025350908,307.42664,-101.789154,5.04813,STD
11387081878000,2.069978,-0.39914845945373,9.86103351518549,-1.03446740311353,-0.048563786,0.025045475,0.02321288,307.44843,-101.78804,5.0419607,STD
11387086851000,2.074951,-0.404002253420302,9.86588741051773,-1.04174811940481,-0.042760566,0.021991149,0.023518313,307.468,-101.788216,5.032822,STD
11387091869000,2.079969,-0.408899968707705,9.87078522808805,-1.04909471790665,-0.038179077,0.0143553335,0.021991149,307.4892,-101.78526,5.0222273,STD
11387096831000,2.084931,-0.400479116344171,9.87180070063442,-1.05911057985726,-0.04062254,0.02321288,0.021380283,307.50635,-101.78214,5.0127482,STD
11387101928000,2.090028,-0.371446820592784,9.86696188530928,-1.07362672268041,-0.034513887,0.030543262,0.01985312,307.52567,-101.78211,5.002163,STD
11387106886000,2.094986,-0.356021271930034,9.86299136866497,-1.0821792,-0.047036625,0.011911872,0.02076942,307.54865,-101.77784,4.9882326,STD
11387111888000,2.099988,-0.360318161175064,9.86012671601136,-1.0821792,-0.047036625,0.015882496,0.024740042,307.56305,-101.77853,4.976465,STD
11387116812000,2.104912,-0.364548045749738,9.85730673407086,-1.0821792,-0.038789943,0.018020526,0.023518313,307.58243,-101.780685,4.966584,STD
11387121854000,2.109954,-0.36887929636418,9.85441917335925,-1.0821792,-0.036651913,0.022602014,0.021380283,307.59982,-101.78156,4.957928,STD
11387126855000,2.114955,-0.373175326574974,9.85155509340709,-1.0821792,-0.04337143,0.0067195175,0.015882496,307.62192,-101.78162,4.9470263,STD
11387131877000,2.119977,-0.377489396504709,9.84867898672447,-1.0821792,-0.04153884,0.0125227375,0.021380283,307.6368,-101.785385,4.9400535,STD
11387136852000,2.124952,-0.381763091825385,9.84582979701002,-1.0821792,-0.03359759,0.01038471,0.01985312,307.6554,-101.78509,4.92599,STD
11387141883000,2.129983,-0.372625654214619,9.83102826500778,-1.06128595206843,-0.040317107,0.014660766,0.01863139,307.6706,-101.782135,4.914325,STD
11387146817000,2.134917,-0.357928319471229,9.81143192099533,-1.03189123142561,-0.03726278,0.0106901415,0.020158553,307.68857,-101.78387,4.9025645,STD
11387151903000,2.140003,-0.35092546455431,9.79640097776144,-1.01446913506708,-0.03848451,0.0070249503,0.014966198,307.7055,-101.78118,4.886245,STD
11387156876000,2.144976,-0.346548922938798,9.78327156313178,-1.00133953764014,-0.03604105,0.009773844,0.0106901415,307.72162,-101.780525,4.870915,STD
11387161881000,2.149981,-0.350093342695937,9.79656887304998,-1.01463696778141,-0.027488936,0.0067195175,0.016493361,307.7378,-101.77938,4.8611503,STD
11387166880000,2.15498,-0.3590376627688,9.82787368042971,-1.04594210204577,-0.03726278,0.013744468,0.015882496,307.7496,-101.77287,4.849195,STD
11387171840000,2.15994,-0.360637703364543,9.84276976561781,-1.05427637697621,-0.040011674,0.008552114,0.020463986,307.76462,-101.76996,4.8408785,STD
11387176895000,2.164995,-0.353207042167306,9.83781615011512,-1.03446126838066,-0.03390302,0.013439035,0.02565634,307.77466,-101.76685,4.8335495,STD
11387181875000,2.169975,-0.345886628168841,9.83293603039141,-1.01494015249424,-0.040317107,-0.004581489,0.022907447,307.80038,-101.76032,4.8189116,STD
11387186860000,2.17496,-0.338558864357125,9.82805101094909,-0.995399437093886,-0.035124753,0.0076358155,0.01985312,307.81622,-101.75901,4.807621,STD
11387191868000,2.179968,-0.33783654026482,9.8337487901813,-0.98111449947036,-0.039095376,0.0061086523,0.018936822,307.84058,-101.75365,4.794595,STD
11387196884000,2.184984,-0.342729311582807,9.84842689977592,-0.971328956834386,-0.03176499,0.014660766,0.02107485,307.85834,-101.75263,4.7828965,STD
11387201893000,2.189993,-0.3339658410767,9.84643471780029,-0.983456289927641,-0.038789943,0.01160644,0.025350908,307.87524,-101.74157,4.7744737,STD
11387206934000,2.195034,-0.315335190230584,9.83246193150024,-1.01140225160637,-0.042455133,0.014966198,0.022296581,307.8874,-101.7328,4.7654505,STD
11387211877000,2.199977,-0.311059687286309,9.82120204141452,-1.02241736875946,-0.03940081,0.004886922,0.018325957,307.90128,-101.72597,4.7588696,STD
11387216872000,2.204972,-0.320105860877458,9.81215568835098,-1.01789428668684,-0.0421497,0.01038471,0.02321288,307.9099,-101.71745,4.7549477,STD
11387221847000,2.209947,-0.326236688262366,9.80790052263985,-1.01264050695054,-0.04184427,0.009468411,0.028710667,307.92465,-101.716896,4.752537,STD
11387226893000,2.214993,-0.327867180630272,9.81116157547743,-1.00611853747891,-0.043982297,0.0009162979,0.02687807,307.93967,-101.71464,4.749232,STD
11387231874000,2.219974,-0.329476669826574,9.81438062109454,-0.999680580693704,-0.04184427,0.011911872,0.018936822,307.9493,-101.712296,4.744905,STD
11387236841000,2.224941,-0.331081635262838,9.81759061900263,-0.993260718948647,-0.046731193,0.004886922,0.017715093,307.9665,-101.70811,4.7404675,STD
11387241912000,2.230012,-0.332720205773669,9.82086782846346,-0.986706436905324,-0.0421497,0.003970624,0.020463986,307.97125,-101.71093,4.738749,STD
11387246882000,2.234982,-0.334326140587084,9.82407976516634,-0.980282697651663,-0.037873644,0.005497787,0.021991149,307.9771,-101.712,4.7360334,STD
11387251931000,2.240031,-0.323998535491216,9.83027973785455,-0.98131017806458,-0.047036625,0.00061086525,0.024129177,307.98434,-101.70949,4.732333,STD
11387256895000,2.244995,-0.300669810929434,9.83961092756895,-0.990641660094219,-0.040011674,0.008857546,0.021380283,307.9872,-101.71182,4.728419,STD
11387261866000,2.249966,-0.285382515698113,9.84303547622642,-0.988301162792453,-0.04153884,0.0125227375,0.027488936,307.99164,-101.70678,4.7263765,STD
11387266883000,2.254983,-0.280849798188679,9.83850313735849,-0.970170292754717,-0.042760566,0.004581489,0.029626964,307.9966,-101.70286,4.72225,STD
11387271838000,2.259938,-0.280565509959471,9.83396191637286,-0.9567346615358,-0.047647487,0.004886922,0.03268129,307.9979,-101.70124,4.7250776,STD
11387276898000,2.264998,-0.290145787741276,9.82917168078026,-0.953541229495206,-0.03634648,0.007330383,0.024740042,308.00027,-101.7024,4.724929,STD
11387281815000,2.269915,-0.299455318542291,9.82451682141092,-0.950438046620976,-0.039095376,0.005192355,0.02565634,308.0084,-101.69526,4.728316,STD
11387286849000,2.274949,-0.308986369600316,9.81975119967709,-0.947261023519721,-0.036651913,0.009773844,0.021991149,308.01312,-101.69098,4.728511,STD
11387291933000,2.280033,-0.318612087434841,9.81493824359946,-0.94405244476589,-0.042455133,0.011911872,0.027488936,308.01956,-101.68499,4.73116,STD
11387296882000,2.284982,-0.327982204972816,9.81025309025009,-0.940929066274012,-0.05100725,0.008857546,0.019547688,308.0251,-101.67692,4.7288284,STD
11387301897000,2.289997,-0.329919121554565,9.8055961551834,-0.945903815163375,-0.048258353,0.008552114,0.026267206,308.0302,-101.67267,4.7322845,STD
11387306891000,2.294991,-0.308154045031401,9.80124305260763,-0.976374919568581,-0.05131268,0.021685716,0.023823744,308.03134,-101.66276,4.7313867,STD
11387312142000,2.300242,-0.290904778929254,9.7975230814129,-1.00511462798631,-0.047036625,0.019547688,0.022296581,308.04013,-101.65741,4.730259,STD
11387316868000,2.304968,-0.327342329292543,9.80207786676059,-1.00055993775787,-0.043982297,0.01160644,0.01985312,308.04657,-101.65061,4.7284756,STD
11387322646000,2.310746,-0.363042573014244,9.80752610528178,-0.998616160957268,-0.052839845,0.009773844,0.028099801,308.0541,-101.65048,4.7335405,STD
11387326892000,2.314992,-0.359445024328054,9.81112372909847,-1.00940880701584,-0.03573562,0.012217305,0.019242255,308.06146,-101.65549,4.7327104,STD
11387331817000,2.319917,-0.355272172872689,9.81529666769884,-1.02192736138193,-0.048258353,0.010995574,0.021685716,308.073,-101.651,4.731133,STD
11387336869000,2.324969,-0.350522337478314,9.80858781137785,-1.02089878545491,-0.04734206,0.00580322,0.027488936,308.0845,-101.65372,4.7278676,STD
11387341909000,2.330009,-0.345653750349001,9.79885045410531,-1.01603020849304,-0.047036625,0.018936822,0.021685716,308.09055,-101.651855,4.7228746,STD
11387346929000,2.335029,-0.350677836004417,9.80889862493725,-1.00922870811164,-0.03756821,0.017715093,0.019547688,308.10342,-101.656334,4.7200885,STD
11387351903000,2.340003,-0.357851067059532,9.82324512699528,-1.00205548204999,-0.04153884,0.025350908,0.02565634,308.1101,-101.65752,4.7190723,STD
11387356906000,2.345006,-0.365066120330288,9.8376752737175,-0.994840433801827,-0.04520403,0.021685716,0.021685716,308.11893,-101.6594,4.714945,STD
11387361857000,2.349957,-0.372206182041964,9.85195543690392,-0.987700377060536,-0.043982297,0.016798794,0.02687807,308.12665,-101.66312,4.715318,STD
11387366878000,2.354978,-0.362121796370264,9.84695180038369,-0.993993537141487,-0.03756821,0.015271631,0.024129177,308.13257,-101.6651,4.711527,STD
11387371908000,2.360008,-0.348259540964988,9.83771059270983,-1.00323503431175,-0.043066,0.016798794,0.02321288,308.13925,-101.66496,4.7095,STD
11387376876000,2.364976,-0.337551979440204,9.83898722900763,-0.998351639440204,-0.03726278,0.021380283,0.023823744,308.14447,-101.66484,4.704415,STD
11387381864000,2.369964,-0.327827994015267,9.84384881557252,-0.988627654015267,-0.03756821,0.017715093,0.027183503,308.15164,-101.66187,4.699494,STD
11387386885000,2.374985,-0.339605537298721,9.85545278668172,-0.982912577501881,-0.044593163,0.015271631,0.022907447,308.16296,-101.66047,4.696327,STD
11387392614000,2.380714,-0.3602471911155,9.87093434226862,-0.977752166741911,-0.037873644,0.0125227375,0.033292156,308.17618,-101.664536,4.697879,STD
11387396989000,2.385089,-0.361553761186628,9.86974650472149,-0.977622599055701,-0.041233405,0.017104227,0.02687807,308.18518,-101.66038,4.6956325,STD
11387401886000,2.389986,-0.358102953829928,9.86399516313066,-0.978772867373869,-0.04153884,0.010079277,0.021685716,308.1986,-101.66,4.695682,STD
11387406875000,2.394975,-0.354587316112433,9.85813577101371,-0.979944745797258,-0.035430185,0.015577064,0.024129177,308.20752,-101.65802,4.693124,STD
11387411890000,2.39999,-0.351053356771234,9.85224584287852,-0.981122731424297,-0.03481932,0.014966198,0.029626964,308.21985,-101.65428,4.6892405,STD
11387416876000,2.404976,-0.347539833087243,9.84638997414829,-0.982293905170342,-0.03573562,0.01740966,0.029932396,308.22943,-101.6514,4.6849847,STD
11387421862000,2.409962,-0.344026309403252,9.84053410541807,-0.983465078916387,-0.042455133,0.014049901,0.026267206,308.24072,-101.647255,4.6807265,STD
11387426883000,2.414983,-0.340488121995046,9.83463713050943,-0.984644473898114,-0.04184427,0.0106901415,0.025350908,308.25134,-101.6451,4.677367,STD
11387431897000,2.419997,-0.336954867331682,9.82874837683648,-0.985822224632705,-0.04550946,0.009773844,0.022296581,308.26172,-101.63941,4.6722684,STD
11387436880000,2.42498,-0.333022152779757,9.82363786754362,-0.979912838339271,-0.053145275,0.0143553335,0.029626964,308.26517,-101.63477,4.6696296,STD
11387441857000,2.429957,-0.32866810750708,9.81928373134192,-0.966850702521239,-0.04428773,0.017104227,0.02687807,308.26862,-101.632,4.6631575,STD
11387446855000,2.434955,-0.324243908811773,9.81554322084026,-0.960415759520532,-0.047647487,0.012217305,0.027794369,308.2756,-101.62704,4.662101,STD
11387451957000,2.440057,-0.319604850219796,9.81322364552575,-0.969693867016378,-0.045814894,0.0015271631,0.022296581,308.28284,-101.62461,4.658207,STD
11387456883000,2.444983,-0.315125821873249,9.81098408692143,-0.978651914355566,-0.042760566,0.0033597588,0.025045475,308.28168,-101.62109,4.658054,STD
11387461827000,2.449927,-0.310630426797057,9.80873634478993,-0.987642695119867,-0.03634648,0.011301007,0.025045475,308.28128,-101.61798,4.655294,STD
11387466840000,2.45494,-0.305872920682768,9.8062600796082,-0.995792933696644,-0.0421497,0.023518313,0.022602014,308.27914,-101.61245,4.6528764,STD
11387471856000,2.459956,-0.298953451401546,9.80164724780333,-0.993486445541845,-0.0421497,0.022907447,0.022907447,308.27856,-101.61037,4.65091,STD
11387476890000,2.46499,-0.292009151488933,9.79701786277428,-0.991171680515677,-0.046731193,0.008246681,0.018020526,308.2728,-101.60663,4.645299,STD
11387481889000,2.469989,-0.285113133359581,9.79242066457003,-0.988873009406059,-0.041233405,0.011301007,0.024740042,308.263,-101.6068,4.643941,STD
11387486858000,2.474958,-0.278258499615883,9.78785105507274,-0.986588133082057,-0.04062254,0.016187929,0.02107485,308.25613,-101.6027,4.63764,STD
11387491949000,2.480049,-0.267742135484657,9.80746739348621,-0.981418475562202,-0.047647487,0.01985312,0.015882496,308.2491,-101.598526,4.6328754,STD
11387496876000,2.484976,-0.257476485490641,9.82525534600113,-0.979577512705615,-0.04184427,0.011911872,0.014966198,308.24417,-101.59786,4.627933,STD
11387501949000,2.490049,-0.248290801800908,9.82066240584231,-1.00254173391946,-0.029626964,0.021685716,0.016798794,308.23196,-101.59708,4.626377,STD
11387507162000,2.495262,-0.239661501889094,9.81574434563839,-1.02399433357676,-0.033292156,0.025961773,0.02321288,308.22266,-101.59314,4.626927,STD
11387511886000,2.499986,-0.243292089800177,9.80848301059305,-1.01310255847043,-0.03940081,0.014966198,0.023518313,308.21484,-101.591125,4.625901,STD
11387516887000,2.504987,-0.247135563581575,9.80079589447075,-1.00157212508627,-0.03940081,0.027794369,0.020463986,308.2074,-101.59101,4.6261578,STD
11387521852000,2.509952,-0.256868278283775,9.80494446444732,-0.998611666688214,-0.04520403,0.023823744,0.022907447,308.20813,-101.58833,4.62647,STD
11387526890000,2.51499,-0.272462321199095,9.82053881674208,-1.00380967556561,-0.044593163,0.018325957,0.025045475,308.20554,-101.586845,4.6263347,STD
11387531877000,2.519977,-0.279296318376708,9.825804,-0.997720108116462,-0.04062254,0.03023783,0.021991149,308.19815,-101.58186,4.6254525,STD
11387536858000,2.524958,-0.281674523621498,9.825804,-0.985829081892512,-0.03573562,0.022602014,0.017715093,308.19788,-101.57738,4.6234183,STD
11387541881000,2.529981,-0.284072781992223,9.825804,-0.973837790038887,-0.036957346,0.023518313,0.021380283,308.1933,-101.572395,4.620873,STD
11387546876000,2.534976,-0.286457671612324,9.825804,-0.961913341938379,-0.042455133,0.028710667,0.02076942,308.1893,-101.56659,4.6157746,STD
11387551920000,2.54002,-0.281393688150943,9.81989336471698,-0.954725428646226,-0.049785517,0.028710667,0.027183503,308.18008,-101.56171,4.61276,STD
11387556920000,2.54502,-0.272358971169811,9.8108584590566,-0.950208046570755,-0.04153884,0.030543262,0.03268129,308.169,-101.55928,4.6097326,STD
11387561940000,2.55004,-0.270243519868437,9.81083581788281,-0.949150315397734,-0.042760566,0.035430185,0.022602014,308.15494,-101.54701,4.6038675,STD
11387566969000,2.555069,-0.274154814561254,9.81865836642709,-0.951105972954481,-0.048258353,0.026267206,0.025045475,308.14545,-101.537895,4.602418,STD
11387574427000,2.562527,-0.279955259146465,9.83025919502985,-0.954006210389004,-0.056199603,0.03176499,0.022907447,308.12897,-101.526215,4.5998673,STD
11387576989000,2.565089,-0.281947849522881,9.83424435497625,-0.95500251077882,-0.05222898,0.027488936,0.02687807,308.11847,-101.51731,4.598737,STD
11387581894000,2.569994,-0.285762703463678,9.84187402302351,-0.9569099477078,-0.040317107,0.032070424,0.023518313,308.11243,-101.50532,4.5952916,STD
11387586968000,2.575068,-0.298641453425221,9.84070559248624,-0.963349322273271,-0.04550946,0.03573562,0.022296581,308.10815,-101.490776,4.5932794,STD
11387591892000,2.579992,-0.316695992838478,9.83393523977028,-0.972376584910266,-0.0580322,0.02565634,0.028405234,308.10672,-101.47802,4.5919,STD
11387596860000,2.58496,-0.334911864447954,9.82710438837042,-0.981484513582197,-0.05131268,0.03145956,0.024740042,308.1037,-101.467606,4.587145,STD
11387601936000,2.590036,-0.353523733266332,9.820125040201,-0.990790440703518,-0.04550946,0.01985312,0.025961773,308.10892,-101.45517,4.5840406,STD
11387606863000,2.594963,-0.36112805555019,9.81436655947627,-0.998778502507197,-0.04337143,0.020158553,0.022602014,308.1092,-101.44347,4.580251,STD
11387611882000,2.599982,-0.354433005964342,9.80990310298078,-1.00547354743245,-0.047647487,0.018020526,0.026572637,308.11377,-101.432724,4.5781083,STD
11387616810000,2.60491,-0.347859345004179,9.80552057386944,-1.01204720381651,-0.051618114,0.010995574,0.022296581,308.1231,-101.42296,4.5649786,STD
11387621877000,2.609977,-0.341100266253134,9.80101443040208,-1.01880627786238,-0.0421497,0.022602014,0.020158553,308.12796,-101.41644,4.554551,STD
11387626856000,2.614956,-0.334734689385281,9.79752656008658,-1.02562540596537,-0.047036625,0.011301007,0.015271631,308.1425,-101.404625,4.541161,STD
11387631885000,2.619985,-0.330564842874459,9.80169649367965,-1.03396514252814,-0.05100725,-0.0021380284,0.018325957,308.1545,-101.39632,4.5300455,STD
11387636828000,2.624928,-0.326466304138528,9.80579511800866,-1.04216226279654,-0.032986723,0.010995574,0.02321288,308.16898,-101.3954,4.5222287,STD
11387641896000,2.629996,-0.336635554203973,9.80297522108165,-1.0475467021766,-0.03390302,0.01038471,0.028099801,308.19086,-101.38895,4.513914,STD
11387646847000,2.634947,-0.350155591217565,9.7984684510978,-1.05205337804391,-0.03176499,0.01863139,0.027794369,308.2062,-101.38797,4.5066547,STD
11387651941000,2.640041,-0.357607178345461,9.80686915961317,-1.03712217417656,-0.03176499,0.01985312,0.024129177,308.22678,-101.38754,4.500071,STD
11387656869000,2.644969,-0.362125990141708,9.82042587811183,-1.01452806801034,-0.044593163,0.020463986,0.026572637,308.24515,-101.38486,4.49544,STD
11387661887000,2.649987,-0.360978962747908,9.825804,-0.999685311635015,-0.042760566,0.024129177,0.023823744,308.2628,-101.38513,4.485738,STD
11387666874000,2.654974,-0.356192717172922,9.825804,-0.990112830480533,-0.039095376,0.022602014,0.02107485,308.28156,-101.3828,4.4764977,STD
11387671860000,2.65996,-0.351407431342386,9.825804,-0.980542268812948,-0.03848451,0.022907447,0.024129177,308.2917,-101.377075,4.4682865,STD
11387676891000,2.664991,-0.346578957011575,9.825804,-0.970885330235005,-0.046120327,0.028405234,0.020463986,308.30017,-101.36914,4.457699,STD
11387681879000,2.669979,-0.353875259156602,9.82884080102354,-0.973330975209826,-0.04184427,0.031154128,0.02107485,308.30954,-101.36538,4.449116,STD
11387686847000,2.674947,-0.368484545396111,9.83371066141249,-0.98307049258956,-0.042760566,0.02076942,0.018936822,308.32056,-101.35762,4.438427,STD
11387691936000,2.680036,-0.379988049995994,9.83213464059683,-0.983164808391748,-0.04795292,0.014049901,0.020158553,308.33234,-101.34878,4.433365,STD
11387696883000,2.684983,-0.38947662982175,9.82739025655918,-0.978420523432806,-0.032070424,0.013133603,0.03023783,308.34552,-101.346115,4.4299617,STD
11387701853000,2.689953,-0.389679773303413,9.81986527498831,-0.970895699008883,-0.038789943,0.018936822,0.025350908,308.3593,-101.33546,4.4197745,STD
11387706872000,2.694972,-0.385185518083216,9.81087659560542,-0.961907207339878,-0.043066,0.009773844,0.022602014,308.37796,-101.33099,4.412179,STD
11387711882000,2.699982,-0.378822673496316,9.80580006530476,-0.961930284728734,-0.03940081,-0.0009162979,0.019242255,308.39496,-101.32509,4.4015784,STD
11387717426000,2.705526,-0.3699322178071,9.80402193777629,-0.970820736704622,-0.0421497,0.004276057,0.018325957,308.40973,-101.31647,4.3913283,STD
11387721852000,2.709952,-0.362834606537173,9.80260238647019,-0.977918345010047,-0.03756821,-0.0070249503,0.016493361,308.42996,-101.30933,4.379611,STD
11387726891000,2.714991,-0.35475397770998,9.80098622762893,-0.985998970462157,-0.04337143,-0.009773844,0.013133603,308.44592,-101.29862,4.3680153,STD
11387731875000,2.719975,-0.346761547847957,9.79938770894173,-0.993991396985934,-0.046120327,-0.010995574,0.0125227375,308.4616,-101.2908,4.3563275,STD
11387736891000,2.724991,-0.33871780222438,9.79777892689216,-1.00203513924983,-0.04428773,-0.013439035,0.013439035,308.47803,-101.28263,4.3440623,STD
11387741875000,2.729975,-0.345309667253394,9.80972477746131,-1.00809505549226,-0.03726278,-0.013439035,0.016187929,308.48862,-101.278465,4.334052,STD
11387746838000,2.734938,-0.363359485240672,9.83228703816576,-1.01260750763315,-0.0421497,-0.017104227,0.016187929,308.50064,-101.2715,4.3233094,STD
11387751922000,2.740022,-0.366973691570313,9.83843532690977,-1.01079365740686,-0.043982297,-0.029321533,0.019242255,308.5106,-101.27267,4.3162203,STD
11387756892000,2.744992,-0.352862594880917,9.82432443650558,-1.00138626616266,-0.049785517,-0.0125227375,0.021991149,308.51324,-101.27136,4.3103724,STD
11387761837000,2.749937,-0.342801169682065,9.81720895566551,-0.991078219078528,-0.03481932,-0.0076358155,0.018325957,308.52377,-101.27368,4.298506,STD
11387766904000,2.755004,-0.338046783202861,9.81958619854994,-0.979192240469309,-0.040317107,-0.015577064,0.016798794,308.5333,-101.26957,4.2882934,STD
11387771818000,2.759918,-0.333435957239014,9.82189165967766,-0.967665163523245,-0.043982297,-0.015882496,0.021685716,308.53696,-101.26769,4.2806664,STD
11387776891000,2.764991,-0.328675940935678,9.82427171753294,-0.955765110339,-0.030848695,-0.021685716,0.017715093,308.54382,-101.26766,4.2695093,STD
11387781817000,2.769917,-0.317724992296855,9.82738132116281,-0.955990299350134,-0.03604105,-0.017715093,0.02321288,308.54865,-101.26337,4.2629485,STD
11387786868000,2.774968,-0.293728337267586,9.83218074838774,-0.979986959390813,-0.03604105,-0.018325957,0.022296581,308.55582,-101.262726,4.2529993,STD
11387796921000,2.785021,-0.258563268634005,9.82899282947515,-1.03431618941329,-0.046731193,-0.02321288,0.02443461,308.56836,-101.24365,4.237259,STD
11387801830000,2.78993,-0.24899697,9.82504559770289,-1.05269041354088,-0.04917465,-0.024740042,0.023518313,308.57513,-101.24031,4.2323356,STD
11387806955000,2.795055,-0.24899697,9.82257307112992,-1.05021793860259,-0.035124753,-0.02443461,0.019547688,308.58215,-101.23809,4.2273808,STD
11387811818000,2.799918,-0.24899697,9.8202269449398,-1.04787186140749,-0.044898596,-0.020158553,0.021685716,308.5903,-101.23536,4.226093,STD
11387816793000,2.804893,-0.24899697,9.81782678499824,-1.04547175158934,-0.038789943,-0.023823744,0.025350908,308.60034,-101.24012,4.223619,STD
11387821813000,2.809913,-0.252221407854179,9.81703312566686,-1.04709643532899,-0.043676864,-0.017104227,0.021685716,308.60428,-101.23923,4.2205205,STD
11387826791000,2.814891,-0.261641156468089,9.8193881101561,-1.0565161765659,-0.045814894,-0.022907447,0.01740966,308.61282,-101.24084,4.2173114,STD
11387831795000,2.819895,-0.271110104251136,9.82175539468484,-1.06598511693341,-0.03970624,-0.02443461,0.03023783,308.6207,-101.24269,4.217789,STD
11387836780000,2.82488,-0.280543098795199,9.82411369072318,-1.0754181040901,-0.044898596,-0.019547688,0.02443461,308.62708,-101.23846,4.2118044,STD
11387841811000,2.829911,-0.281842975658551,9.83126519155177,-1.07398735564682,-0.05222898,-0.0070249503,0.031154128,308.63287,-101.2379,4.2131524,STD
11387846793000,2.834893,-0.263181919644079,9.84992613552361,-1.04599574483231,-0.0571159,-0.0015271631,0.027183503,308.63824,-101.23475,4.2096477,STD
11387851914000,2.840014,-0.251352764064171,9.85822152406417,-1.0211846144385,-0.049480084,-0.004276057,0.021991149,308.64548,-101.23569,4.203828,STD
11387856935000,2.845035,-0.2602196621123,9.83605431366402,-1.00788428819841,-0.046120327,-0.0021380284,0.022602014,308.64975,-101.23436,4.1990523,STD
11387861869000,2.849969,-0.268970015239015,9.81499789425398,-0.996397607619508,-0.043676864,-0.006414085,0.018936822,308.65262,-101.23181,4.1976423,STD
11387866878000,2.854978,-0.278235141496861,9.80110039835828,-1.00103017074843,-0.04550946,-0.016493361,0.022907447,308.65692,-101.22984,4.1982446,STD
11387872153000,2.860253,-0.285967776132421,9.78799815164588,-1.00573175287443,-0.04734206,-0.0021380284,0.019547688,308.65448,-101.225,4.195334,STD
11387876892000,2.864992,-0.268942741969896,9.79438244640345,-1.00785988075589,-0.0421497,-0.009468411,0.019242255,308.66132,-101.2223,4.19269,STD
11387882228000,2.870328,-0.249772963052143,9.80157100872175,-1.01025610155679,-0.050701816,0.0009162979,0.024740042,308.66376,-101.2145,4.189481,STD
11387886846000,2.874946,-0.233182625900309,9.80779229447623,-1.01232989234737,-0.044593163,0.0015271631,0.025350908,308.67065,-101.21143,4.183924,STD
11387891873000,2.879973,-0.215122941001594,9.8145645776048,-1.01458735148645,-0.04795292,-0.00061086525,0.018936822,308.67523,-101.203476,4.178309,STD
11387896883000,2.884983,-0.204210259844114,9.83566551782835,-1.03134024230425,-0.04428773,0.009162978,0.015577064,308.67636,-101.1994,4.174335,STD
11387901831000,2.889931,-0.195719656747895,9.86113738917757,-1.05256677220928,-0.046731193,0.005497787,0.013744468,308.68155,-101.19234,4.168197,STD
11387906883000,2.894983,-0.199992343179976,9.87115108492096,-1.05964310837049,-0.045814894,0.018020526,0.014049901,308.67725,-101.18933,4.1699824,STD
11387911886000,2.899986,-0.216176901152209,9.86629561967977,-1.05316927301378,-0.04917465,0.020463986,0.0143553335,308.6767,-101.18432,4.1704345,STD
11387916873000,2.904973,-0.232309699594649,9.86145568261046,-1.0467161415079,-0.04886922,0.024740042,0.018325957,308.6792,-101.1869,4.1769333,STD
11387921866000,2.909966,-0.248461907860762,9.85660992247669,-1.04025524605797,-0.059253927,0.023518313,0.019547688,308.68237,-101.1853,4.182327,STD
11387926884000,2.914984,-0.264694990392177,9.85173989957438,-1.0337620008411,-0.061086524,0.02321288,0.022907447,308.6843,-101.18653,4.189427,STD
11387931874000,2.919974,-0.280837493746453,9.84689705097284,-1.02730498736319,-0.050701816,0.01985312,0.019547688,308.68707,-101.187546,4.194483,STD
11387936872000,2.924972,-0.298513647815159,9.84271529958629,-1.02023452461947,-0.05589417,0.017715093,0.02443461,308.6901,-101.18508,4.2025623,STD
11387941890000,2.92999,-0.31726956950121,9.83896443173835,-1.01273216221216,-0.056505036,0.01863139,0.016798794,308.6923,-101.184715,4.2058964,STD
11387947102000,2.935202,-0.334164951353102,9.83503989689843,-1.00590579597819,-0.04917465,0.0143553335,0.021380283,308.6993,-101.18017,4.2039256,STD
11387951878000,2.939978,-0.32247302174165,9.83114250835038,-1.00980310313565,-0.056505036,0.014660766,0.019242255,308.70392,-101.17012,4.1982117,STD
11387956857000,2.944957,-0.310284136160532,9.8270794644683,-1.01386606216769,-0.049785517,0.01282817,0.019242255,308.7076,-101.16775,4.1925707,STD
11387961888000,2.949988,-0.316867044463017,9.81886437693272,-1.00820202185541,-0.04428773,0.020158553,0.023823744,308.70868,-101.16342,4.188136,STD
11387966810000,2.95491,-0.33164045934392,9.80901523485165,-0.998353085457585,-0.050701816,0.0070249503,0.011911872,308.71518,-101.15594,4.17793,STD
11387971873000,2.959973,-0.33518824,9.80786787532357,-0.998423599780465,-0.036651913,0.016187929,0.030543262,308.71237,-101.16181,4.182159,STD
11387976905000,2.965005,-0.33518824,9.80944693964416,-1.00158166246928,-0.048258353,0.013133603,0.028405234,308.71503,-101.15561,4.1758757,STD
11387981874000,2.969974,-0.33518824,9.81100623428028,-1.0047001866149,-0.035430185,0.014660766,0.019242255,308.71454,-101.15855,4.1709957,STD
11387986853000,2.974953,-0.33518824,9.81256866696156,-1.00782498671975,-0.03848451,0.018020526,0.024740042,308.71503,-101.15548,4.1695304,STD
11387991981000,2.980081,-0.33518824,9.81417785651561,-1.01104329861725,-0.05100725,0.013133603,0.019242255,308.72717,-101.148,4.161647,STD
11387996883000,2.984983,-0.33518824,9.81571612624922,-1.01411977383597,-0.041233405,0.01160644,0.018020526,308.7377,-101.14668,4.1568117,STD
11388001916000,2.990016,-0.332140384686419,9.81927491896439,-0.996854368118516,-0.047036625,0.012217305,0.02076942,308.7542,-101.13935,4.153908,STD
11388007025000,2.995125,-0.327567259048509,9.82384814010655,-0.969415614291055,-0.0421497,0.010995574,0.016187929,308.7709,-101.13654,4.148332,STD
11388011882000,2.999982,-0.316096944249861,9.82342532887154,-0.962437942907604,-0.050396383,0.015577064,0.017715093,308.79102,-101.13253,4.1473618,STD
11388016878000,3.004978,-0.298307116118238,9.8189777836029,-0.971332847685443,-0.0421497,0.014966198,0.0143553335,308.81207,-101.13312,4.1432543,STD
11388021850000,3.00995,-0.288233441866364,9.81901468096515,-0.977763539925758,-0.04550946,0.015271631,0.018325957,308.8318,-101.12293,4.1424065,STD
11388026893000,3.014993,-0.290723434816457,9.82648454021448,-0.98025352767581,-0.052534413,0.012217305,0.009162978,308.85144,-101.11231,4.136613,STD
11388031875000,3.019975,-0.293183308875026,9.83386404423593,-0.982713396597237,-0.043982297,0.021991149,0.009162978,308.8677,-101.10918,4.1384726,STD
11388036847000,3.024947,-0.295638245410394,9.84122873592493,-0.985168328005774,-0.050701816,0.01282817,0.019547688,308.8899,-101.10039,4.1394153,STD
11388042477000,3.030577,-0.286533527160849,9.84052242592225,-0.983454676120587,-0.055588737,0.010995574,0.013744468,308.9061,-101.09265,4.1365314,STD
11388046882000,3.034982,-0.271891475777469,9.83424735402618,-0.979271236612455,-0.051923547,0.0033597588,0.01740966,308.9272,-101.08763,4.138276,STD
11388051889000,3.039989,-0.255248399437723,9.82711471271321,-0.974516076199921,-0.043982297,0.008552114,0.01282817,308.94055,-101.08037,4.133802,STD
11388056896000,3.044996,-0.238605323097977,9.81998207140024,-0.969760915787386,-0.04428773,0.011301007,0.015882496,308.957,-101.07321,4.1319,STD
11388061882000,3.049982,-0.232054006996709,9.81512165399538,-0.968362822921271,-0.04337143,0.013133603,0.013133603,308.97144,-101.06744,4.127225,STD
11388066879000,3.054979,-0.236754689142478,9.81277126506557,-0.970713162767055,-0.048563786,0.010079277,0.018020526,308.98676,-101.06116,4.1253624,STD
11388071856000,3.059956,-0.241436557271254,9.81043028333579,-0.973054095609253,-0.048563786,0.0070249503,0.0106901415,309.00195,-101.05294,4.1245008,STD
11388076953000,3.065053,-0.246231309501989,9.80803285840578,-0.975451470472963,-0.04184427,0.011301007,0.015882496,309.01648,-101.04713,4.1285496,STD
11388081872000,3.069972,-0.250781405288579,9.81021894510875,-0.978618735288579,-0.046120327,0.010079277,0.0143553335,309.02972,-101.03818,4.128502,STD
11388086858000,3.074958,-0.255277208395631,9.81921073910178,-0.983114538395631,-0.03390302,0.018936822,0.01160644,309.03885,-101.035835,4.130106,STD
11388091875000,3.079975,-0.261027006441747,9.82212407425184,-0.988864332599285,-0.04428773,0.019242255,0.007941248,309.05136,-101.02664,4.128495,STD
11388096883000,3.084983,-0.270054051335404,9.80858324534161,-0.997891363354037,-0.043982297,0.019547688,0.0076358155,309.0612,-101.023544,4.127375,STD
11388101875000,3.089975,-0.276349508441813,9.79776195908779,-1.00074208350299,-0.045814894,0.022907447,0.009773844,309.0696,-101.01675,4.124261,STD
11388106889000,3.094989,-0.266949850927865,9.80246187863365,-0.967843309195459,-0.048258353,0.02687807,0.008857546,309.07745,-101.00957,4.120209,STD
11388111844000,3.099944,-0.258124540410326,9.80754847794259,-0.938976279589674,-0.04520403,0.028405234,0.013744468,309.08685,-101.00584,4.116496,STD
11388116878000,3.104978,-0.253480963912541,9.81683582488923,-0.943619856087459,-0.0421497,0.025350908,0.01282817,309.09595,-101.0008,4.1108546,STD
11388122167000,3.110267,-0.247441273049625,9.82658182370244,-0.94888170009963,-0.038789943,0.035124753,0.011301007,309.09805,-100.99044,4.108484,STD
11388126910000,3.11501,-0.230201388386944,9.83520149150773,-0.957501660432679,-0.044593163,0.03023783,0.007330383,309.10486,-100.97825,4.1042347,STD
11388131896000,3.119996,-0.212078245876269,9.84426277417212,-0.966563250612013,-0.04917465,0.021991149,0.0143553335,309.10864,-100.970856,4.1047983,STD
11388136888000,3.124988,-0.21706230977194,9.84283299307159,-0.948139818466128,-0.045814894,0.029932396,0.016798794,309.10873,-100.96321,4.103488,STD
11388141916000,3.130016,-0.224012685158776,9.84051639722864,-0.927288689886451,-0.05100725,0.025045475,0.014049901,309.11475,-100.95239,4.101542,STD
11388146913000,3.135013,-0.230920208191397,9.83821408429561,-0.906566118384334,-0.04337143,0.02443461,0.015271631,309.11008,-100.94921,4.103889,STD
11388151849000,3.139949,-0.237743408849596,9.83593987644342,-0.886096514034835,-0.044898596,0.025045475,0.016493361,309.1063,-100.941925,4.105158,STD
11388156887000,3.144987,-0.246736194679449,9.83416163960455,-0.889601550883763,-0.05681047,0.01740966,0.013744468,309.10022,-100.93714,4.1071644,STD
11388161818000,3.149918,-0.256167637394315,9.83258970075228,-0.900604901264896,-0.0421497,0.02321288,0.0125227375,309.09042,-100.93916,4.1104836,STD
11388166875000,3.154975,-0.265840078239798,9.83097759473404,-0.911889416145729,-0.048258353,0.02076942,0.014049901,309.07535,-100.92316,4.108292,STD
11388171827000,3.159927,-0.275311687309766,9.82939896135411,-0.922939627276812,-0.045814894,0.016493361,0.016493361,309.05936,-100.91337,4.1062584,STD
11388176896000,3.164996,-0.285007080358165,9.82778302989149,-0.934250919729046,-0.05375614,0.023823744,0.015882496,309.04095,-100.89917,4.104281,STD
11388181825000,3.169925,-0.294434697705878,9.82621172861327,-0.945249807181612,-0.052534413,0.0143553335,0.01160644,309.02866,-100.88802,4.1009183,STD
11388186890000,3.17499,-0.311347966126683,9.82218718982544,-0.966187542099751,-0.054061573,0.018020526,0.014049901,309.00513,-100.87758,4.101386,STD
11388191951000,3.180051,-0.330686902826933,9.81735235720698,-0.99036122559601,-0.04550946,0.022602014,0.0061086523,308.98358,-100.868614,4.0973325,STD
11388196881000,3.184981,-0.345524469345095,9.82311795867293,-0.999433307383258,-0.048258353,0.016187929,0.0070249503,308.97253,-100.85842,4.087728,STD
11388201858000,3.189958,-0.359235400435325,9.83225876392751,-1.00400361456516,-0.052534413,0.023823744,0.0033597588,308.95587,-100.848816,4.0757713,STD
11388206881000,3.194981,-0.357527711400074,9.83325064079392,-1.0055647,-0.04184427,0.029932396,0.0061086523,308.94537,-100.84655,4.0617046,STD
11388211867000,3.199967,-0.347938403630217,9.83005414034207,-1.0055647,-0.05009095,0.032986723,0.004581489,308.93347,-100.83735,4.0459576,STD
11388216877000,3.204977,-0.338302937940891,9.82684225360645,-1.0055647,-0.046120327,0.03970624,0.0076358155,308.9226,-100.833145,4.0292244,STD
11388221868000,3.209968,-0.328704013937812,9.82364254767882,-1.0055647,-0.056505036,0.038789943,0.004886922,308.9129,-100.822266,4.010572,STD
11388226890000,3.21499,-0.319045469288751,9.82042296780132,-1.0055647,-0.04642576,0.04550946,-0.0018325958,308.89935,-100.81787,3.9927337,STD
11388231877000,3.219977,-0.309454238272249,9.81722582625431,-1.0055647,-0.047036625,0.055283304,0.008857546,308.88617,-100.809586,3.9795008,STD
11388236846000,3.224946,-0.310770084526583,9.8173050880829,-1.00125243772483,-0.04795292,0.061391957,0.0070249503,308.86963,-100.801704,3.9607475,STD
11388241898000,3.229998,-0.317156938935349,9.81890183419689,-0.994865586650606,-0.05009095,0.06169739,0.008246681,308.85297,-100.79483,3.946396,STD
11388246879000,3.234979,-0.323454033513745,9.82047613989637,-0.988568495359889,-0.04642576,0.06169739,0.0076358155,308.83304,-100.79052,3.9368587,STD
11388251897000,3.239997,-0.329797904341771,9.82206213989637,-0.982224627843966,-0.050396383,0.060170226,0.0076358155,308.8139,-100.78378,3.9279754,STD
11388256887000,3.244987,-0.336106376926834,9.82363929015544,-0.975916158552523,-0.045814894,0.059253927,0.0027488936,308.79474,-100.779686,3.9177563,STD
11388261887000,3.249987,-0.342427491741527,9.82521960103627,-0.969595047038052,-0.047036625,0.061086524,0.02107485,308.77673,-100.77542,3.9143333,STD
11388266879000,3.254979,-0.33557703531339,9.82274126994302,-0.964194833903134,-0.044593163,0.04795292,0.021380283,308.76852,-100.77204,3.906258,STD
11388271852000,3.259952,-0.321039349247049,9.81789527676028,-0.959348941921042,-0.05497787,0.03726278,0.014049901,308.75983,-100.76594,3.9014022,STD
11388276914000,3.265014,-0.320214862157725,9.81518191872699,-0.950365279497704,-0.044898596,0.045814894,0.016493361,308.7495,-100.762634,3.8965847,STD
11388281908000,3.270008,-0.326446542556435,9.81362396771882,-0.93945984368025,-0.04520403,0.03970624,0.026267206,308.74646,-100.75392,3.8906386,STD
11388286890000,3.27499,-0.332663248953386,9.81206976028535,-0.928580612354148,-0.045814894,0.04184427,0.024129177,308.73706,-100.74685,3.8856976,STD
11388291878000,3.279978,-0.338887442351217,9.81051368106453,-0.917688278782371,-0.047647487,0.03756821,0.026267206,308.73203,-100.74082,3.8840628,STD
11388296876000,3.284976,-0.345124114083846,9.80895448219812,-0.906774108134467,-0.04734206,0.022296581,0.023518313,308.7342,-100.734985,3.8816059,STD
11388301891000,3.289991,-0.351381998985635,9.8073899799342,-0.895822814457149,-0.03970624,0.021991149,0.0290161,308.7339,-100.73171,3.8825228,STD
11388306889000,3.294989,-0.35560554910105,9.80791371549168,-0.8931704382021,-0.038789943,0.024129177,0.024129177,308.73642,-100.72539,3.879028,STD
11388311886000,3.299986,-0.358010215680619,9.81031843228983,-0.897979771361238,-0.05009095,0.022296581,0.023518313,308.74057,-100.71882,3.8779705,STD
11388316877000,3.304977,-0.360411994927893,9.81272026169539,-0.902783329855786,-0.04153884,0.01985312,0.020463986,308.74725,-100.70539,3.868641,STD
11388321853000,3.309953,-0.36280655584443,9.81511487261947,-0.90757245168886,-0.049785517,0.025350908,0.02687807,308.75247,-100.68578,3.8622475,STD
11388326890000,3.31499,-0.369807757158583,9.81504915646289,-0.912152296649673,-0.044898596,0.020463986,0.019547688,308.7603,-100.67054,3.8506165,STD
11388331994000,3.320094,-0.380834151838484,9.81284383239341,-0.91656285037672,-0.04734206,0.016493361,0.017715093,308.7668,-100.652725,3.8427649,STD
11388336872000,3.324972,-0.391372308822919,9.81073615786149,-0.920778109209113,-0.052839845,0.01282817,0.013133603,308.77505,-100.63596,3.8308897,STD
11388341956000,3.330056,-0.402355496627115,9.80853947534401,-0.92517138020212,-0.043676864,0.014049901,0.01863139,308.78326,-100.62366,3.821559,STD
11388346936000,3.335036,-0.412343938998758,9.80610874891372,-0.928769830459342,-0.04520403,0.025961773,0.0143553335,308.78314,-100.60639,3.8078616,STD
11388351890000,3.33999,-0.416761397120422,9.80169135536934,-0.927297345443824,-0.046731193,0.020463986,0.014660766,308.78802,-100.59287,3.7963972,STD
11388357296000,3.345396,-0.421581901481688,9.79687092147734,-0.925690511775295,-0.04520403,0.017104227,0.0070249503,308.78796,-100.583046,3.7804224,STD
11388361881000,3.349981,-0.425670324067039,9.79278255865922,-0.924327705195531,-0.04428773,0.01160644,0.009162978,308.7906,-100.57387,3.7671669,STD
11388367879000,3.355979,-0.431018711998759,9.78743424891372,-0.922544910459342,-0.047647487,0.01160644,0.009468411,308.79214,-100.56318,3.7516341,STD
11388371852000,3.359952,-0.434561417109249,9.7838915955928,-0.921364009577902,-0.046120327,0.012217305,0.002443461,308.7948,-100.553696,3.734666,STD
11388376898000,3.364998,-0.439060911191186,9.7793921672874,-0.919864179261328,-0.042455133,0.024740042,0.0076358155,308.80014,-100.544365,3.7224998,STD
11388381877000,3.369977,-0.43733249843342,9.78112066840731,-0.932175872976501,-0.049785517,0.017715093,0.004886922,308.80997,-100.53122,3.7054536,STD
11388386855000,3.374955,-0.432545060152641,9.785908206668,-0.951325651094597,-0.043982297,0.014966198,0.00580322,308.81543,-100.52366,3.6919644,STD
11388391908000,3.380008,-0.419944707938179,9.78906995223376,-0.959253783641633,-0.042760566,0.014966198,0.0061086523,308.81833,-100.513374,3.6755502,STD
11388396907000,3.385007,-0.403759189350398,9.79138197464381,-0.961565999203091,-0.050396383,0.014049901,0.005497787,308.82224,-100.50244,3.6592455,STD
11388402038000,3.390138,-0.387146287595267,9.7937550466554,-0.963939269466312,-0.038789943,0.0125227375,0.008246681,308.8321,-100.50174,3.6464825,STD
11388406902000,3.395002,-0.37139786542864,9.79600463197295,-0.96618904271915,-0.043676864,0.010995574,0.0106901415,308.84204,-100.49458,3.633614,STD
11388411882000,3.399982,-0.361520418019133,9.81146250196961,-0.969655741980867,-0.04153884,0.016798794,0.01038471,308.85028,-100.490486,3.619424,STD
11388416880000,3.40498,-0.357031124603264,9.83839835621835,-0.974145035396736,-0.036957346,0.020463986,0.0076358155,308.85938,-100.48584,3.6052382,STD
11388421844000,3.409944,-0.353374950641656,9.85356707246823,-0.972966665595531,-0.04184427,0.014049901,0.0106901415,308.86826,-100.48194,3.5985813,STD
11388426892000,3.414992,-0.350897306763018,9.85108938202132,-0.963056097842353,-0.039095376,0.014660766,0.018325957,308.8741,-100.481445,3.5930033,STD
11388431875000,3.419975,-0.348451565985035,9.8486435952747,-0.953273142391861,-0.03604105,0.016187929,0.014049901,308.88525,-100.47797,3.5854566,STD
11388437493000,3.425593,-0.34569415645449,9.84588613391759,-0.942243512907442,-0.043982297,0.02076942,0.013439035,308.8957,-100.47336,3.581214,STD
11388441886000,3.429986,-0.34476504,9.84258939220728,-0.937343209018987,-0.046731193,0.018020526,0.015882496,308.9015,-100.47079,3.5748286,STD
11388446884000,3.434984,-0.34476504,9.83785607070807,-0.934976474129747,-0.039095376,0.0106901415,0.0125227375,308.90698,-100.468254,3.56667,STD
11388451907000,3.440007,-0.34476504,9.83309907313093,-0.932597900830696,-0.04337143,0.0033597588,0.01282817,308.9115,-100.45947,3.561429,STD
11388456903000,3.445003,-0.34476504,9.82836764571796,-0.93023211301424,-0.045814894,0.009162978,0.013439035,308.91412,-100.453,3.5556433,STD
11388461871000,3.449971,-0.342784690192061,9.82778439116517,-0.938852009379001,-0.042455133,0.0076358155,0.020158553,308.92252,-100.44415,3.5481746,STD
11388466879000,3.454979,-0.338398316092921,9.83217085686848,-0.960783902775745,-0.040927973,0.0070249503,0.01985312,308.92856,-100.43373,3.539346,STD
11388471814000,3.459914,-0.336421637829835,9.83414757641213,-0.975600902170165,-0.035430185,0.0033597588,0.018936822,308.93573,-100.42548,3.5321999,STD
11388476868000,3.464968,-0.341329978484941,9.82923913325221,-0.970692561515059,-0.035124753,-0.00030543262,0.01740966,308.94287,-100.41632,3.5248294,STD
11388481817000,3.469917,-0.348746134508342,9.82182282512267,-0.968584530578999,-0.040317107,-0.010079277,0.013133603,308.95535,-100.415245,3.5204072,STD
11388486857000,3.474957,-0.362956273546614,9.80761239921492,-0.973321240294406,-0.043982297,-0.004886922,0.018325957,308.96484,-100.41531,3.5186622,STD
11388491887000,3.479987,-0.371023409241297,9.797073,-0.971890198482593,-0.042455133,-0.009162978,0.018936822,308.979,-100.4136,3.5126765,STD
11388496880000,3.48498,-0.361470042803057,9.797073,-0.952783465606114,-0.035430185,-0.0125227375,0.015577064,308.99127,-100.41247,3.50726,STD
11388501832000,3.489932,-0.351995123796014,9.797073,-0.933833627592028,-0.042760566,0.0021380284,0.020158553,309.00513,-100.40799,3.5019536,STD
11388506881000,3.494981,-0.342334609646871,9.797073,-0.914512599293742,-0.03604105,-0.004581489,0.016493361,309.02502,-100.40805,3.4921613,STD
11388511848000,3.499948,-0.334813252153572,9.7981979870328,-0.901344823147724,-0.050396383,-0.010995574,0.016187929,309.04083,-100.40123,3.4853182,STD
11388516879000,3.504979,-0.333281950322909,9.802791988463,-0.905938727040745,-0.039095376,-0.014660766,0.016493361,309.0573,-100.402824,3.477415,STD
11388521860000,3.50996,-0.331765867154844,9.80734033295195,-0.910486974961861,-0.03848451,-0.0076358155,0.022602014,309.06796,-100.39253,3.475595,STD
11388526857000,3.514957,-0.330244914014747,9.81190328766209,-0.915049832793987,-0.04428773,-0.0027488936,0.02107485,309.0796,-100.38298,3.4713643,STD
11388531902000,3.520002,-0.328709350958556,9.81651007303585,-0.91965652035914,-0.040317107,-0.009162978,0.015882496,309.08765,-100.37429,3.4642904,STD
11388536862000,3.524962,-0.327199659628782,9.82103924160946,-0.924185592772057,-0.04886922,-0.010079277,0.014660766,309.09274,-100.361084,3.458442,STD
11388542283000,3.530383,-0.325339665756757,9.82571340675676,-0.92849729277027,-0.048258353,-0.0106901415,0.016493361,309.09848,-100.353264,3.453233,STD
11388546878000,3.534978,-0.319187928575955,9.82366278630009,-0.91824439390028,-0.038789943,-0.0125227375,0.019242255,309.10468,-100.34567,3.4478703,STD
11388551840000,3.53994,-0.312544855694315,9.82144838397018,-0.907172601910531,-0.040011674,-0.0015271631,0.019547688,309.10803,-100.3377,3.443451,STD
11388556876000,3.544976,-0.305802712398882,9.81920095750233,-0.89593569250699,-0.04886922,-0.004581489,0.018020526,309.11578,-100.33033,3.438482,STD
11388561884000,3.549984,-0.299098055205965,9.81696602665424,-0.884761259962721,-0.03970624,-0.0106901415,0.019547688,309.12137,-100.327835,3.434811,STD
11388566880000,3.55498,-0.303310469648241,9.8194417919598,-0.893925116080402,-0.043982297,-0.008857546,0.016187929,309.1267,-100.31575,3.4272292,STD
11388571853000,3.559953,-0.312883419678392,9.82422836693467,-0.913071041130653,-0.04734206,-0.017104227,0.01740966,309.13678,-100.3071,3.420623,STD
11388576880000,3.56498,-0.317643252434843,9.82902115736795,-0.933851120077297,-0.03940081,-0.01282817,0.013439035,309.13928,-100.296326,3.4155185,STD
11388581895000,3.569995,-0.320022984488158,9.83378046244178,-0.955268676253592,-0.041233405,-0.022602014,0.02076942,309.14853,-100.28345,3.412876,STD
11388586884000,3.574984,-0.322390378947577,9.83851509315232,-0.976575194252304,-0.044898596,-0.015882496,0.020463986,309.14832,-100.27407,3.404494,STD
11388591886000,3.579986,-0.324763942203944,9.8432620610445,-0.997937231339808,-0.047647487,-0.018936822,0.016798794,309.15375,-100.264946,3.3963463,STD
11388596883000,3.584983,-0.319613558800468,9.83596031285352,-0.99356895012678,-0.03848451,-0.0070249503,0.019547688,309.1476,-100.259995,3.3906455,STD
11388601918000,3.590018,-0.310208597156232,9.82185308152916,-0.974759046479423,-0.04153884,-0.009773844,0.017104227,309.14612,-100.25028,3.381713,STD
11388606904000,3.595004,-0.310532455239547,9.81351052166873,-0.9672575,-0.050396383,-0.007330383,0.019242255,309.14398,-100.24902,3.3738139,STD
11388611886000,3.599986,-0.317349054555672,9.80896603038385,-0.9672575,-0.039095376,-0.010079277,0.015271631,309.1438,-100.25149,3.3632276,STD
11388616878000,3.604978,-0.324179336327269,9.80441241727783,-0.9672575,-0.036651913,-0.0012217305,0.024129177,309.13834,-100.24803,3.3598526,STD
11388621856000,3.609956,-0.330990462661206,9.7998715747214,-0.9672575,-0.041233405,0.007941248,0.018325957,309.13278,-100.243904,3.3511736,STD
11388626888000,3.614988,-0.329532294038992,9.8017862850198,-0.961601554038992,-0.03726278,-0.00061086525,0.013744468,309.13034,-100.24358,3.3449202,STD
11388631876000,3.619976,-0.31516780399138,9.81375668505989,-0.94723706399138,-0.039095376,0.004276057,0.01863139,309.12183,-100.24073,3.340844,STD
11388636831000,3.624931,-0.300898347658999,9.82564789039242,-0.932967607658999,-0.036957346,0.01160644,0.019242255,309.1135,-100.23823,3.3303213,STD
11388641933000,3.630033,-0.286205559322408,9.83789187214955,-0.918274819322408,-0.04062254,0.020463986,0.014966198,309.10355,-100.23361,3.320261,STD
11388646810000,3.63491,-0.281323701906751,9.84315890631374,-0.907099429345313,-0.03634648,0.01863139,0.018325957,309.08862,-100.231514,3.3099008,STD
11388651892000,3.639992,-0.2907786456678,9.83843158499272,-0.900008210417679,-0.039095376,0.017104227,0.018936822,309.0712,-100.22586,3.2982724,STD
11388656877000,3.644977,-0.300053123166586,9.83379449392909,-0.893052341398737,-0.046731193,0.014049901,0.02107485,309.05222,-100.21291,3.2914667,STD
11388661976000,3.650076,-0.309539695035454,9.82905135905779,-0.885937401353084,-0.036957346,0.011301007,0.017715093,309.0337,-100.20363,3.2834125,STD
11388666852000,3.654952,-0.313481666867481,9.82452749677606,-0.884895637696083,-0.038789943,0.016798794,0.023518313,309.01456,-100.19036,3.2789736,STD
11388671860000,3.65996,-0.304250483266288,9.81991180858435,-0.898742442015205,-0.042760566,0.0106901415,0.018325957,308.99915,-100.17796,3.2699637,STD
11388676872000,3.664972,-0.296061258436603,9.81786655394226,-0.912255938698295,-0.03940081,0.009468411,0.01282817,308.98135,-100.16432,3.2596023,STD
11388681878000,3.669978,-0.292014190994428,9.82596084095897,-0.924397111443525,-0.03940081,0.0070249503,0.011911872,308.9659,-100.14889,3.2489817,STD
11388686847000,3.674947,-0.287997035956441,9.83399530204288,-0.936448547194834,-0.035124753,0.0125227375,0.013133603,308.95444,-100.1363,3.2389352,STD
11388692589000,3.680689,-0.2873042,9.835381,-0.936279720029303,-0.038179077,0.018936822,0.021991149,308.9439,-100.12259,3.2309742,STD
11388696866000,3.684966,-0.2873042,9.835381,-0.934312098681366,-0.049480084,0.0143553335,0.019547688,308.93466,-100.10709,3.220143,STD
11388701898000,3.689998,-0.2873042,9.835381,-0.931997141790364,-0.047036625,0.017715093,0.02076942,308.92294,-100.0981,3.2141006,STD
11388706863000,3.694963,-0.2873042,9.835381,-0.929713008053514,-0.038179077,0.0125227375,0.015882496,308.9147,-100.08721,3.2051818,STD
11388711880000,3.69998,-0.283798863702735,9.83187559049798,-0.925444913702735,-0.04153884,0.010995574,0.014966198,308.9049,-100.07433,3.19822,STD
11388716844000,3.704944,-0.27861860488177,9.82669522349352,-0.92026465488177,-0.043066,0.020463986,0.0125227375,308.89337,-100.06391,3.189893,STD
11388721891000,3.709991,-0.269131845737424,9.82007351680342,-0.93369937377096,-0.041233405,0.01985312,0.013133603,308.882,-100.053406,3.1813893,STD
11388726890000,3.71499,-0.258884009877988,9.81324149068855,-0.950779100203354,-0.047036625,0.03481932,0.02076942,308.86404,-100.04101,3.1755922,STD
11388732143000,3.720243,-0.250071436654708,9.80611276996836,-0.967526116418251,-0.04550946,0.027794369,0.015271631,308.8468,-100.02863,3.1641495,STD
11388736883000,3.724983,-0.261915557453116,9.8001907458987,-0.970487143912462,-0.03481932,0.030848695,0.014966198,308.82355,-100.01851,3.1577277,STD
11388741965000,3.730065,-0.274614254055967,9.79384143654806,-0.973661815162584,-0.04917465,0.03268129,0.019242255,308.804,-100.00673,3.1526797,STD
11388746920000,3.73502,-0.286995608181729,9.78765079746257,-0.976757150865921,-0.043066,0.021991149,0.018936822,308.78732,-100.002945,3.1459522,STD
11388752122000,3.740222,-0.299994155944033,9.78115156345194,-0.980006784837416,-0.04520403,0.035430185,0.021685716,308.76404,-99.99372,3.142653,STD
11388756905000,3.745005,-0.311945723407912,9.77517581637911,-0.982994673973452,-0.04153884,0.032070424,0.017715093,308.7486,-99.98714,3.1361904,STD
11388762835000,3.750935,-0.32655368838331,9.76928526806104,-0.985939975808345,-0.038179077,0.029321533,0.015271631,308.73083,-99.98447,3.1358588,STD
11388766908000,3.755008,-0.334878585704834,9.77761033923808,-0.981777527147583,-0.039095376,0.02565634,0.014966198,308.71457,-99.981346,3.1347847,STD
11388772197000,3.760297,-0.34552383150883,9.78768668193172,-0.977403393334502,-0.03940081,0.023518313,0.009468411,308.70294,-99.98092,3.1262686,STD
11388776875000,3.764975,-0.353376987876769,9.789649805995,-0.983293257535387,-0.03970624,0.034208454,0.019242255,308.68967,-99.98144,3.1225064,STD
11388781873000,3.769973,-0.361767341773084,9.79174721815154,-0.989586019672203,-0.04337143,0.032986723,0.0125227375,308.67975,-99.97752,3.110462,STD
11388786860000,3.77496,-0.37013922950436,9.79384001415487,-0.995864932192471,-0.03756821,0.02076942,0.016187929,308.6711,-99.977806,3.1042087,STD
11388791887000,3.779987,-0.378578266926684,9.79594959616986,-1.00219420695473,-0.034208454,0.026572637,0.016187929,308.65753,-99.97544,3.0959663,STD
11388821844000,3.809944,-0.376681166893684,9.82263790630657,-0.941653742242771,-0.033292156,0.018936822,0.016493361,308.62946,-99.949936,3.031113,STD
11388826840000,3.81494,-0.375510715971427,9.82731980776946,-0.929949228131513,-0.032986723,0.025045475,0.015882496,308.62198,-99.94337,3.0250053,STD
11388831854000,3.819954,-0.374336048052253,9.83201857757229,-0.918202544033465,-0.03848451,0.029626964,0.018325957,308.61642,-99.93815,3.0197074,STD
11388836871000,3.824971,-0.369638647395021,9.83152410953499,-0.908511056693283,-0.041233405,0.024129177,0.019547688,308.60526,-99.93574,3.0136974,STD
11388842038000,3.830138,-0.355693125540629,9.81757830615312,-0.903862552644434,-0.03604105,0.017715093,0.021991149,308.59348,-99.934204,3.008961,STD
11388846960000,3.83506,-0.346377490362584,9.80906872352941,-0.90505720940405,-0.038789943,0.016798794,0.013133603,308.58075,-99.92732,3.001682,STD
11388851914000,3.840014,-0.355527638239151,9.82279421764706,-0.932507643479267,-0.033292156,0.0125227375,0.018936822,308.57178,-99.92554,2.9988143,STD
11388856863000,3.844963,-0.363157762767123,9.83576141643836,-0.958061148219178,-0.03726278,0.016493361,0.016187929,308.5589,-99.91886,2.994095,STD
11388861892000,3.849992,-0.353732757387476,9.84047352054795,-0.962773645988258,-0.03848451,0.010079277,0.015882496,308.55075,-99.91508,2.9910085,STD
11388867118000,3.855218,-0.344132672500499,9.844957,-0.967046710980236,-0.029626964,0.017715093,0.018020526,308.53232,-99.91966,2.9861796,STD
11388871889000,3.859989,-0.337291345198642,9.844957,-0.964766270133759,-0.04337143,0.0143553335,0.018020526,308.51898,-99.91732,2.9799173,STD
11388876892000,3.864992,-0.330117343838091,9.844957,-0.962374938011579,-0.04337143,0.020158553,0.015271631,308.5008,-99.92181,2.9758644,STD
11388881885000,3.869985,-0.322957681876622,9.844957,-0.959988385685766,-0.043676864,0.010995574,0.022602014,308.4886,-99.923134,2.9738247,STD
11388887088000,3.875188,-0.315011262524696,9.84427478352964,-0.95699846037709,-0.04337143,0.013744468,0.023518313,308.47577,-99.92135,2.9693313,STD
11388891940000,3.88004,-0.301770381270897,9.83544781202508,-0.948171189309461,-0.04184427,0.025350908,0.02076942,308.46335,-99.92,2.9658601,STD
11388897439000,3.885539,-0.287546001629686,9.82574354839327,-0.938647951004208,-0.043982297,0.013744468,0.025961773,308.45602,-99.917984,2.9665272,STD
11388901884000,3.889984,-0.292974326094109,9.82438644035323,-0.941362117487567,-0.03481932,0.019547688,0.021685716,308.44012,-99.918274,2.9650652,STD
11388906880000,3.89498,-0.299075542972456,9.82286110587223,-0.944412730704858,-0.04642576,0.00580322,0.02321288,308.4293,-99.91254,2.9673495,STD
11388911879000,3.899979,-0.305180423511859,9.82133485545779,-0.947465175755547,-0.02687807,0.01985312,0.020463986,308.40884,-99.91688,2.968702,STD
11388916811000,3.904911,-0.311203482287682,9.81982906089008,-0.950476709860367,-0.03634648,0.017104227,0.016798794,308.39725,-99.91008,2.9686935,STD
11388921871000,3.909971,-0.317382857268554,9.81828418649579,-0.95356640219013,-0.04550946,0.012217305,0.02076942,308.38794,-99.904816,2.968319,STD
11388926896000,3.914996,-0.323519489537108,9.81674999799158,-0.95663472313026,-0.040011674,0.022907447,0.019547688,308.3748,-99.90021,2.9660497,STD
11388931877000,3.919977,-0.319266378655854,9.81305440638621,-0.960853227359351,-0.040927973,0.0106901415,0.019242255,308.36462,-99.891884,2.9622762,STD
11388936907000,3.925007,-0.309500265265079,9.80817125281298,-0.965736278955905,-0.047036625,0.019242255,0.021991149,308.34598,-99.88379,2.9605582,STD
11388941921000,3.930021,-0.311289442078353,9.80665,-0.970478579143289,-0.03726278,0.025350908,0.016187929,308.3314,-99.87815,2.9495876,STD
11388946930000,3.93503,-0.318310502417915,9.80665,-0.975159282777967,-0.03359759,0.017104227,0.01038471,308.3189,-99.86951,2.9393256,STD
11388951888000,3.939988,-0.325260076617066,9.80665,-0.979792329018881,-0.036957346,0.019547688,0.010995574,308.3018,-99.86286,2.9317405,STD
11388956869000,3.944969,-0.332241889663853,9.80665,-0.984446867809923,-0.03573562,0.018325957,0.011301007,308.28812,-99.85796,2.922089,STD
11388961892000,3.949992,-0.332292398095238,9.80375409761905,-0.989306941904762,-0.028710667,0.03023783,0.009468411,308.27026,-99.85362,2.912947,STD
11388966904000,3.955004,-0.32732356563147,9.79878516138716,-0.99427577436853,-0.025961773,0.031154128,0.013133603,308.25647,-99.848946,2.9050717,STD
11388971852000,3.959952,-0.32826630468715,9.80238284026164,-0.982713562703331,-0.035430185,0.026572637,0.019242255,308.24072,-99.84597,2.896229,STD
11388976870000,3.96497,-0.33240232176263,9.81065504716413,-0.962033455731991,-0.039095376,0.022296581,0.015882496,308.2248,-99.84467,2.885986,STD
11388981865000,3.969965,-0.332083442619693,9.81777942948911,-0.946551452930844,-0.04184427,0.026572637,0.01282817,308.2085,-99.84253,2.8785818,STD
11388986851000,3.974951,-0.322497981481481,9.82257225514403,-0.941758727366255,-0.04184427,0.025045475,0.014049901,308.1954,-99.84012,2.8711119,STD
11388991892000,3.979992,-0.31603462,9.82633348016069,-0.94064492917778,-0.03604105,0.02076942,0.0143553335,308.18518,-99.83308,2.8634987,STD
11388996883000,3.984983,-0.31603462,9.82790741433699,-0.946940542624057,-0.04062254,0.021380283,0.01863139,308.17447,-99.823715,2.8576517,STD
11389001805000,3.989905,-0.31603462,9.82945958905463,-0.953149119939741,-0.029626964,0.023823744,0.020158553,308.17133,-99.82104,2.8570087,STD
11389006873000,3.994973,-0.31603462,9.83105780552537,-0.959541860662188,-0.03604105,0.03359759,0.016493361,308.16586,-99.81231,2.8563898,STD
11389011828000,3.999928,-0.31603462,9.83262038694063,-0.965792063953373,-0.039095376,0.015882496,0.01985312,308.16797,-99.80815,2.8568943,STD
11389016889000,4.004989,-0.31603462,9.83421639593006,-0.972175974923442,-0.026267206,0.019547688,0.017104227,308.16086,-99.80578,2.8560238,STD
11389021836000,4.009936,-0.315473280035524,9.83481964831261,-0.973466257282416,-0.032070424,0.032070424,0.02107485,308.17117,-99.79976,2.863521,STD
11389026866000,4.014966,-0.313221653224268,9.83256797447883,-0.95995648465925,-0.042760566,0.028099801,0.019547688,308.18448,-99.79515,2.8677766,STD
11389031854000,4.019954,-0.310988827273067,9.83033510189773,-0.946559517294569,-0.042455133,0.025961773,0.017715093,308.1954,-99.79532,2.872979,STD
11389036863000,4.024963,-0.308746600891839,9.82809282869029,-0.933106147300645,-0.04153884,0.021685716,0.01282817,308.20755,-99.7923,2.8762944,STD
11389042348000,4.030448,-0.306152124993993,9.82549829860992,-0.92029053501802,-0.042455133,0.01740966,0.021991149,308.2206,-99.78988,2.8826833,STD
11389046882000,4.034982,-0.302426261668097,9.82177235747383,-0.93146812499571,-0.044593163,0.026572637,0.02321288,308.23022,-99.78627,2.8856409,STD
11389051911000,4.040011,-0.298293626761627,9.81763963626223,-0.943866029715119,-0.04062254,0.025045475,0.021380283,308.2412,-99.78002,2.8908334,STD
11389056910000,4.04501,-0.306068032195954,9.82082043894711,-0.946572682366561,-0.05009095,0.026267206,0.016493361,308.24854,-99.76943,2.8957589,STD
11389061876000,4.049976,-0.319977392734097,9.82777501754814,-0.944254457223982,-0.040317107,0.02443461,0.024740042,308.25745,-99.766205,2.9033828,STD
