timestamp,rel_time,acc_x,acc_y,acc_z,gyro_x,gyro_y,gyro_z,azimuth,pitch,roll,label
11226064637000,0,-6.90642114815545,-6.85594138829158,0.595831754815545,0.07788532,-0.004581489,-0.08124508,79.77292,46.865444,-41.015602,STD
11226069625000,0.004988,-6.8724673883005,-6.76566005320202,0.646788522788281,0.080634214,0.007941248,-0.06383542,80.32808,46.698414,-41.090214,STD
11226074597000,0.00996,-6.84890218509354,-6.67139924037415,0.74104939959319,0.07391469,0.01985312,-0.053145275,80.881355,46.53495,-41.166626,STD
11226079622000,0.014985,-6.82857817277628,-6.58315651846361,0.773720808601078,0.058643065,0.03023783,-0.056199603,81.414764,46.382904,-41.239456,STD
11226084619000,0.019982,-6.8113796032345,-6.50146275193172,0.752222453004492,0.03970624,0.029626964,-0.045814894,81.940315,46.229458,-41.31763,STD
11226089574000,0.024937,-6.81642611405406,-6.44211950576577,0.77580760954955,0.028710667,0.03848451,-0.034513887,82.453064,46.06577,-41.40056,STD
11226094633000,0.029996,-6.87291141742448,-6.431849387239,0.904183528129306,0.025350908,0.04153884,-0.008552114,82.95412,45.901314,-41.487846,STD
11226099548000,0.034911,-6.91265590894518,-6.41825909105482,0.998224339065901,0.040011674,0.055283304,0.01038471,83.435684,45.742256,-41.57971,STD
11226104627000,0.03999,-6.93190811324956,-6.39900688675045,1.0511678129527,0.052839845,0.056505036,0.009773844,83.907425,45.586994,-41.67016,STD
11226109782000,0.045145,-6.93951325659515,-6.39507346763982,0.995893609549771,0.05497787,0.06291912,0.016798794,84.36665,45.411575,-41.77233,STD
11226114640000,0.050003,-6.9313309953746,-6.41143794736194,0.803611316702427,0.047647487,0.062002823,0.02076942,84.81796,45.24266,-41.87016,STD
11226119558000,0.054921,-6.93152213884145,-6.42556912226687,0.651732707990959,0.046120327,0.06352998,0.032070424,85.264015,45.059574,-41.97756,STD
11226124628000,0.059991,-6.99655390755064,-6.42150463406998,0.822441326850829,0.05681047,0.07727446,0.03268129,85.708565,44.884335,-42.08086,STD
11226129554000,0.064917,-7.05973862010715,-6.41755558695798,0.98830141689101,0.046731193,0.074830994,0.032070424,86.14819,44.747288,-42.17912,STD
11226134639000,0.070002,-7.08368600256202,-6.42609953739287,1.03750813483085,0.04917465,0.06414085,0.03756821,86.584785,44.611294,-42.276974,STD
11226139640000,0.075003,-7.09232715308976,-6.4390613082995,1.04182875520974,0.04428773,0.060170226,0.026267206,87.02084,44.486618,-42.367786,STD
11226144628000,0.079991,-7.07368290247336,-6.45276787280314,0.942846598542127,0.04734206,0.05497787,0.024129177,87.4274,44.333416,-42.465492,STD
11226149632000,0.084995,-7.03031865907903,-6.46722257028956,0.750116476965614,0.051618114,0.04428773,0.03023783,87.82614,44.186993,-42.55865,STD
11226154627000,0.08999,-7.03552852896218,-6.4891049509529,0.756963042905105,0.053145275,0.040317107,0.031154128,88.22358,44.045067,-42.649456,STD
11226159647000,0.09501,-7.08300116251605,-6.51758848151476,0.937359149550706,0.048258353,0.038179077,0.030848695,88.61239,43.907814,-42.737785,STD
11226164629000,0.099992,-7.0985481528026,-6.54874726936434,1.03712207123274,0.0693332,0.040011674,0.02687807,89.014984,43.798008,-42.821045,STD
11226169629000,0.104992,-7.08396123160033,-6.58278346960804,1.06143365734159,0.058948494,0.046120327,0.030848695,89.4137,43.69427,-42.90403,STD
11226174581000,0.109944,-7.07478004925388,-6.61825899523066,1.1023612133717,0.06414085,0.03726278,0.014966198,89.79634,43.574955,-42.97839,STD
11226179617000,0.11498,-7.0700760824149,-6.65589014053448,1.15880768574076,0.06536258,0.037873644,0.023823744,90.17651,43.454792,-43.059254,STD
11226184631000,0.119994,-7.06088902800656,-6.67276984661009,1.18978876521362,0.07574729,0.030848695,0.0125227375,90.55925,43.347034,-43.12268,STD
11226189637000,0.125,-7.04701846365127,-6.66814633320475,1.19441230275822,0.073303826,0.044898596,0.018325957,90.941536,43.239063,-43.19253,STD
11226194619000,0.129982,-7.03321439820619,-6.66354498606423,1.19901367392227,0.077579886,0.051923547,0.015271631,91.322655,43.1348,-43.249775,STD
11226199627000,0.13499,-7.01933829227505,-6.65891962547015,1.20363905866525,0.070249505,0.043066,0.0106901415,91.69691,43.03663,-43.30541,STD
11226204574000,0.139937,-7.01396326694955,-6.64839922703913,1.20592952661009,0.06811147,0.036957346,0.0076358155,92.06952,42.943592,-43.35911,STD
11226209635000,0.144998,-7.02538905308817,-6.62554753545497,1.20364436938237,0.05100725,0.038179077,0.005192355,92.43683,42.85921,-43.409264,STD
11226214506000,0.149869,-7.03638589250354,-6.60355374179632,1.20144500149929,0.03940081,0.044593163,0.0061086523,92.80039,42.778473,-43.455624,STD
11226219626000,0.154989,-7.04794487788779,-6.58043565033003,1.19913320442244,0.047647487,0.05131268,0.011911872,93.1591,42.701683,-43.500824,STD
11226225138000,0.160501,-7.05970332310737,-6.55532173067788,1.18512396835725,0.039095376,0.050396383,0.013439035,93.52068,42.627735,-43.546017,STD
11226229655000,0.165018,-7.066838141778,-6.53391727466601,1.13161279107702,0.021380283,0.049480084,0.00580322,93.879486,42.560017,-43.588783,STD
11226234567000,0.16993,-7.07459688193963,-6.5106410541811,1.07342219935675,0.026572637,0.05009095,0.009468411,94.220406,42.488415,-43.63871,STD
11226239631000,0.174994,-7.09326572343162,-6.50905392252127,1.01183430347318,0.0290161,0.051618114,0.0106901415,94.557976,42.42601,-43.683853,STD
11226244592000,0.179955,-7.11677205674847,-6.51845635766871,0.950718401380368,0.02107485,0.05131268,0.0125227375,94.88976,42.36728,-43.727974,STD
11226249615000,0.184978,-7.13803630808269,-6.52825123769509,0.867714111126615,0.022296581,0.053145275,0.009468411,95.21875,42.318306,-43.77321,STD
11226254645000,0.190008,-7.15795209268217,-6.5382091819845,0.773114056294574,0.0061086523,0.05681047,0.0027488936,95.544685,42.275814,-43.816235,STD
11226259622000,0.194985,-7.17722804483312,-6.54440304125489,0.695329720158364,-0.009162978,0.034208454,0.003970624,95.86271,42.241375,-43.858128,STD
11226264638000,0.200001,-7.19648728276035,-6.54921778789215,0.623107736299489,-0.0070249503,0.034208454,0.008857546,96.18733,42.210346,-43.900215,STD
11226269621000,0.204984,-7.19835514354632,-6.5471319501723,0.552282020358374,-0.013744468,0.0290161,-0.002443461,96.50585,42.195732,-43.939865,STD
11226274596000,0.209959,-7.19366423333662,-6.54244118690558,0.481919782763611,-0.021685716,0.015577064,-0.005497787,96.816216,42.179653,-43.980404,STD
11226279623000,0.214986,-7.17238870802592,-6.56735006744766,0.42010004615653,-0.028099801,0.008246681,-0.007330383,97.13734,42.170525,-44.02253,STD
11226284617000,0.21998,-7.14377866457627,-6.60549680864407,0.362879814864407,-0.028099801,0.0009162979,-0.008857546,97.45067,42.164024,-44.060837,STD
11226289620000,0.224983,-7.12550349203075,-6.62679104380274,0.341692490815676,-0.043676864,-0.008857546,-0.011911872,97.7671,42.168957,-44.096367,STD
11226295323000,0.230686,-7.11014137664541,-6.64215305225014,0.336571874802175,-0.046120327,-0.016187929,-0.0076358155,98.07788,42.17223,-44.1315,STD
11226299634000,0.234997,-7.10039034532404,-6.66870448184505,0.329588121000633,-0.045814894,-0.033292156,-0.009468411,98.395164,42.19533,-44.150536,STD
11226304632000,0.239995,-7.09028598674266,-6.70912239096475,0.319483646358455,-0.046731193,-0.025961773,-0.009773844,98.71474,42.217934,-44.171722,STD
11226309622000,0.244985,-7.07435916806189,-6.72603794169807,0.350348504737155,-0.04520403,-0.038789943,-0.01282817,99.02182,42.24484,-44.184387,STD
11226314618000,0.249981,-7.05537644931561,-6.73078359660782,0.402550748387225,-0.052534413,-0.043982297,-0.013133603,99.330864,42.272587,-44.198277,STD
11226319609000,0.254972,-7.02986675352248,-6.72183078845919,0.434710110194675,-0.052534413,-0.042760566,-0.014966198,99.64366,42.30745,-44.203396,STD
11226324629000,0.259992,-7.00048842510694,-6.70504312839808,0.45569463925622,-0.063224554,-0.05222898,-0.014049901,99.94679,42.34371,-44.206913,STD
11226329625000,0.264988,-6.97227847608576,-6.69971613358988,0.485847878438703,-0.05589417,-0.0290161,-0.009162978,100.25375,42.375256,-44.210506,STD
11226334620000,0.269983,-6.94598044639912,-6.71549500632215,0.533184375810885,-0.048563786,-0.042455133,-0.008552114,100.54049,42.409164,-44.208126,STD
11226339619000,0.274982,-6.92984183983076,-6.7254292690766,0.593116558996437,-0.05131268,-0.04337143,-0.008857546,100.83048,42.441868,-44.208244,STD
11226344640000,0.280003,-6.92270333843032,-6.73018826172803,0.664501871159937,-0.042455133,-0.036651913,-0.005192355,101.114365,42.472153,-44.20843,STD
11226349621000,0.284984,-6.91562170619062,-6.73490934167162,0.735318489340855,-0.040011674,-0.02687807,-0.005192355,101.248056198256,42.490431976947,-44.2034884406134,STD
11226354617000,0.28998,-6.90851874801564,-6.73964463888064,0.806348367765242,-0.039095376,-0.03756821,0.004276057,101.38215,42.508766,-44.198532,STD
11226359627000,0.29499,-6.9002875085527,-6.74895731113612,0.868005076925335,-0.040927973,-0.030848695,0.004581489,101.6528,42.546947,-44.18822,STD
11226364756000,0.300119,-6.89067415945787,-6.76337738496918,0.920878547137685,-0.033292156,-0.029321533,0.0012217305,101.91713,42.582825,-44.178528,STD
11226369571000,0.304934,-6.88164934450533,-6.7769146545161,0.970515076494765,-0.023518313,-0.022602014,0.0030543262,102.16437,42.61136,-44.161297,STD
11226374597000,0.30996,-6.87222904960368,-6.79104514605147,1.02232674763676,-0.018936822,-0.018936822,0.004276057,102.40821,42.6414,-44.142853,STD
11226379569000,0.314932,-6.87265441978531,-6.80257494401073,1.06713761951696,-0.0036651916,-0.019242255,0.008246681,102.64917,42.669,-44.12587,STD
11226384658000,0.320021,-6.8885075010897,-6.81050144327885,1.10280705245182,0.0021380284,-0.018936822,0.011301007,102.88843,42.697628,-44.109314,STD
11226390330000,0.325693,-6.90540868147853,-6.81762453334663,1.1375160648451,0.005192355,-0.013744468,0.013744468,103.11757,42.71738,-44.09095,STD
11226394643000,0.330006,-6.91090058343749,-6.80664069119798,1.11554836143243,0.007941248,-0.02107485,0.018936822,103.337906,42.736145,-44.073017,STD
11226399620000,0.334983,-6.91723798108408,-6.79396585178833,1.09019866055489,0.018020526,-0.0070249503,0.009773844,103.56312,42.74835,-44.060875,STD
11226404607000,0.33997,-6.92358811209946,-6.78126554555245,1.06479802598059,0.016798794,-0.008552114,0.02321288,103.772804,42.755226,-44.053726,STD
11226409606000,0.344969,-6.92995352315738,-6.76853467912512,1.03933627097017,0.013439035,-0.0021380284,0.01985312,103.990906,42.76975,-44.041275,STD
11226414623000,0.349986,-6.9389915022517,-6.7558421977483,1.00856778387589,0.01985312,0.004886922,0.017715093,104.20624,42.778275,-44.03448,STD
11226419605000,0.354968,-6.95148363463083,-6.74335006536917,0.971091364998254,0.01863139,0.012217305,0.016493361,104.42126,42.78978,-44.027245,STD
11226424560000,0.359923,-6.96297739774035,-6.72930031129823,0.93277606700064,0.018936822,0.022296581,0.022602014,104.648186,42.797283,-44.027924,STD
11226429608000,0.364971,-6.96813021018973,-6.70353624905137,0.88640072805372,0.015882496,0.0067195175,0.02321288,104.86574,42.80838,-44.02443,STD
11226434945000,0.370308,-6.97490127906977,-6.67863918863049,0.843377651653747,0.029932396,0.014049901,0.024129177,105.09622,42.818153,-44.028236,STD
11226439683000,0.375046,-6.9835863881137,-6.66126910657479,0.817322582983061,0.018936822,0.015882496,0.02687807,105.31538,42.83096,-44.03004,STD
11226444620000,0.379983,-6.99189598646601,-6.6446500011615,0.785777922848197,0.031154128,0.0033597588,0.021685716,105.52981,42.848682,-44.026943,STD
11226449661000,0.385024,-6.99677182129078,-6.63489817876982,0.732142584026866,0.035124753,0.0033597588,0.02565634,105.745316,42.86561,-44.027866,STD
11226454617000,0.38998,-7.00241334877717,-6.62803438361801,0.685110672680512,0.029932396,0.002443461,0.028405234,105.95372,42.888397,-44.023304,STD
11226459680000,0.395043,-7.01182461277174,-6.63274006475155,0.661582217876553,0.043676864,0.009773844,0.022602014,106.163315,42.910713,-44.017956,STD
11226464631000,0.399994,-7.01853674701894,-6.63735842649053,0.639121470313061,0.036651913,0.015882496,0.024740042,106.37398,42.937374,-44.015106,STD
11226469672000,0.405035,-7.00891039712861,-6.64217160143569,0.619868589599202,0.025961773,0.017715093,0.023518313,106.584496,42.96573,-44.009792,STD
11226474574000,0.409937,-7.00091762509897,-6.64358374048892,0.603882889913895,0.018936822,0.004581489,0.021991149,106.79672,42.991882,-44.007973,STD
11226479632000,0.414995,-7.0033146685669,-6.61961323072051,0.608676974346793,0.012217305,0.0030543262,0.02443461,107.01107,43.018387,-44.007687,STD
11226484725000,0.420088,-7.00572829893112,-6.59547685146972,0.613504232554929,0.0143553335,0.015577064,0.021991149,107.22744,43.051258,-44.002,STD
11226489624000,0.424987,-7.00804999049881,-6.57225986306413,0.618147613266033,0.009162978,0.018020526,0.018936822,107.43665,43.084866,-43.995464,STD
11226494608000,0.429971,-7.00990596847844,-6.54990283365273,0.624074589920701,0.0018325958,0.01863139,0.018325957,107.65285,43.114666,-43.99213,STD
11226499619000,0.434982,-7.0059418725921,-6.54197460048736,0.643895098327276,-0.00061086525,0.032375857,0.022602014,107.87205,43.144108,-43.990288,STD
11226504604000,0.439967,-7.00199834475467,-6.53408750363456,0.663612766339005,-0.01985312,0.022602014,0.027794369,108.07277,43.171093,-43.9882,STD
11226509609000,0.444972,-6.99184267383299,-6.54018495680677,0.690916661056351,-0.022296581,0.027183503,0.021991149,108.2824,43.198814,-43.9863,STD
11226514607000,0.44997,-6.97849001071229,-6.5535376664032,0.722072875004649,-0.015271631,0.03176499,0.022602014,108.48443,43.224365,-43.986202,STD
11226519603000,0.454966,-6.96945102407125,-6.56627297198538,0.769448580054811,-0.032986723,0.024740042,0.029321533,108.68226,43.24436,-43.990242,STD
11226524616000,0.459979,-6.96457807971985,-6.57845539646772,0.832797238246041,-0.036651913,0.021991149,0.02687807,108.88194,43.26527,-43.99207,STD
11226529653000,0.465016,-6.9596818058922,-6.59069614494519,0.896449181455542,-0.030848695,0.025045475,0.022296581,109.07494,43.28547,-43.992496,STD
11226534614000,0.469977,-6.95485940873934,-6.60275220077142,0.959140722107186,-0.03268129,0.021380283,0.022602014,109.26162,43.306396,-43.99216,STD
11226539589000,0.474952,-6.94488112192795,-6.62113093393379,1.02581401778968,-0.026572637,0.027488936,0.023823744,109.4538,43.323837,-43.99549,STD
11226544626000,0.479989,-6.93079007764362,-6.64461625296982,1.09626928825706,-0.032375857,0.026572637,0.027794369,109.63913,43.342102,-43.99807,STD
11226550344000,0.485707,-6.92242910140852,-6.65748318186148,1.16050500669808,-0.043066,0.022296581,0.030848695,109.80293,43.358387,-43.99173,STD
11226554507000,0.48987,-6.92040912783604,-6.65950313434159,1.19888454675989,-0.043982297,0.03268129,0.021685716,109.970726,43.37713,-43.983982,STD
11226559511000,0.494874,-6.9179810836956,-6.66193115312864,1.24501743613518,-0.05009095,0.03848451,0.021991149,110.12141,43.396862,-43.968796,STD
11226564537000,0.4999,-6.91554236470082,-6.66436984665856,1.29135314796575,-0.043982297,0.02687807,0.023518313,110.2682,43.41819,-43.95086,STD
11226569527000,0.50489,-6.9118746503382,-6.67835694830899,1.33524122001765,-0.034208454,0.011301007,0.011911872,110.41375,43.444183,-43.92938,STD
11226574506000,0.509869,-6.90720031574356,-6.70172862128223,1.37731018256053,-0.031154128,0.023518313,0.014049901,110.561676,43.466248,-43.913574,STD
11226579495000,0.514858,-6.90840568713442,-6.72157369863288,1.38998171364679,-0.020158553,0.017104227,0.016187929,110.67422,43.49163,-43.88297,STD
11226584491000,0.519854,-6.91541396694497,-6.73792640844197,1.37362902823104,-0.011301007,0.014049901,0.022602014,110.790344,43.5151,-43.856094,STD
11226589490000,0.524853,-6.92242645509008,-6.75428893773253,1.35726652334847,-0.01038471,0.017715093,0.016798794,110.90146,43.54058,-43.82466,STD
11226594490000,0.529853,-6.92944034601338,-6.77065474018359,1.34090074531029,-0.013744468,0.019242255,0.016493361,111.00767,43.562473,-43.796696,STD
11226599499000,0.534862,-6.92336903325989,-6.77833150665198,1.30660265844088,-0.007941248,0.022907447,0.013439035,111.11537,43.584522,-43.769722,STD
11226604496000,0.539859,-6.89826397104186,-6.77331049420837,1.2463504566887,-0.012217305,0.011301007,0.0061086523,111.21694,43.60897,-43.740936,STD
11226609473000,0.544836,-6.88100598634829,-6.77787958205917,1.19738232222994,-0.011301007,0.019242255,0.011911872,111.33465,43.633774,-43.71662,STD
11226614499000,0.549862,-6.87144825292891,-6.79221630694003,1.15915113904885,-0.011911872,0.02443461,0.007330383,111.44741,43.663776,-43.686897,STD
11226619639000,0.555002,-6.87133989004932,-6.80668709752442,1.11579292524901,-0.024740042,0.020158553,0.007941248,111.56823,43.697018,-43.659424,STD
11226624596000,0.559959,-6.88052119741804,-6.82045908254521,1.06988614872836,-0.017715093,0.018020526,-0.0027488936,111.69194,43.73272,-43.628784,STD
11226629490000,0.564853,-6.88768955221971,-6.83022879064869,0.990803151141845,-0.019547688,0.014966198,-0.0030543262,111.81976,43.770664,-43.60158,STD
11226634595000,0.569958,-6.89250209134757,-6.83504117902353,0.860867192666601,-0.025961773,0.013133603,-0.004276057,111.94686,43.81117,-43.571693,STD
11226639486000,0.574849,-6.8971071443823,-6.83422769237563,0.767236524377392,-0.02687807,0.035430185,-0.01038471,112.09084,43.85605,-43.54314,STD
11226644598000,0.579961,-6.90191099978412,-6.82461993141007,0.71919743362673,-0.026267206,0.028710667,-0.0061086523,112.22027,43.898323,-43.51498,STD
11226649488000,0.584851,-6.89834617918142,-6.82685090102322,0.676467048132625,-0.023823744,0.039095376,-0.013439035,112.38933,43.95289,-43.48791,STD
11226654593000,0.589956,-6.87910589425423,-6.85090125718221,0.637986448142464,-0.027183503,0.032986723,-0.008246681,112.5454,44.002674,-43.46367,STD
11226659498000,0.594861,-6.8635787721832,-6.8635787721832,0.611419768281729,-0.03268129,0.03726278,-0.008857546,112.71209,44.05785,-43.440628,STD
11226664593000,0.599956,-6.85392528692254,-6.85392528692254,0.606593000451083,-0.0290161,0.04153884,-0.015577064,112.87428,44.112095,-43.41686,STD
11226669524000,0.604887,-6.84984702467879,-6.84498695629055,0.59969378141373,-0.01863139,0.036957346,-0.017104227,113.04082,44.172047,-43.389877,STD
11226674577000,0.60994,-6.85805485536191,-6.83677906132808,0.587381962539117,-0.023518313,0.035430185,-0.016493361,113.20828,44.233246,-43.362457,STD
11226679732000,0.615095,-6.86642836954586,-6.82840548156723,0.574821616942713,-0.029932396,0.03604105,-0.009468411,113.37233,44.291534,-43.336494,STD
11226684634000,0.619997,-6.87439092367383,-6.82044286508078,0.56287771507781,-0.03573562,0.036651913,-0.015882496,113.53497,44.352776,-43.307117,STD
11226689885000,0.625248,-6.88292037527032,-6.81191334668617,0.550083461978544,-0.030543262,0.04062254,-0.019547688,113.69274,44.416748,-43.271954,STD
11226694630000,0.629993,-6.88864332178918,-6.80035191752827,0.572151356559976,-0.021380283,0.049480084,-0.019242255,113.85064,44.48042,-43.23708,STD
11226699628000,0.634991,-6.89347630300889,-6.7858532766559,0.615647294316438,-0.03023783,0.051618114,-0.015577064,114.00538,44.544098,-43.202427,STD
11226704626000,0.639989,-6.89390050893109,-6.78318023826737,0.662879414942653,-0.025961773,0.04520403,-0.01985312,114.161865,44.604176,-43.17107,STD
11226709624000,0.644987,-6.89165053967284,-6.78768010630347,0.712377744850522,-0.023823744,0.049480084,-0.014049901,114.31952,44.660408,-43.144783,STD
11226714610000,0.649973,-6.88940597250165,-6.79216917033468,0.7617572312292,-0.010995574,0.051618114,-0.009162978,114.465744,44.709564,-43.119167,STD
11226719637000,0.655,-6.88714294819968,-6.79669514804926,0.811542766332613,-0.011301007,0.04886922,-0.007330383,114.60941,44.75812,-43.09451,STD
11226724633000,0.659996,-6.88760552439804,-6.80329595056467,0.880388721755807,-0.0015271631,0.05589417,-0.01740966,114.7563,44.8062,-43.069035,STD
11226729627000,0.66499,-6.89270114958449,-6.81348693490305,0.982299150415513,-0.0070249503,0.046120327,-0.002443461,114.89105,44.847458,-43.04972,STD
11226734621000,0.669984,-6.89761271501036,-6.82562174158689,1.05047729818415,-0.004581489,0.053145275,-0.009468411,115.01475,44.891453,-43.02149,STD
11226739637000,0.675,-6.90235333745189,-6.83984380691799,1.08366205128787,-0.0061086523,0.050396383,-0.014966198,115.12773,44.93114,-42.996677,STD
11226744610000,0.679973,-6.93103698335805,-6.84523700850391,1.10351274597053,-0.0067195175,0.04550946,-0.01160644,115.22242,44.964607,-42.971943,STD
11226749636000,0.684999,-6.98815103989914,-6.84047739197073,1.10827226310689,-0.01038471,0.0421497,0.00030543262,115.31499,44.997124,-42.948452,STD
11226754555000,0.689918,-6.99556080527772,-6.83380031142518,1.10888974516703,0.0018325958,0.050396383,-0.01985312,115.41189,45.03338,-42.916637,STD
11226759673000,0.695036,-6.93743002711998,-6.82411187369045,1.1040455010081,-0.004581489,0.04428773,-0.005192355,115.49609,45.058167,-42.896873,STD
11226764520000,0.699883,-6.9066684910893,-6.8124187405371,1.10580977772324,-0.008552114,0.03848451,-0.005192355,115.536750890383,45.0697356728569,-42.8870787709295,STD
11226769635000,0.704998,-6.91129236611289,-6.79623520209553,1.11736946528224,-0.004886922,0.034208454,0.0033597588,115.57966,45.081944,-42.876743,STD
11226774522000,0.709885,-6.9157101329243,-6.78077304132056,1.12841388231074,-0.0061086523,0.03970624,0.0033597588,115.664925,45.104465,-42.859257,STD
11226779638000,0.715001,-6.92033491193128,-6.76458633894185,1.1399758298282,-0.005192355,0.03970624,0.0012217305,115.74483,45.129818,-42.83798,STD
11226784607000,0.71997,-6.92490434423495,-6.75077592841604,1.14659763994613,-0.005192355,0.038789943,0.002443461,115.828735,45.151466,-42.82073,STD
11226789633000,0.724996,-6.9298906173314,-6.74578949911944,1.13163866445665,-0.004886922,0.035124753,0.0033597588,115.91068,45.173504,-42.80295,STD
11226794615000,0.729978,-6.93197175741296,-6.74152658960111,1.11339598508185,-0.013133603,0.034208454,-0.004581489,115.98475,45.191883,-42.78776,STD
11226799626000,0.734989,-6.9253327196772,-6.73931359242795,1.08462669831681,-0.016798794,0.03268129,-0.004581489,116.020516226624,45.1994171337221,-42.7818990545948,STD
11226804561000,0.739924,-6.91879437379295,-6.73713415897164,1.0562937447775,-0.022907447,0.03481932,-0.0009162979,116.05574,45.206837,-42.776127,STD
11226809645000,0.745008,-6.91205861888402,-6.73488892296518,1.02710534846668,-0.013744468,0.037873644,0.0021380284,116.129425,45.223114,-42.763374,STD
11226814587000,0.74995,-6.90551099875029,-6.7327063981139,0.998732206340789,-0.017104227,0.02565634,-0.0021380284,116.19693,45.241974,-42.748764,STD
11226819631000,0.754994,-6.9048777,-6.72962093802011,0.962932722224413,-0.021380283,0.020158553,-0.005497787,116.266716,45.25903,-42.73616,STD
11226824520000,0.759883,-6.9048777,-6.72654324294354,0.927539212775258,-0.02565634,0.016187929,-0.0021380284,116.33131,45.275497,-42.723736,STD
11226829616000,0.764979,-6.9048777,-6.72333523842109,0.890647144018274,-0.01985312,0.01740966,-0.002443461,116.4135,45.298847,-42.70436,STD
11226834520000,0.769883,-6.9048777,-6.72024810063104,0.855145043314928,-0.02076942,0.014049901,-0.0027488936,116.49108,45.321842,-42.68567,STD
11226839620000,0.774983,-6.9048777,-6.71703757805167,0.81822401689016,-0.027183503,0.01282817,-0.0027488936,116.53218645969,45.3325016895343,-42.6775054031047,STD
11226844505000,0.779868,-6.9048777,-6.71396240103201,0.782859465108789,-0.02565634,0.0143553335,-0.003970624,116.57156,45.342712,-42.669685,STD
11226849626000,0.784989,-6.91261889206334,-6.71721229603167,0.779591983906754,-0.024129177,0.01282817,0.0018325958,116.64835,45.361126,-42.655506,STD
11226854568000,0.789931,-6.92187088025608,-6.72183829012804,0.784217963511876,-0.03390302,0.018020526,-0.0015271631,116.727745,45.383423,-42.63928,STD
11226859626000,0.794989,-6.92221476967253,-6.73381768196482,0.772582444430085,-0.03359759,0.023823744,0.0018325958,116.82708,45.40355,-42.632156,STD
11226864564000,0.799927,-6.91991711937615,-6.74760358374308,0.75649887556117,-0.0421497,0.018936822,-0.0021380284,116.92401,45.427853,-42.621677,STD
11226869614000,0.804977,-6.91756735550481,-6.76170216697114,0.740050511286561,-0.036957346,0.029626964,0.006414085,117.027885,45.44332,-42.620224,STD
11226875171000,0.810534,-6.91498168464678,-6.77721619211933,0.721950796380818,-0.030543262,0.025045475,0.005192355,117.12414,45.463047,-42.613403,STD
11226879632000,0.814995,-6.91779044205568,-6.78705121894494,0.734940210278417,-0.042760566,0.02321288,0.005192355,117.170934119987,45.4724947978994,-42.6105307520687,STD
11226884597000,0.81996,-6.92276729070546,-6.79700496821227,0.759824453527318,-0.03481932,0.02076942,-0.003970624,117.223015,45.48301,-42.607334,STD
11226889623000,0.824986,-6.90614605595238,-6.81384112053571,0.773298623764881,-0.04062254,0.021991149,-0.0018325958,117.31989,45.499786,-42.603962,STD
11226894612000,0.829975,-6.88244632619048,-6.83280080535714,0.782778550315476,-0.043982297,0.026572637,-0.0033597588,117.429985,45.523746,-42.594807,STD
11226899632000,0.834995,-6.87962204018269,-6.84131484903251,0.823520743780572,-0.032986723,0.027488936,-0.0009162979,117.53328,45.54449,-42.586372,STD
11226904646000,0.840009,-6.88433843089088,-6.84603138748649,0.875401627628917,-0.027488936,0.02321288,-0.013439035,117.6364,45.570324,-42.573254,STD
11226909622000,0.844985,-6.88909432660237,-6.85078722102672,0.904124081355234,-0.03023783,0.023518313,-0.008246681,117.73671,45.59949,-42.55443,STD
11226914614000,0.849977,-6.89389725848905,-6.85559000246132,0.923335402681334,-0.027183503,0.019547688,-0.00580322,117.83392,45.631596,-42.53119,STD
11226919621000,0.854984,-6.89697984438954,-6.85027825231978,0.932307973840111,-0.025961773,0.024129177,-0.0106901415,117.925224,45.658676,-42.511395,STD
11226924637000,0.86,-6.89935331774297,-6.84078425977074,0.93705497011463,-0.018936822,0.027183503,-0.0067195175,118.0122,45.68173,-42.49466,STD
11226929615000,0.864978,-6.90170881023766,-6.83136219140768,0.941766004296161,-0.027183503,0.025961773,-0.011301007,118.095955,45.70826,-42.47432,STD
11226934632000,0.869995,-6.90408275677158,-6.8218663061169,0.946513946941548,-0.023823744,0.02107485,-0.009468411,118.17734,45.730347,-42.457115,STD
11226939629000,0.874992,-6.91114479317386,-6.81241942318619,0.940270005618742,-0.01740966,0.025045475,-0.013133603,118.267235,45.751263,-42.44165,STD
11226945494000,0.880857,-6.9222260417312,-6.8013382035561,0.92641848397386,-0.006414085,0.024129177,-0.004886922,118.35094,45.76771,-42.429504,STD
11226949625000,0.884988,-6.93003109506289,-6.79353317059926,0.91666219481529,-0.01282817,0.02076942,-0.0106901415,118.431786,45.78648,-42.415283,STD
11226954617000,0.88998,-6.93946290969174,-6.78410138059186,0.904872459768187,-0.015882496,0.018936822,-0.010995574,118.510445,45.80044,-42.405006,STD
11226959624000,0.894987,-6.92594102203557,-6.7861273026581,0.891597883021739,-0.013744468,0.020463986,-0.01740966,118.59213,45.81511,-42.39437,STD
11226964616000,0.899979,-6.8975966236166,-6.79557545190711,0.877425703543478,-0.008552114,0.01985312,-0.004886922,118.66948,45.824677,-42.388683,STD
11226969632000,0.904995,-6.88845801571345,-6.79406505421628,0.882425251600625,-0.01863139,0.01740966,-0.007330383,118.74916,45.83826,-42.38147,STD
11226974602000,0.909965,-6.89310350566075,-6.78477421984189,0.901006852439977,-0.02443461,0.014966198,-0.008552114,118.82621,45.847496,-42.377922,STD
11226979633000,0.914996,-6.89869189575902,-6.78122701951381,0.905558012860352,-0.01282817,0.008246681,-0.0018325958,118.904144,45.859795,-42.37119,STD
11226984619000,0.919982,-6.90500048018232,-6.78280415738539,0.897672231278901,-0.021991149,0.007941248,-0.005497787,118.9835,45.877193,-42.36152,STD
11226989616000,0.924979,-6.91132298246136,-6.78438477470274,0.889769052265161,-0.013133603,0.0125227375,0.003970624,119.054596,45.884247,-42.358704,STD
11226994631000,0.929994,-6.9176682594134,-6.78597108565861,0.881837404725855,-0.017715093,0.017715093,0.010079277,119.12545,45.894897,-42.353966,STD
11226999617000,0.93498,-6.9239768438367,-6.78754822353019,0.873951623144405,-0.01740966,0.02321288,0.003970624,119.19714,45.905323,-42.34902,STD
11227004617000,0.93998,-6.93030314189457,-6.78912978978729,0.866043699376404,-0.028405234,0.023823744,0.002443461,119.26697,45.914063,-42.346924,STD
11227009620000,0.944983,-6.92795190653097,-6.78769357442446,0.867568700556269,-0.028099801,0.028710667,0.0012217305,119.337006,45.92548,-42.342304,STD
11227014995000,0.950358,-6.91523693271416,-6.78260761145144,0.880283690305306,-0.019547688,0.03023783,0.0036651916,119.40485,45.936474,-42.338066,STD
11227019606000,0.954969,-6.90432925936172,-6.77824456488983,0.891191377325363,-0.020158553,0.025045475,0.0012217305,119.47571,45.949566,-42.333775,STD
11227024637000,0.96,-6.89242804386918,-6.77348410354708,0.903092607730462,-0.012217305,0.027488936,0.003970624,119.54829,45.95933,-42.33212,STD
11227029556000,0.964919,-6.88965878011692,-6.76949091804059,0.911764042525946,-0.013439035,0.03481932,0.007941248,119.61362,45.975273,-42.324627,STD
11227034625000,0.969988,-6.89922491940357,-6.7663022326918,0.916547093856411,-0.01282817,0.027183503,0.012217305,119.673096,45.989502,-42.317253,STD
11227039511000,0.974874,-6.9084457038886,-6.76322866460851,0.921157468447189,-0.0125227375,0.021380283,0.008857546,119.73352,46.002438,-42.31063,STD
11227044635000,0.979998,-6.91811563833421,-6.76000538117446,0.925992417158434,-0.0076358155,0.022296581,0.004886922,119.79243,46.01393,-42.304993,STD
11227049508000,0.984871,-6.92731188941802,-6.75693999082042,0.930590525095573,-0.0033597588,0.02565634,0.008246681,119.84899,46.024277,-42.300274,STD
11227054625000,0.989988,-6.93696861357068,-6.75372111077903,0.935418868685628,-0.004886922,0.02321288,-0.00030543262,119.90437,46.038994,-42.290894,STD
11227059516000,0.994879,-6.94243217124434,-6.75390743124139,0.935515798649833,-0.010995574,0.025350908,0.009162978,119.95916,46.0504,-42.284054,STD
11227064643000,1.000006,-6.9400152939555,-6.76115788645403,0.92584849390825,-0.014660766,0.015577064,0.00580322,120.00975,46.06745,-42.27056,STD
11227069537000,1.0049,-6.93770825329789,-6.76807883980114,0.916620526401851,-0.018936822,0.011911872,-0.0021380284,120.05942,46.07407,-42.269596,STD
11227074582000,1.009945,-6.93533003096082,-6.77521333298386,0.907107838197972,-0.01985312,0.019242255,0.005497787,120.1078,46.07736,-42.272038,STD
11227079579000,1.014942,-6.92983530598925,-6.78163685591597,0.903992565829018,-0.024740042,0.011301007,0.0070249503,120.1497,46.085083,-42.26932,STD
11227084699000,1.020062,-6.91546313832926,-6.78642754511969,0.918364778510992,-0.022602014,0.016187929,0.0067195175,120.198006,46.090794,-42.269463,STD
11227089634000,1.024997,-6.9048777,-6.78921886414283,0.925264549547033,-0.03970624,0.015882496,0.011301007,120.24533,46.09967,-42.268463,STD
11227094662000,1.030025,-6.9048777,-6.78603474121342,0.909343843466689,-0.028405234,0.014049901,0.01160644,120.293655,46.107655,-42.26636,STD
11227099636000,1.034999,-6.9048777,-6.78288481530832,0.893594123489833,-0.027794369,0.014049901,0.009468411,120.337234,46.122208,-42.25747,STD
11227104654000,1.040017,-6.9048777,-6.77970702516118,0.877705081502728,-0.025350908,0.02321288,0.009468411,120.382835,46.13497,-42.249916,STD
11227109667000,1.04503,-6.9048777,-6.77653240140519,0.861831871562242,-0.02687807,0.015271631,0.016187929,120.41882,46.14863,-42.240253,STD
11227114661000,1.050024,-6.9048777,-6.77336980993553,0.846018823398909,-0.026267206,0.016798794,0.015882496,120.46189,46.163654,-42.23008,STD
11227119598000,1.054961,-6.90566741931266,-6.76922306137467,0.836735938968528,-0.017715093,0.022602014,0.015882496,120.50541,46.174347,-42.223217,STD
11227124677000,1.06004,-6.91020987048935,-6.76013815902129,0.857176981121591,-0.016187929,0.027794369,0.020463986,120.54835,46.18414,-42.21776,STD
11227129845000,1.065208,-6.91483191964886,-6.75089406070228,0.877976214405118,-0.024129177,0.02443461,0.011301007,120.59799,46.20096,-42.207245,STD
11227134683000,1.070046,-6.9191588302204,-6.74224023955921,0.89744732327232,-0.0143553335,0.027183503,0.0070249503,120.650375,46.213665,-42.20019,STD
11227139575000,1.074938,-6.92353403619724,-6.73348982760553,0.917135761589466,-0.018325957,0.035430185,0.012217305,120.70774,46.224987,-42.195377,STD
11227144658000,1.080021,-6.92834896964446,-6.72817758527039,0.93664433146101,-0.022296581,0.03604105,0.013133603,120.76325,46.23787,-42.187984,STD
11227149532000,1.084895,-6.93299759386515,-6.72352891250871,0.955239046778209,-0.025045475,0.03940081,0.013439035,120.82173,46.249577,-42.18263,STD
11227154797000,1.09016,-6.92472641412673,-6.72735931612192,0.975443964487668,-0.023518313,0.03023783,0.011911872,120.86464,46.25588,-42.179157,STD
11227159532000,1.094895,-6.91563359053539,-6.7319057516543,0.993629706617205,-0.028099801,0.03145956,0.0076358155,120.91228,46.263477,-42.175877,STD
11227164657000,1.10002,-6.91873903285728,-6.72392623428543,0.991703367142716,-0.024129177,0.03023783,0.004581489,120.950935,46.268253,-42.172787,STD
11227169534000,1.104897,-6.92337119130219,-6.71466191739562,0.987071208697808,-0.032986723,0.019547688,0.0076358155,120.98581,46.27369,-42.16975,STD
11227174613000,1.109976,-6.93596102850919,-6.72527138698617,0.994364252339458,-0.024129177,0.022296581,0.0061086523,121.024956,46.27823,-42.16612,STD
11227179615000,1.114978,-6.94957245688577,-6.73888276798636,1.00343853792385,-0.03634648,0.010079277,0.008552114,121.05338,46.282852,-42.162895,STD
11227184626000,1.119989,-6.95661103004921,-6.72667459941367,1.00171532975605,-0.032986723,0.015882496,0.009162978,121.08941,46.28527,-42.16184,STD
11227189507000,1.12487,-6.96150516393048,-6.70709796167941,0.996821144770181,-0.043066,0.016187929,0.009773844,121.118126,46.288754,-42.160404,STD
11227194619000,1.129982,-6.95632015650046,-6.70577106021921,0.991975737666977,-0.04917465,0.009162978,0.010995574,121.15141,46.286777,-42.162945,STD
11227199509000,1.134872,-6.94944577885208,-6.70806249550815,0.987392819234721,-0.04886922,0.010995574,0.0076358155,121.187904,46.286343,-42.164837,STD
11227204620000,1.139983,-6.94226071869648,-6.71045749055145,0.982602779130988,-0.05222898,0.004276057,0.011911872,121.21846,46.279568,-42.173317,STD
11227209587000,1.14495,-6.93527809420169,-6.71278500774576,0.977947696134462,-0.056199603,0.012217305,0.0143553335,121.25514,46.274532,-42.181152,STD
11227214619000,1.149982,-6.93672835836583,-6.71646199320224,0.970593713595525,-0.05467244,0.013439035,0.019547688,121.28567,46.267662,-42.18986,STD
11227219573000,1.154936,-6.94074975673843,-6.72048330759451,0.962551084810985,-0.061391957,0.010995574,0.014049901,121.31796,46.264202,-42.196255,STD
11227224592000,1.159955,-6.93929530775498,-6.72486333596862,0.951846181940254,-0.058948494,0.010995574,0.0143553335,121.353065,46.259983,-42.203476,STD
11227229630000,1.164993,-6.92958937931,-6.72971627485415,0.937287339946691,-0.07666359,0.008857546,0.011301007,121.386635,46.26023,-42.20773,STD
11227234623000,1.169986,-6.922988159691,-6.73771100154498,0.925820830162249,-0.07513642,0.01160644,0.008246681,121.4251,46.258842,-42.21282,STD
11227239619000,1.174982,-6.92051589736475,-6.75007231317625,0.918404045764998,-0.070554934,0.0036651916,0.01160644,121.45786,46.257668,-42.217827,STD
11227244615000,1.179978,-6.9180436350385,-6.76243362480752,0.910987261367747,-0.06566802,0.0067195175,0.01282817,121.49245,46.265007,-42.216057,STD
11227249638000,1.185001,-6.91555801180696,-6.77486174096522,0.903530394268589,-0.06627888,0.007941248,0.011911872,121.52284,46.27197,-42.214046,STD
11227254626000,1.189989,-6.91183523418286,-6.78299859316739,0.904148777870885,-0.06811147,0.0076358155,0.009773844,121.55245,46.27942,-42.211235,STD
11227259616000,1.194979,-6.90709624345498,-6.78773763337961,0.911257298601745,-0.058948494,0.011911872,0.004581489,121.584206,46.28717,-42.20773,STD
11227264616000,1.199979,-6.90234775575169,-6.7924861706664,0.918380064865133,-0.063224554,0.017104227,0.007941248,121.620224,46.298206,-42.202965,STD
11227270440000,1.205803,-6.89681671727489,-6.79801726689806,0.926676663008727,-0.06352998,0.008246681,0.0067195175,121.65294,46.31086,-42.195023,STD
11227274580000,1.209943,-6.90487775,-6.804321375,0.92655605,-0.06658431,0.019547688,0.009773844,121.69548,46.320984,-42.191338,STD
11227279661000,1.215024,-6.92400489887972,-6.81388494943986,0.921774237814466,-0.06536258,0.0125227375,0.009468411,121.72769,46.331932,-42.184822,STD
11227284591000,1.219954,-6.93138515125128,-6.81090650036587,0.921596310354164,-0.05222898,0.02321288,0.011301007,121.766045,46.344456,-42.176727,STD
11227289652000,1.225015,-6.92665634187034,-6.79435560581004,0.926325144424118,-0.05375614,0.01985312,0.014966198,121.79596,46.35715,-42.16802,STD
11227294554000,1.229917,-6.92207609615103,-6.77832468600907,0.930905414056783,-0.051923547,0.017104227,0.013744468,121.830574,46.36866,-42.16055,STD
11227299680000,1.235043,-6.91728655319772,-6.76156122315723,0.935694982016196,-0.06291912,0.008857546,0.016187929,121.860794,46.3789,-42.154736,STD
11227304536000,1.239899,-6.91102733984509,-6.74822183089857,0.941097424589441,-0.056199603,0.01038471,0.01863139,121.893364,46.387985,-42.149185,STD
11227309663000,1.245026,-6.90139936717976,-6.73859383309966,0.948318416655228,-0.060170226,0.018325957,0.015271631,121.92518,46.399235,-42.14275,STD
11227314528000,1.249891,-6.89226340325996,-6.72945784533065,0.955170401519682,-0.059864793,0.014660766,0.018936822,121.94785,46.403496,-42.141098,STD
11227319677000,1.25504,-6.88259411688318,-6.71978853371244,0.962422378922986,-0.0693332,0.002443461,0.02076942,121.97037,46.41,-42.13804,STD
11227324539000,1.259902,-6.87074076847407,-6.71469332935309,0.961850975530864,-0.06719518,0.010079277,0.013744468,121.99503,46.420364,-42.13106,STD
11227329664000,1.265027,-6.85135065365926,-6.71954084540247,0.942460886024691,-0.08277224,0.0125227375,0.01282817,122.01233,46.43006,-42.12546,STD
11227334580000,1.269943,-6.83824403578934,-6.72615072303253,0.927738168366739,-0.08307768,0.008552114,0.014660766,122.02661,46.438797,-42.1187,STD
11227340292000,1.275655,-6.83995991120103,-6.73987745757661,0.922590651423105,-0.077579886,0.009468411,0.017715093,122.04351,46.447796,-42.11273,STD
11227344628000,1.279991,-6.84126243847433,-6.75029747175434,0.918683152566733,-0.07819075,0.01038471,0.019547688,122.06367,46.460533,-42.10422,STD
11227349654000,1.285017,-6.84277224061353,-6.76237565239484,0.914153842314858,-0.069027774,0.016187929,0.016493361,122.08598,46.47247,-42.095818,STD
11227354619000,1.289982,-6.844263718453,-6.77430724150748,0.90967950379505,-0.076358154,0.014660766,0.018936822,122.10506,46.483215,-42.089302,STD
11227359657000,1.29502,-6.84577712537248,-6.7864142598256,0.90513937943195,-0.07422013,0.009162978,0.019547688,122.12501,46.493813,-42.08178,STD
11227364672000,1.300035,-6.84728362312976,-6.7984660059283,0.900619982115367,-0.06536258,0.015271631,0.018020526,122.14852,46.504105,-42.075184,STD
11227369664000,1.305027,-6.85214454060567,-6.80426054060567,0.895492270029306,-0.06536258,0.013133603,0.016187929,122.166664,46.51448,-42.06807,STD
11227374752000,1.310115,-6.85728718491632,-6.80901187237557,0.890740888645947,-0.0580322,0.012217305,0.013133603,122.18756,46.52433,-42.060852,STD
11227379626000,1.314989,-6.86066885272284,-6.80788465762032,0.891868115171581,-0.0580322,0.02443461,0.017104227,122.21336,46.543182,-42.04534,STD
11227384585000,1.319948,-6.86410949503973,-6.8067377848318,0.893014999935763,-0.06261369,0.015271631,0.014660766,122.23256,46.56415,-42.02655,STD
11227389630000,1.324993,-6.86760980568475,-6.80557102273902,0.894181774211886,-0.05589417,0.012217305,0.014966198,122.257904,46.582043,-42.011223,STD
11227394508000,1.329871,-6.87099424876235,-6.80444288289985,0.895309925831099,-0.06291912,0.010079277,0.016798794,122.280014,46.60084,-41.99568,STD
11227399617000,1.33498,-6.8745389637446,-6.80326131946437,0.896491501604482,-0.05681047,0.008246681,0.012217305,122.29814,46.623325,-41.974113,STD
11227404545000,1.339908,-6.87795809771064,-6.80212161607622,0.897631216893429,-0.0580322,0.011301007,0.007941248,122.31709,46.645523,-41.95397,STD
11227409564000,1.344927,-6.88144036909367,-6.80096086702891,0.898791978061291,-0.05375614,0.0061086523,0.013133603,122.33182,46.664967,-41.935284,STD
11227414574000,1.349937,-6.88491639611679,-6.79980219942042,0.899950657768601,-0.064446285,0.002443461,0.019547688,122.348465,46.685684,-41.9167,STD
11227419635000,1.354998,-6.88326156962589,-6.80076420875891,0.894063744210214,-0.06994407,0.0070249503,0.015882496,122.36662,46.706562,-41.89758,STD
11227424626000,1.359989,-6.88010786421219,-6.80234105323304,0.886179429633148,-0.06872234,0.01740966,0.014049901,122.38491,46.72484,-41.881485,STD
11227429619000,1.364982,-6.87695289504157,-6.80391852958234,0.87829195564331,-0.07849618,0.01038471,0.01740966,122.4004,46.73615,-41.87349,STD
11227434643000,1.370006,-6.87377833763856,-6.8055057999967,0.870355510755476,-0.070554934,0.015882496,0.015577064,122.42483,46.747875,-41.865173,STD
11227439619000,1.374982,-6.87063411040182,-6.8070779054071,0.862494891774215,-0.06536258,0.01038471,0.020463986,122.441505,46.757294,-41.85887,STD
11227444618000,1.379981,-6.86747534996041,-6.80865727738189,0.854597939546054,-0.073303826,0.02107485,0.0143553335,122.46714,46.770336,-41.85053,STD
11227449620000,1.384983,-6.86826253088192,-6.8091097,0.859103934128477,-0.07513642,0.020158553,0.01160644,122.489296,46.776516,-41.847862,STD
11227454618000,1.389981,-6.8706313741166,-6.8091097,0.868579321908344,-0.07727446,0.01985312,0.019242255,122.51503,46.781883,-41.847157,STD
11227459621000,1.394984,-6.87300258714243,-6.8091097,0.878064188867663,-0.07666359,0.027794369,0.018020526,122.549545,46.79312,-41.8422,STD
11227464618000,1.399981,-6.87537095641889,-6.8091097,0.88753768081164,-0.070554934,0.032986723,0.019242255,122.581696,46.801163,-41.83995,STD
11227469634000,1.404997,-6.87917236944081,-6.80305946635497,0.896693262057228,-0.07544186,0.031154128,0.022296581,122.61257,46.808815,-41.8397,STD
11227474599000,1.409962,-6.88361863047503,-6.79416680500281,0.905585876981485,-0.082161374,0.035124753,0.025961773,122.64697,46.81559,-41.84055,STD
11227479976000,1.415339,-6.89015195624936,-6.79733590139554,0.90979666,-0.07147124,0.029932396,0.032070424,122.67246,46.818237,-41.843006,STD
11227484665000,1.420028,-6.89701338614139,-6.80877157807884,0.90979666,-0.076052725,0.034208454,0.02565634,122.7033,46.82472,-41.843674,STD
11227489655000,1.425018,-6.90431527037282,-6.82094134277274,0.90979666,-0.0720821,0.04734206,0.024740042,122.73357,46.822983,-41.85086,STD
11227494653000,1.430016,-6.91162886103188,-6.83313061811144,0.90979666,-0.07666359,0.037873644,0.023823744,122.757,46.823933,-41.855022,STD
11227499651000,1.435014,-6.92024377609146,-6.83205072390854,0.91558596329457,-0.07788532,0.023823744,0.01985312,122.783455,46.825603,-41.858376,STD
11227504669000,1.440032,-6.92971576416675,-6.82257873583325,0.925057995877599,-0.08277224,0.030543262,0.02107485,122.8134,46.826653,-41.86344,STD
11227509668000,1.445031,-6.93084233943953,-6.79656095560472,0.937247332758112,-0.07788532,0.024129177,0.021380283,122.83601,46.82565,-41.87047,STD
11227514656000,1.450019,-6.9261453306293,-6.75898444370698,0.951338530850541,-0.086132,0.021380283,0.02107485,122.862,46.8257,-41.877995,STD
11227519655000,1.455018,-6.92272705179508,-6.74337627544259,0.949855205322916,-0.084910266,0.029626964,0.019547688,122.88633,46.82252,-41.887352,STD
11227524650000,1.460013,-6.92036150358026,-6.74574187305904,0.935661906153694,-0.098043874,0.049785517,0.018936822,122.91372,46.820694,-41.897152,STD
11227529658000,1.465021,-6.9179897987835,-6.74811362738602,0.921431667467115,-0.11056661,0.04917465,0.012217305,122.93266,46.815014,-41.908756,STD
11227534678000,1.470041,-6.91561241098803,-6.75049106483038,0.907167330764514,-0.116980694,0.053450707,0.018020526,122.959595,46.80673,-41.924667,STD
11227539673000,1.475036,-6.90962970250914,-6.75406138615035,0.876095721404722,-0.124311075,0.06047566,0.017715093,122.987854,46.803066,-41.93668,STD
11227544661000,1.480024,-6.90019202020152,-6.75878020266719,0.828907014223056,-0.13652839,0.06658431,0.01985312,123.016205,46.79803,-41.95073,STD
11227549616000,1.484979,-6.89971802782913,-6.77226832722584,0.786783542601927,-0.12492194,0.055588737,0.029321533,123.04717,46.789684,-41.96912,STD
11227554664000,1.490027,-6.9091261107327,-6.79578865728325,0.749150985038435,-0.118202426,0.05222898,0.021685716,123.083725,46.786854,-41.983437,STD
11227559582000,1.494945,-6.9124977042076,-6.81889367896199,0.731750891584797,-0.11148291,0.04642576,0.01740966,123.12365,46.78426,-41.99811,STD
11227564658000,1.500021,-6.90767366562469,-6.84301387187655,0.74139896875062,-0.09407325,0.034513887,0.02443461,123.15894,46.779766,-42.012733,STD
11227569531000,1.504894,-6.90304672006436,-6.85790918518812,0.746075414811881,-0.09407325,0.03023783,0.024129177,123.200775,46.788376,-42.0149,STD
11227574619000,1.509982,-6.89822226335149,-6.86032140095049,0.743663199049505,-0.09101892,0.03726278,0.02565634,123.2411,46.793213,-42.019337,STD
11227579505000,1.514868,-6.89358934363861,-6.86263784871287,0.741346751287129,-0.07666359,0.04550946,0.022602014,123.28026,46.801704,-42.018745,STD
11227584624000,1.519987,-6.88873549263366,-6.86506476154455,0.738919838455446,-0.079107046,0.046731193,0.017104227,123.31891,46.811176,-42.017796,STD
11227589510000,1.524873,-6.88732955588235,-6.86496497764706,0.747047245852941,-0.086437434,0.04734206,0.024740042,123.36102,46.814224,-42.02391,STD
11227595417000,1.53078,-6.89287576558823,-6.85941888376471,0.780323849685294,-0.07513642,0.049785517,0.024129177,123.40461,46.820152,-42.026115,STD
11227599515000,1.534878,-6.89386757231772,-6.85126010901008,0.802041963227623,-0.081855945,0.05955936,0.019547688,123.442566,46.83488,-42.021633,STD
11227604621000,1.539984,-6.88903649525785,-6.83193620432721,0.826196859214582,-0.07574729,0.0729984,0.008246681,123.48287,46.850006,-42.01543,STD
11227609538000,1.544901,-6.88694351726619,-6.82600345079137,0.83666153718705,-0.079107046,0.058337633,0.019242255,123.50807,46.858444,-42.01423,STD
11227614619000,1.549982,-6.89131948282374,-6.85225869582734,0.814782152616007,-0.08674286,0.03726278,0.02443461,123.53664,46.871292,-42.00869,STD
11227619652000,1.555015,-6.89572653885336,-6.87444512236914,0.79189616381164,-0.08399397,0.018936822,0.026572637,123.55367,46.87848,-42.00628,STD
11227624625000,1.559988,-6.90088801377479,-6.85379895320256,0.755765424361114,-0.070554934,0.01740966,0.022296581,123.568985,46.88564,-42.003372,STD
11227629594000,1.564957,-6.90702090668391,-6.83891162572111,0.726765696658047,-0.06536258,0.004886922,0.02443461,123.57923,46.894493,-41.998817,STD
11227634619000,1.569982,-6.91659389653869,-6.84369822060871,0.721979201730654,-0.074830994,0.0015271631,0.0290161,123.59236,46.90363,-41.994366,STD
11227639595000,1.574958,-6.91994721988066,-6.84639596131278,0.715197447906514,-0.05955936,0.0036651916,0.03023783,123.60806,46.908356,-41.99434,STD
11227644628000,1.579991,-6.90077261611139,-6.84160222277474,0.700816532620587,-0.06536258,0.0076358155,0.034208454,123.6225,46.91262,-41.996315,STD
11227649600000,1.584963,-6.88475447177811,-6.83687047177811,0.685651946617137,-0.069027774,0.0030543262,0.032986723,123.63553,46.9165,-41.997475,STD
11227654623000,1.589986,-6.87998936389302,-6.83210536389302,0.666591316047548,-0.06291912,0.010079277,0.034208454,123.65378,46.918278,-42.0012,STD
11227659602000,1.594965,-6.87527454669413,-6.8308815599176,0.652095653305866,-0.06352998,0.014049901,0.033292156,123.67248,46.92384,-42.001827,STD
11227665359000,1.600722,-6.86986610667059,-6.84710687998823,0.657504093329409,-0.07422013,0.010995574,0.03573562,123.69055,46.928226,-42.00371,STD
11227669590000,1.604953,-6.86724627848917,-6.85834525697833,0.661475478489167,-0.0571159,0.017104227,0.03634648,123.713104,46.936962,-42.00021,STD
11227674580000,1.609943,-6.87191036515713,-6.86767343031427,0.666139565157134,-0.062308256,0.0061086523,0.03634648,123.727646,46.946796,-41.996284,STD
11227679621000,1.614984,-6.87702872762931,-6.87526587697255,0.669495076972552,-0.046731193,0.01740966,0.03390302,123.75302,46.95696,-41.99111,STD
11227684651000,1.620014,-6.88575624923453,-6.86653840093306,0.660767600933056,-0.040927973,0.009162978,0.035430185,123.766365,46.966553,-41.985664,STD
11227689619000,1.624982,-6.89437619502672,-6.85791850014494,0.652147700144941,-0.030543262,0.016798794,0.03023783,123.78992,46.977726,-41.978664,STD
11227694658000,1.630021,-6.88122011757668,-6.84291286658691,0.655916511137699,-0.021685716,0.015271631,0.0290161,123.80632,46.98684,-41.972527,STD
11227699798000,1.635161,-6.86785511628252,-6.82612228031457,0.6637971275596,-0.021991149,0.004581489,0.03359759,123.821884,46.995445,-41.966705,STD
11227704649000,1.640012,-6.88164200474824,-6.80314421284994,0.69596642201009,-0.029321533,0.006414085,0.032070424,123.843254,47.0015,-41.96541,STD
11227709900000,1.645263,-6.89455103110427,-6.77700445367356,0.727087335019798,-0.03268129,-0.0018325958,0.03023783,123.854935,47.005684,-41.964336,STD
11227714660000,1.650023,-6.88652889190497,-6.74090497386713,0.719065237703476,-0.019547688,-0.01160644,0.032070424,123.86641,47.00861,-41.96395,STD
11227719575000,1.654938,-6.87824552758469,-6.70362998578971,0.710781916630004,-0.01740966,-0.006414085,0.030543262,123.871765,47.00745,-41.96704,STD
11227724653000,1.660016,-6.89458420326469,-6.70156279980914,0.716058461305876,-0.03023783,-0.01038471,0.029321533,123.86987,47.00574,-41.969814,STD
11227729564000,1.664927,-6.91820633525866,-6.71101170193872,0.725507314103466,-0.03726278,-0.0106901415,0.026572637,123.87158,47.004402,-41.972237,STD
11227734692000,1.670055,-6.92032198272521,-6.72076033454959,0.73525593454959,-0.03726278,-0.010995574,0.025045475,123.87403,46.9971,-41.981148,STD
11227739626000,1.674989,-6.91564958766934,-6.73010512466133,0.744600724661327,-0.043982297,-0.013133603,0.03268129,123.875145,46.98892,-41.991547,STD
11227744651000,1.680014,-6.92161545348236,-6.73786601511177,0.734459231405862,-0.047647487,-0.014660766,0.028099801,123.87506,46.982426,-41.999672,STD
11227749617000,1.68498,-6.93106570461003,-6.74495370345753,0.717921291932439,-0.044898596,-0.0106901415,0.024740042,123.87563,46.97362,-42.01026,STD
11227754651000,1.690014,-6.94064535909588,-6.75213844432191,0.701156896582216,-0.043066,-0.012217305,0.02687807,123.87156,46.96506,-42.021084,STD
11227759635000,1.694998,-6.95012986405365,-6.75925182304024,0.68455901290611,-0.05467244,-0.019547688,0.02321288,123.86744,46.95975,-42.029083,STD
11227764649000,1.700012,-6.94249094265039,-6.75437849268485,0.686800471566407,-0.058948494,-0.01160644,0.024129177,123.87638,46.9468,-42.044643,STD
11227769702000,1.705065,-6.92819787272817,-6.74484972965443,0.696329184847888,-0.056199603,-0.010995574,0.015577064,123.88056,46.93803,-42.05546,STD
11227774643000,1.710006,-6.92183645844568,-6.74316944369548,0.696912058445678,-0.058337633,-0.007330383,0.01985312,123.89436,46.927715,-42.070305,STD
11227779667000,1.71503,-6.9186568494581,-6.74475928139043,0.693732449458102,-0.04428773,-0.0009162979,0.01985312,123.91006,46.92012,-42.08143,STD
11227784660000,1.720023,-6.91549685987312,-6.74633930917922,0.690572459873117,-0.055283304,-0.004581489,0.012217305,123.921394,46.915085,-42.09062,STD
11227789654000,1.725017,-6.91233623740418,-6.7479196534166,0.687411837404177,-0.048258353,-0.0033597588,0.0106901415,123.93634,46.906784,-42.101814,STD
11227794651000,1.730014,-6.90917371628337,-6.74950094699973,0.684249316283373,-0.045814894,-0.005497787,0.0143553335,123.94694,46.903084,-42.107822,STD
11227799649000,1.735012,-6.90601056227862,-6.75108255703146,0.681086162278615,-0.03726278,-0.003970624,0.011911872,123.95974,46.90085,-42.111855,STD
11227804957000,1.74032,-6.90155185295163,-6.75497484704837,0.6766274182231,-0.043982297,-0.0012217305,0.0067195175,123.97198,46.89912,-42.116016,STD
11227809653000,1.745016,-6.89711234819348,-6.75941435180652,0.672187867107601,-0.03573562,0.002443461,0.0036651916,123.98503,46.896248,-42.12014,STD
11227814650000,1.750013,-6.89251239071449,-6.7612257,0.673165094726396,-0.036651913,0.00030543262,0.005497787,123.99376,46.899807,-42.119293,STD
11227819646000,1.755009,-6.88799051729988,-6.7612257,0.677686944532653,-0.040927973,0.004276057,0.011911872,124.00603,46.902504,-42.119495,STD
11227824526000,1.759889,-6.88357363534165,-6.7612257,0.682103803430678,-0.04153884,0.0061086523,0.01038471,124.01847,46.90799,-42.11676,STD
11227829662000,1.765025,-6.87892504810037,-6.7612257,0.686752366402041,-0.038179077,0.005497787,0.004581489,124.03122,46.912773,-42.11477,STD
11227834528000,1.769891,-6.874456944475,-6.762916055525,0.691220455524998,-0.0421497,0.004276057,0.01160644,124.0459,46.912537,-42.118538,STD
11227839655000,1.775018,-6.86963421059817,-6.76773878940183,0.696043189401827,-0.035430185,0.013744468,0.015577064,124.06479,46.913933,-42.12035,STD
11227844532000,1.779895,-6.86733396715221,-6.77538330291324,0.700633834304414,-0.038179077,0.02321288,0.019547688,124.07932,46.917576,-42.119205,STD
11227849647000,1.78501,-6.8697445439939,-6.78984676396339,0.705454987987796,-0.032986723,0.02107485,0.013133603,124.093315,46.92214,-42.116226,STD
11227854546000,1.789909,-6.87205332521529,-6.80369945129177,0.710072550430589,-0.016187929,0.031154128,0.013439035,124.11415,46.92412,-42.116215,STD
11227859653000,1.795016,-6.87446013184883,-6.81814029109296,0.714886163697653,-0.027794369,0.029626964,0.008857546,124.130356,46.930428,-42.112442,STD
11227864563000,1.799926,-6.87677675446009,-6.82889275446009,0.723925653239436,-0.03023783,0.03390302,0.015271631,124.15158,46.932076,-42.112724,STD
11227869642000,1.805005,-6.8791805132592,-6.8312965132592,0.745559723392142,-0.015882496,0.028405234,0.010079277,124.169365,46.937874,-42.107998,STD
11227874574000,1.809937,-6.88151470077588,-6.83363070077588,0.76656764502891,-0.015271631,0.03390302,0.0076358155,124.18877,46.946518,-42.101856,STD
11227879656000,1.815019,-6.88391987939708,-6.83603587939708,0.788214493722758,-0.022907447,0.038789943,0.005497787,124.20606,46.955936,-42.094326,STD
11227884627000,1.81999,-6.88681908119574,-6.83893508119574,0.802261644489937,-0.014660766,0.02687807,-0.0009162979,124.2206,46.964794,-42.086178,STD
11227889680000,1.825043,-6.89159340844515,-6.84370940844515,0.792713194384373,-0.018020526,0.02321288,0.0009162979,124.23949,46.972748,-42.08062,STD
11227894634000,1.829997,-6.89821319411504,-6.84547552880972,0.781900600738572,-0.016187929,0.023518313,0.0021380284,124.247696,46.97908,-42.07389,STD
11227899659000,1.835022,-6.91242074307435,-6.83600378829405,0.765325080798111,-0.009162978,0.017104227,-0.0012217305,124.25218,46.98584,-42.066177,STD
11227904623000,1.839986,-6.9264558222851,-6.82664702811101,0.748950776124588,-0.020463986,0.023823744,0.0036651916,124.26523,46.990246,-42.06259,STD
11227909659000,1.845022,-6.9406944723466,-6.81715455343699,0.732338971463859,-0.022602014,0.017104227,0.0036651916,124.2713,46.99588,-42.055992,STD
11227914594000,1.849957,-6.95401591014137,-6.80660126662085,0.720141825034361,-0.030848695,0.01160644,0.008246681,124.27969,46.99961,-42.052685,STD
11227919737000,1.8551,-6.9636866788926,-6.78725962813666,0.734648053897506,-0.028099801,0.018325957,0.004886922,124.29069,47.004898,-42.047657,STD
11227924621000,1.859984,-6.97480960618741,-6.76983770297472,0.747473301031235,-0.03390302,0.015577064,0.011301007,124.28933,47.010464,-42.04328,STD
11227929649000,1.865012,-7.00345739026277,-6.76028849147248,0.752247931710461,-0.040317107,0.01985312,0.007330383,124.29421,47.01944,-42.03606,STD
11227934624000,1.869987,-7.02750714488581,-6.75138201890583,0.7565677,-0.04062254,0.021685716,0.0070249503,124.29114,47.019897,-42.03729,STD
11227939649000,1.875012,-7.00546255110922,-6.74823277008376,0.7565677,-0.048563786,0.026267206,0.013744468,124.290665,47.020065,-42.039875,STD
11227944786000,1.880149,-6.98292661514299,-6.74501332904915,0.7565677,-0.044898596,0.021380283,0.009468411,124.28021,47.021465,-42.039806,STD
11227949646000,1.885009,-6.96160587369937,-6.74196748839736,0.7565677,-0.043676864,0.022296581,0.008857546,124.27319,47.020382,-42.043232,STD
11227955436000,1.890799,-6.93620523728814,-6.73833880169492,0.7565677,-0.04734206,0.015271631,0.010079277,124.26169,47.019905,-42.045437,STD
11227959653000,1.895016,-6.91770532645115,-6.73569593954911,0.7565677,-0.04642576,0.0143553335,0.005497787,124.25345,47.020763,-42.046284,STD
11227965082000,1.900445,-6.8949999070494,-6.73400073331381,0.757470962189026,-0.037873644,0.021380283,0.01038471,124.242355,47.020103,-42.04843,STD
11227969663000,1.905026,-6.89071634553798,-6.755418093595,0.770321409667057,-0.043676864,0.017104227,0.010995574,124.22754,47.022404,-42.047695,STD
11227974588000,1.909951,-6.88611111950791,-6.77844374288225,0.784136832899824,-0.046120327,0.014966198,0.012217305,124.218445,47.0286,-42.042953,STD
11227979660000,1.915023,-6.885724,-6.77816952467925,0.783088401601526,-0.03604105,0.014966198,0.017104227,124.208595,47.032864,-42.039658,STD
11227984572000,1.919935,-6.885724,-6.77583925066132,0.780758134883341,-0.036957346,0.0125227375,0.013133603,124.19781,47.039627,-42.034325,STD
11227989785000,1.925148,-6.885724,-6.77336618094318,0.77828507291227,-0.033292156,0.017715093,0.01160644,124.18913,47.045498,-42.02916,STD
11227994546000,1.929909,-6.885724,-6.77110754197751,0.776026441021945,-0.039095376,0.016187929,0.014660766,124.17729,47.05136,-42.024105,STD
11227999614000,1.934977,-6.88783478472879,-6.77502395925686,0.763056934068835,-0.03940081,0.013133603,0.009162978,124.16853,47.060204,-42.014977,STD
11228004537000,1.9399,-6.89018312217961,-6.77972051155551,0.748967179090502,-0.036651913,0.009468411,0.01863139,124.15807,47.063766,-42.011208,STD
11228009602000,1.944965,-6.89259919554714,-6.78455253215122,0.734471016391891,-0.03726278,0.022907447,0.02076942,124.15394,47.066566,-42.011528,STD
11228014533000,1.949896,-6.89495134910594,-6.7892567164666,0.720358365203965,-0.028099801,0.017104227,0.02076942,124.14089,47.06644,-42.01294,STD
11228019606000,1.954969,-6.8991060790076,-6.79376119820562,0.729675856220819,-0.03756821,0.016798794,0.018325957,124.13518,47.067276,-42.01526,STD
11228025262000,1.960625,-6.90406495616589,-6.79872023070585,0.744552643037627,-0.04062254,0.023518313,0.014966198,124.1302,47.067406,-42.017456,STD
11228029609000,1.964972,-6.89468813575651,-6.80292948594836,0.736801335756507,-0.04520403,0.023823744,0.016493361,124.13044,47.067787,-42.021076,STD
11228034533000,1.969896,-6.88001754676968,-6.80781963121435,0.722130746769677,-0.040927973,0.012217305,0.010079277,124.12946,47.070908,-42.021275,STD
11228039658000,1.975021,-6.88724497899041,-6.81650815266027,0.714561273669864,-0.03268129,0.018020526,0.014660766,124.13179,47.069546,-42.026203,STD
11228044576000,1.979939,-6.90151010844018,-6.82601823896012,0.70980623051994,-0.036957346,0.018020526,0.013439035,124.12843,47.07187,-42.026947,STD
11228049662000,1.985025,-6.90674500948833,-6.82452868102335,0.703081771535022,-0.035124753,0.017104227,0.009468411,124.12873,47.078056,-42.02338,STD
11228054606000,1.989969,-6.90909710582216,-6.81982448835569,0.696025482533532,-0.035124753,0.016187929,0.007941248,124.129036,47.08394,-42.020374,STD
11228059656000,1.995019,-6.91149963140586,-6.81501943718828,0.688817905782414,-0.028099801,0.023518313,0.014660766,124.12828,47.08879,-42.019432,STD
11228064613000,1.999976,-6.91385791245902,-6.81030287508197,0.681743062622951,-0.032070424,0.0143553335,0.005497787,124.1222,47.098766,-42.012993,STD
11228069653000,2.005016,-6.91802669357635,-6.81625408715271,0.690669880729064,-0.02565634,0.022296581,0.0076358155,124.124344,47.1025,-42.01297,STD
11228074589000,2.009952,-6.92268394331034,-6.82556858662069,0.704641629931035,-0.022602014,0.019242255,0.004886922,124.1199,47.110226,-42.00827,STD
11228079649000,2.015012,-6.91886374443124,-6.82998580653197,0.710406224518397,-0.023823744,0.022907447,0.012217305,124.12211,47.113403,-42.00908,STD
11228084633000,2.019996,-6.91177258337543,-6.83234951042936,0.712769953097608,-0.02565634,0.028405234,0.013439035,124.12452,47.11867,-42.00752,STD
11228089649000,2.025012,-6.90463589319566,-6.83472839059575,0.715148858104294,-0.02443461,0.018020526,0.008857546,124.12406,47.119644,-42.00927,STD
11228094996000,2.030359,-6.89702826114,-6.83726425029466,0.717684744282672,-0.01863139,0.023823744,0.013133603,124.13116,47.117584,-42.01486,STD
11228099648000,2.035011,-6.8887314136579,-6.8296280385095,0.721545284596199,-0.018020526,0.020463986,0.009162978,124.132416,47.120693,-42.013504,STD
11228104647000,2.04001,-6.87917895230708,-6.81768749299147,0.726321502803412,-0.022296581,0.031154128,0.013439035,124.14041,47.12011,-42.016705,STD
11228109649000,2.045012,-6.86962075833292,-6.80573978171297,0.73110058731481,-0.01740966,0.024129177,0.010079277,124.14133,47.123928,-42.01389,STD
11228114653000,2.050016,-6.86005874260987,-6.79378729326084,0.735881582695665,-0.02076942,0.013439035,0.011301007,124.1443,47.125767,-42.014,STD
11228119657000,2.05502,-6.85386766505376,-6.7930821328725,0.728035897235023,-0.023518313,0.021685716,0.0125227375,124.15941,47.123142,-42.018864,STD
11228124647000,2.06001,-6.84927974905914,-6.79767019258833,0.714272005529954,-0.027488936,0.02687807,0.01160644,124.16924,47.121037,-42.02279,STD
11228129653000,2.065016,-6.85730669059406,-6.79812015544554,0.721399045772277,-0.035430185,0.018020526,-0.00030543262,124.174614,47.120964,-42.02419,STD
11228134646000,2.070009,-6.87387690037129,-6.79575292965347,0.742703650282673,-0.009773844,0.012217305,0.01160644,124.18153,47.112972,-42.032368,STD
11228139647000,2.07501,-6.89047365965347,-6.7933819109901,0.764042389949505,-0.018325957,0.023518313,0.016187929,124.20276,47.108337,-42.041103,STD
11228144652000,2.080015,-6.90708369368812,-6.79100899589109,0.785398197194554,-0.022907447,0.022602014,0.009773844,124.216805,47.102158,-42.049004,STD
11228149649000,2.085012,-6.91182568591911,-6.79784246969247,0.80013259541679,-0.022907447,0.024740042,0.006414085,124.23549,47.094315,-42.0594,STD
11228154654000,2.090017,-6.90708605534461,-6.81206141090675,0.809611851616731,-0.021380283,0.02443461,0.017104227,124.252075,47.084686,-42.071537,STD
11228159651000,2.095014,-6.90613998656214,-6.81616194005638,0.810241701631634,-0.027183503,0.018325957,0.01282817,124.25787,47.07416,-42.0829,STD
11228164699000,2.100062,-6.90853098940106,-6.81137995934517,0.803068695611554,-0.015882496,0.019242255,0.011911872,124.265144,47.05911,-42.09816,STD
11228169648000,2.105011,-6.91087510054404,-6.80669176153618,0.796036364630298,-0.0143553335,0.027794369,0.013133603,124.275826,47.045536,-42.112366,STD
11228174621000,2.109984,-6.91323057937089,-6.80198082847816,0.788969930609328,-0.025350908,0.020463986,0.009773844,124.280975,47.033928,-42.123985,STD
11228179650000,2.115013,-6.9144545,-6.79837431995646,0.789932792175763,-0.018325957,0.021991149,0.011911872,124.29205,47.01979,-42.13798,STD
11228184647000,2.12001,-6.9144545,-6.79600625280816,0.799404860483448,-0.015271631,0.018020526,0.011911872,124.29842,47.00827,-42.149525,STD
11228189622000,2.124985,-6.9144545,-6.79364861141076,0.808835226669306,-0.015882496,0.028099801,0.01282817,124.3121,46.99533,-42.1635,STD
11228194650000,2.130013,-6.9144545,-6.79126585343164,0.818366057057747,-0.016798794,0.013744468,0.011911872,124.31488,46.983105,-42.17531,STD
11228199602000,2.134965,-6.91652444353452,-6.7858161345451,0.825675312180184,-0.013439035,0.003970624,0.014660766,124.327835,46.966305,-42.19223,STD
11228204649000,2.140012,-6.92129912590141,-6.77626681966808,0.830450014489776,-0.01863139,0.01038471,0.01160644,124.34165,46.9523,-42.206936,STD
11228209553000,2.144916,-6.92212105672306,-6.77653324977738,0.827451462190561,-0.027183503,0.012217305,0.008246681,124.3456,46.936394,-42.222134,STD
11228214654000,2.150017,-6.91728764851093,-6.79103352488374,0.812951217366182,-0.023823744,0.0033597588,0.0125227375,124.347435,46.91925,-42.23806,STD
11228219524000,2.154887,-6.91622275613828,-6.79599646925948,0.800915249569829,-0.022907447,0.006414085,0.015271631,124.355804,46.90258,-42.253498,STD
11228224660000,2.160023,-6.92105348141819,-6.78633496825771,0.791253804054213,-0.027794369,0.01740966,0.013439035,124.36368,46.886536,-42.268463,STD
11228229531000,2.164894,-6.92723485684717,-6.77557400654306,0.782094618170492,-0.030543262,0.016187929,0.016187929,124.37536,46.870113,-42.283535,STD
11228234660000,2.170023,-6.93687183225427,-6.76111866921719,0.772457657857563,-0.027794369,0.015271631,0.0143553335,124.3914,46.855904,-42.296947,STD
11228239529000,2.174892,-6.94176160858859,-6.7544957085098,0.767567876548803,-0.03604105,0.0125227375,0.013744468,124.40653,46.840725,-42.31218,STD
11228244757000,2.18012,-6.93683020348665,-6.76435826125283,0.772499230158574,-0.026572637,0.004581489,0.015577064,124.418945,46.82478,-42.326897,STD
11228249561000,2.184924,-6.93491186228543,-6.7694986649436,0.774417551329083,-0.019242255,0.009468411,0.0143553335,124.435356,46.80879,-42.34288,STD
11228254652000,2.190015,-6.93969425630211,-6.76471637079941,0.769635207248651,-0.014966198,0.005192355,0.0125227375,124.44489,46.792576,-42.358,STD
11228259574000,2.194937,-6.94092677708476,-6.77929138900186,0.772919140449702,-0.024129177,0.019547688,0.0143553335,124.47171,46.77191,-42.379055,STD
11228264664000,2.200027,-6.93139580308926,-6.855538782882,0.801511943011047,-0.03145956,-0.0021380284,0.00061086525,124.48378,46.75647,-42.392735,STD
11228269593000,2.204956,-6.92306576778014,-6.90383364558154,0.820708764348618,-0.027794369,0.004276057,0.00061086525,124.498456408693,46.7442008119529,-42.4054976335647,STD
11228274603000,2.209966,-6.91820902438506,-6.85040946823565,0.80613853923474,-0.032070424,0.013744468,0.018020526,124.513374,46.73173,-42.41847,STD
11228280322000,2.215685,-6.9144545,-6.80742157728814,0.805003661322034,-0.028710667,0.025961773,0.010995574,124.5353,46.71838,-42.431797,STD
11228284683000,2.220046,-6.9144545,-6.80343354741466,0.828931734374791,-0.03268129,0.01282817,0.011301007,124.552605,46.70631,-42.443745,STD
11228289863000,2.225226,-6.9144545,-6.79869656169014,0.857353522591549,-0.034208454,0.0033597588,0.004886922,124.57516,46.693855,-42.456593,STD
11228294798000,2.230161,-6.9144545,-6.79418362258773,0.884431037041299,-0.03268129,0.004886922,0.0143553335,124.59544,46.677338,-42.47348,STD
11228299730000,2.235093,-6.91396702520385,-6.78922478653323,0.908334226449222,-0.03604105,0.00580322,0.015577064,124.605415,46.673317,-42.47621,STD
11228304762000,2.240125,-6.90602860069187,-6.77731712904209,0.884518803706449,-0.031154128,0.0033597588,0.007941248,124.61452,46.668774,-42.478966,STD
11228309853000,2.245216,-6.897997098468,-6.76526985474014,0.860424146078577,-0.030848695,0.0030543262,0.011301007,124.612114,46.656906,-42.48738,STD
11228314967000,2.25033,-6.88705515870126,-6.76287486825975,0.837493268441815,-0.03604105,0.0106901415,0.009162978,124.61272,46.64891,-42.492332,STD
11228319713000,2.255076,-6.87556183629191,-6.76517353274162,0.816805264102564,-0.03604105,0.0061086523,0.009773844,124.60823,46.639076,-42.49838,STD
11228324765000,2.260128,-6.86332747792444,-6.76762040441511,0.794783393491124,-0.039095376,0.009162978,0.003970624,124.615005,46.633366,-42.50254,STD
11228329761000,2.265124,-6.85122873398068,-6.77004015320386,0.773005629125575,-0.035430185,0.0033597588,0.002443461,124.616295,46.62608,-42.507385,STD
11228334689000,2.270052,-6.86667968743628,-6.77722337346327,0.778986334086957,-0.0290161,0.00580322,0.004581489,124.61796,46.6221,-42.509537,STD
11228339739000,2.275102,-6.89568283936032,-6.78689105712144,0.798321832637681,-0.03634648,0.008246681,0.010079277,124.61738,46.61809,-42.512043,STD
11228344716000,2.280079,-6.90329904085938,-6.79311336773438,0.81076646909375,-0.03848451,0.015882496,0.011911872,124.629745,46.619534,-42.510754,STD
11228350808000,2.286171,-6.90045034669922,-6.79881084529297,0.822161376617188,-0.038789943,0.015882496,0.007330383,124.633465851107,46.6201861591999,-42.5097362834983,STD
11228354515000,2.289878,-6.89871690788574,-6.80227777722168,0.829095211513672,-0.033292156,0.004886922,0.009468411,124.63573,46.620583,-42.509117,STD
11228359518000,2.294881,-6.89637744352539,-6.80695677922852,0.838453176441406,-0.033292156,0.004581489,0.0125227375,124.63851,46.620205,-42.50939,STD
11228364520000,2.299883,-6.90599022075238,-6.81712662951633,0.832069712277801,-0.03848451,0.0021380284,0.0125227375,124.636734,46.62125,-42.507664,STD
11228369513000,2.304876,-6.92575736120298,-6.83195201065523,0.812302447982638,-0.029321533,0.0036651916,0.013133603,124.63624,46.620407,-42.50732,STD
11228374490000,2.309853,-6.93550889425219,-6.83403825119332,0.80350131882856,-0.02565634,0.011911872,0.015882496,124.63801,46.618572,-42.507713,STD
11228379490000,2.314853,-6.93868340035137,-6.82768930529037,0.801914075723283,-0.03145956,0.011911872,0.016493361,124.63598770223,46.6177310840916,-42.507309040396,STD
11228384491000,2.319854,-6.94185854135176,-6.82133908959825,0.800326515169385,-0.023823744,0.0027488936,0.015882496,124.633965,46.61689,-42.506905,STD
11228389493000,2.324856,-6.94503431725338,-6.81498760411695,0.798738637166865,-0.030848695,0.00580322,0.008857546,124.6419,46.617348,-42.506096,STD
11228394489000,2.329852,-6.94820628374768,-6.80864373737072,0.797152663856073,-0.034513887,0.0076358155,0.015271631,124.63824,46.617157,-42.505676,STD
11228399487000,2.33485,-6.95137952004442,-6.80229733104614,0.795566055648038,-0.030848695,0.004581489,0.015271631,124.63492,46.620502,-42.50165,STD
11228404490000,2.339853,-6.94739288863321,-6.80758614697481,0.802928142201944,-0.0290161,0.0018325958,0.0076358155,124.632614,46.624306,-42.497578,STD
11228409492000,2.344855,-6.93789013050982,-6.82184016012696,0.817182200005951,-0.025045475,0.0125227375,0.0143553335,124.63351,46.62361,-42.49825,STD
11228414489000,2.349852,-6.92318477686242,-6.82305166802401,0.824908270034719,-0.040011674,0.017104227,0.011301007,124.63123,46.625637,-42.496647,STD
11228419532000,2.354895,-6.90402170202361,-6.813470093086,0.827303667521079,-0.037873644,-0.0036651916,0.007941248,124.623,46.624718,-42.49623,STD
11228424490000,2.359853,-6.8851816217042,-6.80405001604008,0.829658690471183,-0.03940081,-0.0012217305,0.007330383,124.62003,46.627792,-42.494453,STD
11228429493000,2.364856,-6.86617054428628,-6.79454444011011,0.832035088175776,-0.03940081,0.0021380284,0.013744468,124.60955,46.629368,-42.493046,STD
11228434490000,2.369853,-6.85937178209271,-6.79233413175611,0.828426025881901,-0.030848695,0.0018325958,0.013439035,124.595985,46.634083,-42.48829,STD
11228439493000,2.374856,-6.86397966153106,-6.7969421074245,0.819210247759185,-0.029626964,0.0070249503,0.010079277,124.58593,46.63796,-42.48517,STD
11228444479000,2.379842,-6.8665705,-6.80161945618274,0.810551116567743,-0.026572637,0.005192355,0.0143553335,124.57282,46.641315,-42.481,STD
11228449490000,2.384853,-6.8665705,-6.80643088367088,0.802532032794599,-0.03940081,0.011301007,0.016493361,124.56539,46.646652,-42.47626,STD
11228454452000,2.389815,-6.8665705,-6.81119526267629,0.794591363530513,-0.042455133,0.0061086523,0.013744468,124.55529,46.6518,-42.47085,STD
11228459492000,2.394855,-6.8665705,-6.81603453518481,0.786525871170376,-0.03604105,0.013133603,0.010079277,124.552345,46.65652,-42.46692,STD
11228464437000,2.3998,-6.8665705,-6.82078259124724,0.778612406940044,-0.032986723,0.021380283,0.014660766,124.54453,46.6608,-42.464035,STD
11228469490000,2.404853,-6.8665705,-6.82563434600628,0.770526110730566,-0.046120327,0.016798794,0.018936822,124.53505,46.66637,-42.46007,STD
11228474417000,2.40978,-6.86254679448177,-6.82423957347409,0.772180104494242,-0.03604105,0.02076942,0.016798794,124.5323,46.670856,-42.456615,STD
11228479633000,2.414996,-6.85295901559501,-6.81465174452975,0.786561882951056,-0.035124753,0.01282817,0.016493361,124.52307,46.674515,-42.454308,STD
11228484513000,2.419876,-6.84654376713601,-6.8091097,0.798367831247189,-0.03481932,0.014049901,0.018020526,124.52448,46.68223,-42.44838,STD
11228489782000,2.425145,-6.84407670871223,-6.8091097,0.808235866588442,-0.038179077,0.015271631,0.017104227,124.523224,46.690517,-42.44163,STD
11228494509000,2.429872,-6.84186342627359,-6.8091097,0.817088818392979,-0.04428773,0.005497787,0.014966198,124.51532,46.697628,-42.435093,STD
11228499617000,2.43498,-6.83947175149115,-6.8091097,0.826655325229784,-0.044593163,-0.0027488936,0.012217305,124.50879,46.704742,-42.42855,STD
11228504540000,2.439903,-6.84562563252615,-6.80781211264487,0.83058699277113,-0.04428773,-0.008857546,0.013133603,124.49951,46.711353,-42.42243,STD
11228509625000,2.444988,-6.87315688523509,-6.80322363441063,0.821409921311599,-0.042455133,-0.0009162979,0.011911872,124.49309,46.71889,-42.415592,STD
11228514545000,2.449908,-6.89366830296806,-6.79871663869775,0.813212215746123,-0.042760566,-0.0018325958,0.014966198,124.481804,46.72025,-42.41415,STD
11228519633000,2.454996,-6.88365967345178,-6.79371224555818,0.808207927115128,-0.043676864,-0.00030543262,0.016798794,124.47488,46.72202,-42.412735,STD
11228524575000,2.459938,-6.87506293355515,-6.79212474421254,0.805536126444848,-0.035124753,-0.0033597588,0.009773844,124.466446,46.721783,-42.412807,STD
11228529632000,2.464995,-6.87017990496068,-6.80189085238959,0.810419155039322,-0.03634648,0.004886922,0.009773844,124.46254,46.719513,-42.416065,STD
11228534587000,2.46995,-6.86714896761961,-6.81026663523923,0.81402856,-0.044593163,0.013744468,0.013133603,124.45914,46.718857,-42.417694,STD
11228539625000,2.474988,-6.86954364294223,-6.81505598588445,0.81402856,-0.03940081,0.01160644,0.01160644,124.45513,46.718845,-42.417923,STD
11228544609000,2.479972,-6.87191265084376,-6.81979400168751,0.81402856,-0.038789943,0.022296581,0.017104227,124.4589,46.71775,-42.420826,STD
11228549623000,2.484986,-6.87429591842367,-6.82456053684733,0.81402856,-0.046120327,0.024740042,0.017104227,124.45922,46.718662,-42.421352,STD
11228554624000,2.489987,-6.8814163980002,-6.82615566079992,0.81297474039996,-0.03390302,0.01863139,0.01282817,124.45465,46.720905,-42.419994,STD
11228559626000,2.494989,-6.90524644157795,-6.81662364336882,0.80820873168441,-0.04337143,0.01985312,0.00580322,124.45407,46.725243,-42.41843,STD
11228564601000,2.499964,-6.92014236401062,-6.80862358744282,0.806396232563081,-0.041233405,0.027183503,0.0106901415,124.45369,46.72657,-42.418713,STD
11228569617000,2.50498,-6.90124032629482,-6.80626085431607,0.815847273625498,-0.04886922,0.017715093,0.00580322,124.44854,46.733356,-42.413734,STD
11228574581000,2.509944,-6.88253424271802,-6.8039226152329,0.825200337388225,-0.049785517,0.02107485,0.0076358155,124.44939,46.732944,-42.41641,STD
11228579624000,2.514987,-6.86353045958389,-6.80154716404505,0.834702251279327,-0.034513887,0.021685716,0.0061086523,124.44622,46.73425,-42.416306,STD
11228584590000,2.519953,-6.84356393002915,-6.79889081049563,0.842116823906706,-0.042455133,0.031154128,0.003970624,124.447754,46.7363,-42.417202,STD
11228589616000,2.524979,-6.81549794499514,-6.7942130649174,0.837439176015549,-0.05009095,0.00580322,0.010079277,124.43586,46.735542,-42.41849,STD
11228594617000,2.52998,-6.79037426521428,-6.79037426521428,0.833600456479493,-0.048563786,0.021380283,0.014966198,124.44077,46.741344,-42.413414,STD
11228599616000,2.534979,-6.7952710048072,-6.7952710048072,0.838497093812008,-0.037873644,0.023518313,0.011301007,124.43132,46.747414,-42.406204,STD
11228605407000,2.54077,-6.80348180519233,-6.79821669953231,0.849340373141166,-0.04062254,0.025045475,0.015271631,124.429,46.753124,-42.400936,STD
11228609621000,2.544984,-6.81503754483154,-6.79436469246922,0.868600030375107,-0.04153884,0.02107485,0.017104227,124.425934,46.75956,-42.394176,STD
11228614870000,2.550233,-6.82925636674456,-6.79015461749671,0.89064306,-0.046731193,0.02076942,0.016187929,124.4241,46.765484,-42.388397,STD
11228619622000,2.554985,-6.84033395634584,-6.79237018168541,0.89064306,-0.04428773,0.02107485,0.011911872,124.42129,46.771248,-42.38231,STD
11228624983000,2.560346,-6.85283121178618,-6.79486968497152,0.89064306,-0.03756821,0.019547688,0.02076942,124.41767,46.762264,-42.39163,STD
11228629628000,2.564991,-6.86365936913003,-6.79703536166691,0.89064306,-0.030543262,0.013744468,0.022907447,124.413284,46.756287,-42.397602,STD
11228634562000,2.569925,-6.87516122668322,-6.79933578121805,0.89064306,-0.035430185,0.01863139,0.028099801,124.411964,46.745632,-42.40966,STD
11228639614000,2.574977,-6.89156680376646,-6.80834408586335,0.897251406599255,-0.036957346,0.01863139,0.019242255,124.40737,46.737995,-42.417652,STD
11228644555000,2.579918,-6.90802560007453,-6.81774904919255,0.904305163468323,-0.027488936,0.015882496,0.019242255,124.40269,46.726322,-42.429455,STD
11228649621000,2.584984,-6.92490077961242,-6.82739194419876,0.911537369964721,-0.02687807,0.007330383,0.023518313,124.395256,46.714592,-42.441494,STD
11228654510000,2.589873,-6.94118636049689,-6.83669792795031,0.91851689178882,-0.03634648,0.0012217305,0.02687807,124.387794,46.70336,-42.453045,STD
11228659620000,2.594983,-6.93497525266109,-6.82347300109295,0.917321020666223,-0.03390302,-0.0036651916,0.023823744,124.37776,46.692314,-42.46343,STD
11228664511000,2.599874,-6.92607195460464,-6.80789229340905,0.915095204286733,-0.024740042,0.009162978,0.022296581,124.37196,46.68022,-42.475536,STD
11228669618000,2.604981,-6.9167754624406,-6.79162349885953,0.912771089739593,-0.034513887,0.019547688,0.025045475,124.36053,46.66647,-42.489307,STD
11228675259000,2.610622,-6.90650690706615,-6.77365360067003,0.910203960277989,-0.03726278,0.012217305,0.03145956,124.34717,46.65155,-42.503216,STD
11228679621000,2.614984,-6.90658583692767,-6.76909436307233,0.906380386144665,-0.03634648,0.013133603,0.027488936,124.341484,46.639366,-42.51555,STD
11228684510000,2.619873,-6.90899457111843,-6.76668562888157,0.901562917763144,-0.03481932,0.019242255,0.024740042,124.33454,46.625443,-42.529617,STD
11228689620000,2.624983,-6.91151218856878,-6.76416801143122,0.896527682862434,-0.040927973,0.018020526,0.029932396,124.32847,46.608437,-42.546043,STD
11228694524000,2.629887,-6.91392831302603,-6.76175188697397,0.891695433947937,-0.032986723,0.021685716,0.03481932,124.32677,46.591835,-42.561806,STD
11228699625000,2.634988,-6.90869926697462,-6.76506250866239,0.904071898331098,-0.042760566,0.022296581,0.028710667,124.32378,46.57842,-42.57539,STD
11228704557000,2.63992,-6.90166112929022,-6.7697545841206,0.920494172233646,-0.04428773,0.016798794,0.029321533,124.319046,46.561317,-42.59174,STD
11228709682000,2.645045,-6.89434757380917,-6.77463027080415,0.937559085808374,-0.03848451,0.011301007,0.025961773,124.316376,46.547054,-42.605705,STD
11228714562000,2.649925,-6.88738364195599,-6.77927287588039,0.95380821327075,-0.048258353,0.014966198,0.026267206,124.31479,46.532776,-42.620716,STD
11228719619000,2.654982,-6.885724,-6.7822291769681,0.939181717838186,-0.046731193,0.012217305,0.028099801,124.30373,46.52115,-42.63186,STD
11228724592000,2.659955,-6.885724,-6.78459164182747,0.9155567978868,-0.05222898,0.005192355,0.026267206,124.29275,46.51149,-42.641827,STD
11228729616000,2.664979,-6.885724,-6.78697833465946,0.891689595426361,-0.050396383,0.0021380284,0.029932396,124.27687,46.500053,-42.652042,STD
11228734603000,2.669966,-6.885724,-6.78934745033484,0.86799816655092,-0.043066,0.004276057,0.020158553,124.26154,46.493004,-42.65779,STD
11228739618000,2.674981,-6.87526694373721,-6.79692743150405,0.875855412051857,-0.049785517,0.0012217305,0.025350908,124.24795,46.477642,-42.672184,STD
11228745090000,2.680453,-6.85994262347207,-6.80714373391169,0.896287942193196,-0.053145275,0.0018325958,0.02076942,124.23796,46.467438,-42.68117,STD
11228749622000,2.684985,-6.86361947054788,-6.79917104417818,0.890281183422492,-0.051618114,0.004276057,0.022907447,124.2366,46.45758,-42.691753,STD
11228754639000,2.690002,-6.87317436874814,-6.7848386968778,0.875948806190713,-0.057726767,0.010079277,0.028099801,124.23688,46.448837,-42.701942,STD
11228759622000,2.694985,-6.88940316392962,-6.79032119794721,0.858233536070381,-0.05681047,0.01160644,0.023823744,124.232956,46.443935,-42.707363,STD
11228764616000,2.699979,-6.90874851298412,-6.80483020973809,0.838888187015876,-0.05100725,0.012217305,0.025045475,124.23026,46.436195,-42.71589,STD
11228769617000,2.70498,-6.91771105653012,-6.81073798676626,0.842951930799036,-0.0571159,0.011911872,0.028405234,124.22911,46.427975,-42.725815,STD
11228774630000,2.709993,-6.92233835751807,-6.81305164933976,0.856833920735422,-0.052839845,0.004581489,0.02443461,124.22585,46.420807,-42.733532,STD
11228779633000,2.714996,-6.92695642790362,-6.81536069658795,0.870688218691084,-0.04734206,0.016798794,0.025350908,124.228485,46.417095,-42.738964,STD
11228784637000,2.72,-6.9315754213494,-6.81767020536867,0.884545285844819,-0.0421497,0.023823744,0.02321288,124.226875,46.41512,-42.741844,STD
11228789627000,2.72499,-6.92700069527345,-6.82132940809206,0.88800012983024,-0.038789943,0.0143553335,0.02321288,124.223434,46.41209,-42.74537,STD
11228794634000,2.729997,-6.91513456372185,-6.8260758359317,0.883253662341005,-0.0421497,0.023518313,0.018020526,124.23034,46.41122,-42.748005,STD
11228799624000,2.734987,-6.90330872061371,-6.8308061484781,0.878523310279634,-0.049785517,0.015882496,0.020463986,124.22008,46.408176,-42.74981,STD
11228804631000,2.739994,-6.89144258906211,-6.83555257631774,0.873776842790398,-0.040317107,0.01985312,0.016798794,124.21865,46.407555,-42.74951,STD
11228809626000,2.744989,-6.88816947561687,-6.83661728134303,0.870266668575384,-0.038789943,0.016798794,0.021380283,124.21107,46.40461,-42.751663,STD
11228814832000,2.750195,-6.89310020608218,-6.83415195472482,0.867801316214212,-0.038789943,0.021380283,0.014049901,124.20911,46.40558,-42.750084,STD
11228819620000,2.754983,-6.89763503848094,-6.83188457403946,0.865533911852841,-0.043066,0.01740966,0.016187929,124.20625,46.40704,-42.747967,STD
11228824629000,2.759992,-6.9023791854077,-6.82951253772932,0.863161850773871,-0.03359759,0.021685716,0.017715093,124.20893,46.40985,-42.744446,STD
11228829622000,2.764985,-6.90711081688697,-6.82379705456706,0.856329803118966,-0.039095376,0.013133603,0.014049901,124.20648,46.411095,-42.7439,STD
11228834632000,2.769995,-6.91186152414971,-6.81429561523838,0.844453025040844,-0.04153884,0.014049901,0.018936822,124.20867,46.40882,-42.74689,STD
11228839569000,2.774932,-6.91654300953017,-6.80493262003565,0.832749301812961,-0.039095376,0.020463986,0.016187929,124.21056,46.408432,-42.747982,STD
11228844629000,2.779992,-6.92134112904104,-6.79533635596317,0.820753993015496,-0.04337143,0.02076942,0.016798794,124.20996,46.406155,-42.75117,STD
11228849542000,2.784905,-6.92304780077665,-6.7919230087163,0.811078063356913,-0.036957346,0.032070424,0.012217305,124.21228,46.40926,-42.748596,STD
11228854630000,2.789993,-6.92063737493446,-6.79674388557012,0.803846788347267,-0.05009095,0.019547688,0.014660766,124.20518,46.41125,-42.74723,STD
11228859506000,2.794869,-6.91832738350235,-6.80136389255503,0.796916816463022,-0.0580322,0.017104227,0.014049901,124.20946,46.412975,-42.747242,STD
11228864631000,2.799994,-6.91589942901311,-6.80621982688598,0.789632955530547,-0.047647487,0.02076942,0.015577064,124.21106,46.413036,-42.748325,STD
11228869516000,2.804879,-6.91105868623188,-6.80741180198068,0.79039191547343,-0.048258353,0.029321533,0.0125227375,124.21401,46.41537,-42.748165,STD
11228874587000,2.80995,-6.90167439652174,-6.80271968162319,0.804468418631884,-0.051923547,0.02321288,0.015577064,124.21228,46.41509,-42.74971,STD
11228879545000,2.814908,-6.89245547926602,-6.80237849102149,0.816874071820233,-0.060170226,0.016187929,0.007941248,124.21249,46.424385,-42.743095,STD
11228884661000,2.820024,-6.88284010008831,-6.81199376979688,0.826489420877245,-0.059253927,0.01282817,0.007330383,124.21121,46.430305,-42.739418,STD
11228889575000,2.824938,-6.87872205967213,-6.82383599245902,0.838331692459016,-0.055588737,0.009162978,0.0125227375,124.20469,46.43631,-42.734974,STD
11228894664000,2.830027,-6.8884064292002,-6.84320463039245,0.857700330392449,-0.060170226,0.006414085,0.020158553,124.19735,46.44181,-42.731255,STD
11228899591000,2.834954,-6.8977334273471,-6.8545612472536,0.873921847666537,-0.051923547,0.012217305,0.017715093,124.19183,46.44906,-42.724922,STD
11228904666000,2.840029,-6.90720012120179,-6.84509445454811,0.88338862060187,-0.051923547,0.018936822,0.01863139,124.18519,46.453556,-42.721878,STD
11228909606000,2.844969,-6.91345149409567,-6.83432946624315,0.888135529005481,-0.053145275,0.019242255,0.015882496,124.17439,46.460804,-42.71486,STD
11228914661000,2.850024,-6.90862733153961,-6.81744483432985,0.876075044536124,-0.052839845,0.018325957,0.02076942,124.16545,46.465256,-42.710823,STD
11228919620000,2.854983,-6.90389478512706,-6.8008808601146,0.864243601908321,-0.043676864,0.024129177,0.024129177,124.15864,46.4652,-42.71125,STD
11228924662000,2.860025,-6.89908302892377,-6.78403965059791,0.852214133521674,-0.046731193,0.025045475,0.021685716,124.14988,46.465862,-42.71127,STD
11228930424000,2.865787,-6.89375814847318,-6.77388812250381,0.844301819306886,-0.055588737,0.025045475,0.02076942,124.14257,46.46663,-42.71054,STD
11228934661000,2.870024,-6.89012442867377,-6.78115537239187,0.847935463221993,-0.05009095,0.02321288,0.015577064,124.13556,46.46859,-42.70803,STD
11228940075000,2.875438,-6.88534242148958,-6.78982880804862,0.852208606720481,-0.050701816,0.028405234,0.02107485,124.13327,46.46713,-42.71063,STD
11228944666000,2.880029,-6.87915222028346,-6.78776542201051,0.850145199136475,-0.050701816,0.024129177,0.015882496,124.1278,46.469692,-42.708366,STD
11228949539000,2.884902,-6.87258178890088,-6.78557529346255,0.847955047719167,-0.050701816,0.025961773,0.022296581,124.12222,46.47098,-42.707813,STD
11228954660000,2.890023,-6.86567697069645,-6.78327370341656,0.845653433639947,-0.044898596,0.023823744,0.02443461,124.1143,46.47438,-42.704468,STD
11228959536000,2.894899,-6.859102494312,-6.78108222654402,0.843461933883987,-0.050396383,0.017715093,0.020158553,124.10578,46.478153,-42.701214,STD
11228964641000,2.900004,-6.86146737004057,-6.7781424708189,0.838285336966459,-0.05497787,0.020158553,0.017104227,124.10602,46.476894,-42.7028,STD
11228969606000,2.904969,-6.86774010987434,-6.77500610908941,0.832012606957554,-0.04337143,0.010079277,0.009773844,124.09974,46.477432,-42.7012,STD
11228974603000,2.909966,-6.8740532782428,-6.77184953314534,0.825699448477293,-0.04428773,0.01038471,0.018020526,124.09898,46.476467,-42.70275,STD
11228979601000,2.914964,-6.88036771000297,-6.76869232550707,0.819385026607302,-0.04184427,0.014660766,0.015882496,124.09717,46.479572,-42.69923,STD
11228984650000,2.920013,-6.88674657474028,-6.76550290146433,0.813006171861086,-0.040011674,0.01160644,0.021380283,124.094345,46.474934,-42.70396,STD
11228989640000,2.925003,-6.89305089936678,-6.7623507473797,0.806701857108934,-0.04795292,0.010079277,0.01282817,124.094795,46.47522,-42.704395,STD
11228994656000,2.930019,-6.8922202950082,-6.76738709389947,0.812153488702829,-0.052534413,0.01282817,0.014660766,124.09476,46.470795,-42.70935,STD
11229000298000,2.935661,-6.88684739313379,-6.77813286959678,0.825585684480684,-0.058643065,0.01160644,0.015577064,124.09328,46.469463,-42.711426,STD
11229004654000,2.940017,-6.88269915482027,-6.7864293245662,0.835956234783473,-0.056505036,0.012217305,0.014966198,124.09556,46.4659,-42.71631,STD
11229009663000,2.945026,-6.8779290616815,-6.79596948593944,0.847881415331378,-0.051618114,0.012217305,0.024740042,124.09642,46.459335,-42.72424,STD
11229014651000,2.950014,-6.88023012378043,-6.80361580956962,0.850974858739856,-0.040927973,0.015882496,0.022907447,124.099686,46.455856,-42.72885,STD
11229019647000,2.95501,-6.88677416856934,-6.81015983158111,0.848793510476885,-0.043982297,0.017715093,0.026267206,124.10126,46.4487,-42.737476,STD
11229024588000,2.959951,-6.89324617123188,-6.81663181171697,0.846636176256041,-0.040011674,0.018325957,0.027183503,124.10583,46.441807,-42.74396,STD
11229029653000,2.965016,-6.89988059614297,-6.82326621353606,0.844424701285675,-0.03756821,0.021991149,0.026267206,124.1121,46.434868,-42.75097,STD
11229034684000,2.970047,-6.9048777,-6.82595601995641,0.841605360580514,-0.040317107,0.020158553,0.027488936,124.11719,46.426697,-42.75904,STD
11229039658000,2.975021,-6.9048777,-6.81651818201496,0.836886444073505,-0.04642576,0.013133603,0.020463986,124.12216,46.42136,-42.764275,STD
11229044640000,2.980003,-6.9048777,-6.80706516459953,0.832159937833474,-0.047036625,0.006414085,0.017715093,124.13081,46.41318,-42.772236,STD
11229049667000,2.98503,-6.9048777,-6.79752676264302,0.827390739345188,-0.040317107,0.016798794,0.023518313,124.14308,46.404682,-42.780945,STD
11229054652000,2.990015,-6.90392757371622,-6.78710560130621,0.820754952377106,-0.046731193,0.015577064,0.011301007,124.14954,46.402843,-42.78284,STD
11229059655000,2.995018,-6.89915020507528,-6.77277339561272,0.806422701786818,-0.030848695,0.014966198,0.009773844,124.15899,46.39511,-42.78974,STD
11229064619000,2.999982,-6.89471772426072,-6.76151733634702,0.795749878736536,-0.042760566,0.0143553335,0.019547688,124.172165,46.382713,-42.804337,STD
11229070314000,3.005677,-6.89115742915334,-6.7632974746067,0.801090291656766,-0.041233405,0.02321288,0.01985312,124.18917,46.372276,-42.815926,STD
11229074605000,3.009968,-6.88847486088191,-6.76463875173967,0.805114121655134,-0.044593163,0.025350908,0.02107485,124.20428,46.359802,-42.830433,STD
11229079654000,3.015017,-6.88531842014492,-6.7662169638684,0.809848756393368,-0.0421497,0.017715093,0.0143553335,124.21912,46.349503,-42.842323,STD
11229084614000,3.019977,-6.88221761878713,-6.76776735645277,0.81449993252758,-0.03390302,0.017104227,0.016493361,124.236465,46.336624,-42.857044,STD
11229089654000,3.025017,-6.87906680450421,-6.76934275536915,0.819226127631699,-0.04184427,0.014049901,0.016493361,124.25016,46.32723,-42.868458,STD
11229094775000,3.030138,-6.87352195091683,-6.77211517911053,0.823167801819471,-0.043982297,0.02321288,0.007941248,124.26994,46.31891,-42.87837,STD
11229099653000,3.035016,-6.845126268372,-6.78631306980043,0.818435188062,-0.030543262,0.022296581,0.015271631,124.283356,46.306038,-42.891838,STD
11229104650000,3.040013,-6.81998259136427,-6.79866893758675,0.813164502549078,-0.033292156,0.03390302,0.01985312,124.303566,46.2982,-42.90169,STD
11229109650000,3.045013,-6.83422535360896,-6.7891737462324,0.803669365725758,-0.04337143,0.028099801,0.021991149,124.3161,46.288963,-42.9118,STD
11229114731000,3.050094,-6.84819856284004,-6.77920695369967,0.794093404303591,-0.050701816,0.027488936,0.01863139,124.338356,46.285244,-42.917583,STD
11229119659000,3.055022,-6.85675754434168,-6.7663684591041,0.785534391521581,-0.04917465,0.03634648,0.020463986,124.36119,46.279705,-42.92539,STD
11229124537000,3.0599,-6.86522968552775,-6.75366022520856,0.777062219372506,-0.04795292,0.032070424,0.022907447,124.378944,46.273468,-42.933804,STD
11229129654000,3.065017,-6.87537519292213,-6.75605132347651,0.784526125100508,-0.04520403,0.029626964,0.023823744,124.400375,46.267235,-42.9425,STD
11229135091000,3.070454,-6.88541962640855,-6.76092132640855,0.795788099991332,-0.04734206,0.035430185,0.021685716,124.42301,46.26161,-42.950912,STD
11229139957000,3.07532,-6.88093149945103,-6.75643319945103,0.809252616772609,-0.040317107,0.027488936,0.02321288,124.4351,46.256836,-42.95635,STD
11229144610000,3.079973,-6.87663983181162,-6.75214153181161,0.82212774965039,-0.052534413,0.027794369,0.026572637,124.450386,46.252254,-42.962914,STD
11229149658000,3.085021,-6.87831081653071,-6.76030311130574,0.830095986403083,-0.043066,0.027488936,0.02076942,124.46261,46.24857,-42.966805,STD
11229154583000,3.089946,-6.88067132138532,-6.76974518002102,0.837177584771533,-0.048563786,0.03023783,0.016187929,124.47565,46.245056,-42.971977,STD
11229159652000,3.095015,-6.88310084404684,-6.77946332140534,0.84446623901106,-0.049480084,0.018936822,0.026267206,124.471146,46.24288,-42.973835,STD
11229164537000,3.0999,-6.88544217728842,-6.7888287032681,0.851490321859767,-0.046731193,0.02321288,0.018936822,124.47514,46.246872,-42.970448,STD
11229169655000,3.105018,-6.88988744822457,-6.79828287471209,0.846090651573896,-0.032986723,0.02443461,0.015882496,124.472824,46.24624,-42.970562,STD
11229174533000,3.109896,-6.8943707375048,-6.80724942986564,0.839365743401152,-0.04184427,0.028405234,0.020463986,124.47328,46.24635,-42.971222,STD
11229179650000,3.115013,-6.89907368773992,-6.81665530578215,0.832311345057582,-0.05100725,0.020158553,0.014049901,124.4697,46.248898,-42.96842,STD
11229184543000,3.119906,-6.90357076327255,-6.82564943336852,0.825565757585413,-0.05681047,0.014049901,0.017715093,124.46759,46.24751,-42.970108,STD
11229189666000,3.125029,-6.90127201110376,-6.82105194103255,0.818196856775687,-0.042455133,0.02321288,0.015271631,124.47034,46.245014,-42.9741,STD
11229194535000,3.129898,-6.89652840147508,-6.8115647465412,0.811081481958291,-0.044593163,0.018325957,0.018020526,124.464806,46.241096,-42.979614,STD
11229199658000,3.135021,-6.89153733305697,-6.80158263576297,0.803594921023906,-0.05222898,0.022907447,0.016493361,124.46765,46.243626,-42.97926,STD
11229204534000,3.139897,-6.88678690369786,-6.79208180184639,0.796469316667853,-0.05955936,0.015271631,0.010995574,124.46404,46.24647,-42.977867,STD
11229209665000,3.145028,-6.88956634311535,-6.78803485853319,0.798717291048711,-0.051923547,0.02565634,0.014049901,124.46877,46.24687,-42.97955,STD
11229214533000,3.149896,-6.89419617635434,-6.78571997817171,0.803347097698495,-0.051923547,0.01740966,0.014966198,124.463905,46.24995,-42.978016,STD
11229219651000,3.155014,-6.89906377835046,-6.78328621529371,0.808214671739908,-0.048563786,0.029932396,0.015577064,124.470375,46.25284,-42.97789,STD
11229224590000,3.159953,-6.90376113791648,-6.78093757229753,0.812912004328914,-0.0421497,0.02443461,0.016798794,124.4667,46.254967,-42.977127,STD
11229229654000,3.165017,-6.90395238050174,-6.77852864167909,0.821431202945852,-0.048258353,0.018020526,0.017104227,124.467514,46.2575,-42.97687,STD
11229234586000,3.169949,-6.90277919907104,-6.77618225431694,0.830816764644809,-0.043676864,0.030848695,0.016187929,124.473694,46.259094,-42.97732,STD
11229239654000,3.175017,-6.9015736671386,-6.77377116527571,0.840461133397914,-0.046731193,0.040927973,0.022296581,124.468376,46.25795,-42.981148,STD
11229244618000,3.179981,-6.90039287382514,-6.77140955398907,0.849907590874317,-0.04520403,0.029626964,0.015577064,124.460686,46.26013,-42.98075,STD
11229249648000,3.185011,-6.89919638100348,-6.76901654335817,0.859479645891704,-0.049785517,0.020158553,0.01985312,124.4566,46.257885,-42.985676,STD
11229254612000,3.189975,-6.89801558769001,-6.76665493207153,0.868926103368107,-0.03573562,0.03023783,0.020158553,124.45647,46.257587,-42.98799,STD
11229259654000,3.195017,-6.89681624041232,-6.76425621246895,0.878520994302037,-0.03604105,0.029626964,0.02107485,124.4484,46.2567,-42.990826,STD
11229264635000,3.199998,-6.89563140328614,-6.76188651347243,0.887999802660209,-0.040317107,0.025045475,0.014660766,124.44324,46.257256,-42.991955,STD
11229269658000,3.205021,-6.90559541039243,-6.75779425375666,0.883780074352199,-0.04062254,0.016798794,0.016798794,124.43595,46.254917,-42.99557,STD
11229274648000,3.210011,-6.9197311032538,-6.75308238893709,0.874356216789588,-0.03390302,0.015882496,0.019242255,124.43024,46.25406,-42.99765,STD
11229279662000,3.215025,-6.92736171555755,-6.75331418169701,0.864828603660599,-0.03970624,0.022602014,0.021380283,124.41629,46.25038,-43.001637,STD
11229284651000,3.220014,-6.93211441670646,-6.75569049505123,0.855323250989754,-0.032375857,0.016187929,0.022296581,124.397156,46.24536,-43.0054,STD
11229289678000,3.225041,-6.93690331802447,-6.75808490820651,0.845745498358699,-0.032070424,0.021380283,0.022296581,124.38608,46.239105,-43.01207,STD
11229294657000,3.23002,-6.94164649281309,-6.76045645845519,0.836259198308963,-0.043982297,0.007941248,0.018325957,124.36575,46.233955,-43.01674,STD
11229299650000,3.235013,-6.9480066720787,-6.76283293521463,0.828360487643084,-0.035124753,0.015577064,0.015577064,124.367775,46.218834,-43.032135,STD
11229304656000,3.240019,-6.95515211033386,-6.7652147645469,0.821214989697933,-0.03848451,0.016798794,0.0143553335,124.36228,46.205837,-43.045635,STD
11229309652000,3.245015,-6.96228327484102,-6.76759183593005,0.814083765620032,-0.047036625,0.018020526,0.011301007,124.363655,46.19489,-43.057945,STD
11229314651000,3.250014,-6.96941872147258,-6.76997033469793,0.806948259381955,-0.054367006,0.018020526,0.018020526,124.36442,46.181904,-43.07236,STD
11229319650000,3.255013,-6.96887628181996,-6.76776358181996,0.798373926813122,-0.046120327,0.016798794,0.01985312,124.36679,46.169785,-43.085747,STD
11229325276000,3.260639,-6.96361568068737,-6.76250298068737,0.787852730041008,-0.048563786,0.022907447,0.021685716,124.37144,46.156937,-43.100983,STD
11229329656000,3.265019,-6.94808295999605,-6.75837463581588,0.793851448887791,-0.04734206,0.01740966,0.01863139,124.37368,46.14457,-43.11505,STD
11229334653000,3.270016,-6.92444844317463,-6.75364777193797,0.808032183659621,-0.04917465,0.018020526,0.017715093,124.38017,46.131702,-43.13035,STD
11229339652000,3.275015,-6.90890571451516,-6.75997219271231,0.830675014952821,-0.042455133,0.026267206,0.01740966,124.3927,46.118282,-43.145912,STD
11229344651000,3.280014,-6.89929435670548,-6.77438925451716,0.859509258996186,-0.038179077,0.013133603,0.018936822,124.39683,46.105152,-43.160393,STD
11229349660000,3.285023,-6.89795095134013,-6.77772932098905,0.876789374624387,-0.0290161,0.027794369,0.022907447,124.412506,46.092415,-43.175014,STD
11229354652000,3.290015,-6.90246273752359,-6.77321748769347,0.885813069482824,-0.04642576,0.02076942,0.023823744,124.414604,46.08145,-43.18734,STD
11229359697000,3.29506,-6.90037975540821,-6.77305146055418,0.883896164247402,-0.03359759,0.018020526,0.027183503,124.41571,46.07043,-43.197777,STD
11229364651000,3.300014,-6.89098960896586,-6.77774650926274,0.869810988706581,-0.034208454,0.015271631,0.022907447,124.41445,46.06295,-43.205788,STD
11229369594000,3.304957,-6.88264793553731,-6.77935394161021,0.859861883220414,-0.029932396,0.01160644,0.022907447,124.408775,46.051105,-43.216774,STD
11229374608000,3.309971,-6.87552396915583,-6.77697927788438,0.855112555768755,-0.0290161,0.018020526,0.023518313,124.40618,46.040688,-43.22685,STD
11229379567000,3.31493,-6.86847814759903,-6.77463066252411,0.850415325048217,-0.03756821,0.006414085,0.024129177,124.39913,46.035126,-43.23109,STD
11229384655000,3.320018,-6.86124904090797,-6.77222095190643,0.845595903812868,-0.034513887,0.004276057,0.020463986,124.39848,46.030113,-43.234936,STD
11229389529000,3.324892,-6.86230136234392,-6.77257172693934,0.839220538731688,-0.03268129,0.005497787,0.018020526,124.394615,46.02511,-43.238903,STD
11229395221000,3.330584,-6.87837970936978,-6.7779311946023,0.828501581020549,-0.043676864,0.0015271631,0.01985312,124.387955,46.020412,-43.24273,STD
11229399530000,3.334893,-6.88892753036798,-6.7787775431787,0.828410637154042,-0.03268129,0.004276057,0.020463986,124.39091,46.015816,-43.245693,STD
11229404656000,3.340019,-6.89853624696614,-6.77397320996281,0.842823656868272,-0.04184427,0.004276057,0.020463986,124.3912,46.01238,-43.248695,STD
11229409531000,3.344894,-6.9061925601822,-6.7721173601822,0.84444663478789,-0.03634648,-0.00061086525,0.01863139,124.3888,46.00936,-43.250553,STD
11229414664000,3.350027,-6.91071613747124,-6.77664093747124,0.817305156883224,-0.04184427,0.008552114,0.025350908,124.391396,46.00488,-43.25547,STD
11229419573000,3.354936,-6.91379975499692,-6.78070667079233,0.795529718079643,-0.029626964,0.01160644,0.024740042,124.38063,46.00056,-43.259117,STD
11229424656000,3.360019,-6.90881014652521,-6.78320146200287,0.800519349996925,-0.03848451,0.007330383,0.026572637,124.37017,45.994938,-43.26538,STD
11229429577000,3.36494,-6.90397956157749,-6.78561674186654,0.805349957642989,-0.04428773,0.009468411,0.027183503,124.36946,45.99088,-43.270844,STD
11229434657000,3.37002,-6.89899289798585,-6.78811006064473,0.810336644666359,-0.03359759,0.019242255,0.018936822,124.37056,45.988476,-43.27441,STD
11229439591000,3.374954,-6.89307827640483,-6.79440143558567,0.817362632627622,-0.031154128,0.01282817,0.015577064,124.36196,45.986607,-43.277824,STD
11229444659000,3.380022,-6.88347489773447,-6.81360814278789,0.831767645480807,-0.044898596,0.01282817,0.02076942,124.35969,45.98485,-43.282043,STD
11229449624000,3.384987,-6.87823347821645,-6.82722021633766,0.84484516732467,-0.04550946,0.0033597588,0.019242255,124.34737,45.98885,-43.27853,STD
11229454654000,3.390017,-6.88779037842476,-6.82244179118143,0.854402017637139,-0.040317107,0.0018325958,0.02687807,124.33752,45.98897,-43.279575,STD
11229459657000,3.39502,-6.89130788325226,-6.81569165983322,0.865905712578179,-0.03604105,0.008857546,0.021991149,124.3276,45.99518,-43.274216,STD
11229465045000,3.400408,-6.87081748988385,-6.80032385143453,0.886396084550779,-0.03940081,0.007941248,0.014049901,124.31409,45.99999,-43.269936,STD
11229469620000,3.404983,-6.85876788515964,-6.78906891436736,0.897115041296807,-0.038179077,0.0061086523,0.017104227,124.30682,45.995003,-43.2754,STD
11229474607000,3.40997,-6.86818050366082,-6.78436264197379,0.880642987176784,-0.040011674,0.003970624,0.011911872,124.3002,45.99485,-43.276237,STD
11229479628000,3.414991,-6.87765729481671,-6.77962428350414,0.864058631103666,-0.046120327,0.005192355,0.013744468,124.2897,45.99127,-43.279953,STD
11229484653000,3.420016,-6.88714163569669,-6.77488215020201,0.847461063036066,-0.043676864,0.0076358155,0.017104227,124.27932,45.988342,-43.282658,STD
11229489611000,3.424974,-6.895301,-6.77119226037494,0.83357196240987,-0.0421497,0.016798794,0.019547688,124.26848,45.98774,-43.283653,STD
11229494658000,3.430021,-6.895301,-6.77429008811088,0.8366698063195,-0.043676864,0.015271631,0.022602014,124.2545,45.985928,-43.28551,STD
11229499774000,3.435137,-6.895301,-6.77743026776158,0.839810002365005,-0.05009095,0.017104227,0.021991149,124.25057,45.983433,-43.28979,STD
11229504647000,3.44001,-6.895301,-6.78042129501682,0.84280104523634,-0.042760566,0.017715093,0.015882496,124.24583,45.98108,-43.29319,STD
11229509740000,3.445103,-6.895301,-6.7835473573626,0.845927123903221,-0.042760566,0.01740966,0.022602014,124.24078,45.975918,-43.300022,STD
11229514657000,3.45002,-6.895301,-6.78656539163596,0.848945173933665,-0.043066,0.013133603,0.019547688,124.23547,45.974884,-43.30221,STD
11229519531000,3.454894,-6.895301,-6.78955703268707,0.85193683060407,-0.03940081,0.0106901415,0.0143553335,124.23927,45.96855,-43.309006,STD
11229524654000,3.460017,-6.83485766026003,-6.78132128870188,0.839383647397702,-0.041233405,0.01282817,0.019242255,124.24269,45.960636,-43.31765,STD
11229529531000,3.464894,-6.76895509645233,-6.77190669290466,0.825261660310421,-0.04428773,0.014660766,0.015882496,124.24581,45.95652,-43.322266,STD
11229534684000,3.470047,-6.83067668771149,-6.77514318673197,0.814923986536064,-0.046731193,0.0143553335,0.01863139,124.24957,45.947834,-43.3315,STD
11229539534000,3.474897,-6.90420589321262,-6.77973876207579,0.805732835848422,-0.054061573,0.009773844,0.013133603,124.25297,45.94297,-43.337162,STD
11229544652000,3.480015,-6.91032999490014,-6.77934817372503,0.807545143131666,-0.038179077,0.004581489,0.01282817,124.26094,45.941925,-43.33866,STD
11229549535000,3.484898,-6.90579601056816,-6.77821467764204,0.810945636114989,-0.031154128,0.021685716,0.022296581,124.275406,45.940395,-43.34214,STD
11229554655000,3.490018,-6.90104196596859,-6.77702616649215,0.814511174528796,-0.040927973,0.02107485,0.020158553,124.279976,45.935307,-43.348305,STD
11229559545000,3.494908,-6.89650148196626,-6.77589104549156,0.81791654227167,-0.043982297,0.016493361,0.017104227,124.28889,45.927437,-43.357178,STD
11229564655000,3.500018,-6.89175672261005,-6.77470485565251,0.821475116743262,-0.03604105,0.015271631,0.021991149,124.29829,45.9181,-43.367558,STD
11229569548000,3.504911,-6.88721345303471,-6.77356903825868,0.8248825736688,-0.034208454,0.01740966,0.016187929,124.30785,45.913242,-43.373783,STD
11229574605000,3.509968,-6.8825179054683,-6.77239515136707,0.828404239246655,-0.03940081,0.010079277,0.015882496,124.31246,45.905636,-43.382236,STD
11229579569000,3.514932,-6.87790871066512,-6.77124285266628,0.831861140161916,-0.0290161,0.019242255,0.01160644,124.324715,45.900166,-43.38855,STD
11229584661000,3.520024,-6.87288561403902,-6.78058759194116,0.820135445938599,-0.035124753,0.020463986,0.014660766,124.33228,45.896008,-43.392597,STD
11229589599000,3.524962,-6.86784454822514,-6.79571084202111,0.799971166891589,-0.03756821,0.013744468,0.0125227375,124.340706,45.893955,-43.39399,STD
11229594661000,3.530024,-6.87019804240739,-6.79771918144801,0.807571440395273,-0.036957346,0.008552114,0.018325957,124.34711,45.88967,-43.397427,STD
11229599607000,3.53497,-6.87490224396663,-6.79536701926706,0.82403623918264,-0.035430185,0.015271631,0.013744468,124.35619,45.88902,-43.39757,STD
11229604664000,3.540027,-6.87971201899394,-6.79296206897408,0.840870547202801,-0.028710667,0.009773844,0.018020526,124.36477,45.88869,-43.396194,STD
11229609640000,3.545003,-6.88444475392293,-6.79059563973582,0.857435213350382,-0.03634648,0.013133603,0.01985312,124.37968,45.890877,-43.393646,STD
11229614740000,3.550103,-6.88266431238833,-6.79301578345954,0.855793160878074,-0.038179077,0.020463986,0.012217305,124.4,45.89085,-43.392593,STD
11229619663000,3.555026,-6.87865290303752,-6.79702731847188,0.84777025840211,-0.04428773,0.02076942,0.01038471,124.418144,45.88931,-43.393513,STD
11229624661000,3.560024,-6.87423074402123,-6.79761643401499,0.838925884039963,-0.051923547,0.018936822,0.008857546,124.43087,45.886555,-43.394817,STD
11229629656000,3.565019,-6.86925248239151,-6.79263814639401,0.828969350384015,-0.043676864,0.015271631,0.015882496,124.4424,45.88155,-43.397938,STD
11229634650000,3.570013,-6.86427521741076,-6.7876608554272,0.819014810028099,-0.0421497,0.01282817,0.017104227,124.45541,45.881523,-43.397186,STD
11229639654000,3.575017,-6.85928798594026,-6.78267359791862,0.80904033667187,-0.04184427,0.018936822,0.02076942,124.46958,45.878563,-43.399326,STD
11229644651000,3.580014,-6.85954782035296,-6.77867654717137,0.801897634313046,-0.035430185,0.015271631,0.02076942,124.479,45.876003,-43.400246,STD
11229650362000,3.585725,-6.86496028095992,-6.77506822754082,0.796485162402771,-0.045814894,0.02687807,0.018325957,124.49645,45.87396,-43.402416,STD
11229654654000,3.590017,-6.86902791901369,-6.77235645939964,0.792417515854198,-0.036957346,0.017104227,0.01160644,124.50513,45.876366,-43.39786,STD
11229659646000,3.595009,-6.87375896495134,-6.76920241779647,0.787686460036286,-0.038789943,0.019547688,0.025045475,124.52177,45.8747,-43.399467,STD
11229664652000,3.600015,-6.87850327904668,-6.76603953072406,0.782942136032987,-0.040317107,0.032986723,0.023518313,124.540085,45.87864,-43.39517,STD
11229669651000,3.605014,-6.88324095906317,-6.76288106638628,0.778204446122382,-0.04062254,0.03268129,0.018020526,124.55323,45.87994,-43.393097,STD
11229674610000,3.609973,-6.88130889834434,-6.7634332623534,0.791174336473835,-0.03848451,0.026572637,0.019242255,124.56876,45.879757,-43.392853,STD
11229679650000,3.615013,-6.87179538301961,-6.7681900448507,0.824471813954863,-0.032375857,0.013744468,0.022602014,124.58152,45.880337,-43.39141,STD
11229684616000,3.619979,-6.87178059019355,-6.77392856499678,0.844843036077422,-0.03573562,0.020158553,0.021685716,124.59428,45.887012,-43.384056,STD
11229689653000,3.625016,-6.88372018268898,-6.78109234542844,0.84961887307559,-0.032375857,0.02076942,0.019547688,124.5997,45.892273,-43.376793,STD
11229694568000,3.629931,-6.8953705891045,-6.78808261360824,0.8542790356418,-0.029932396,0.018325957,0.0125227375,124.59942,45.901367,-43.364304,STD
11229699654000,3.635017,-6.90742633010742,-6.79531608338696,0.859101332042968,-0.025961773,0.018936822,0.012217305,124.600464,45.90862,-43.35373,STD
11229704531000,3.639894,-6.91807716218221,-6.80134432163419,0.854667230242358,-0.032986723,0.019547688,0.013439035,124.601074,45.917458,-43.34199,STD
11229709654000,3.645017,-6.92778369898111,-6.80619756469483,0.8352540350183,-0.03145956,0.015271631,0.017715093,124.60004,45.92458,-43.33133,STD
11229714536000,3.649899,-6.93445653552877,-6.80317006648045,0.828696470394982,-0.031154128,0.0070249503,0.01282817,124.59638,45.932495,-43.319923,STD
11229720263000,3.655626,-6.93714434690777,-6.78435575167598,0.84482301311183,-0.031154128,0.009773844,0.019547688,124.59458,45.9356,-43.313705,STD
11229724528000,3.659891,-6.93914600842889,-6.77034439273743,0.856832739790258,-0.037873644,0.007330383,0.015577064,124.59182,45.944164,-43.302536,STD
11229729652000,3.665015,-6.94155081819073,-6.75351105083799,0.871261307082231,-0.03848451,0.01282817,0.017104227,124.59265,45.948734,-43.29567,STD
11229734564000,3.669927,-6.94183515075649,-6.742072,0.881741125326499,-0.047036625,0.018020526,0.0143553335,124.59313,45.956043,-43.28673,STD
11229739653000,3.675016,-6.93703138656054,-6.742072,0.884143009932483,-0.03726278,0.016798794,0.015271631,124.59306,45.960773,-43.27958,STD
11229744576000,3.679939,-6.9323843181509,-6.742072,0.886466546563501,-0.04642576,0.013744468,0.014049901,124.58793,45.9603,-43.27802,STD
11229749654000,3.685017,-6.92759093741067,-6.742072,0.888863239436203,-0.054061573,0.0143553335,0.014660766,124.58373,45.95845,-43.277515,STD
11229754586000,3.689949,-6.92127642765114,-6.742072,0.888439158668979,-0.05589417,0.013133603,0.012217305,124.57807,45.957867,-43.275764,STD
11229759654000,3.695017,-6.90925085222993,-6.742072,0.878818683263627,-0.05100725,0.021991149,0.02076942,124.57602,45.953964,-43.277946,STD
11229764600000,3.699963,-6.89751476382557,-6.742072,0.86942979783449,-0.054061573,0.019242255,0.014049901,124.56681,45.95493,-43.276344,STD
11229769656000,3.705019,-6.88551766253717,-6.742072,0.85983210177106,-0.040011674,0.014966198,0.011911872,124.559746,45.951126,-43.27882,STD
11229774640000,3.710003,-6.8766396692067,-6.74404150253341,0.853812923044061,-0.03970624,0.012217305,0.011911872,124.55266,45.949352,-43.280033,STD
11229779666000,3.715029,-6.87903063310317,-6.75360548295167,0.860985889632904,-0.043676864,0.013744468,0.0125227375,124.54586,45.94748,-43.280926,STD
11229784651000,3.720014,-6.881402092519,-6.76309144442899,0.868100342168794,-0.03359759,0.021380283,0.016798794,124.54536,45.947475,-43.28026,STD
11229790275000,3.725638,-6.88407753640157,-6.77379335964433,0.87612675762754,-0.04184427,0.014049901,0.016187929,124.54002,45.949596,-43.27794,STD
11229794639000,3.730002,-6.88551040649838,-6.78080649369427,0.880852604268037,-0.042455133,0.009162978,0.01740966,124.531845,45.952576,-43.274544,STD
11229799659000,3.735022,-6.88432298747499,-6.78318136893818,0.879665172845605,-0.042455133,0.018020526,0.02076942,124.52634,45.95525,-43.27213,STD
11229804628000,3.739991,-6.88314763187196,-6.78553211696347,0.878489804969496,-0.04734206,0.021380283,0.0125227375,124.51965,45.960026,-43.26687,STD
11229809655000,3.745018,-6.88195855708499,-6.7879103037864,0.877300717766196,-0.047036625,0.021991149,0.021685716,124.5142,45.95855,-43.26793,STD
11229814680000,3.750043,-6.88076995537333,-6.7902875444439,0.876112103643145,-0.040011674,0.015271631,0.014660766,124.51281,45.96231,-43.26308,STD
11229819651000,3.755014,-6.87959412669499,-6.79263923863462,0.874936262686788,-0.047647487,0.0143553335,0.02076942,124.51257,45.960415,-43.264904,STD
11229824805000,3.760168,-6.87837501162595,-6.79507750696273,0.873717134887742,-0.034208454,0.020463986,0.01740966,124.5136,45.961716,-43.26225,STD
11229829656000,3.765019,-6.8772275674661,-6.79737243122731,0.872569678746264,-0.048258353,0.016798794,0.01863139,124.50989,45.961597,-43.262238,STD
11229834679000,3.770042,-6.87534637917469,-6.80033391664374,0.869487096264099,-0.042760566,0.009773844,0.016798794,124.50774,45.961647,-43.260654,STD
11229839667000,3.77503,-6.86658542944521,-6.80909482063274,0.8475847036442,-0.040011674,0.008246681,0.018020526,124.50609,45.96121,-43.26048,STD
11229844534000,3.779897,-6.85803700475928,-6.81764320068776,0.826213624077029,-0.0421497,0.01038471,0.014660766,124.50566,45.964302,-43.256916,STD
11229849661000,3.785024,-6.86134574354887,-6.82303854354887,0.841013552372932,-0.04642576,0.010079277,0.012217305,124.50367,45.966633,-43.253952,STD
11229854530000,3.789893,-6.86602037404511,-6.82771317404511,0.859712093882707,-0.036957346,0.008857546,0.020158553,124.50182,45.966278,-43.253212,STD
11229859791000,3.795154,-6.88436344100862,-6.82381506474785,0.85301612949569,-0.04337143,0.0125227375,0.021380283,124.50844,45.9728,-43.24781,STD
11229864531000,3.799894,-6.90235374399089,-6.81931748900228,0.844020978004558,-0.04153884,0.0125227375,0.01863139,124.512924,45.977203,-43.24348,STD
11229869649000,3.805012,-6.90065959464886,-6.83555909758655,0.825886384795252,-0.037873644,0.0030543262,0.018020526,124.51802,45.971634,-43.25011,STD
11229874533000,3.809896,-6.89603322444115,-6.85406477165183,0.807380691406528,-0.038179077,0.014966198,0.015577064,124.53153,45.9676,-43.256245,STD
11229879654000,3.815017,-6.91545585304937,-6.8408698175605,0.816544688666021,-0.03481932,0.01863139,0.017715093,124.53834,45.96022,-43.264786,STD
11229884539000,3.819902,-6.93809993242982,-6.82275455405615,0.830131155210068,-0.038179077,0.0125227375,0.01282817,124.54635,45.956036,-43.270527,STD
11229889652000,3.825015,-6.93546663162753,-6.81096821222155,0.837041364037728,-0.032986723,0.01282817,0.01863139,124.56282,45.951622,-43.277256,STD
11229894534000,3.829897,-6.92608389397953,-6.80158557254666,0.841732708368453,-0.035124753,0.014966198,0.012217305,124.57846,45.95261,-43.278835,STD
11229899651000,3.835014,-6.90962960476323,-6.80313337681523,0.846359414410399,-0.03726278,0.01282817,0.01282817,124.584984,45.946938,-43.284943,STD
11229904543000,3.839906,-6.8922294829805,-6.80748335048282,0.850709433500464,-0.03176499,0.017715093,0.020158553,124.59491,45.941,-43.291462,STD
11229909657000,3.84502,-6.88237831676061,-6.80576401676061,0.865718693661597,-0.03970624,0.022907447,0.019242255,124.601906,45.935883,-43.298702,STD
11229914568000,3.849931,-6.87737659670318,-6.80076229670318,0.885725814140168,-0.03970624,0.020158553,0.021991149,124.60688,45.927223,-43.308662,STD
11229919653000,3.855016,-6.87799131403178,-6.79215684759682,0.892487093286991,-0.04428773,0.015577064,0.018325957,124.61386,45.92371,-43.31412,STD
11229924612000,3.859975,-6.88034935054121,-6.78272457844588,0.894845154419067,-0.039095376,0.017104227,0.020158553,124.62147,45.917553,-43.32186,STD
11229929657000,3.86502,-6.88274828060576,-6.77312873293942,0.897244109533267,-0.03390302,0.011911872,0.01863139,124.625,45.911194,-43.32834,STD
11229934610000,3.869973,-6.88510346407646,-6.76370787609235,0.899599317596822,-0.039095376,0.016798794,0.016798794,124.63281,45.90484,-43.33558,STD
11229939782000,3.875145,-6.88817696764034,-6.76367865483358,0.896540420065574,-0.041233405,0.01985312,0.014049901,124.63795,45.898952,-43.341656,STD
11229944625000,3.879988,-6.89124904477563,-6.76675071592979,0.891932318797814,-0.050396383,0.016187929,0.01740966,124.642,45.89259,-43.348705,STD
11229949655000,3.885018,-6.89443974227521,-6.76994139677099,0.887146287540984,-0.044593163,0.007330383,0.02107485,124.64245,45.88353,-43.35736,STD
11229954639000,3.890002,-6.89760126043385,-6.77310289842358,0.88240402515847,-0.040011674,0.0143553335,0.022907447,124.64747,45.87472,-43.366802,STD
11229959651000,3.895014,-6.90078053993045,-6.77628216132141,0.877635120852459,-0.0421497,0.025961773,0.020463986,124.65368,45.862442,-43.380505,STD
11229964680000,3.900043,-6.90397060309654,-6.77947220783242,0.872850041092896,-0.046120327,0.026572637,0.0143553335,124.65826,45.85092,-43.393112,STD
11229969649000,3.905012,-6.90711666252354,-6.78261827421305,0.869250437476466,-0.041233405,0.018020526,0.012217305,124.66343,45.839027,-43.405834,STD
11229975437000,3.9108,-6.91077846390421,-6.78628009471181,0.865588636095789,-0.048258353,0.015271631,0.013439035,124.67103,45.828957,-43.417736,STD
11229979652000,3.915015,-6.91344510053509,-6.78894674526507,0.862921999464905,-0.050701816,0.005192355,0.01863139,124.675316,45.8191,-43.4288,STD
11229984650000,3.920013,-6.91660710525186,-6.7921087664905,0.859759994748142,-0.033292156,0.0125227375,0.01282817,124.68572,45.811634,-43.43748,STD
11229989650000,3.925013,-6.91977037527663,-6.79527205303055,0.856596724723369,-0.03970624,0.0106901415,0.01282817,124.6878,45.802547,-43.44811,STD
11229994651000,3.930014,-6.92293427795541,-6.79843597222791,0.853432822044591,-0.045814894,0.007941248,0.014660766,124.69248,45.79398,-43.457657,STD
11229999656000,3.935019,-6.91469709148788,-6.79642152135479,0.849224386332936,-0.03970624,0.009162978,0.011301007,124.7026,45.783012,-43.46991,STD
11230004646000,3.940009,-6.90045750100318,-6.79167487554628,0.844477839650377,-0.04428773,0.012217305,0.009162978,124.711914,45.77232,-43.482586,STD
11230009793000,3.945156,-6.89213885487618,-6.78521282358756,0.839596864781771,-0.046120327,0.010079277,0.0143553335,124.71319,45.768208,-43.487446,STD
11230014652000,3.950015,-6.88753859644605,-6.77831249598636,0.834996620762197,-0.04917465,0.0125227375,0.014966198,124.71779,45.76629,-43.49071,STD
11230019602000,3.954965,-6.88285218376254,-6.7712829381296,0.830310222759132,-0.03756821,0.013133603,0.018020526,124.7229,45.761658,-43.496284,STD
11230024664000,3.960027,-6.87805973507489,-6.76409432765064,0.825517789084079,-0.05009095,0.013439035,0.015271631,124.72905,45.75984,-43.50037,STD
11230029655000,3.965018,-6.8831851630652,-6.75981814208469,0.833458382989017,-0.051618114,0.01740966,0.016187929,124.73632,45.755184,-43.5064,STD
11230034672000,3.970035,-6.89506969992085,-6.757441259533,0.850096759406352,-0.048563786,0.018325957,0.01740966,124.74258,45.75166,-43.51151,STD
11230039658000,3.975021,-6.90688080232512,-6.75507906371822,0.866632327438409,-0.058948494,0.017104227,0.017104227,124.74889,45.746933,-43.520084,STD
11230045384000,3.980747,-6.9204448561492,-6.7523662812803,0.885622031119026,-0.052839845,0.026572637,0.016187929,124.75953,45.74128,-43.529087,STD
11230049654000,3.985017,-6.9240313,-6.75621921100282,0.889990167649533,-0.04153884,0.023518313,0.01985312,124.76439,45.734806,-43.538425,STD
11230054654000,3.990017,-6.9240313,-6.76451059526048,0.88880567499629,-0.050396383,0.019242255,0.021685716,124.772385,45.729908,-43.547092,STD
11230059652000,3.995015,-6.9240313,-6.77279866296443,0.887621656140108,-0.050701816,0.02076942,0.013439035,124.77398,45.72023,-43.558533,STD
11230064653000,4.000016,-6.9240313,-6.78109170549894,0.886436926588334,-0.050701816,0.016798794,0.02076942,124.77058,45.70631,-43.57411,STD
11230069654000,4.005017,-6.9240313,-6.78938474803344,0.885252197036561,-0.04886922,0.022602014,0.021991149,124.77067,45.700348,-43.580982,STD
11230074624000,4.009987,-6.9240313,-6.79762638398555,0.884074811339237,-0.042760566,0.013744468,0.011911872,124.76376,45.69545,-43.585747,STD
11230079708000,4.015071,-6.9240313,-6.80605706349874,0.88287041920942,-0.049785517,0.011301007,0.015271631,124.76071,45.687084,-43.595016,STD
11230084651000,4.020014,-6.9240313,-6.81425392597586,0.881699429772424,-0.03940081,0.0106901415,0.015271631,124.75582,45.6815,-43.600113,STD
11230089642000,4.025005,-6.91963893308271,-6.81429415601504,0.878870016541353,-0.039095376,0.008552114,0.01863139,124.753494,45.671066,-43.611156,STD
11230094656000,4.030019,-6.91013792888801,-6.80479320142461,0.874119514444005,-0.04337143,0.007330383,0.013133603,124.7518,45.6631,-43.619473,STD
