timestamp,rel_time,acc_x,acc_y,acc_z,gyro_x,gyro_y,gyro_z,azimuth,pitch,roll,label
3400903641000,0,-0.944485611912495,-9.60740558907587,-1.40954071658919,-0.031154128,-0.012217305,0.010079277,346.16162,103.3139,-7.2454405,STD
3400908719000,0.005078,-0.946668637253756,-9.60692048775512,-1.40784280877841,-0.033292156,-0.008857546,0.0061086523,346.1643,103.238754,-7.1999598,STD
3400913614000,0.009973,-0.94877299114219,-9.60645286842368,-1.40620608984698,-0.03359759,-0.009162978,0.012217305,346.1662,103.16692,-7.1585417,STD
3400918624000,0.014983,-0.950926783375297,-9.60597426314267,-1.40453091888754,-0.035124753,-0.003970624,0.011301007,346.16968,103.096535,-7.1147485,STD
3400923632000,0.019991,-0.953079715811105,-9.60549584892165,-1.40285641665902,-0.03970624,0.0012217305,0.008552114,346.17303,103.02987,-7.073308,STD
3400929128000,0.025487,-0.955442438787782,-9.60497081606249,-1.40101874408555,-0.03970624,-0.0015271631,0.014966198,346.17578,102.96593,-7.035464,STD
3400933600000,0.029959,-0.957364945547553,-9.60454360591944,-1.39952346174411,-0.035124753,0.005192355,0.021991149,346.18222,102.90372,-6.997356,STD
3400938638000,0.034997,-0.959530774942841,-9.60406232579854,-1.39783892855176,-0.04428773,0.01282817,0.024129177,346.18793,102.847015,-6.9608264,STD
3400943622000,0.039981,-0.961673389811065,-9.60358620429743,-1.39617245109431,-0.046731193,0.019242255,0.01985312,346.19492,102.78963,-6.925184,STD
3400948603000,0.044962,-0.963814714983341,-9.60311036938631,-1.39450697673324,-0.037873644,-0.00061086525,0.013744468,346.19632,102.73356,-6.8916054,STD
3400953640000,0.049999,-0.965980114479979,-9.6026291847954,-1.39282277790635,-0.038789943,-0.004886922,0.015271631,346.20374,102.68265,-6.8588057,STD
3400958636000,0.054995,-0.968127888131995,-9.60215191693434,-1.39115228806336,-0.036957346,0.005192355,0.011301007,346.20874,102.62891,-6.82398,STD
3400963621000,0.05998,-0.970270932898869,-9.60167569990324,-1.38948547624045,-0.040317107,-0.007330383,0.01160644,346.2062,102.579216,-6.793103,STD
3400968627000,0.064986,-0.972423005537378,-9.60119747674221,-1.38781164274285,-0.032070424,-0.010079277,0.013744468,346.20895,102.52762,-6.761503,STD
3400973629000,0.069988,-0.97457335858129,-9.60071963570118,-1.3861391467071,-0.033292156,-0.0015271631,0.0143553335,346.21112,102.480484,-6.7304792,STD
3400978627000,0.074986,-0.976721992030605,-9.60024217678012,-1.38446798813319,-0.037873644,-0.011301007,0.009468411,346.207,102.433235,-6.7004204,STD
3400983606000,0.079965,-0.978862457405582,-9.599766532929,-1.38280318250304,-0.026267206,-0.0015271631,0.005497787,346.21075,102.38413,-6.6701384,STD
3400988646000,0.085005,-0.981029146598169,-9.5992850617481,-1.38111798057977,-0.029932396,-0.0027488936,0.004581489,346.20837,102.340965,-6.6412024,STD
3400993619000,0.089978,-0.98316703258125,-9.59880999107695,-1.37945518114239,-0.034208454,0.00030543262,0.0070249503,346.2098,102.29658,-6.612198,STD
3400999311000,0.09567,-0.985614015693195,-9.59826623433853,-1.37755197293857,-0.03359759,0.006414085,0.016187929,346.21188,102.25423,-6.5855393,STD
3401003658000,0.100017,-0.9874827851218,-9.59785096544501,-1.37609848627975,-0.039095376,0.01160644,0.018936822,346.2142,102.21512,-6.5584292,STD
3401008633000,0.104992,-0.989621530902181,-9.59737570371386,-1.37443501811145,-0.04886922,0.015271631,0.018020526,346.2179,102.179,-6.533353,STD
3401013622000,0.109981,-0.991766295263651,-9.59689910456278,-1.37276686882669,-0.036957346,0.0125227375,0.015577064,346.2211,102.14036,-6.5093794,STD
3401018605000,0.114964,-0.993908480233226,-9.59642307859166,-1.37110072573469,-0.03756821,0.014660766,0.014660766,346.2265,102.108246,-6.4858255,STD
3401023801000,0.12016,-0.995936582951391,-9.5958925758396,-1.36861100945918,-0.03573562,-0.0030543262,0.02107485,346.22552,102.074554,-6.4654818,STD
3401028621000,0.12498,-0.995247590822429,-9.59497390048261,-1.35689813367431,-0.036651913,0.00061086525,0.016798794,346.23044,102.04097,-6.4413424,STD
3401033639000,0.129998,-0.994530295697298,-9.5940174870093,-1.34470410656053,-0.042760566,0.0033597588,0.014049901,346.2339,102.01129,-6.4295554,STD
3401038663000,0.135022,-0.993812142905617,-9.59305992995671,-1.33249549910344,-0.035430185,-0.0012217305,0.014966198,346.2362,101.97951,-6.4181895,STD
3401043621000,0.13998,-0.993103424445992,-9.59211495227623,-1.32044727542266,-0.03848451,-0.004581489,0.018325957,346.2395,101.952614,-6.4069557,STD
3401048618000,0.144977,-0.992389131153789,-9.59116254133042,-1.30830427951042,-0.033292156,-0.0009162979,0.02107485,346.24344,101.922966,-6.3960714,STD
3401053693000,0.150052,-0.991663688196428,-9.59019526385393,-1.29597173913528,-0.03970624,-0.0012217305,0.01985312,346.24524,101.897675,-6.3857226,STD
3401058695000,0.155054,-0.990948680182099,-9.58924189992537,-1.28381659293696,-0.04062254,-0.007330383,0.015271631,346.2463,101.8706,-6.375635,STD
3401063615000,0.159974,-0.990245393610627,-9.58830416491368,-1.27186071143042,-0.03268129,-0.013133603,0.015882496,346.24753,101.844376,-6.3669868,STD
3401068992000,0.165351,-0.989476781436887,-9.58727932727997,-1.25879429377581,-0.03756821,-0.009773844,0.01863139,346.24945,101.821884,-6.357809,STD
3401073638000,0.169997,-0.988812661637893,-9.58639381572218,-1.24750424794666,-0.045814894,-0.004276057,0.016187929,346.25012,101.79841,-6.347809,STD
3401078621000,0.17498,-0.98810036956764,-9.58544407312802,-1.23539527283546,-0.036957346,0.0015271631,0.016798794,346.25214,101.77366,-6.339531,STD
3401083601000,0.17996,-0.987388506330663,-9.5844949023235,-1.22329358789592,-0.040317107,0.014966198,0.02107485,346.25784,101.75469,-6.331234,STD
3401088648000,0.185007,-0.986667065817205,-9.58353296155033,-1.21102908912284,-0.034513887,0.015882496,0.020158553,346.26138,101.7314,-6.3222823,STD
3401093627000,0.189986,-0.985955345524653,-9.58258398134236,-1.19892983424051,-0.041233405,0.020463986,0.020158553,346.26984,101.71341,-6.314267,STD
3401098647000,0.195006,-0.985237764510672,-9.58162718667595,-1.18673094701229,-0.035430185,0.024740042,0.020158553,346.27826,101.69154,-6.306283,STD
3401103731000,0.20009,-0.984511035053485,-9.58065819383054,-1.1743765361222,-0.03970624,0.020158553,0.021685716,346.28534,101.67458,-6.2992587,STD
3401108642000,0.205001,-0.98380903498184,-9.57972217418777,-1.1624425251306,-0.029626964,0.027794369,0.02321288,346.29694,101.65343,-6.291755,STD
3401113617000,0.209976,-0.983097886466988,-9.57877395636599,-1.15035299047714,-0.040011674,0.019547688,0.02443461,346.30255,101.63899,-6.285885,STD
3401118609000,0.214968,-0.98238430789691,-9.57782249840291,-1.13822214485099,-0.04337143,0.022907447,0.01863139,346.31317,101.62022,-6.277826,STD
3401123604000,0.219963,-0.981670300493557,-9.57687046865018,-1.12608400905319,-0.044898596,0.02321288,0.020463986,346.32086,101.60542,-6.273065,STD
3401128622000,0.224981,-0.980953005368426,-9.57591405517687,-1.1138899819394,-0.046731193,0.004276057,0.01740966,346.32333,101.59033,-6.266339,STD
3401133634000,0.229993,-0.980236567909846,-9.57495878528285,-1.10171053516891,-0.03359759,0.004581489,0.023518313,346.3317,101.574196,-6.262028,STD
3401138707000,0.235066,-0.979511410841335,-9.57399188899945,-1.0893828549082,-0.03756821,0.011911872,0.028099801,346.3364,101.56232,-6.257199,STD
3401143632000,0.239991,-0.978807409547739,-9.57305320100503,-1.07741482311558,-0.049480084,0.02107485,0.026572637,346.34164,101.54971,-6.252434,STD
3401148605000,0.244964,-0.978096546921737,-9.57210536437634,-1.06533014857655,-0.048258353,0.01160644,0.026267206,346.34387,101.53625,-6.2500086,STD
3401153689000,0.250048,-0.977369817464551,-9.57113637153092,-1.05297573768645,-0.050701816,0.0106901415,0.02321288,346.35077,101.52619,-6.245699,STD
3401158712000,0.255071,-0.976651807617294,-9.57017900507488,-1.04076956028658,-0.0421497,0.008246681,0.023518313,346.3546,101.51401,-6.2429237,STD
3401163624000,0.259983,-0.975949664601224,-9.56924279483556,-1.02883311923777,-0.03481932,0.005192355,0.026267206,346.3579,101.502914,-6.240199,STD
3401168638000,0.264997,-0.975232941253794,-9.56828714374845,-1.01664881235285,-0.038179077,0.008552114,0.027794369,346.36218,101.49256,-6.2371664,STD
3401173633000,0.269992,-0.97451893385044,-9.56733511399572,-1.00451067655505,-0.03970624,0.017715093,0.023823744,346.3671,101.47999,-6.233341,STD
3401178619000,0.274978,-0.973806212946913,-9.56638479961192,-0.992394411272203,-0.048563786,0.004581489,0.018936822,346.3666,101.47043,-6.2307067,STD
3401183602000,0.279961,-0.973093920876661,-9.56543505701776,-0.980285436161003,-0.05222898,0.0012217305,0.022602014,346.3716,101.46106,-6.2286215,STD
3401188619000,0.284978,-0.972376768695955,-9.564478834141,-0.968093839104433,-0.04184427,0.008552114,0.019547688,346.3753,101.44891,-6.223507,STD
3401193627000,0.289986,-0.971660903015075,-9.56352432663317,-0.955924112562814,-0.03481932,0.008552114,0.021685716,346.37336209779,101.445184420558,-6.22224646221378,STD
3401198620000,0.294979,-0.970947181500572,-9.56257267807354,-0.943790836879447,-0.043676864,-0.007941248,0.017104227,346.37143,101.44147,-6.2209897,STD
3401203693000,0.300052,-0.970222024432061,-9.56160578179014,-0.931463156618737,-0.033292156,-0.012217305,0.020158553,346.3732,101.4293,-6.2183676,STD
3401208710000,0.305069,-0.969504872251356,-9.56064955891338,-0.919271559562167,-0.037873644,-0.017715093,0.020158553,346.3697,101.42059,-6.215128,STD
3401213615000,0.309974,-0.968803729846261,-9.55971468284989,-0.907352128913876,-0.03390302,-0.028099801,0.021991149,346.3639,101.40847,-6.213767,STD
3401218628000,0.314987,-0.968087149443256,-9.55875922235932,-0.895170252086173,-0.038179077,-0.028405234,0.01863139,346.35925,101.39891,-6.210756,STD
3401223566000,0.319925,-0.967381289872133,-9.55781805660978,-0.883170629549729,-0.042455133,-0.025961773,0.021380283,346.35303,101.38996,-6.2103386,STD
3401228615000,0.324974,-0.963257923881789,-9.54965409834265,-0.889065377294329,-0.04520403,-0.022907447,0.020463986,346.3467,101.38084,-6.2079263,STD
3401233603000,0.329962,-0.958488646884984,-9.54011584315096,-0.898603961168131,-0.04184427,-0.01985312,0.02687807,346.3417,101.373085,-6.2082367,STD
3401238669000,0.335028,-0.945485282718222,-9.55882566009654,-0.92867580111424,-0.029321533,-0.0106901415,0.024129177,346.48657,101.267006,-6.127581,STD
3401243576000,0.339935,-0.931307857320998,-9.5824546613033,-0.961756422542236,-0.03176499,-0.009468411,0.022907447,346.627,101.1686,-6.0526357,STD
3401248620000,0.344979,-0.925471068834851,-9.59682139817838,-0.995090985650455,-0.036651913,-0.0027488936,0.025045475,346.8413,101.04353,-5.941751,STD
3401254428000,0.350787,-0.920691720630693,-9.61115924316893,-1.03332582118921,-0.03756821,0.008246681,0.024740042,347.05182,100.92219,-5.834304,STD
3401258625000,0.354984,-0.917740344494825,-9.61103123410547,-1.07245136978807,-0.04062254,0.009162978,0.030848695,347.32547,100.77663,-5.692776,STD
3401263616000,0.359975,-0.914599369706259,-9.60317879303433,-1.1274184736849,-0.04184427,0.010995574,0.025350908,347.59528,100.6348,-5.5536337,STD
3401268615000,0.364974,-0.911453360295712,-9.59531376540168,-1.18247368353869,-0.049480084,0.018325957,0.024129177,347.86023,100.505066,-5.4214606,STD
3401273629000,0.369988,-0.90829791096895,-9.58742513796616,-1.23769409206177,-0.055588737,0.024740042,0.027488936,348.11905,100.38043,-5.294981,STD
3401278621000,0.37498,-0.905156306852637,-9.57957112357483,-1.29267220920322,-0.052839845,0.022602014,0.021991149,348.37088,100.25906,-5.1715183,STD
3401283602000,0.379961,-0.902021625341548,-9.5717344157056,-1.34752918065385,-0.05009095,0.032070424,0.02321288,348.62225,100.145485,-5.055732,STD
3401288706000,0.385065,-0.893551989157001,-9.56056223591549,-1.4101767888256,-0.055283304,0.023823744,0.021991149,348.86172,100.03672,-4.944015,STD
3401293616000,0.389975,-0.878942776377382,-9.54595325704225,-1.47835302360191,-0.052534413,0.015577064,0.023518313,349.0983,99.93038,-4.83829,STD
3401298633000,0.394992,-0.869904257075083,-9.5400850932692,-1.53929028308899,-0.046731193,0.021991149,0.01985312,349.626,99.70031,-4.574863,STD
3401303646000,0.400005,-0.866740912535828,-9.54324833871446,-1.59148551753369,-0.050701816,0.02076942,0.025961773,350.1364,99.48528,-4.328555,STD
3401308629000,0.404988,-0.863596498843607,-9.54639265390571,-1.64336839270583,-0.03726278,0.020463986,0.0143553335,350.70584,99.24324,-4.047941,STD
3401313617000,0.409976,-0.860448930010213,-9.54954012413929,-1.69530332775673,-0.043066,0.018936822,0.014049901,351.26077,99.02234,-3.7868967,STD
3401318594000,0.414953,-0.857308302487398,-9.55268065327974,-1.74712373107436,-0.040011674,0.020463986,0.021380283,351.80225,98.80754,-3.5385633,STD
3401324362000,0.420721,-0.85366853163114,-9.55632031011762,-1.80718000721181,-0.03726278,0.01740966,0.019547688,352.328,98.60505,-3.301085,STD
3401328619000,0.424978,-0.8549713347047,-9.5585315299149,-1.83268414627293,-0.036651913,0.025961773,0.02443461,352.84497,98.415054,-3.0797493,STD
3401333599000,0.429958,-0.861090198494633,-9.56057119377325,-1.84084263132618,-0.04062254,0.028099801,0.018020526,353.34613,98.23477,-2.867175,STD
3401338684000,0.435043,-0.867338074472908,-9.56265386259248,-1.84917313263054,-0.03970624,0.02443461,0.02443461,353.83768,98.0826,-2.6688206,STD
3401343621000,0.43998,-0.873404104699996,-9.56467591489544,-1.85726117293333,-0.049785517,0.015577064,0.02076942,354.3233,97.939766,-2.473501,STD
3401348757000,0.445116,-0.879714643741179,-9.56677947183852,-1.86567522498824,-0.042760566,0.025961773,0.027183503,354.81613,97.79437,-2.2861123,STD
3401353650000,0.450009,-0.910158080919011,-9.55632071078186,-1.84929489815797,-0.03970624,0.027183503,0.02565634,355.29993,97.65808,-2.1030164,STD
3401358556000,0.454915,-0.947786545930524,-9.5422102512764,-1.82577713822204,-0.043066,0.027794369,0.027488936,355.7832,97.52859,-1.9291203,STD
3401363614000,0.459973,-0.954673067827971,-9.53248464144024,-1.76244852427071,-0.04520403,0.028099801,0.022907447,356.26758,97.40833,-1.7610767,STD
3401368588000,0.464947,-0.950702801791965,-9.5245439849975,-1.68701378051342,-0.04917465,0.030848695,0.017715093,356.74994,97.29511,-1.599345,STD
3401373622000,0.469981,-0.944489426225854,-9.52296049925706,-1.61775455037147,-0.04642576,0.030543262,0.01740966,357.2302,97.183174,-1.4508001,STD
3401378620000,0.474979,-0.934329195616642,-9.53312094205052,-1.56187322897474,-0.045814894,0.025961773,0.018936822,357.70645,97.07779,-1.3073231,STD
3401383599000,0.479958,-0.935595911297839,-9.54514555720801,-1.49906075133849,-0.051923547,0.029321533,0.02321288,358.20172,96.96033,-1.1590466,STD
3401388693000,0.485052,-0.950106412219909,-9.55965583085465,-1.42650837299227,-0.048563786,0.023823744,0.022296581,358.68823,96.84544,-1.0165778,STD
3401393673000,0.490032,-0.963232549005079,-9.580184391641,-1.36087773565065,-0.056505036,0.026572637,0.019242255,359.189,96.72626,-0.8705318,STD
3401398646000,0.495005,-0.975128001440346,-9.60794061293814,-1.3014004320706,-0.049785517,0.037873644,0.019547688,359.68488,96.608025,-0.73186696,STD
3401403706000,0.500065,-0.985920751828631,-9.63451317920585,-1.24155246024033,-0.060170226,0.048258353,0.022907447,0.198792,96.48642,-0.59127486,STD
3401408692000,0.505051,-0.978792833512464,-9.63807721279295,-1.19165699481266,-0.06505715,0.041233405,0.029626964,0.7038269,96.367805,-0.45917687,STD
3401413571000,0.50993,-0.971817880952381,-9.64156476190476,-1.14283229047619,-0.05497787,0.04734206,0.032070424,1.2326088,96.23569,-0.32397923,STD
3401418617000,0.514976,-0.966058377878972,-9.64444450941105,-1.09771928233691,-0.06352998,0.049785517,0.031154128,1.7500787,96.11701,-0.19761157,STD
3401423641000,0.52,-0.962812478344465,-9.64606731936855,-1.06201445693854,-0.052839845,0.057421334,0.029626964,2.2625377,95.996376,-0.07873418,STD
3401428635000,0.524994,-0.959585961171828,-9.64768043897996,-1.02652283710585,-0.05375614,0.05100725,0.03390302,2.7884386,95.872826,0.045201126,STD
3401433603000,0.529962,-0.956376242046145,-9.64928516029144,-0.991215995430075,-0.055283304,0.056505036,0.030543262,3.3097732,95.75338,0.16446136,STD
3401438609000,0.534968,-0.953141971928759,-9.65090215604129,-0.955639093371113,-0.05222898,0.058948494,0.029626964,3.8190072,95.63936,0.27400544,STD
3401443625000,0.539984,-0.949901241024084,-9.6525223819065,-0.919991122790258,-0.04520403,0.054061573,0.03176499,4.318305,95.53074,0.3763032,STD
3401448609000,0.544968,-0.950140665439223,-9.64832897469455,-0.902256669058772,-0.049785517,0.049785517,0.032375857,4.7877884,95.43083,0.46335462,STD
3401453704000,0.550063,-0.954853460472304,-9.63654701786835,-0.906969449328729,-0.04917465,0.04184427,0.026572637,5.2468853,95.33256,0.5452925,STD
3401458626000,0.554985,-0.95940623322065,-9.62516511570966,-0.911522207815232,-0.03970624,0.05375614,0.026267206,5.704407,95.22416,0.62496334,STD
3401463660000,0.560019,-0.964062604211136,-9.61352421862172,-0.916178564219346,-0.05009095,0.044898596,0.024740042,6.145684,95.12643,0.70017016,STD
3401468569000,0.564928,-0.970142735324568,-9.60265185505746,-0.933799634154674,-0.0421497,0.03970624,0.021991149,6.5870585,95.02479,0.7721161,STD
3401473632000,0.569991,-0.980182561062222,-9.59261234382441,-0.983998789051662,-0.046731193,0.03145956,0.02107485,7.0172176,94.93417,0.8381876,STD
3401478549000,0.574908,-0.987939395156798,-9.58332734585318,-1.03348105783988,-0.038789943,0.03145956,0.017104227,7.438544,94.842,0.8976904,STD
3401483601000,0.57996,-0.992286775298769,-9.57463240398958,-1.08564966493845,-0.036651913,0.027183503,0.018020526,7.8491864,94.756516,0.9508196,STD
3401488694000,0.585053,-0.999067663456229,-9.56353427870716,-1.14607794295923,-0.04734206,0.032375857,0.018325957,8.263447,94.680214,1.000838,STD
3401493660000,0.590019,-1.01837840250122,-9.54036135959071,-1.24649361661523,-0.048258353,0.026572637,0.018020526,8.666028,94.60405,1.0455472,STD
3401498605000,0.594964,-1.03760748115153,-9.5172864330843,-1.3464846569352,-0.04642576,0.02321288,0.01740966,9.052765,94.54248,1.0788128,STD
3401503674000,0.600033,-1.04701607807842,-9.50348104082408,-1.42622130400646,-0.046120327,0.02107485,0.018325957,9.432072,94.48389,1.1075507,STD
3401508687000,0.605046,-1.05157399115162,-9.49436550023735,-1.49459004769771,-0.05375614,0.03145956,0.019547688,9.807951,94.42924,1.1326472,STD
3401513619000,0.609978,-1.0534488,-9.49624736249552,-1.54946134091072,-0.05681047,0.022296581,0.018020526,10.153529,94.396286,1.1385916,STD
3401518611000,0.61497,-1.0534488,-9.50604240137274,-1.59598806963069,-0.05131268,0.0290161,0.015271631,10.502034,94.364075,1.1421584,STD
3401523622000,0.619981,-1.0534488,-9.51587472104697,-1.64269188325565,-0.05375614,0.022602014,0.02076942,10.825025,94.34925,1.1317483,STD
3401528619000,0.624978,-1.0534488,-9.52567957066025,-1.6892652132664,-0.053450707,0.024740042,0.019242255,11.148528,94.33339,1.1221782,STD
3401533604000,0.629963,-1.04422714254889,-9.54429237559002,-1.701597724882,-0.048563786,0.02107485,0.02443461,11.464929,94.311714,1.1061769,STD
3401538695000,0.635054,-1.03013726917445,-9.56777541614488,-1.69690111677102,-0.04550946,0.01740966,0.02321288,11.778381,94.29177,1.0904398,STD
3401543657000,0.640016,-1.02192820134807,-9.58238731383959,-1.7062551946077,-0.04184427,0.020158553,0.018020526,12.086634,94.28514,1.0689411,STD
3401548695000,0.645054,-1.0172489347008,-9.59174604257589,-1.72497226119678,-0.037873644,0.010995574,0.017104227,12.387548,94.277885,1.0445443,STD
3401553643000,0.650002,-1.01258978214232,-9.59213334327913,-1.72574684642697,-0.03481932,0.0061086523,0.018936822,12.686272,94.26872,1.0217233,STD
3401558664000,0.655023,-1.00780733519817,-9.58495952304938,-1.71139950559451,-0.027183503,0.022602014,0.022602014,12.985595,94.25774,0.9972322,STD
3401563644000,0.660003,-1.00306394030036,-9.57784428211249,-1.69716932090109,-0.039095376,0.013133603,0.017715093,13.270347,94.255424,0.9717827,STD
3401568624000,0.664983,-0.998320545402556,-9.57072904117559,-1.68293913620767,-0.028710667,0.014660766,0.021380283,13.560368,94.2447,0.9419242,STD
3401573625000,0.669984,-0.989983571403302,-9.56843088954403,-1.65672734347484,-0.021685716,0.020463986,0.01863139,13.836813,94.24115,0.9102757,STD
3401579292000,0.675651,-0.976650291561026,-9.57109759841785,-1.61406083684159,-0.03145956,0.022907447,0.014049901,14.110149,94.24004,0.8768489,STD
3401583616000,0.679975,-0.966476813170696,-9.57313233446344,-1.5815056974941,-0.03940081,0.018325957,0.014049901,14.381425,94.236626,0.84533006,STD
3401588656000,0.685015,-0.954618734750884,-9.57550399719929,-1.54355983664505,-0.037873644,0.013744468,0.01740966,14.650439,94.23411,0.8128996,STD
3401593573000,0.689932,-0.950138469464913,-9.57782432832204,-1.50440067261758,-0.038179077,0.016493361,0.019547688,14.917307,94.235115,0.7796292,STD
3401598663000,0.695022,-0.954959797712774,-9.58023503649671,-1.46100883166016,-0.028710667,0.025350908,0.014660766,15.181662,94.23385,0.7462585,STD
3401603584000,0.699943,-0.959621046496217,-9.58256570347658,-1.41905770212156,-0.03848451,0.019242255,0.01740966,15.44307,94.2272,0.7172416,STD
3401608634000,0.704993,-0.964404486113446,-9.58495746698976,-1.37600685794966,-0.03573562,0.022907447,0.019242255,15.706333,94.21567,0.6888837,STD
3401613549000,0.709908,-0.960173078547133,-9.58107057988338,-1.32553433878523,-0.042455133,0.019547688,0.01863139,15.972682,94.21064,0.6630041,STD
3401618623000,0.714982,-0.941283769849368,-9.56690332099125,-1.25942179532556,-0.05009095,0.029932396,0.020158553,16.240479,94.20591,0.63491744,STD
3401623555000,0.719914,-0.931845915178822,-9.55910086282566,-1.20177615898777,-0.038179077,0.023518313,0.01985312,16.509167,94.184616,0.61044776,STD
3401628631000,0.72499,-0.94092460353441,-9.56364030180222,-1.15638266981044,-0.047647487,0.02565634,0.01863139,16.778961,94.172844,0.5845821,STD
3401633599000,0.729958,-0.945204368184703,-9.5681965141225,-1.11178794446208,-0.049785517,0.02565634,0.018936822,17.045858,94.14675,0.56415457,STD
3401638625000,0.734984,-0.929928901094891,-9.57328844282238,-1.06596149002433,-0.0571159,0.019547688,0.015577064,17.30688,94.12657,0.5433197,STD
3401643599000,0.739958,-0.921464630797207,-9.57959522650567,-1.03847746887305,-0.047036625,0.024740042,0.01985312,17.573362,94.095184,0.5209329,STD
3401649486000,0.745845,-0.929666350552808,-9.59053079575211,-1.05488093693143,-0.05497787,0.018325957,0.024129177,17.829634,94.072914,0.4973696,STD
3401653583000,0.749942,-0.935374257099214,-9.59814129807972,-1.06629676989138,-0.048563786,0.016187929,0.02107485,18.0859,94.03877,0.4784654,STD
3401658640000,0.754999,-0.942419627713122,-9.60753507652022,-1.08038753564155,-0.0580322,0.019242255,0.023823744,18.336874,94.01303,0.45496282,STD
3401663630000,0.759989,-0.95064364859627,-9.61596061647562,-1.09471909578395,-0.050701816,0.022907447,0.02076942,18.58226,93.98292,0.4323559,STD
3401668671000,0.76503,-0.964713016424616,-9.62065049961143,-1.11113334396736,-0.05222898,0.020463986,0.021380283,18.822073,93.95965,0.40635267,STD
3401673908000,0.770267,-0.979329417796775,-9.62552273091121,-1.12818579739654,-0.04550946,0.024129177,0.01863139,19.059477,93.93823,0.3769002,STD
3401678656000,0.775015,-0.992581026296872,-9.62994002214882,-1.1436459938605,-0.053145275,0.025045475,0.014660766,19.291008,93.92304,0.34629607,STD
3401683687000,0.780046,-1.00629195600601,-9.63341953107363,-1.16352075834363,-0.053450707,0.03268129,0.020158553,19.521345,93.905396,0.31279776,STD
3401688653000,0.785012,-1.01582112045417,-9.62230212556353,-1.22546025262982,-0.048258353,0.027488936,0.018325957,19.7479150170386,93.9059640737672,0.277939088577576,STD
3401713619000,0.809978,-1.06406548591772,-9.56653676443829,-1.53471540409415,-0.036651913,0.026267206,0.0106901415,20.88697,93.90882,0.102691084,STD
3401718726000,0.815085,-1.0785755880538,-9.55686366604035,-1.56857235958267,-0.030543262,0.022296581,0.016187929,21.09794,93.92691,0.057576798,STD
3401723730000,0.820089,-1.091756,-9.54790788509918,-1.60169426093372,-0.0421497,0.015577064,0.01160644,21.303604,93.96159,0.007790685,STD
3401728535000,0.824894,-1.091756,-9.54568159167876,-1.63286174117078,-0.036651913,0.024129177,0.022296581,21.509808,93.99046,-0.048104167,STD
3401733774000,0.830133,-1.091756,-9.54325421369134,-1.66684434865506,-0.049480084,0.01985312,0.017715093,21.703312,94.036156,-0.10443106,STD
3401738574000,0.834933,-1.091756,-9.5410302369134,-1.69797939655056,-0.042455133,0.01740966,0.021991149,21.897425,94.07541,-0.16626497,STD
3401743505000,0.839864,-1.091756,-9.53874556410256,-1.72996417179487,-0.03970624,0.015271631,0.024740042,22.087618,94.1201,-0.22655623,STD
3401748554000,0.844913,-1.07861104934697,-9.551644767642,-1.69834879825858,-0.04184427,0.02443461,0.02443461,22.277754,94.16482,-0.28707144,STD
3401753541000,0.8499,-1.06410477165131,-9.56615084337349,-1.65966539107016,-0.042760566,0.021380283,0.025045475,22.461296,94.20913,-0.34894282,STD
3401758565000,0.854924,-1.05426899017784,-9.56868946290898,-1.6275989209118,-0.050701816,0.025961773,0.029932396,22.644558,94.26716,-0.41545326,STD
3401763501000,0.85986,-1.04497979480235,-9.57023769177611,-1.59663495788164,-0.055588737,0.015577064,0.022907447,22.820248,94.32462,-0.47895464,STD
3401768584000,0.864943,-1.03541395604756,-9.57183202875577,-1.56474885089575,-0.052839845,0.02107485,0.02321288,22.99935,94.37622,-0.5408855,STD
3401773585000,0.869944,-1.02600243536829,-9.57340064556382,-1.53337713713687,-0.051618114,0.023823744,0.025045475,23.172342,94.429726,-0.6014433,STD
3401778559000,0.874918,-1.01664172673828,-9.57496079353486,-1.50217479675761,-0.04520403,0.021991149,0.01985312,23.34261,94.47989,-0.66066206,STD
3401783547000,0.879906,-1.00725467111977,-9.57652533275473,-1.47088463314447,-0.038789943,0.02076942,0.01985312,23.511784,94.53029,-0.72168666,STD
3401788573000,0.884932,-1.00947112592885,-9.58071350750988,-1.44571931114625,-0.039095376,0.013439035,0.016798794,23.676008,94.5809,-0.78050125,STD
3401793560000,0.889919,-1.01419044426877,-9.58543292440712,-1.4221227687253,-0.038179077,0.009162978,0.01863139,23.838749,94.62993,-0.84052163,STD
3401798576000,0.894935,-1.01703439630907,-9.59206260986547,-1.4173675,-0.034513887,0.004581489,0.0125227375,24.005562,94.660934,-0.8833587,STD
3401803761000,0.90012,-1.01948133407086,-9.59940332094811,-1.4173675,-0.029932396,0.010995574,0.017104227,24.171902,94.69268,-0.929854,STD
3401808653000,0.905012,-1.02178999743261,-9.60632921460602,-1.4173675,-0.03604105,0.0076358155,0.013133603,24.323505,94.72285,-0.9764203,STD
3401813624000,0.909983,-1.02413594297048,-9.61336695323511,-1.4173675,-0.043676864,0.020463986,0.023518313,24.479536,94.75403,-1.0279183,STD
3401818613000,0.914972,-1.0351791772908,-9.60465330476098,-1.44177609231068,-0.04734206,0.0061086523,0.016493361,24.623966,94.78515,-1.0740596,STD
3401823632000,0.919991,-1.04916137252982,-9.59067135285562,-1.47440105231262,-0.039095376,0.0070249503,0.022296581,24.774567,94.817154,-1.1261641,STD
3401828616000,0.924975,-1.03223589685864,-9.57729257949848,-1.47834417957197,-0.04062254,0.0106901415,0.019242255,24.923792,94.848434,-1.1743743,STD
3401833597000,0.929956,-1.00156493298429,-9.56414762579223,-1.46958106010839,-0.050396383,0.01160644,0.015271631,25.070324,94.880745,-1.2239324,STD
3401838633000,0.934992,-0.97338951073503,-9.56807047808639,-1.46785571513359,-0.048563786,0.00580322,0.022907447,25.21032,94.91939,-1.2818131,STD
3401843622000,0.939981,-0.948160497592143,-9.58825408902735,-1.4729015124934,-0.044898596,0.011301007,0.01985312,25.351507,94.9595,-1.3349941,STD
3401848635000,0.944994,-0.932733435518248,-9.5785800960584,-1.47193139275912,-0.04153884,0.020158553,0.023518313,25.486593,94.99737,-1.3863639,STD
3401853725000,0.950084,-0.923245180141119,-9.55011523085158,-1.46718726507056,-0.044593163,0.022602014,0.023823744,25.619434,95.03583,-1.4357398,STD
3401858645000,0.955004,-0.924781778537021,-9.5439082932413,-1.46660348036947,-0.04795292,0.017104227,0.02076942,25.747692,95.07291,-1.4812101,STD
3401863614000,0.959973,-0.934234463904752,-9.5533609169191,-1.46896664862691,-0.041233405,0.010079277,0.019242255,25.874525,95.10845,-1.5270209,STD
3401868597000,0.964956,-0.94371378191389,-9.56284017306451,-1.471336475036,-0.033292156,0.021380283,0.016798794,26.002228,95.143486,-1.5697355,STD
3401873629000,0.969988,-0.95328631416795,-9.5724126428465,-1.47372960497592,-0.040011674,0.0076358155,0.018936822,26.119238,95.18115,-1.6139575,STD
3401878617000,0.974976,-0.964029514338053,-9.57934657877018,-1.4748282,-0.03176499,0.011911872,0.016493361,26.249107,95.21324,-1.651372,STD
3401883599000,0.979958,-0.975840490078226,-9.58407106772948,-1.4748282,-0.03940081,0.02107485,0.01863139,26.374811,95.252205,-1.6909095,STD
3401888640000,0.984999,-0.987791338875136,-9.58885150707991,-1.4748282,-0.044898596,0.013133603,0.014049901,26.497002,95.28947,-1.7312338,STD
3401893621000,0.98998,-0.999599943885533,-9.5935750477275,-1.4748282,-0.034513887,0.013744468,0.014660766,26.622578,95.32531,-1.7731519,STD
3401898606000,0.994965,-1.00328707930935,-9.59823854934258,-1.47710582069065,-0.03756821,0.013744468,0.015882496,26.743845,95.36596,-1.814093,STD
3401904612000,1.000971,-0.997746621687617,-9.60377883340558,-1.48264627831238,-0.04062254,0.009162978,0.018936822,26.862278,95.40417,-1.8557504,STD
3401908618000,1.004977,-0.994051138298897,-9.60747420103068,-1.4863417617011,-0.037873644,0.015271631,0.018325957,26.984716,95.44312,-1.9000492,STD
3401913613000,1.009972,-0.989443315151953,-9.61208187983432,-1.49094958484805,-0.04337143,0.0125227375,0.016798794,27.101639,95.485405,-1.9450932,STD
3401918606000,1.014965,-0.983004861951423,-9.61341084540811,-1.49227868097571,-0.035430185,0.019242255,0.017715093,27.231714,95.51959,-1.9864699,STD
3401923626000,1.019985,-0.972981816814344,-9.60839921817992,-1.48726715840717,-0.03176499,0.016187929,0.01863139,27.356133,95.55644,-2.0277264,STD
3401928557000,1.024916,-0.970558796901879,-9.60388648943633,-1.48110370309812,-0.038179077,0.013133603,0.018020526,27.479168,95.59467,-2.0674868,STD
3401933597000,1.029956,-0.978620103290188,-9.59985617294363,-1.47304239670981,-0.039095376,0.016798794,0.014660766,27.601278,95.63048,-2.1065865,STD
3401938831000,1.03519,-0.987046403070175,-9.59532568366228,-1.46429844539474,-0.03145956,0.005497787,0.017715093,27.71496,95.66681,-2.1452649,STD
3401943623000,1.039982,-0.995433103654971,-9.58693880793129,-1.45171839451754,-0.03481932,0.008246681,0.010995574,27.831528,95.70493,-2.1797435,STD
3401949610000,1.045969,-1.00550423809068,-9.5769883832026,-1.4364000768127,-0.032375857,0.013133603,0.01985312,27.945347,95.74101,-2.2208347,STD
3401953641000,1.05,-1.00427331911868,-9.58068108870608,-1.43393825172183,-0.035430185,0.011911872,0.018936822,28.055971,95.77772,-2.257252,STD
3401958635000,1.054994,-1.00274833540591,-9.58525597614948,-1.43088830022001,-0.043066,0.01160644,0.016798794,28.167864,95.814705,-2.2965224,STD
3401963615000,1.059974,-1.00122762677763,-9.58981803851795,-1.42784689884255,-0.044593163,0.01160644,0.019242255,28.277779,95.851425,-2.3367596,STD
3401968624000,1.064983,-0.99969806261718,-9.59440666711307,-1.42478778649321,-0.04062254,0.008857546,0.019547688,28.384958,95.888306,-2.3757532,STD
3401974397000,1.070756,-0.997935200988457,-9.59969517836873,-1.42126208164339,-0.040011674,0.014966198,0.018020526,28.49183,95.927536,-2.4145844,STD
3401978627000,1.074986,-0.996643514743958,-9.60357018315158,-1.41867872264205,-0.048563786,0.012217305,0.0143553335,28.5937,95.96788,-2.4530501,STD
3401983605000,1.079964,-0.995103334884176,-9.60199875800979,-1.4226748814584,-0.04520403,0.01038471,0.015577064,28.69604,96.00536,-2.4921372,STD
3401988646000,1.085005,-0.993528240306689,-9.5956984125938,-1.43212543247635,-0.03604105,0.019242255,0.015577064,28.798925,96.04289,-2.5294836,STD
3401993618000,1.089977,-0.991974705246329,-9.58948430479608,-1.44144662661664,-0.048563786,0.009162978,0.021380283,28.893873,96.08379,-2.5678399,STD
3401998631000,1.09499,-0.990408359458401,-9.58321895435563,-1.45084468498858,-0.036651913,0.008857546,0.013439035,28.992155,96.114365,-2.601643,STD
3402003633000,1.099992,-0.988845450694943,-9.57696735194127,-1.46022212124959,-0.03634648,0.009162978,0.013133603,29.082651,96.1549,-2.6403337,STD
3402008627000,1.104986,-0.987285041585644,-9.57072574809136,-1.46958455961175,-0.032375857,0.011301007,0.020158553,29.172184,96.191246,-2.6786025,STD
3402013615000,1.109974,-0.992124324396442,-9.56342130304956,-1.47863701626429,-0.037873644,0.008857546,0.019547688,29.264482,96.22645,-2.7126844,STD
3402018603000,1.114962,-1.0051309712652,-9.55475047676529,-1.4873081141768,-0.03573562,0.0143553335,0.016187929,29.358274,96.25923,-2.747532,STD
3402023556000,1.119915,-1.01305800127917,-9.54911866233766,-1.49294005063959,-0.03481932,0.003970624,0.0143553335,29.439322,96.29968,-2.7865503,STD
3402028620000,1.124979,-1.0035868724441,-9.55385383116883,-1.48820448622205,-0.03481932,0.007941248,0.010995574,29.524715,96.339,-2.823338,STD
3402033613000,1.129972,-0.996778317465389,-9.55883865095847,-1.48400979126731,-0.03390302,0.014966198,0.016187929,29.6061,96.38107,-2.866898,STD
3402038634000,1.134993,-1.00104572186723,-9.56523989124068,-1.48187608906638,-0.031154128,0.009773844,0.016798794,29.683828,96.42143,-2.9080517,STD
3402043893000,1.140252,-1.00551540514732,-9.57194455617678,-1.47964124742634,-0.025350908,0.0067195175,0.015271631,29.75725,96.45995,-2.9502518,STD
3402048635000,1.144994,-1.00954568430955,-9.57799010117146,-1.47762610784523,-0.03634648,0.007330383,0.018325957,29.829472,96.502525,-2.9934876,STD
3402053618000,1.149977,-1.01378079208378,-9.58434289550053,-1.47550855395811,-0.033292156,0.01863139,0.0143553335,29.904844,96.53839,-3.0324008,STD
3402058619000,1.154978,-1.01408623943479,-9.58743928260306,-1.4695519081929,-0.03970624,0.023823744,0.019547688,29.978094,96.5808,-3.074496,STD
3402063598000,1.159957,-1.01254090344828,-9.58898465086207,-1.46182524439655,-0.04642576,0.021685716,0.018325957,30.051208,96.62089,-3.1131227,STD
3402068608000,1.164967,-1.01098594596837,-9.5905396408154,-1.45405047323373,-0.04642576,0.021685716,0.0143553335,30.128857,96.66194,-3.1502883,STD
3402073631000,1.16999,-1.00942695366865,-9.5920986656728,-1.446255528014,-0.04520403,0.020158553,0.02076942,30.204674,96.70525,-3.1898415,STD
3402078612000,1.174971,-1.00788099694063,-9.59364465468629,-1.43852576051659,-0.048258353,0.022907447,0.026572637,30.280554,96.74865,-3.2276492,STD
3402083596000,1.179955,-1.00633410910034,-9.59519157483148,-1.43079133746759,-0.0421497,0.026572637,0.019242255,30.355055,96.78815,-3.2631993,STD
3402088639000,1.184998,-0.998258139238246,-9.59352542888316,-1.41963768837532,-0.04642576,0.023518313,0.026267206,30.421452,96.833786,-3.3085692,STD
3402093625000,1.189984,-0.984049671235866,-9.58878917397342,-1.405429121464,-0.046731193,0.021380283,0.022907447,30.487806,96.87409,-3.3482597,STD
3402098613000,1.194972,-0.967683185711507,-9.59553505456668,-1.40050147558603,-0.038179077,0.016187929,0.022296581,30.550667,96.91021,-3.3885598,STD
3402103643000,1.200002,-0.948941286334014,-9.61427683163116,-1.40518694431476,-0.04153884,0.016798794,0.0106901415,30.613335,96.947044,-3.4241722,STD
3402108619000,1.204978,-0.939561725821073,-9.62676039485808,-1.40675582417893,-0.03023783,0.008246681,0.014966198,30.671429,96.97487,-3.4615397,STD
3402113891000,1.21025,-0.942062785394066,-9.63176261846733,-1.40425476460593,-0.030543262,0.00061086525,0.0143553335,30.728634,97.003975,-3.4938111,STD
3402118603000,1.214962,-0.944298178548076,-9.63623349814237,-1.40201937145192,-0.03359759,-0.004886922,0.016187929,30.781595,97.030075,-3.5245352,STD
3402123631000,1.21999,-0.946683483467083,-9.64100420760886,-1.39963406653292,-0.0421497,-0.0027488936,0.014966198,30.833744,97.05699,-3.553851,STD
3402128587000,1.224946,-0.951944439735099,-9.64461305298013,-1.40282241089036,-0.038789943,-0.0033597588,0.01740966,30.883059,97.0824,-3.584594,STD
3402133598000,1.229957,-0.961753407707873,-9.64657468064754,-1.41459318065162,-0.028099801,-0.0021380284,0.015882496,30.932695,97.10717,-3.6133728,STD
3402138680000,1.235039,-0.971701357266372,-9.64856410228109,-1.42653072843185,-0.020463986,0.0030543262,0.0018325958,30.982546,97.12982,-3.6392467,STD
3402143637000,1.239996,-0.981404620934511,-9.65050459087565,-1.43817465293925,-0.028405234,0.0076358155,0.0076358155,31.032469,97.156296,-3.6699388,STD
3402148622000,1.244981,-0.99116269424209,-9.65245604047093,-1.44988434905977,-0.031154128,0.006414085,0.010079277,31.08098,97.17706,-3.69542,STD
3402153633000,1.249992,-1.00069677076091,-9.64871227674778,-1.46038347076091,-0.028405234,0.004581489,0.01038471,31.130447,97.20094,-3.7192583,STD
3402158720000,1.255079,-1.01010526469679,-9.63930407753959,-1.46979196469679,-0.029932396,0.020158553,0.017104227,31.184074,97.2277,-3.7448914,STD
3402163617000,1.259976,-1.0001399713227,-9.6299817626351,-1.47268512607308,-0.036651913,0.01985312,0.013439035,31.235373,97.25979,-3.7726886,STD
3402168618000,1.264977,-0.96563093502316,-9.62012183942357,-1.46775526742151,-0.03604105,0.017715093,0.015271631,31.290213,97.29199,-3.8032196,STD
3402173625000,1.269984,-0.94916250882287,-9.6140553245956,-1.46207544011292,-0.03604105,0.014049901,0.015271631,31.344934,97.32746,-3.8340468,STD
3402178620000,1.274979,-0.95130600327777,-9.61191179656764,-1.45564499032128,-0.032375857,0.015882496,0.01863139,31.400055,97.362305,-3.8659022,STD
3402183600000,1.279959,-0.953443060812385,-9.60977470556078,-1.44923385118968,-0.03940081,0.018020526,0.020463986,31.45086,97.394775,-3.8913078,STD
3402188723000,1.285082,-0.955641483653717,-9.60757624828606,-1.44263861709907,-0.03268129,0.005497787,0.016187929,31.497253,97.4223,-3.916077,STD
3402193838000,1.290197,-0.957896906132222,-9.60532080064059,-1.436521,-0.030848695,0.016798794,0.018325957,31.562092,97.45016,-3.9366338,STD
3402198639000,1.294998,-0.960756425803844,-9.60246137054543,-1.436521,-0.027183503,0.02321288,0.016798794,31.620821,97.47457,-3.9554396,STD
3402203665000,1.300024,-0.963749957540892,-9.59946793258287,-1.436521,-0.044898596,0.01038471,0.01038471,31.677637,97.49893,-3.9758556,STD
3402208700000,1.305059,-0.966748849760557,-9.59646913430562,-1.436521,-0.035124753,0.0125227375,0.014049901,31.73989,97.5171,-3.9979324,STD
3402213614000,1.309973,-0.969675673269482,-9.5935424024815,-1.436521,-0.03940081,0.0106901415,0.013744468,31.796167,97.5413,-4.017516,STD
3402218603000,1.314962,-0.972647167466882,-9.59057100136824,-1.436521,-0.044593163,0.022296581,0.009773844,31.858366,97.56101,-4.037056,STD
3402223631000,1.31999,-0.97564189042229,-9.58757637222464,-1.436521,-0.0421497,0.025350908,0.010079277,31.916891,97.58055,-4.0579386,STD
3402229444000,1.325803,-0.980434337956204,-9.58818405656934,-1.4401210379562,-0.04153884,0.023823744,0.0076358155,31.981676,97.59899,-4.074156,STD
3402233606000,1.329965,-0.984365945926218,-9.59014990160781,-1.44405264592622,-0.036651913,0.03023783,0.016798794,32.048935,97.61777,-4.093465,STD
3402238638000,1.334997,-0.989119394101401,-9.59252667533044,-1.4488060941014,-0.03756821,0.02107485,0.013439035,32.110847,97.636894,-4.1108193,STD
3402243619000,1.339978,-0.99382466543697,-9.59487936013021,-1.45351136543697,-0.032070424,0.01740966,0.01160644,32.175465,97.65506,-4.130805,STD
3402248617000,1.344976,-0.98976602929322,-9.59347220234154,-1.45318585431601,-0.037873644,0.019547688,0.008246681,32.237972,97.67551,-4.1494617,STD
3402253632000,1.349991,-0.978243621023463,-9.58886314759368,-1.44857689582074,-0.03756821,0.016187929,0.01160644,32.297073,97.69402,-4.169757,STD
3402258616000,1.354975,-0.966792438009213,-9.58428258351327,-1.44399642739792,-0.046120327,0.014966198,0.016798794,32.36234,97.7172,-4.1884923,STD
3402263613000,1.359972,-0.955311386339427,-9.5796900717336,-1.43940401152536,-0.034513887,0.020158553,0.01160644,32.427216,97.73442,-4.2051497,STD
3402268597000,1.364956,-0.9498223423686,-9.58539941698242,-1.43308405115127,-0.040927973,0.014966198,0.007941248,32.488003,97.75904,-4.224067,STD
3402273632000,1.369991,-0.954507025138444,-9.60882270853979,-1.42371478344506,-0.042760566,0.016493361,0.01160644,32.551235,97.78019,-4.2432175,STD
3402278617000,1.374976,-0.95611522467546,-9.61999466393187,-1.4236293522588,-0.031154128,0.013133603,0.007330383,32.60752,97.79529,-4.2541013,STD
3402283596000,1.379955,-0.951163190596116,-9.60513884608994,-1.44343733345103,-0.03176499,0.010995574,0.01282817,32.66412,97.81585,-4.268822,STD
3402288623000,1.384982,-0.950020792069355,-9.59212705581205,-1.46334232824459,-0.026572637,0.017715093,0.008552114,32.72662,97.82746,-4.275841,STD
3402293620000,1.389979,-0.954930561172669,-9.58230736380425,-1.48298130212373,-0.034208454,0.01740966,0.016493361,32.786007,97.84524,-4.2884035,STD
3402299279000,1.395638,-0.968268117085427,-9.58210081909548,-1.48868809145729,-0.038179077,0.008552114,0.0143553335,32.843536,97.86139,-4.2975607,STD
3402303630000,1.399989,-0.984375058252802,-9.59015445786626,-1.4806346208736,-0.032375857,0.016187929,0.014966198,32.90503,97.878746,-4.30939,STD
3402308555000,1.404914,-0.99762853604484,-9.59432032969244,-1.47318756395516,-0.033292156,0.024740042,0.009468411,32.964237,97.90086,-4.3210697,STD
3402313613000,1.409972,-1.00226966418511,-9.58967910462777,-1.46854643581489,-0.034513887,0.01740966,0.018325957,33.020645,97.92398,-4.3373914,STD
3402318571000,1.41493,-1.00792747034246,-9.586384,-1.46820485521816,-0.027794369,0.024129177,0.008857546,33.079388,97.9418,-4.352504,STD
3402323636000,1.419995,-1.0166819924965,-9.586384,-1.47914797934395,-0.036651913,0.02443461,0.01863139,33.13431,97.96802,-4.375945,STD
3402328546000,1.424905,-1.02516860725985,-9.586384,-1.48975622010558,-0.04520403,0.021380283,0.013133603,33.188835,97.98865,-4.3928447,STD
3402333598000,1.429957,-1.03390065976177,-9.586384,-1.50067125723954,-0.042455133,0.020158553,0.014049901,33.243664,98.0112,-4.4141645,STD
3402338889000,1.435248,-1.04304580817579,-9.586384,-1.51210266291567,-0.040317107,0.011911872,0.014966198,33.294624,98.03495,-4.434173,STD
3402343621000,1.43998,-1.02890650691524,-9.59386649260722,-1.50191130948664,-0.025045475,0.025961773,0.009468411,33.35062,98.05393,-4.4518085,STD
3402348617000,1.444976,-1.01133067159519,-9.60265411203967,-1.48872946740748,-0.03023783,0.020158553,0.01282817,33.39819,98.07872,-4.473032,STD
3402353636000,1.449995,-1.01202054044675,-9.60230934942162,-1.47794915955325,-0.03023783,0.017715093,0.01038471,33.44988,98.101776,-4.49733,STD
3402358593000,1.454952,-1.02148846976466,-9.5975757802154,-1.46848123023534,-0.03359759,0.021380283,0.014049901,33.501293,98.12825,-4.524023,STD
3402363616000,1.459975,-1.0216467919049,-9.59749662575802,-1.46678715404755,-0.043676864,0.011911872,0.008857546,33.544712,98.14992,-4.543918,STD
3402369415000,1.465774,-1.0163011510155,-9.6001692229281,-1.46945997449225,-0.037873644,0.015271631,0.0106901415,33.59255,98.17024,-4.5660863,STD
3402373620000,1.469979,-1.01242489305034,-9.60210719000866,-1.47139810347483,-0.029626964,0.02443461,0.018936822,33.63136,98.19718,-4.5909014,STD
3402378620000,1.474979,-1.00781578726538,-9.60441155038983,-1.47370265636731,-0.03756821,0.011911872,0.01740966,33.664192,98.225006,-4.613788,STD
3402383594000,1.479953,-0.997161873143897,-9.60763775058477,-1.46852610179329,-0.040927973,0.017104227,0.01863139,33.703865,98.2522,-4.6381,STD
3402388684000,1.485043,-0.980269934479771,-9.61186082344278,-1.45585719189119,-0.042760566,0.01160644,0.018325957,33.73638,98.28005,-4.662004,STD
3402393568000,1.489927,-0.96584170717685,-9.61558593997544,-1.4432663143537,-0.036651913,0.018020526,0.014966198,33.772625,98.30555,-4.683044,STD
3402398656000,1.495015,-0.95836138123273,-9.6180794296899,-1.42830566246546,-0.035124753,0.021991149,0.016493361,33.80636,98.33293,-4.705365,STD
3402403624000,1.499983,-0.95105747807031,-9.62051411068468,-1.41369785614062,-0.04642576,0.025045475,0.015271631,33.834087,98.35597,-4.7262373,STD
3402408718000,1.505077,-0.943568330987105,-9.62301054083513,-1.39871956197421,-0.043676864,0.017715093,0.01160644,33.85963,98.37499,-4.7467294,STD
3402413615000,1.509974,-0.937225555610072,-9.624691,-1.39319223036475,-0.038179077,0.017715093,0.007941248,33.887173,98.39452,-4.7680774,STD
3402418621000,1.51498,-0.932787353351231,-9.624691,-1.40872593827069,-0.032070424,0.021991149,0.013439035,33.913765,98.41395,-4.7907352,STD
3402423750000,1.520109,-0.928240102175523,-9.624691,-1.42464131738567,-0.03604105,0.026572637,0.013744468,33.93704,98.427086,-4.807086,STD
3402428616000,1.524975,-0.923926020635068,-9.624691,-1.43974060277726,-0.030848695,0.02076942,0.0125227375,33.95839,98.43727,-4.82447,STD
3402434122000,1.530481,-0.921378903936971,-9.62402250197554,-1.45500611593603,-0.03604105,0.015271631,0.015271631,33.979008,98.45319,-4.842241,STD
3402439181000,1.53554,-0.948725511665099,-9.61490678363123,-1.44589058795861,-0.03145956,0.008552114,0.01038471,33.997063,98.464066,-4.8574414,STD
3402443581000,1.53994,-0.9725098710254,-9.60697850517404,-1.43796247507056,-0.026572637,0.016187929,0.0106901415,34.01803,98.4808,-4.8743067,STD
3402448619000,1.544978,-0.984915231488303,-9.59745632165257,-1.43248057644599,-0.032070424,0.016798794,0.015271631,34.034893,98.4986,-4.891185,STD
3402453612000,1.549971,-0.99443578149328,-9.58793606988552,-1.42772035114983,-0.03481932,0.0067195175,0.0070249503,34.050243,98.51237,-4.9043503,STD
3402458635000,1.554994,-0.999966653449808,-9.57842632691738,-1.42296554655019,-0.02687807,0.0018325958,0.005192355,34.069378,98.529045,-4.9247165,STD
3402463600000,1.559959,-1.00466005114007,-9.56903933550489,-1.41827214885993,-0.03481932,0.007330383,0.0036651916,34.088173,98.5485,-4.942463,STD
3402468614000,1.564973,-0.994271295019862,-9.55970129919582,-1.42866090498014,-0.0290161,0.004276057,0.00030543262,34.099125,98.56052,-4.968376,STD
3402473633000,1.569992,-0.98029998627071,-9.5503873851371,-1.44263221372929,-0.027794369,0.0067195175,0.005192355,34.11341,98.57642,-4.995222,STD
3402478619000,1.574978,-0.980228275824176,-9.56165283241758,-1.45288581620879,-0.027183503,0.011301007,0.0070249503,34.127415,98.59017,-5.020523,STD
3402483595000,1.579954,-0.984742690071997,-9.57971039513073,-1.46191459756537,-0.026572637,0.019242255,0.0106901415,34.14325,98.604675,-5.04692,STD
3402488648000,1.585007,-0.992444882935555,-9.59241775143347,-1.46072606279833,-0.034513887,0.01863139,0.014049901,34.1562,98.62409,-5.069591,STD
3402493671000,1.59003,-1.00187478078412,-9.60184760004901,-1.45365363941191,-0.038789943,0.016798794,0.010079277,34.170853,98.64168,-5.090521,STD
3402498632000,1.594991,-1.01118828331781,-9.61116105395736,-1.44666851251164,-0.041233405,0.01863139,0.01160644,34.187286,98.663216,-5.114127,STD
3402503759000,1.600118,-1.02081342492036,-9.62078614530752,-1.43944965630973,-0.041233405,0.016187929,0.011911872,34.20172,98.68398,-5.13602,STD
3402508723000,1.605082,-1.03546730303561,-9.61931640027243,-1.42845924070831,-0.036957346,0.022907447,0.0067195175,34.22283,98.701324,-5.1550374,STD
3402513613000,1.609972,-1.05369290110917,-9.61020343471493,-1.41479003025881,-0.04062254,0.028099801,0.0143553335,34.243114,98.72248,-5.1775255,STD
3402518600000,1.614959,-1.05312170309246,-9.59563318065389,-1.41026651947105,-0.04428773,0.021685716,0.013133603,34.261734,98.73999,-5.198179,STD
3402523631000,1.61999,-1.03305464496043,-9.57556627967514,-1.4152833756768,-0.03726278,0.014966198,0.01038471,34.281746,98.75673,-5.219965,STD
3402528617000,1.624976,-1.02036712133668,-9.57593231189206,-1.39996276262943,-0.03604105,0.020463986,0.0076358155,34.306694,98.77585,-5.241093,STD
3402533600000,1.629959,-1.01288026937559,-9.59090593763728,-1.37001531569658,-0.035124753,0.0061086523,0.0125227375,34.324005,98.79408,-5.264134,STD
3402538857000,1.635216,-1.0067560428663,-9.60474279630223,-1.34115011428877,-0.03176499,0.0012217305,0.004581489,34.34786,98.80477,-5.279014,STD
3402543620000,1.639979,-1.02138069769157,-9.59499333183713,-1.34602499923052,-0.02321288,0.0030543262,0.013133603,34.370037,98.81767,-5.299898,STD
3402548611000,1.64497,-1.03357645092247,-9.5849466718287,-1.35536035104674,-0.029932396,0.0125227375,0.010995574,34.38424,98.824394,-5.314779,STD
3402553635000,1.649994,-1.02897709682631,-9.57574777153236,-1.38755587774591,-0.02565634,0.018325957,0.0070249503,34.398026,98.8279,-5.331193,STD
3402558657000,1.655016,-1.02436971013281,-9.56757859714707,-1.41806467609444,-0.025045475,0.0076358155,0.01038471,34.411415,98.83746,-5.351666,STD
3402563617000,1.659976,-1.01969672164289,-9.57225168322676,-1.42741060427939,-0.02687807,0.006414085,0.010995574,34.42871,98.84552,-5.3693156,STD
3402568815000,1.665174,-1.01445304007327,-9.57646276284781,-1.43755368989009,-0.031154128,0.0143553335,0.015882496,34.453625,98.85834,-5.3844295,STD
3402573639000,1.669998,-1.00530391972473,-9.57188810713932,-1.45127737041291,-0.035430185,0.016798794,0.009468411,34.475952,98.86966,-5.3965254,STD
3402578916000,1.675275,-0.996308797089874,-9.56819271137428,-1.46428870873038,-0.03145956,0.021685716,0.016493361,34.50159,98.88375,-5.4127316,STD
3402583598000,1.679957,-1.00042507154136,-9.58054179261911,-1.45193988537593,-0.026572637,0.018325957,0.01740966,34.524784,98.896324,-5.4254403,STD
3402588608000,1.684967,-1.00482971378867,-9.59375599531809,-1.43872595863399,-0.038789943,0.01863139,0.013744468,34.55027,98.91251,-5.4382095,STD
3402593620000,1.689979,-0.985984414318727,-9.59204486271726,-1.44239508325092,-0.033292156,0.027794369,0.01863139,34.577335,98.92517,-5.4532824,STD
3402598565000,1.694924,-0.962798467792411,-9.58740757850673,-1.44935086430355,-0.036957346,0.02565634,0.015271631,34.60053,98.940445,-5.465201,STD
3402603624000,1.699983,-0.939078001973072,-9.5826633882497,-1.45646700107711,-0.030848695,0.021685716,0.01740966,34.625187,98.95228,-5.4796104,STD
3402608651000,1.70501,-0.915507576657038,-9.57794920670747,-1.46353812571848,-0.033292156,0.018020526,0.014966198,34.648697,98.9654,-5.4916763,STD
3402613620000,1.709979,-0.917237894188504,-9.59913079192128,-1.45408954288969,-0.028710667,0.013744468,0.009468411,34.673584,98.9725,-5.504667,STD
3402618590000,1.714949,-0.927097380703263,-9.62870936986018,-1.43930030539617,-0.0290161,0.014660766,0.014966198,34.698853,98.9828,-5.5198364,STD
3402624269000,1.720628,-0.93362823188182,-9.62491184084826,-1.45523292752728,-0.040011674,0.017104227,0.01038471,34.72315,98.9879,-5.5194144,STD
3402628558000,1.724917,-0.937856654282479,-9.61645481943587,-1.47214661712992,-0.03848451,0.014966198,0.008552114,34.746307,98.9918,-5.521563,STD
3402633616000,1.729975,-0.93852705,-9.615114,-1.47277686527717,-0.04337143,0.016798794,0.009162978,34.773346,98.998405,-5.519254,STD
3402638680000,1.735039,-0.93852705,-9.615114,-1.47040410167816,-0.029321533,0.016493361,0.010995574,34.798664,99.00037,-5.51719,STD
3402643595000,1.739954,-0.93852705,-9.615114,-1.46810115280591,-0.029321533,0.02321288,0.01038471,34.82698,99.008965,-5.518203,STD
3402648609000,1.744968,-0.93852705,-9.615114,-1.46575181696756,-0.03726278,0.026267206,0.015882496,34.85401,99.01766,-5.521744,STD
3402653588000,1.749947,-0.957566753085604,-9.62273003233022,-1.45763556648028,-0.040927973,0.025045475,0.004886922,34.885662,99.020195,-5.518724,STD
3402658597000,1.754956,-0.981951788308255,-9.63248423993493,-1.44788161350142,-0.040011674,0.03848451,0.015577064,34.922764,99.02839,-5.5230017,STD
3402663620000,1.759979,-0.998181249905237,-9.63034453476309,-1.4617913922394,-0.036957346,0.033292156,0.01863139,34.95272,99.03315,-5.5227747,STD
3402668585000,1.764944,-1.01241032082793,-9.62560141206983,-1.48076343727681,-0.03634648,0.036651913,0.017104227,34.98854,99.039474,-5.523729,STD
3402673642000,1.770001,-0.995852538869258,-9.60540203886926,-1.4766894155477,-0.034513887,0.034208454,0.015271631,35.022247,99.046844,-5.5292645,STD
3402678620000,1.774979,-0.972455743423636,-9.58200524342364,-1.46733069736945,-0.03176499,0.027488936,0.018936822,35.0552,99.0547,-5.5360827,STD
3402683629000,1.779988,-0.9672575,-9.57849218240837,-1.47367713608043,-0.03390302,0.028710667,0.0125227375,35.092213,99.06543,-5.5418906,STD
3402688650000,1.785009,-0.9672575,-9.58066007912177,-1.48451639328254,-0.0290161,0.03390302,0.017104227,35.1221767638774,99.0728623557029,-5.54643875796741,STD
3402694492000,1.790851,-0.9672575,-9.58318245566025,-1.49712801259637,-0.029932396,0.02443461,0.0027488936,35.15704,99.08151,-5.5517306,STD
3402698678000,1.795037,-0.9672575,-9.58498982782562,-1.50616468470312,-0.021380283,0.02076942,0.008857546,35.189156,99.08776,-5.558321,STD
3402703548000,1.799907,-0.978084595280744,-9.58818855356528,-1.50952636823975,-0.026267206,0.019242255,0.016798794,35.211185,99.098915,-5.563438,STD
3402708545000,1.804904,-1.01105412307957,-9.59368358961994,-1.49853652564014,-0.037873644,0.026267206,0.014660766,35.234146,99.10896,-5.56728,STD
3402713535000,1.809894,-1.02194281556791,-9.59734862629071,-1.48287987676231,-0.035124753,0.022907447,0.0125227375,35.260983,99.11815,-5.572985,STD
3402718575000,1.814934,-1.01715061223193,-9.59974452779984,-1.46371108843824,-0.03023783,0.01863139,0.0061086523,35.28889,99.128296,-5.576721,STD
3402723528000,1.819887,-1.01244113145353,-9.60209907148531,-1.44487318991263,-0.03634648,0.02076942,0.0076358155,35.319363,99.14345,-5.5861874,STD
3402728536000,1.824895,-1.0076793548054,-9.60447976092137,-1.4258261081811,-0.038179077,0.032070424,0.009468411,35.350582,99.155426,-5.5937443,STD
3402733524000,1.829883,-1.0055647,-9.60928782580767,-1.42236848358209,-0.040317107,0.029932396,0.009468411,35.377674,99.16927,-5.6012573,STD
3402738514000,1.834873,-1.0055647,-9.6160593962781,-1.43139703208955,-0.028710667,0.03145956,0.016798794,35.408924,99.181946,-5.610867,STD
3402743531000,1.83989,-1.0055647,-9.6228676065086,-1.44047443246269,-0.03848451,0.025350908,0.013133603,35.43352,99.191444,-5.614612,STD
3402748561000,1.84492,-1.0055647,-9.62969345810505,-1.44957535410448,-0.035124753,0.024740042,0.012217305,35.460052,99.1972,-5.620983,STD
3402753580000,1.849939,-1.00635955124899,-9.63029374375504,-1.45726430249799,-0.027794369,0.01985312,0.008552114,35.485268,99.20201,-5.6252956,STD
3402758595000,1.854954,-1.0087783491942,-9.61819975402901,-1.4621018983884,-0.028099801,0.021380283,0.014049901,35.511997,99.20931,-5.631786,STD
3402763526000,1.859885,-1.01115663287671,-9.60630833561644,-1.46685846575342,-0.035124753,0.01740966,0.011301007,35.533497,99.21778,-5.636403,STD
3402768589000,1.864948,-1.01359858182917,-9.59409859085415,-1.47174236365834,-0.03145956,0.012217305,0.010079277,35.55498,99.22511,-5.6429925,STD
3402773531000,1.86989,-1.01431416245044,-9.5830746670797,-1.47069152089116,-0.044898596,0.012217305,0.014660766,35.57275,99.24086,-5.650626,STD
3402778595000,1.874954,-1.01191046919112,-9.57345994424068,-1.4586730796937,-0.03970624,0.018936822,0.016493361,35.59059,99.250725,-5.6570396,STD
3402783544000,1.879903,-1.00956136217288,-9.56406356522601,-1.44692756913164,-0.040317107,0.017104227,0.019547688,35.608147,99.26757,-5.6673856,STD
3402788650000,1.885009,-1.00713773306899,-9.55436909942506,-1.43480944891951,-0.03970624,0.0076358155,0.018936822,35.625126,99.28243,-5.6771545,STD
3402793553000,1.889912,-1.00411042484709,-9.55243976471712,-1.42985285030581,-0.042455133,0.013133603,0.020158553,35.645817,99.298836,-5.6877117,STD
3402798728000,1.895087,-0.99937419204893,-9.56664826529052,-1.43932531590214,-0.040317107,0.014660766,0.013744468,35.66218,99.31232,-5.6962724,STD
3402803611000,1.89997,-0.998145872266667,-9.57896501733333,-1.4450189026,-0.03359759,0.018020526,0.018020526,35.679375,99.324066,-5.7065606,STD
3402808604000,1.904963,-1.00725386510476,-9.58807320038095,-1.44046485862857,-0.032986723,0.029321533,0.022907447,35.698833,99.33556,-5.7147875,STD
3402813600000,1.909959,-1.01263468936605,-9.59721436605317,-1.43714770920245,-0.03481932,0.01740966,0.021380283,35.710403,99.34737,-5.7219,STD
3402818612000,1.914971,-0.993938060054533,-9.60656238786639,-1.44182191533742,-0.03940081,0.02321288,0.025045475,35.73038,99.36128,-5.730742,STD
3402823596000,1.919955,-0.974025224347826,-9.61591660932577,-1.44489401115312,-0.031154128,0.027488936,0.027183503,35.746548,99.3723,-5.7402673,STD
3402828616000,1.924975,-0.938682969275362,-9.62601460134426,-1.42974733944549,-0.04153884,0.033292156,0.022907447,35.764507,99.387886,-5.7486215,STD
3402833586000,1.929945,-0.908103189553335,-9.63003432388334,-1.41652074709362,-0.03970624,0.029321533,0.023823744,35.777893,99.398346,-5.7571225,STD
3402838639000,1.934998,-0.898233401586784,-9.60535985396696,-1.41158575005099,-0.03940081,0.029932396,0.019547688,35.793686,99.40967,-5.7625027,STD
3402843582000,1.939941,-0.891093437184552,-9.586384,-1.40688975033369,-0.036957346,0.027794369,0.027794369,35.80413,99.41583,-5.7657704,STD
3402848669000,1.945028,-0.893260957277096,-9.586384,-1.40255473278163,-0.050701816,0.0290161,0.021991149,35.81485,99.422356,-5.7637725,STD
3402853575000,1.949934,-0.895351355070297,-9.586384,-1.39837395902296,-0.03970624,0.016493361,0.015577064,35.820503,99.42291,-5.763354,STD
3402858654000,1.955013,-0.897515466442427,-9.586384,-1.39404575887613,-0.040927973,0.01038471,0.012217305,35.828075,99.42878,-5.7619667,STD
3402863587000,1.959946,-0.899617368667023,-9.586384,-1.3898419763748,-0.031154128,0.019547688,0.015577064,35.83635,99.4297,-5.760662,STD
3402868599000,1.964958,-0.903604165692678,-9.58130743279477,-1.40048207610863,-0.036651913,0.021685716,0.021685716,35.84405,99.43331,-5.75761,STD
3402873631000,1.96999,-0.90833730250356,-9.57420757560281,-1.41704806359574,-0.03390302,0.018936822,0.018020526,35.852547,99.43179,-5.752745,STD
3402878613000,1.974972,-0.913023408940726,-9.56717826548151,-1.4334494446889,-0.03848451,0.0290161,0.018020526,35.86137,99.436775,-5.7508698,STD
3402883601000,1.97996,-0.917715159022737,-9.56014048971173,-1.44987057854933,-0.04642576,0.0290161,0.015882496,35.86622,99.44086,-5.7479315,STD
3402888664000,1.985023,-0.914962232999116,-9.56647546778021,-1.44685214757363,-0.042760566,0.028405234,0.009162978,35.869305,99.44561,-5.742947,STD
3402893595000,1.989954,-0.908370805413856,-9.57965837342391,-1.43366926487228,-0.04642576,0.033292156,0.016798794,35.874374,99.45577,-5.7413898,STD
3402898680000,1.995039,-0.901573521035221,-9.59325299423068,-1.42007466772438,-0.05100725,0.03145956,0.020158553,35.878086,99.46879,-5.7432585,STD
3402903653000,2.000012,-0.894925950688131,-9.60654818582794,-1.40677949926488,-0.043066,0.028710667,0.014966198,35.88287,99.47933,-5.744724,STD
3402908669000,2.005028,-0.894982651371412,-9.61771780974292,-1.40168538288487,-0.045814894,0.032986723,0.02107485,35.88967,99.495575,-5.7501326,STD
3402913665000,2.010024,-0.906947661576473,-9.62489696729019,-1.41125741803541,-0.043982297,0.034208454,0.024129177,35.89449,99.50727,-5.7534127,STD
3402918631000,2.01499,-0.918840824242273,-9.63203301540462,-1.4207719749925,-0.047647487,0.032375857,0.020463986,35.8892,99.51773,-5.7540565,STD
3402923635000,2.019994,-0.930824993791137,-9.63922366880064,-1.4303593376613,-0.04642576,0.03023783,0.018020526,35.884483,99.527084,-5.755814,STD
3402928553000,2.024912,-0.937769452342552,-9.6415721595631,-1.44030898828724,-0.049785517,0.025045475,0.01985312,35.871635,99.540375,-5.761927,STD
3402933600000,2.029959,-0.935522921568673,-9.63483242649314,-1.45154164215663,-0.037873644,0.024740042,0.018020526,35.859653,99.54844,-5.7660093,STD
3402939067000,2.035426,-0.933089439551476,-9.62753182798048,-1.46370905224262,-0.034513887,0.032986723,0.022296581,35.858967,99.5618,-5.7743454,STD
3402943635000,2.039994,-0.931056122219382,-9.621431748594,-1.47387563890309,-0.040927973,0.027183503,0.015882496,35.853855,99.57222,-5.779475,STD
3402948985000,2.045344,-0.929724820929878,-9.61330668715157,-1.48363043041812,-0.04153884,0.021380283,0.025045475,35.85195,99.583755,-5.7897263,STD
3402953616000,2.049975,-0.935519712652439,-9.59978541768293,-1.47783554878049,-0.03359759,0.027794369,0.01863139,35.85116,99.590706,-5.793334,STD
3402958558000,2.054917,-0.941703766829268,-9.58535611219512,-1.47165150536585,-0.026572637,0.03481932,0.021685716,35.85484,99.60247,-5.800802,STD
3402963616000,2.059975,-0.948032974847561,-9.57058811803136,-1.46532230836237,-0.03970624,0.032986723,0.015882496,35.857246,99.61414,-5.8039384,STD
3402968633000,2.064992,-0.954310878490854,-9.55593983279617,-1.4590444156446,-0.034208454,0.027183503,0.015882496,35.860832,99.62135,-5.8093786,STD
3402973625000,2.069984,-0.959972711576098,-9.54349288111597,-1.46713465788049,-0.029932396,0.025961773,0.01863139,35.86506,99.63107,-5.8137927,STD
3402978622000,2.074981,-0.964954521861337,-9.53352905246721,-1.49204370930668,-0.034513887,0.03573562,0.014660766,35.870525,99.6402,-5.8160405,STD
3402984124000,2.080483,-0.968706206013933,-9.53616653006967,-1.4992124819582,-0.031154128,0.038179077,0.017104227,35.86873,99.65054,-5.82772,STD
3402988684000,2.085043,-0.970775786033837,-9.54651443016919,-1.49300374189849,-0.03573562,0.029321533,0.013133603,35.866207,99.6617,-5.8362694,STD
3402993568000,2.089927,-0.972992415160419,-9.5575975758021,-1.48635385451874,-0.03573562,0.03359759,0.014966198,35.870796,99.676186,-5.8480563,STD
3402998678000,2.095037,-0.975311615577461,-9.5691935778873,-1.47939625326762,-0.04520403,0.022907447,0.014966198,35.86847,99.692535,-5.8588543,STD
3403003667000,2.100026,-0.975406778452837,-9.58108950501733,-1.47340067845284,-0.03848451,0.02321288,0.015882496,35.870453,99.70749,-5.8662434,STD
3403008630000,2.104989,-0.971070922003284,-9.59409689326765,-1.46906482200328,-0.036957346,0.028710667,0.01282817,35.87087,99.724625,-5.872551,STD
3403013581000,2.10994,-0.966693649422285,-9.60666472470612,-1.46299600357681,-0.046120327,0.023518313,0.014660766,35.86757,99.74132,-5.880504,STD
3403018663000,2.115022,-0.961803737074249,-9.61644475364212,-1.44343640524465,-0.04337143,0.033292156,0.021380283,35.870296,99.75492,-5.888051,STD
3403023658000,2.120017,-0.9576807,-9.6237731912261,-1.42663835948256,-0.05009095,0.027488936,0.016798794,35.865917,99.76904,-5.8922997,STD
3403028620000,2.124979,-0.9576807,-9.61735887131609,-1.42450022307762,-0.04428773,0.02565634,0.016187929,35.865986,99.78118,-5.898905,STD
3403033584000,2.129943,-0.9576807,-9.61094196602925,-1.42236122486839,-0.04062254,0.023518313,0.0106901415,35.862164,99.79,-5.901294,STD
3403038681000,2.13504,-0.9576807,-9.60435313318335,-1.42016491667492,-0.040317107,0.019547688,0.017715093,35.857906,99.80005,-5.907103,STD
3403043566000,2.139925,-0.9576807,-9.59803835028121,-1.41805995973453,-0.03604105,0.026267206,0.020158553,35.85583,99.80637,-5.909642,STD
3403048686000,2.145045,-0.963592886697127,-9.59891684641069,-1.41441134491697,-0.035124753,0.023518313,0.014660766,35.850056,99.812996,-5.912302,STD
3403054361000,2.15072,-0.973143601045602,-9.60369180467446,-1.40963588801511,-0.03145956,0.029321533,0.0143553335,35.84906,99.81914,-5.916397,STD
3403058624000,2.154983,-0.993750578657438,-9.60741662358965,-1.41530887659998,-0.03359759,0.032070424,0.013439035,35.847977,99.822525,-5.921171,STD
3403063618000,2.159977,-1.03456212243292,-9.61195132900351,-1.43344741415568,-0.05100725,0.023518313,0.016493361,35.845512,99.82916,-5.9270444,STD
3403068588000,2.164947,-1.05872369148122,-9.61798198892357,-1.44466392051153,-0.03268129,0.022907447,0.022907447,35.846527,99.828995,-5.9343653,STD
3403073632000,2.169991,-1.04413134005639,-9.62771039250831,-1.43979976950962,-0.038179077,0.026572637,0.02107485,35.846222,99.83714,-5.9401817,STD
3403078605000,2.174964,-1.03200220709285,-9.63312152960426,-1.4353745655175,-0.04062254,0.028405234,0.019547688,35.85072,99.85388,-5.946919,STD
3403083602000,2.179961,-1.0247183,-9.6294795,-1.43173265,-0.045814894,0.031154128,0.019242255,35.856544,99.87196,-5.95323,STD
3403088617000,2.184976,-1.01740815509893,-9.62582435121766,-1.42807761571537,-0.04337143,0.02565634,0.024129177,35.862003,99.88477,-5.957385,STD
3403093602000,2.189961,-0.99802240201355,-9.62157837290946,-1.43005686208841,-0.043066,0.032375857,0.024129177,35.87146,99.89805,-5.959532,STD
3403098684000,2.195043,-0.972658187445871,-9.61696660297532,-1.43466853571327,-0.037873644,0.022296581,0.0290161,35.87491,99.91103,-5.9653215,STD
3403103588000,2.199947,-0.948182369216847,-9.61251636296016,-1.43911868279244,-0.036651913,0.0125227375,0.018936822,35.878723,99.9203,-5.965016,STD
3403108628000,2.204987,-0.923027776257166,-9.60794270682712,-1.44369224341214,-0.028710667,0.020463986,0.018020526,35.885258,99.92902,-5.9683576,STD
3403113622000,2.209981,-0.911939366165966,-9.59910896428572,-1.45038329443277,-0.036651913,0.01038471,0.020158553,35.88362,99.93966,-5.9708166,STD
3403118610000,2.214969,-0.916500961708365,-9.5854243538961,-1.45950644741215,-0.031154128,0.020463986,0.0125227375,35.889545,99.94341,-5.969155,STD
3403123839000,2.220198,-0.922398617685325,-9.57579858971256,-1.46827656768533,-0.03268129,0.015271631,0.015577064,35.885475,99.94731,-5.9644237,STD
3403128620000,2.224979,-0.929325498290469,-9.57348958129097,-1.47520344829047,-0.035124753,0.01282817,0.019547688,35.88477,99.948975,-5.957511,STD
3403133584000,2.229943,-0.936517515718608,-9.5710921920827,-1.48239546571861,-0.03604105,0.013133603,0.017104227,35.887764,99.952225,-5.9477882,STD
3403138699000,2.235058,-0.943928307246596,-9.56862187665154,-1.4898062572466,-0.036957346,0.025961773,0.015577064,35.893772,99.95675,-5.9393253,STD
3403143616000,2.239975,-0.951239120089286,-9.57036532738095,-1.49241416904762,-0.045814894,0.02076942,0.015577064,35.89463,99.963036,-5.9315906,STD
3403148714000,2.245073,-0.959093472381757,-9.5782198231982,-1.48848700315315,-0.043066,0.027488936,0.018020526,35.90244,99.96695,-5.9234557,STD
3403153640000,2.249999,-0.96668282887307,-9.58580931837194,-1.48469233481338,-0.04520403,0.02321288,0.01985312,35.91803,99.97326,-5.9143767,STD
3403158630000,2.254989,-0.95735687281124,-9.58143359594716,-1.4547032476601,-0.056199603,0.019242255,0.021685716,35.93533,99.9814,-5.9061584,STD
3403163582000,2.259941,-0.947568725298246,-9.57627186412281,-1.4253389147193,-0.039095376,0.02443461,0.022907447,35.953712,99.98374,-5.898497,STD
3403168621000,2.26498,-0.94333561168421,-9.57203866210526,-1.41263948547368,-0.044593163,0.02687807,0.022602014,35.97023,99.99405,-5.892634,STD
3403174609000,2.270968,-0.938768091262275,-9.56771207874917,-1.39869578252455,-0.042455133,0.013439035,0.009162978,35.986023,99.987,-5.8830485,STD
3403178619000,2.274978,-0.942429361950615,-9.57503456278006,-1.40601832390123,-0.035124753,0.015577064,0.01160644,36.0071,99.982925,-5.8774943,STD
3403183644000,2.280003,-0.947017363249595,-9.58421049351702,-1.41519432649919,-0.040011674,0.011911872,0.0076358155,36.02024,99.975815,-5.866252,STD
3403188687000,2.285046,-0.951621799180093,-9.59341929325961,-1.42440319836019,-0.035124753,0.0030543262,0.008857546,36.032413,99.9664,-5.8576627,STD
3403193696000,2.290055,-0.956195191917723,-9.60256600710268,-1.43354998383545,-0.032375857,0.008552114,0.015271631,36.047302,99.95913,-5.849364,STD
3403198717000,2.295076,-0.974223686156352,-9.60884566632736,-1.43982963177932,-0.030848695,0.008552114,0.01038471,36.059807,99.94734,-5.839996,STD
3403203666000,2.300025,-0.998346031026059,-9.61367023605456,-1.44465415112989,-0.032375857,0.008552114,0.02076942,36.074368,99.93969,-5.8368077,STD
3403208600000,2.304959,-1.0072093357189,-9.61675867006515,-1.45925496857811,-0.03604105,0.006414085,0.02076942,36.08901,99.93306,-5.831488,STD
3403213620000,2.309979,-1.00960032074899,-9.6191497050281,-1.47838282385239,-0.032375857,0.006414085,0.016493361,36.10414,99.926414,-5.827975,STD
3403218608000,2.314967,-1.01197606444024,-9.62152549833391,-1.49738874857512,-0.03023783,0.012217305,0.027488936,36.122715,99.9273,-5.832639,STD
3403223628000,2.319987,-1.01436704947033,-9.62391653329686,-1.51651660384941,-0.036651913,0.018020526,0.024740042,36.140224,99.926476,-5.83228,STD
3403228620000,2.324979,-1.01039260359458,-9.61994216971125,-1.52587816399529,-0.04520403,0.020463986,0.022907447,36.15857,99.92789,-5.835225,STD
3403233618000,2.329977,-1.00334121196229,-9.61289087625221,-1.53057914083677,-0.03940081,0.0143553335,0.018325957,36.175514,99.9267,-5.8367815,STD
3403238635000,2.334994,-0.996263014319387,-9.60581277715577,-1.5352979885386,-0.033292156,0.01038471,0.018325957,36.202023,99.93082,-5.838879,STD
3403243624000,2.339983,-0.989224320271067,-9.59877418110391,-1.53999050023571,-0.034513887,0.004581489,0.01740966,36.22555,99.9345,-5.83991,STD
3403248705000,2.345064,-0.980638090509666,-9.59307443497364,-1.52166040650264,-0.03604105,0.009162978,0.015271631,36.25042,99.93682,-5.8404794,STD
3403253626000,2.349985,-0.971435311208748,-9.58847294922867,-1.48945058285491,-0.029321533,-0.00061086525,0.018936822,36.269314,99.938484,-5.843367,STD
3403258626000,2.354985,-0.969864214111395,-9.5889907685495,-1.48264834233419,-0.03176499,0.003970624,0.017104227,36.292385,99.941505,-5.8419943,STD
3403263623000,2.359982,-0.974573451426884,-9.59370010421177,-1.49677605428065,-0.028099801,-0.0018325958,0.01863139,36.309647,99.94287,-5.84353,STD
3403268598000,2.364957,-0.969390908749874,-9.59844191883737,-1.49611522170371,-0.029626964,0.0030543262,0.013744468,36.336067,99.93593,-5.8356194,STD
3403273698000,2.370057,-0.954654381041939,-9.60335367585236,-1.48137871964196,-0.0290161,0.0012217305,0.011911872,36.358578,99.92881,-5.8298154,STD
3403278618000,2.374977,-0.953095212617258,-9.60428926521291,-1.47607603902559,-0.026572637,0.010995574,0.019547688,36.386513,99.92518,-5.826259,STD
3403283614000,2.379973,-0.962494702868228,-9.60193959201414,-1.47842590852119,-0.024740042,0.016187929,0.017104227,36.411625,99.91987,-5.819902,STD
3403288664000,2.385023,-0.971995788890526,-9.59956452202741,-1.48080117692648,-0.03481932,0.007330383,0.0106901415,36.43011,99.91464,-5.8141527,STD
3403293669000,2.390028,-0.981412211770051,-9.59721061603065,-1.48315527957369,-0.03145956,0.011301007,0.01740966,36.453667,99.90807,-5.810981,STD
3403298625000,2.394984,-0.988584980647709,-9.58943922186019,-1.47570950010861,-0.038179077,0.015577064,0.019547688,36.473927,99.904625,-5.805337,STD
3403303631000,2.39999,-0.993318537203791,-9.57523825562796,-1.45677532331161,-0.035430185,0.013744468,0.02687807,36.493633,99.90053,-5.803399,STD
3403308582000,2.404941,-0.989953722029214,-9.56119590604027,-1.44810927165417,-0.03145956,0.008246681,0.018020526,36.51452,99.898705,-5.8009567,STD
3403313619000,2.409978,-0.975670754717726,-9.54691313758389,-1.45287021104422,-0.027488936,0.015271631,0.019547688,36.538765,99.89942,-5.803215,STD
3403318558000,2.414917,-0.963508889658595,-9.5366256605796,-1.46317180111155,-0.036651913,0.0076358155,0.017715093,36.549103,99.90171,-5.80638,STD
3403323633000,2.419992,-0.953861730691743,-9.53180199295355,-1.48246606867805,-0.036651913,0.007330383,0.014660766,36.563274,99.90118,-5.809048,STD
3403328589000,2.424948,-0.944484790573124,-9.53254204147669,-1.49669609527872,-0.025961773,0.005497787,0.018020526,36.574154,99.9005,-5.8116436,STD
3403333609000,2.429968,-0.935056830882973,-9.54196995440506,-1.50376706689219,-0.030848695,0.009468411,0.021685716,36.586273,99.90303,-5.81329,STD
3403338568000,2.434927,-0.925743434049615,-9.55128330504486,-1.51075211634064,-0.04337143,0.0125227375,0.016798794,36.59477,99.90751,-5.813269,STD
3403343736000,2.440095,-0.916037518575771,-9.56098917237829,-1.5180315548463,-0.027488936,0.002443461,0.014966198,36.600796,99.90766,-5.8155193,STD
3403348582000,2.444941,-0.912692898837371,-9.565781849583,-1.51981595965052,-0.03390302,0.01038471,0.014660766,36.61254,99.91522,-5.816032,STD
3403353637000,2.449996,-0.922305825510326,-9.56097528335981,-1.5102030279587,-0.03481932,0.01038471,0.014049901,36.618965,99.91749,-5.8166795,STD
3403358596000,2.454955,-0.931917476594995,-9.56160937786394,-1.48971156665492,-0.048563786,0.011911872,0.01863139,36.624844,99.92611,-5.814679,STD
3403363615000,2.459974,-0.942083012622489,-9.57516368537187,-1.44227248108565,-0.040011674,0.019547688,0.020463986,36.632233,99.92908,-5.811611,STD
3403368612000,2.464971,-0.952203989615791,-9.58865857969686,-1.39504133731406,-0.047647487,0.015577064,0.019547688,36.636986,99.939255,-5.8108206,STD
3403373632000,2.469991,-0.953384767838466,-9.5948869959326,-1.37163136327716,-0.03970624,0.0125227375,0.018020526,36.6441,99.94388,-5.8101153,STD
3403379193000,2.475552,-0.943069707929014,-9.59230818046678,-1.3767888865001,-0.035430185,0.015577064,0.015271631,36.651653,99.950615,-5.80881,STD
3403383588000,2.479947,-0.934917453244238,-9.59027007689328,-1.38086500852218,-0.041233405,0.0070249503,0.014966198,36.6489,99.9503,-5.810463,STD
3403388647000,2.485006,-0.925533549615049,-9.5879240550552,-1.38555695421267,-0.037873644,0.004276057,0.016493361,36.64863,99.94682,-5.8114667,STD
3403393602000,2.489961,-0.920953307768804,-9.58875375365977,-1.39100679490156,-0.025045475,0.0076358155,0.015882496,36.64759,99.942116,-5.811823,STD
3403398643000,2.495002,-0.925827275340737,-9.59606460323069,-1.39831777170621,-0.022296581,0.016798794,0.010995574,36.64735,99.93855,-5.8111987,STD
3403403606000,2.499965,-0.930625827425543,-9.60326233114589,-1.40551562488642,-0.037873644,0.009773844,0.008857546,36.642784,99.935776,-5.809088,STD
3403408640000,2.504999,-0.935493026940939,-9.61056302877335,-1.41281644957092,-0.023518313,0.0067195175,0.008246681,36.641758,99.92505,-5.805556,STD
3403413573000,2.509932,-0.936873336099086,-9.61676774843675,-1.42728976613757,-0.024129177,0.01160644,0.013744468,36.642944,99.91745,-5.808804,STD
3403418615000,2.514974,-0.932228196551226,-9.62141298499279,-1.45516055492063,-0.024129177,0.015271631,0.01740966,36.64279,99.90632,-5.811395,STD
3403423581000,2.51994,-0.926317144965827,-9.6240327098223,-1.47153682472173,-0.032986723,0.018936822,0.017104227,36.6455,99.9006,-5.8157926,STD
3403428622000,2.524981,-0.916889955706405,-9.62167586267331,-1.45975285968073,-0.036957346,0.012217305,0.018020526,36.64643,99.894844,-5.8216596,STD
3403433584000,2.529943,-0.907610504584554,-9.61935595083968,-1.44815356697422,-0.034208454,0.018325957,0.0125227375,36.653828,99.89005,-5.8268757,STD
3403438632000,2.534991,-0.898170224604081,-9.61699583094122,-1.4363532385618,-0.029626964,0.02107485,0.0106901415,36.65848,99.88668,-5.833581,STD
3403443594000,2.539953,-0.894223849807462,-9.61600921638069,-1.43321067445132,-0.03268129,0.014660766,0.01282817,36.662132,99.88437,-5.839825,STD
3403449076000,2.545435,-0.915173572032123,-9.62124675768156,-1.46987264322626,-0.047036625,0.0061086523,0.018020526,36.665894,99.88402,-5.846252,STD
3403453638000,2.549997,-0.928053742360364,-9.62289794727575,-1.49308529236036,-0.042760566,0.012217305,0.0125227375,36.668594,99.87342,-5.84599,STD
3403458637000,2.554996,-0.923370731189475,-9.61353172933581,-1.48840228118947,-0.029321533,0.017104227,0.008857546,36.668808,99.86535,-5.8479657,STD
3403463605000,2.559964,-0.920012937216613,-9.60425806563155,-1.48312602556677,-0.043066,0.0061086523,0.014966198,36.67001,99.87014,-5.85555,STD
3403468607000,2.564966,-0.924576011478377,-9.59513220299105,-1.47399987704325,-0.038789943,0.010995574,0.008857546,36.676422,99.86514,-5.85769,STD
3403473769000,2.570128,-0.928272459282615,-9.58604509738695,-1.46592919107126,-0.040317107,0.013439035,0.009468411,36.6873,99.86168,-5.860593,STD
3403478655000,2.575014,-0.919248793219555,-9.58153316777553,-1.47495286184553,-0.0421497,0.01282817,0.01282817,36.698357,99.85701,-5.862477,STD
3403483969000,2.580328,-0.90946549330981,-9.57746932992237,-1.48407383330981,-0.035124753,0.018325957,0.01160644,36.711826,99.849724,-5.863292,STD
3403488775000,2.585134,-0.90134515089626,-9.59370992995766,-1.47595349089626,-0.030543262,0.025045475,0.011911872,36.72544,99.84451,-5.865446,STD
3403493648000,2.590007,-0.893111603542696,-9.6101769386909,-1.4677199435427,-0.035430185,0.028710667,0.01038471,36.734886,99.84116,-5.8685575,STD
3403498741000,2.5951,-0.894050255731731,-9.61284260654346,-1.45730126199961,-0.035430185,0.02443461,0.015577064,36.744053,99.837105,-5.8736353,STD
3403503647000,2.600006,-0.898652596662313,-9.60977447430288,-1.44656244673807,-0.03970624,0.025350908,0.011301007,36.755108,99.83352,-5.875208,STD
3403508597000,2.604956,-0.903296214193169,-9.60667882518122,-1.43572731923203,-0.0290161,0.028099801,0.010079277,36.761295,99.82577,-5.878649,STD
3403513620000,2.609979,-0.908008313356299,-9.60353752305231,-1.4247324009567,-0.03145956,0.028710667,0.007941248,36.76682,99.82133,-5.880588,STD
3403518632000,2.614991,-0.912710093369359,-9.60040310014367,-1.41376156074251,-0.03359759,0.019242255,0.0061086523,36.770084,99.8145,-5.8824835,STD
3403523590000,2.619949,-0.917361215736629,-9.59730244795272,-1.40290892191928,-0.026572637,0.021991149,0.01038471,36.777027,99.80708,-5.884954,STD
3403528618000,2.624977,-0.924861407543232,-9.60419282170543,-1.40918964373882,-0.025045475,0.014049901,0.012217305,36.777973,99.8009,-5.886937,STD
3403533623000,2.629982,-0.934388715036772,-9.61848358397933,-1.4282443084675,-0.03481932,0.012217305,0.0076358155,36.78126,99.79559,-5.8878736,STD
3403538625000,2.634984,-0.943819333556424,-9.6193986197362,-1.44181326974108,-0.034513887,0.0030543262,0.0061086523,36.77466,99.78881,-5.8933997,STD
3403543636000,2.639995,-0.95319685579873,-9.61002092613581,-1.45119076750366,-0.022602014,0.011301007,0.0076358155,36.77253,99.781494,-5.8976526,STD
3403548618000,2.644977,-0.962354337441027,-9.61021073504435,-1.45801141872051,-0.027794369,0.016493361,0.007941248,36.768738,99.780876,-5.903296,STD
3403553632000,2.649991,-0.971416061388941,-9.61927264823552,-1.46254228069447,-0.03145956,0.019242255,0.013744468,36.766945,99.77856,-5.910445,STD
3403558590000,2.654949,-0.980376577410832,-9.62823335138705,-1.46702253870542,-0.03390302,0.015577064,0.006414085,36.76592,99.77777,-5.915859,STD
3403563623000,2.659982,-0.989472639762219,-9.63732960369881,-1.47157056988111,-0.03176499,0.018020526,0.011301007,36.768154,99.779945,-5.925758,STD
3403568617000,2.664976,-0.994596677367568,-9.64245374831355,-1.47274137331486,-0.036651913,0.014966198,0.01038471,36.763893,99.787476,-5.926391,STD
3403573613000,2.669972,-0.989592682931548,-9.6374496493751,-1.46523540778644,-0.029932396,0.015882496,0.015577064,36.761997,99.793594,-5.9298315,STD
3403578567000,2.674926,-0.984630755702557,-9.6324876185222,-1.45779254284893,-0.026572637,0.024129177,0.016493361,36.763042,99.80352,-5.9345207,STD
3403583615000,2.679974,-0.979574678057836,-9.62743143528735,-1.45020845277938,-0.032375857,0.026572637,0.015577064,36.76294,99.81433,-5.9401917,STD
3403588620000,2.684979,-0.972704344816117,-9.62262597928348,-1.43783794650765,-0.032375857,0.021380283,0.015271631,36.76312,99.82312,-5.9461274,STD
3403593635000,2.689994,-0.963576215575406,-9.6180618193481,-1.4195815927112,-0.03390302,0.019547688,0.0143553335,36.764927,99.83308,-5.9512887,STD
3403598557000,2.694916,-0.95367887065647,-9.61751514574437,-1.41259269955805,-0.035124753,0.010995574,0.014966198,36.761898,99.84019,-5.955284,STD
3403603623000,2.699982,-0.94163296010726,-9.62474283697487,-1.42704780529844,-0.03634648,0.017715093,0.013744468,36.762672,99.84698,-5.957881,STD
3403608552000,2.704911,-0.929912807502235,-9.63177506952031,-1.44111200115205,-0.026572637,0.019242255,0.014049901,36.75609,99.8522,-5.954233,STD
3403613619000,2.709978,-0.917864519157811,-9.63900418745655,-1.45556996024928,-0.022602014,0.021685716,0.013439035,36.751717,99.8584,-5.9498034,STD
3403618599000,2.714958,-0.911262410383836,-9.64237921747517,-1.47111440765744,-0.035124753,0.016187929,0.009773844,36.745525,99.86546,-5.9449663,STD
3403623624000,2.719983,-0.915903491466872,-9.63773803462243,-1.48967875137429,-0.035430185,0.010995574,0.002443461,36.74002,99.867935,-5.9389257,STD
3403628608000,2.724967,-0.920521767560833,-9.63484217077104,-1.50126196487834,-0.040317107,0.004581489,0.0033597588,36.725197,99.87816,-5.9352083,STD
3403634284000,2.730643,-0.925833789138083,-9.63749823702727,-1.49063792172383,-0.036651913,0.00580322,0.004886922,36.71111,99.884964,-5.9295874,STD
3403638639000,2.734998,-0.929909520986026,-9.63953614550963,-1.48248645802795,-0.02565634,0.015577064,-0.0021380284,36.69944,99.89271,-5.9234014,STD
3403643615000,2.739974,-0.93456643067038,-9.64186464897879,-1.47317263865924,-0.020158553,0.01863139,0.011911872,36.687416,99.90432,-5.9238844,STD
3403648620000,2.744979,-0.935969929285838,-9.64128782521589,-1.46461211965458,-0.03390302,0.018020526,0.0036651916,36.6762,99.9125,-5.915913,STD
3403653649000,2.750008,-0.919333758430052,-9.62465130259067,-1.46045307585492,-0.03176499,0.015577064,0.007330383,36.66659,99.91992,-5.9152694,STD
3403658570000,2.754929,-0.9030548567038,-9.6083720566494,-1.45638334936097,-0.029932396,0.021991149,0.0067195175,36.66005,99.92824,-5.9068904,STD
3403663637000,2.759996,-0.916022289873795,-9.60869755263777,-1.45883508663479,-0.021380283,0.017104227,0.004581489,36.64988,99.93454,-5.899848,STD
3403668731000,2.76509,-0.935142854666458,-9.61252174625696,-1.46265920039194,-0.025350908,0.015882496,0.004276057,36.64278,99.94321,-5.892956,STD
3403673615000,2.769974,-0.946278300406287,-9.61328850759291,-1.46707694959371,-0.025961773,0.023823744,0.008552114,36.635685,99.946884,-5.884008,STD
3403678630000,2.774989,-0.939880584674304,-9.60689099227388,-1.4734746653257,-0.040317107,0.010995574,0.0106901415,36.6224,99.95402,-5.8754835,STD
3403683627000,2.779986,-0.933505831830292,-9.60051643912349,-1.47984941816971,-0.028099801,0.0076358155,0.009468411,36.620216,99.95857,-5.866089,STD
3403688625000,2.784984,-0.935412377799319,-9.5972533162474,-1.48311257578967,-0.026267206,0.0067195175,0.002443461,36.6166918715084,99.9668218854749,-5.85750818589385,STD
3403693651000,2.79001,-0.958172471926423,-9.6018049500662,-1.47856056171742,-0.022907447,0.018936822,0.005192355,36.613148,99.97512,-5.8488793,STD
3403698705000,2.795064,-0.977699355126343,-9.60726714638397,-1.47223304365379,-0.03145956,0.018936822,0.009468411,36.60848,99.98287,-5.8402343,STD
3403703919000,2.800278,-0.982533650334011,-9.61693593871624,-1.45773020851002,-0.040011674,0.014660766,0.015577064,36.606255,99.99045,-5.832874,STD
3403708533000,2.804892,-0.985961357897598,-9.62514075149473,-1.4451984157952,-0.0421497,0.022602014,0.0125227375,36.607395,99.99973,-5.828961,STD
3403713518000,2.809877,-0.980771625535384,-9.63033059223829,-1.43481895107077,-0.03756821,0.021991149,0.007941248,36.605175,100.00985,-5.82694,STD
3403718532000,2.814891,-0.979105667330831,-9.63086087785157,-1.42240155347964,-0.038179077,0.026267206,0.009773844,36.606388,100.01882,-5.827584,STD
3403723569000,2.819928,-0.988392093666378,-9.61693094744441,-1.40382865232457,-0.038789943,0.017104227,0.009468411,36.60337,100.0254,-5.826956,STD
3403728552000,2.824911,-0.996832623875715,-9.60384760517171,-1.38948171505519,-0.035430185,0.01985312,0.010079277,36.60399,100.029495,-5.8252664,STD
3403733528000,2.829887,-1.00170324497138,-9.59410666813164,-1.39435228529231,-0.03176499,0.029626964,0.01160644,36.604115,100.03359,-5.8238854,STD
3403738548000,2.834907,-1.00248080783824,-9.58741198552172,-1.39204592641038,-0.03145956,0.021991149,0.0067195175,36.600563,100.03456,-5.823473,STD
3403743558000,2.839917,-0.988108435996006,-9.59220287618572,-1.36330123275087,-0.03176499,0.014966198,0.013133603,36.60047,100.036934,-5.82628,STD
3403748548000,2.844907,-0.975833569716088,-9.59996390023659,-1.34275446056782,-0.02687807,0.016798794,0.009468411,36.601006,100.037025,-5.8259454,STD
3403753616000,2.849975,-0.971048946056782,-9.61910229495268,-1.35232370788644,-0.027794369,0.016187929,0.014049901,36.5995,100.0409,-5.8300653,STD
3403758573000,2.854932,-0.965468203400179,-9.63247867070386,-1.36527448512856,-0.024740042,0.013133603,0.009162978,36.5991,100.03032,-5.828748,STD
3403763551000,2.85991,-0.956002615223866,-9.62301290956021,-1.39367122494788,-0.021685716,0.015271631,0.007330383,36.600246,100.02147,-5.829331,STD
3403768528000,2.864887,-0.948885404847293,-9.61459298066371,-1.41710697673035,-0.02443461,0.007941248,0.004581489,36.597473,100.01257,-5.827932,STD
3403773687000,2.870046,-0.953784604673762,-9.61132695544391,-1.41547387885899,-0.029626964,0.008552114,0.004581489,36.597553,100.00398,-5.8263736,STD
3403778548000,2.874907,-0.95840081137205,-9.60824958607127,-1.41393511383619,-0.034208454,0.0106901415,0.014049901,36.597557,100.00004,-5.8268056,STD
3403783536000,2.879895,-0.963137622524294,-9.60509181638792,-1.41235614655913,-0.02107485,0.01863139,0.0067195175,36.59868,99.9905,-5.8222303,STD
3403788588000,2.884947,-0.967935210724202,-9.60189353001256,-1.41075691987836,-0.027183503,0.0070249503,0.0033597588,36.586872,99.995,-5.8218884,STD
3403793551000,2.88991,-0.972648280842203,-9.59875158716203,-1.40918586643088,-0.028710667,0.013439035,0.004886922,36.582474,99.994934,-5.8198066,STD
3403798548000,2.894907,-0.975453863141794,-9.595961,-1.40972311246635,-0.028405234,0.011301007,-0.0009162979,36.572094,99.993965,-5.815515,STD
3403803620000,2.899979,-0.963566637768587,-9.595961,-1.42636523543635,-0.013439035,0.020463986,0.0012217305,36.567287,99.991425,-5.8132024,STD
3403808842000,2.905201,-0.951327858017229,-9.595961,-1.44349953475601,-0.025045475,0.02565634,0.008552114,36.562984,99.99317,-5.817058,STD
3403813617000,2.909976,-0.94013671031276,-9.595961,-1.45916714855367,-0.028405234,0.020158553,0.0021380284,36.557827,99.987724,-5.817555,STD
3403818763000,2.915122,-0.929275997437534,-9.59628672022616,-1.47385096108882,-0.029932396,0.021685716,0.0033597588,36.552704,99.98753,-5.8256993,STD
3403823628000,2.919987,-0.933524687205909,-9.60053505507934,-1.46110493614809,-0.032375857,0.020463986,0.008246681,36.545296,99.98788,-5.8331246,STD
3403828531000,2.92489,-0.937806563040306,-9.60481657322634,-1.44825935335583,-0.020158553,0.020463986,0.004886922,36.53787,99.98626,-5.8353195,STD
3403833605000,2.929964,-0.935880255203591,-9.60686042503577,-1.43948088537141,-0.03359759,0.018325957,0.005497787,36.530025,99.992516,-5.8399544,STD
3403838604000,2.934963,-0.932766269045141,-9.60841745063094,-1.43169588745935,-0.01863139,0.017715093,0.009468411,36.522785,99.98932,-5.8443427,STD
3403843621000,2.93998,-0.929641070294003,-9.60998008263952,-1.42388285794848,-0.025045475,0.019242255,0.013133603,36.51196,99.99325,-5.8515024,STD
3403848529000,2.944888,-0.926583770020814,-9.61150876470014,-1.41623957534149,-0.025045475,0.018325957,0.004276057,36.50017,99.99076,-5.856025,STD
3403853633000,2.949992,-0.92340437707168,-9.61309849437362,-1.40829105976974,-0.02321288,0.01985312,-0.0009162979,36.49006,99.99046,-5.862123,STD
3403858557000,2.954916,-0.920337110049434,-9.61463215991284,-1.40062286018603,-0.024129177,0.011911872,0.006414085,36.47737,99.99139,-5.869414,STD
3403863656000,2.960015,-0.912609999191769,-9.60835075753057,-1.38806855380256,-0.021685716,0.0067195175,0.009773844,36.465748,99.98953,-5.873719,STD
3403868602000,2.964961,-0.903192198601253,-9.59893324704245,-1.3739418947112,-0.01863139,0.0143553335,0.0061086523,36.455795,99.98774,-5.8776236,STD
3403873636000,2.969995,-0.91427150420598,-9.60064481401681,-1.37416726292541,-0.026572637,0.021991149,-0.00030543262,36.448284,99.98195,-5.874645,STD
3403878622000,2.974981,-0.934444696838004,-9.60736911481951,-1.38089163394358,-0.0290161,0.019242255,0.00061086525,36.440228,99.974945,-5.8727736,STD
3403883642000,2.980001,-0.954755452356006,-9.61413926925785,-1.38766185907619,-0.02443461,0.008857546,-0.00030543262,36.430355,99.96417,-5.8667517,STD
3403888635000,2.984994,-0.974956966758672,-9.62087301051495,-1.39439567064733,-0.03481932,0.0125227375,-0.0009162979,36.423832,99.95779,-5.8606777,STD
3403893619000,2.989978,-0.984395572101662,-9.62872213998045,-1.40022922789834,-0.03176499,0.016187929,0.004276057,36.416763,99.94749,-5.8552313,STD
3403898617000,2.994976,-0.979716701485826,-9.63808007663734,-1.40490809851417,-0.027183503,0.016798794,0.00030543262,36.40954,99.93772,-5.8470893,STD
3403903666000,3.000025,-0.970822724163569,-9.64184110302709,-1.40378281067446,-0.02076942,0.02076942,-0.00030543262,36.408802,99.93522,-5.8481536,STD
3403908629000,3.004988,-0.955677825241636,-9.63679270674456,-1.39368628167817,-0.027488936,0.018325957,-0.0021380284,36.406223,99.93388,-5.8479404,STD
3403913551000,3.00991,-0.935586724064816,-9.6280093052406,-1.39280935425408,-0.035430185,0.020158553,-0.0012217305,36.40621,99.93127,-5.8471837,STD
3403918607000,3.014966,-0.909649597536827,-9.61504046888671,-1.40145501946255,-0.029321533,0.01985312,-0.0012217305,36.40479,99.92658,-5.845841,STD
3403923582000,3.019941,-0.893581863812884,-9.60612477316001,-1.40896603404533,-0.034513887,0.016798794,0.00030543262,36.402554,99.922905,-5.84319,STD
3403928621000,3.02498,-0.905242204295656,-9.60845689044604,-1.41363021991495,-0.027183503,0.023518313,0.0027488936,36.40304,99.91525,-5.840459,STD
3403933617000,3.029976,-0.916803041972164,-9.61076910675108,-1.41825460423815,-0.034208454,0.01863139,0.0030543262,36.39794,99.912445,-5.8306074,STD
3403938678000,3.035037,-0.928514290867443,-9.61311140593437,-1.42293915368965,-0.027794369,0.018325957,0.002443461,36.396076,99.90523,-5.8209734,STD
3403943615000,3.039974,-0.937119036796819,-9.61483239141962,-1.42497307816341,-0.031154128,0.019242255,0.003970624,36.397423,99.90189,-5.808344,STD
3403948618000,3.044977,-0.925571020312364,-9.61252273940709,-1.40880582759219,-0.027488936,0.0143553335,-0.0015271631,36.396595,99.89431,-5.7941594,STD
3403953721000,3.05008,-0.913792181991323,-9.61016692205351,-1.39231542590022,-0.027794369,0.0125227375,0.00061086525,36.405815,99.89167,-5.78365,STD
3403959404000,3.055763,-0.900674577018077,-9.60754334572186,-1.37395074770788,-0.018325957,0.01863139,0.007330383,36.415627,99.885925,-5.773171,STD
3403963966000,3.060325,-0.891041516862179,-9.60573623259174,-1.36050428529327,-0.02321288,0.022296581,0.00580322,36.423748,99.88272,-5.761513,STD
3403968612000,3.064971,-0.899612028814408,-9.61002157806029,-1.37336005322161,-0.021685716,0.02076942,0.007330383,36.432274,99.877655,-5.7529144,STD
3403973613000,3.069972,-0.908837411998459,-9.61463436598286,-1.38719812799769,-0.023823744,0.01863139,0.007330383,36.4349903705036,99.871855978717,-5.7432949705036,STD
3403978620000,3.074979,-0.920924261202417,-9.60398654984894,-1.38121859661631,-0.022296581,0.015271631,-0.00061086525,36.43771,99.86605,-5.733664,STD
3403983581000,3.07994,-0.933227365629694,-9.59168361242987,-1.37301652414329,-0.03023783,0.018325957,0.007330383,36.445583,99.859,-5.719575,STD
3403988692000,3.085051,-0.931739947423506,-9.59452855314079,-1.36405371680488,-0.028710667,0.016187929,0.0012217305,36.453957,99.847435,-5.701843,STD
3403993647000,3.090006,-0.920431913372891,-9.60809824406634,-1.35500728767515,-0.026267206,0.009773844,0.0036651916,36.46234,99.84051,-5.6892986,STD
3403998615000,3.094974,-0.909094211422648,-9.6217035366028,-1.34593712422076,-0.025350908,0.0076358155,-0.0076358155,36.47233,99.827675,-5.6783733,STD
3404003636000,3.099995,-0.897635555727767,-9.63545397416834,-1.33677019775045,-0.027488936,0.012217305,0.0061086523,36.483253,99.819916,-5.6754527,STD
3404008625000,3.104984,-0.888882103318368,-9.6456057985481,-1.33821998259624,-0.023518313,0.014660766,-0.00061086525,36.491413,99.805626,-5.6639857,STD
3404013617000,3.109976,-0.88431550812112,-9.65017198366606,-1.3564862489445,-0.023518313,0.007330383,0.0027488936,36.498795,99.79706,-5.6596813,STD
3404018587000,3.114946,-0.884494952355704,-9.65136377937686,-1.37016914259456,-0.021685716,0.0070249503,-0.005192355,36.50475,99.77833,-5.644228,STD
3404023635000,3.119994,-0.896701117300409,-9.64404019002171,-1.3726103475433,-0.016798794,0.01985312,0.005497787,36.513012,99.762985,-5.6350985,STD
3404029036000,3.125395,-0.909760843304045,-9.63620447169621,-1.37522226274302,-0.021991149,0.016187929,0.005192355,36.516308,99.748634,-5.6215353,STD
3404033617000,3.129976,-0.920837792910165,-9.62955840140383,-1.3774376272181,-0.027488936,0.013744468,0.0061086523,36.52378,99.73566,-5.611114,STD
3404038617000,3.134976,-0.925785877643869,-9.6231087799538,-1.37589574251281,-0.022907447,0.0061086523,-0.0009162979,36.523975,99.720985,-5.603112,STD
3404043623000,3.139982,-0.916156182802049,-9.61829382946671,-1.36626609291955,-0.018020526,0.009773844,0.00030543262,36.52693,99.70935,-5.5974884,STD
3404048552000,3.144911,-0.906701648769415,-9.61356646206691,-1.35835909438471,-0.025961773,0.0125227375,0.010995574,36.532932,99.702446,-5.5969543,STD
3404053613000,3.149972,-0.897050476965352,-9.60874077538829,-1.35353350848268,-0.026572637,0.003970624,0.007941248,36.536064,99.69098,-5.5932517,STD
3404058597000,3.154956,-0.886852481718742,-9.60477894862296,-1.34881357058737,-0.016493361,0.002443461,-0.0021380284,36.54066,99.67749,-5.588439,STD
3404063790000,3.160149,-0.87473150079844,-9.60235495798196,-1.34396518429442,-0.021380283,0.0027488936,0.005192355,36.543793,99.67032,-5.5880075,STD
3404068594000,3.164953,-0.863518484749695,-9.60011254491835,-1.339479983495,-0.027183503,-0.004886922,0.005192355,36.5450111972174,99.6619706899563,-5.58325936046512,STD
3404073637000,3.169996,-0.851747618818426,-9.59775857133805,-1.33477164302218,-0.02076942,-0.003970624,0.0009162979,36.54629,99.653206,-5.578275,STD
3404078627000,3.174986,-0.843827833001813,-9.59916745436285,-1.33491710992602,-0.021380283,0.00061086525,0.003970624,36.552486,99.64036,-5.572408,STD
3404083597000,3.179956,-0.84849166093773,-9.61315874337367,-1.35124048335211,-0.023823744,0.0018325958,0.004886922,36.553932,99.62844,-5.564851,STD
3404088607000,3.184966,-0.853193024712165,-9.62726263833227,-1.36769523201705,-0.026267206,0.00030543262,0.00030543262,36.55406,99.6122,-5.552309,STD
3404093638000,3.189997,-0.857914094801823,-9.64142565141345,-1.38421895268238,-0.0125227375,0.00030543262,-0.0021380284,36.55493,99.593666,-5.5407863,STD
3404099198000,3.195557,-0.865279693787441,-9.65454338569109,-1.39260190046012,-0.014966198,0.007941248,0.0027488936,36.556705,99.578285,-5.5342593,STD
3404103627000,3.199986,-0.876759954283652,-9.65837021111512,-1.37346821288344,-0.026267206,0.01863139,0.0015271631,36.558865,99.5609,-5.525316,STD
3404108626000,3.204985,-0.889717692423313,-9.66268953834356,-1.35187207285276,-0.020158553,0.01160644,-0.0033597588,36.553673,99.546425,-5.5255656,STD
3404113619000,3.209978,-0.886198338510361,-9.66744278646511,-1.33255102542797,-0.023823744,0.013744468,0.0012217305,36.55443,99.53855,-5.5272856,STD
3404118613000,3.214972,-0.881410387880669,-9.6722308070878,-1.31339934289719,-0.01863139,0.018020526,0.005497787,36.553555,99.52666,-5.527637,STD
3404123606000,3.219965,-0.854393503159371,-9.65479330732245,-1.30757715362116,-0.020158553,0.007330383,0.002443461,36.54837,99.51559,-5.528791,STD
3404128598000,3.224957,-0.825660205224882,-9.63563788871081,-1.30278827396574,-0.015577064,0.008552114,0.005497787,36.54817,99.50397,-5.532104,STD
3404133607000,3.229966,-0.815675970732402,-9.6263384451366,-1.3183045785352,-0.013744468,0.0061086523,0.0012217305,36.54178,99.48874,-5.5312476,STD
3404138661000,3.23502,-0.807061367688885,-9.61772366218742,-1.33553378462223,-0.022296581,0.004276057,0.005497787,36.536404,99.47719,-5.533452,STD
3404143642000,3.240001,-0.807747516608479,-9.6134660872818,-1.33580936508728,-0.017104227,0.010079277,0.0067195175,36.527107,99.45784,-5.53187,STD
3404148601000,3.24496,-0.812484808498753,-9.61109739187032,-1.32870342725187,-0.01160644,0.0009162979,0.0033597588,36.513153,99.44072,-5.530657,STD
3404153611000,3.24997,-0.817270820269327,-9.60870433600997,-1.32152440959601,-0.018020526,0.0033597588,-0.0009162979,36.506886,99.42826,-5.524038,STD
3404158642000,3.255001,-0.822076893167082,-9.60630124937656,-1.31431530024938,-0.026572637,0.0067195175,0.008552114,36.498745,99.4171,-5.520683,STD
3404163624000,3.259983,-0.829748911828528,-9.61782433459788,-1.32738144749621,-0.02321288,-0.0036651916,0.004581489,36.486763,99.401985,-5.5127835,STD
3404168815000,3.265174,-0.839178591764036,-9.63668404893779,-1.35095559810319,-0.023823744,0.005497787,0.0018325958,36.481804,99.39176,-5.507059,STD
3404173603000,3.269962,-0.845524540297284,-9.64661030927729,-1.35160997910815,-0.029626964,-0.0012217305,0.0027488936,36.473507,99.37888,-5.5029883,STD
3404178623000,3.274982,-0.850452837170682,-9.65153819446438,-1.33682508848795,-0.020463986,0.01038471,0.006414085,36.47301,99.36305,-5.497917,STD
3404183611000,3.27997,-0.858180303727264,-9.63588773292913,-1.33409845186363,-0.028099801,-0.0012217305,-0.00030543262,36.46942,99.35339,-5.4914055,STD
3404188740000,3.285099,-0.867944622820793,-9.60659518348077,-1.3389806114104,-0.029626964,0.0036651916,0.01038471,36.47449,99.34411,-5.4899006,STD
3404193754000,3.290113,-0.880330404580689,-9.59301394308308,-1.3466469907449,-0.025045475,0.002443461,0.0033597588,36.472855,99.32999,-5.482294,STD
3404198648000,3.295007,-0.894057522733574,-9.58843815102997,-1.35579838373523,-0.025350908,0.0033597588,0.006414085,36.473923,99.32112,-5.4803486,STD
3404203690000,3.300049,-0.8975352609262,-9.58369934486156,-1.3572220009262,-0.03390302,0.00061086525,0.0106901415,36.477886,99.315445,-5.475209,STD
3404208675000,3.305034,-0.892831314921667,-9.57899530062075,-1.35251805492167,-0.028099801,0.0021380284,0.016493361,36.48333,99.307526,-5.471335,STD
3404213637000,3.309996,-0.880558788268924,-9.58689120328685,-1.34276660804781,-0.03359759,0.004276057,0.015882496,36.48736,99.30718,-5.472627,STD
3404218648000,3.315007,-0.861439497446215,-9.60601036434263,-1.32842716239044,-0.03940081,0.0030543262,0.008246681,36.490734,99.305466,-5.473552,STD
3404223666000,3.320025,-0.847504487733959,-9.62115313402655,-1.31676806755475,-0.033292156,0.0018325958,0.015271631,36.491528,99.30559,-5.477781,STD
3404228649000,3.325008,-0.838357668196847,-9.63258664650918,-1.3076212098136,-0.03573562,0.00030543262,0.004581489,36.49093,99.304756,-5.47486,STD
3404233607000,3.329966,-0.829256738783842,-9.64396279639657,-1.29852024238823,-0.036651913,0.0030543262,0.01038471,36.489326,99.30133,-5.474465,STD
3404238633000,3.334992,-0.820030988233265,-9.65549497254301,-1.28929445330394,-0.03145956,0.011301007,0.008552114,36.48818,99.294075,-5.4687996,STD
3404243619000,3.339978,-0.817278435109507,-9.66056063014782,-1.28816682454145,-0.042455133,0.0030543262,0.018020526,36.487167,99.290535,-5.469942,STD
3404248615000,3.344974,-0.826740192712711,-9.65346441815395,-1.30235949552578,-0.036651913,0.0030543262,0.011911872,36.49008,99.27925,-5.4655614,STD
3404253583000,3.349942,-0.836148922050724,-9.64640797676373,-1.31647262391852,-0.02321288,0.010079277,0.014660766,36.48218,99.27146,-5.4630914,STD
3404258601000,3.35496,-0.845652344719434,-9.63928051643842,-1.33072779265338,-0.03481932,0.01740966,0.012217305,36.474075,99.266304,-5.457412,STD
3404263552000,3.359911,-0.853712419620925,-9.63357967581501,-1.34281792943139,-0.03359759,0.011911872,0.008857546,36.464474,99.255585,-5.4524674,STD
3404268610000,3.364969,-0.85860900333586,-9.6311313328279,-1.35016280500379,-0.029321533,0.008246681,0.013133603,36.457745,99.24787,-5.4487195,STD
3404273555000,3.369914,-0.863396193227192,-9.62873768789487,-1.35734358984079,-0.03145956,0.007941248,0.008246681,36.453323,99.24635,-5.445574,STD
3404278657000,3.375016,-0.868335372767248,-9.62626804655042,-1.36475235915087,-0.029932396,0.016798794,0.014660766,36.451153,99.24564,-5.446601,STD
3404283571000,3.37993,-0.865247471120732,-9.62000961851816,-1.35856002446128,-0.030543262,0.011911872,0.017104227,36.44315,99.24509,-5.446375,STD
3404288743000,3.385102,-0.845752751215192,-9.60538878215094,-1.32444426462659,-0.029932396,0.006414085,0.018020526,36.43776,99.24469,-5.4471717,STD
3404293620000,3.389979,-0.838704797456993,-9.59734153403141,-1.30934904682124,-0.03940081,0.004886922,0.018020526,36.43495,99.24777,-5.453456,STD
3404298658000,3.395017,-0.856748147643979,-9.6018519947644,-1.33190323455497,-0.03848451,-0.008552114,0.013744468,36.427166,99.24772,-5.4591856,STD
3404303635000,3.399994,-0.869091252484731,-9.60593669932138,-1.34953041805138,-0.027183503,0.008246681,0.018325957,36.42455,99.2426,-5.4620786,STD
3404308672000,3.405031,-0.855061671724673,-9.60827500998546,-1.34485389438682,-0.043676864,-0.0009162979,0.016187929,36.410492,99.241844,-5.463145,STD
3404313630000,3.409989,-0.841252130051382,-9.61057664672807,-1.34025071703345,-0.047036625,0.0015271631,0.023518313,36.40901,99.241714,-5.4725046,STD
3404318673000,3.415032,-0.827205837461949,-9.61291774275327,-1.33556862276297,-0.042760566,0.0027488936,0.02107485,36.40427,99.24157,-5.478594,STD
3404323791000,3.42015,-0.815603130777466,-9.61637364899312,-1.33306568335458,-0.035124753,0.0027488936,0.018325957,36.400272,99.24254,-5.486329,STD
3404328652000,3.425011,-0.835380878966777,-9.63219575172062,-1.3567989613561,-0.042760566,-0.0067195175,0.01740966,36.39402,99.2459,-5.493917,STD
3404333614000,3.429973,-0.855569561648398,-9.64834660005098,-1.38102536033648,-0.04153884,-0.0061086523,0.016493361,36.38687,99.24036,-5.4955053,STD
3404338640000,3.434999,-0.868960523073657,-9.6393252274464,-1.37101719231586,-0.040927973,-0.0009162979,0.019547688,36.378616,99.23724,-5.497962,STD
3404343606000,3.439965,-0.879055702186372,-9.61913497463384,-1.34577924453407,-0.03573562,-0.007330383,0.018020526,36.367207,99.2319,-5.4990973,STD
3404348615000,3.444974,-0.884575678322698,-9.61862352962625,-1.33724354366454,-0.027183503,0.0012217305,0.015577064,36.365246,99.23219,-5.5044236,STD
3404354423000,3.450782,-0.889646088794895,-9.6236940142206,-1.33217316495898,-0.033292156,0.008552114,0.022296581,36.361557,99.23592,-5.5119457,STD
3404358629000,3.454988,-0.893852434953516,-9.61185356720989,-1.33438557495352,-0.03970624,0.005192355,0.013744468,36.356174,99.23348,-5.515239,STD
3404363608000,3.459967,-0.89906766925298,-9.59099273892596,-1.33960080925298,-0.043982297,0.0076358155,0.015882496,36.355255,99.23496,-5.522733,STD
3404368605000,3.464964,-0.892858008434757,-9.60478857125949,-1.3444339142519,-0.043982297,0.01160644,0.020463986,36.356297,99.23508,-5.5268383,STD
3404373646000,3.470005,-0.883335017995858,-9.62859597277838,-1.34919539455568,-0.03634648,0.01740966,0.021685716,36.358532,99.23422,-5.530326,STD
3404378652000,3.475011,-0.873910281889145,-9.63605701688841,-1.34317388188915,-0.03756821,0.009162978,0.018020526,36.35636,99.23797,-5.536873,STD
3404383675000,3.480034,-0.864463717718101,-9.63841870725122,-1.3337273177181,-0.036957346,0.0076358155,0.018325957,36.357956,99.24042,-5.544221,STD
3404388851000,3.48521,-0.854729412293191,-9.64085233442977,-1.32399301229319,-0.034513887,0.0067195175,0.020158553,36.35652,99.24103,-5.549232,STD
3404393655000,3.490014,-0.845694713054151,-9.64311105640925,-1.31495831305415,-0.03573562,0.009468411,0.016493361,36.35556,99.24143,-5.55252,STD
3404398636000,3.494995,-0.843827149104784,-9.63636791165248,-1.30881813037863,-0.028710667,0.00030543262,0.020158553,36.353767,99.238754,-5.5596247,STD
3404403638000,3.499997,-0.845389395251606,-9.62543212337345,-1.30413135931253,-0.025350908,-0.0143553335,0.018325957,36.350826,99.23572,-5.5640607,STD
3404408604000,3.504963,-0.846940397723641,-9.61457504128755,-1.29947831950559,-0.03359759,-0.0027488936,0.019547688,36.345856,99.23333,-5.5651197,STD
3404413647000,3.510006,-0.848515449166748,-9.60354961539967,-1.29475313228321,-0.03268129,-0.009468411,0.017104227,36.33149,99.22718,-5.565647,STD
3404418612000,3.514971,-0.850066139314483,-9.59269471959691,-1.2901010294557,-0.03634648,-0.004886922,0.015577064,36.323902,99.224365,-5.5658064,STD
3404424258000,3.520617,-0.851829522310276,-9.58035096497407,-1.28481084364217,-0.03726278,-0.0106901415,0.017104227,36.311646,99.22083,-5.566633,STD
3404428655000,3.525014,-0.863260492188206,-9.57953822580645,-1.30514140719129,-0.03145956,-0.014660766,0.015882496,36.30123,99.21588,-5.565909,STD
3404433630000,3.529989,-0.882839146235874,-9.58443298387097,-1.34429875617423,-0.039095376,-0.005192355,0.020158553,36.293465,99.215416,-5.5667825,STD
3404438628000,3.534987,-0.899084116894368,-9.59201119694017,-1.36834765983239,-0.03573562,-0.009162978,0.021991149,36.280777,99.21027,-5.567994,STD
3404443625000,3.539984,-0.913074153810173,-9.60133759929838,-1.38233770161762,-0.03970624,-0.004886922,0.021685716,36.273384,99.20891,-5.5690255,STD
3404448622000,3.544981,-0.91458897134855,-9.59836037819405,-1.37906803770119,-0.046731193,-0.004886922,0.022907447,36.278114,99.21064,-5.5713267,STD
3404453633000,3.549992,-0.905861260200964,-9.58526898690552,-1.36161260629263,-0.03940081,0.0012217305,0.022907447,36.28565,99.209785,-5.572797,STD
3404458626000,3.554985,-0.898499488512905,-9.58024781482999,-1.34688905702581,-0.041233405,0.0021380284,0.02687807,36.291927,99.21942,-5.5763764,STD
3404463622000,3.559981,-0.893599274174519,-9.59004844817698,-1.33708862834904,-0.038179077,0.005497787,0.022602014,36.30025,99.22474,-5.577306,STD
3404468609000,3.564968,-0.886852291499649,-9.59406558210453,-1.33686233493831,-0.040011674,0.00580322,0.0290161,36.306602,99.23077,-5.580503,STD
3404473658000,3.570017,-0.877151536224295,-9.58921511836694,-1.35141342226903,-0.03726278,0.006414085,0.025045475,36.31335,99.232506,-5.579449,STD
3404478651000,3.57501,-0.877454746170083,-9.58837248609702,-1.3658719337122,-0.047036625,0.0033597588,0.02443461,36.31642,99.23956,-5.5778236,STD
3404483652000,3.580011,-0.89203573160341,-9.59323290592653,-1.38045288869495,-0.035124753,0.010079277,0.022907447,36.322197,99.24013,-5.5745473,STD
3404488666000,3.585025,-0.896040714037568,-9.59805050425111,-1.39072655879881,-0.03634648,0.008246681,0.026267206,36.32666,99.24661,-5.5714436,STD
3404493908000,3.590267,-0.88611453228176,-9.60301343188334,-1.3956896159911,-0.03940081,0.0036651916,0.01985312,36.331703,99.24882,-5.5651917,STD
3404498589000,3.594948,-0.877250652694019,-9.60744522590213,-1.4001215257044,-0.036651913,-0.0012217305,0.025045475,36.338573,99.25604,-5.566155,STD
3404503657000,3.600016,-0.867653955033119,-9.61224341690559,-1.40491984196738,-0.04184427,0.0021380284,0.023518313,36.345894,99.2634,-5.5633984,STD
3404508579000,3.604938,-0.863552552160913,-9.61675398640935,-1.41435034289209,-0.03756821,-0.0021380284,0.02107485,36.34207,99.27013,-5.5688224,STD
3404513622000,3.609981,-0.867928361022017,-9.62112988665398,-1.43185366972003,-0.046731193,0.0021380284,0.025961773,36.341988,99.28187,-5.5753036,STD
3404518642000,3.615001,-0.869993178134061,-9.62394287344363,-1.44534978125533,-0.04917465,0.008552114,0.0290161,36.337666,99.28948,-5.5792656,STD
3404523596000,3.619955,-0.861901165990107,-9.61989678287566,-1.44130373293536,-0.047036625,0.013133603,0.024129177,36.334126,99.29734,-5.5821238,STD
3404528556000,3.624915,-0.853799353266246,-9.6158457919154,-1.43725278427426,-0.046731193,0.009468411,0.023518313,36.332024,99.31006,-5.5883965,STD
3404533641000,3.63,-0.841652105977807,-9.64360403417665,-1.39734750979139,-0.03481932,0.0036651916,0.026267206,36.330666,99.31908,-5.594036,STD
3404538623000,3.634982,-0.828945931802929,-9.67748738348868,-1.35075826934754,-0.048563786,0.010079277,0.0290161,36.331825,99.333496,-5.599064,STD
3404543652000,3.640011,-0.829250277840407,-9.68514322780828,-1.33493947594055,-0.042760566,0.013439035,0.028405234,36.341454,99.33581,-5.5933146,STD
3404548650000,3.645009,-0.838862986312759,-9.67392834214754,-1.34134794379435,-0.046731193,0.014966198,0.032070424,36.352467,99.34461,-5.5896535,STD
3404553693000,3.650052,-0.848562243780961,-9.66261248212612,-1.34781411093855,-0.039095376,0.015882496,0.028710667,36.35847,99.33837,-5.5788045,STD
3404558672000,3.655031,-0.858138409343955,-9.65144023008435,-1.35419821686973,-0.044898596,0.018936822,0.028710667,36.365585,99.33743,-5.570122,STD
3404563650000,3.660009,-0.86771265159593,-9.64027022191726,-1.36058104059446,-0.039095376,0.019547688,0.025045475,36.373966,99.33148,-5.5565624,STD
3404568610000,3.664969,-0.877252274249565,-9.62914060349445,-1.36694078460303,-0.040011674,0.015882496,0.024129177,36.381844,99.32901,-5.5442705,STD
3404573672000,3.670031,-0.884013137794323,-9.62321750494703,-1.37243032856286,-0.035124753,0.020158553,0.024740042,36.39656,99.32125,-5.5300045,STD
3404578656000,3.675015,-0.888783367728363,-9.62083234764141,-1.37720054355387,-0.043066,0.018325957,0.025045475,36.408085,99.31671,-5.516257,STD
3404583634000,3.679993,-0.893547855009994,-9.61845006171297,-1.38196501591045,-0.038179077,0.0125227375,0.021380283,36.4233,99.314896,-5.507981,STD
3404588718000,3.685077,-0.898413795817509,-9.61601704812113,-1.38683094147511,-0.043676864,0.00580322,0.023823744,36.437607,99.31847,-5.501985,STD
3404593668000,3.690027,-0.898840033178419,-9.61373414436239,-1.38035803907051,-0.043066,0.0125227375,0.021991149,36.453472,99.31827,-5.4937897,STD
3404598641000,3.695,-0.896599785452749,-9.61149384985183,-1.3669165527165,-0.03726278,0.0143553335,0.021380283,36.4659,99.3188,-5.4873652,STD
3404603688000,3.700047,-0.894326202048074,-9.60922021896608,-1.35327505228844,-0.045814894,0.020158553,0.02107485,36.484512,99.323944,-5.481627,STD
3404610685000,3.707044,-0.891174178453361,-9.60606812954513,-1.33436291072017,-0.049480084,0.010995574,0.021685716,36.499035,99.32676,-5.476779,STD
3404613598000,3.709957,-0.889056068864679,-9.60236313704128,-1.33435016238532,-0.036651913,0.0125227375,0.023823744,36.51793,99.32799,-5.4719872,STD
3404618633000,3.714992,-0.88444793716552,-9.59314722008792,-1.34356636804281,-0.034208454,0.020463986,0.02443461,36.53568,99.33233,-5.4673195,STD
3404623584000,3.719943,-0.876979253303563,-9.58871938452578,-1.35208134144258,-0.04520403,0.022907447,0.022602014,36.544975,99.33595,-5.461386,STD
3404628648000,3.725007,-0.860501308979711,-9.59813529793224,-1.3591432887875,-0.04550946,0.020158553,0.025350908,36.555008,99.33746,-5.457071,STD
3404633628000,3.729987,-0.844296695485875,-9.60739502320163,-1.36608809482575,-0.051618114,0.017104227,0.016187929,36.565323,99.341484,-5.448886,STD
3404638658000,3.735017,-0.827929385069411,-9.61674771760023,-1.37310262783225,-0.042455133,0.024129177,0.02687807,36.578373,99.34577,-5.4470835,STD
3404643705000,3.740064,-0.813271751597838,-9.62166378219639,-1.3775464910982,-0.04062254,0.028099801,0.01863139,36.58909,99.344284,-5.443692,STD
3404648619000,3.744978,-0.808473098064648,-9.60246926827776,-1.36794923413888,-0.058643065,0.024129177,0.02076942,36.60011,99.348946,-5.4463434,STD
3404653536000,3.749895,-0.808995175255814,-9.58865567441861,-1.3614210627907,-0.042760566,0.021685716,0.026572637,36.610275,99.3418,-5.4425545,STD
3404658561000,3.75492,-0.837569219887184,-9.60294248787729,-1.37094568797625,-0.043982297,0.008857546,0.019547688,36.61573,99.34111,-5.4364686,STD
3404663556000,3.759915,-0.862591495472597,-9.61443509034948,-1.37566562972597,-0.03970624,0.021685716,0.022296581,36.627926,99.33793,-5.4312515,STD
3404668552000,3.764911,-0.867341862112788,-9.60968462450357,-1.35191384612788,-0.04550946,0.027794369,0.022296581,36.634033,99.33588,-5.4242086,STD
3404673565000,3.769924,-0.873218486572987,-9.60668974604789,-1.33232892197467,-0.050396383,0.02565634,0.019242255,36.643883,99.33713,-5.4217014,STD
3404678805000,3.775164,-0.887136172659702,-9.61596837783119,-1.34160735998891,-0.042760566,0.016187929,0.01863139,36.653233,99.33729,-5.420083,STD
3404684100000,3.780459,-0.900593890397968,-9.62394292358171,-1.35145188728831,-0.04550946,0.022602014,0.015882496,36.664616,99.33831,-5.4161086,STD
3404688560000,3.784919,-0.905114691414056,-9.6149011327265,-1.36501424313082,-0.03756821,0.025045475,0.018325957,36.672184,99.335915,-5.414073,STD
3404693565000,3.789924,-0.910713987879299,-9.60517008064916,-1.37924356733833,-0.039095376,0.026572637,0.024740042,36.676373,99.34148,-5.418751,STD
3404698521000,3.79488,-0.922491907490198,-9.60045906432081,-1.38159917388952,-0.043066,0.03023783,0.028099801,36.68179,99.34566,-5.423013,STD
3404703839000,3.800198,-0.935130119050077,-9.59540394228002,-1.3841268404834,-0.04153884,0.025350908,0.028710667,36.681107,99.35249,-5.4360833,STD
3404708505000,3.804864,-0.946218854502953,-9.59096859074892,-1.38634460887885,-0.049480084,0.030543262,0.02565634,36.6844,99.36226,-5.448168,STD
3404713699000,3.810058,-0.959050000626265,-9.58569933538877,-1.38966397904422,-0.05100725,0.02565634,0.024129177,36.68361,99.37038,-5.461039,STD
3404718567000,3.814926,-0.977016996444744,-9.57671564986993,-1.40313927281048,-0.061086524,0.017715093,0.03145956,36.683735,99.38313,-5.47515,STD
3404723934000,3.820293,-0.994947440600172,-9.56785428802527,-1.41611894785106,-0.0421497,0.018020526,0.03023783,36.687405,99.38809,-5.4950943,STD
3404728520000,3.824879,-0.973927410610702,-9.58046655623624,-1.39089489430458,-0.04520403,0.022907447,0.028710667,36.690533,99.40147,-5.516519,STD
3404733507000,3.829866,-0.951069388465588,-9.59418164161961,-1.36346524863597,-0.042760566,0.007941248,0.03023783,36.687145,99.415405,-5.5442977,STD
3404738560000,3.834919,-0.928045201973759,-9.58793737155353,-1.35589486955695,-0.04153884,0.018325957,0.022602014,36.692146,99.4283,-5.567158,STD
3404743512000,3.839871,-0.905500847678266,-9.57891943962731,-1.35138599775623,-0.045814894,0.012217305,0.02443461,36.688847,99.44352,-5.5935516,STD
3404748806000,3.845165,-0.892506901648159,-9.56909390473407,-1.35418626709527,-0.04795292,0.013439035,0.022602014,36.687855,99.44805,-5.6094637,STD
3404753559000,3.849918,-0.883639051854666,-9.56022589752581,-1.35862017810247,-0.051923547,0.018020526,0.025961773,36.68652,99.45512,-5.626917,STD
3404758506000,3.854865,-0.891337771270541,-9.56450084288577,-1.3770258139479,-0.04153884,0.022602014,0.021380283,36.683273,99.45427,-5.6373305,STD
3404763508000,3.859867,-0.905737546913828,-9.5741008737475,-1.40102533977956,-0.04734206,0.0143553335,0.020158553,36.678066,99.45915,-5.6495395,STD
3404768554000,3.864913,-0.906255036240846,-9.58743172335232,-1.39716562872254,-0.043676864,0.021380283,0.023823744,36.676525,99.459496,-5.6613946,STD
3404773536000,3.869895,-0.901402349340928,-9.60198958136696,-1.38260756802278,-0.04642576,0.025045475,0.02076942,36.671543,99.46124,-5.671035,STD
3404778501000,3.87486,-0.91090473932679,-9.61266040412453,-1.38974498304581,-0.050396383,0.029626964,0.026572637,36.672077,99.46921,-5.6864123,STD
3404783529000,3.879888,-0.925227206203649,-9.6222089181043,-1.40406745490779,-0.05131268,0.02076942,0.029932396,36.66971,99.47607,-5.7002177,STD
3404788547000,3.884906,-0.935604964876884,-9.62801842692632,-1.40446314256156,-0.042455133,0.028099801,0.024740042,36.671593,99.47809,-5.710545,STD
3404793518000,3.889877,-0.944519162573729,-9.63247561885591,-1.40000604371314,-0.04428773,0.02565634,0.026267206,36.668682,99.484406,-5.724021,STD
3404798504000,3.894863,-0.953986222254781,-9.62544428038248,-1.40115487844952,-0.04734206,0.03023783,0.024740042,36.67494,99.48804,-5.737845,STD
3404803556000,3.899915,-0.96393524958359,-9.61052046668723,-1.40612937912811,-0.044898596,0.022602014,0.028710667,36.677284,99.49207,-5.753807,STD
3404808502000,3.904861,-0.964091463156827,-9.60237122763238,-1.41095660296206,-0.04184427,0.027794369,0.02565634,36.68287,99.497925,-5.765593,STD
3404813512000,3.909871,-0.959224373686346,-9.59750454473524,-1.41582379407588,-0.048258353,0.01038471,0.026267206,36.68017,99.506615,-5.7802963,STD
3404818519000,3.914878,-0.953639224119811,-9.60000247250414,-1.41655918861891,-0.043982297,0.017715093,0.027794369,36.69252,99.51285,-5.7905707,STD
3404823510000,3.919869,-0.947737817999852,-9.60590387369435,-1.41537888373213,-0.04428773,0.01985312,0.028710667,36.698414,99.52145,-5.8014402,STD
3404828500000,3.924859,-0.941837594289454,-9.61180409247599,-1.414198815332,-0.041233405,0.014660766,0.022602014,36.699993,99.52912,-5.811962,STD
3404833516000,3.929875,-0.935906627930464,-9.61773505388053,-1.41301259827888,-0.051618114,0.012217305,0.018020526,36.70307,99.54018,-5.822687,STD
3404838521000,3.93488,-0.929988668076648,-9.62365300879078,-1.41182898257896,-0.040927973,0.008552114,0.025350908,36.704586,99.54664,-5.835034,STD
3404843522000,3.939881,-0.924075437861076,-9.62956623406672,-1.41064631282564,-0.04520403,0.01038471,0.029932396,36.706753,99.55736,-5.8449526,STD
3404848516000,3.944875,-0.918170484512433,-9.63547118248265,-1.4094652984789,-0.042760566,0.0125227375,0.026572637,36.708015,99.56388,-5.8545246,STD
3404853553000,3.949912,-0.912214687552658,-9.64142697446724,-1.40827411520606,-0.04337143,0.02321288,0.028405234,36.712685,99.57359,-5.866165,STD
3404858520000,3.954879,-0.90697319015841,-9.63537441358087,-1.40214358979921,-0.048563786,0.02443461,0.029626964,36.715725,99.58319,-5.8754945,STD
3404863520000,3.959879,-0.902141790703259,-9.62087991252144,-1.39248084133791,-0.047647487,0.019547688,0.02443461,36.719875,99.59061,-5.883147,STD
3404868508000,3.964867,-0.915753036416081,-9.60993644032811,-1.39381469483505,-0.03268129,0.014966198,0.023823744,36.72202,99.59247,-5.887696,STD
3404873513000,3.969872,-0.941676193455922,-9.60129566468361,-1.40245569605192,-0.03573562,0.028405234,0.025045475,36.72779,99.59751,-5.890714,STD
3404878469000,3.974828,-0.956789630336574,-9.59506991637996,-1.40689943498878,-0.04886922,0.013744468,0.022907447,36.720455,99.60113,-5.8932753,STD
3404883506000,3.979865,-0.954384315280479,-9.59266456364997,-1.40449413249065,-0.04642576,0.019242255,0.02107485,36.722767,99.60215,-5.8949265,STD
3404888512000,3.984871,-0.951993803632511,-9.59027401455996,-1.40210363332336,-0.04184427,0.015271631,0.026267206,36.721554,99.61159,-5.903905,STD
3404893521000,3.98988,-0.949601859396659,-9.58788203285964,-1.39971170157567,-0.04337143,0.028405234,0.025350908,36.726543,99.62025,-5.909609,STD
3404898488000,3.994847,-0.949816006652989,-9.59323255509965,-1.40335017889801,-0.043676864,0.01985312,0.024740042,36.72449,99.62839,-5.917626,STD
3404903611000,3.99997,-0.954609109676632,-9.61240476699883,-1.41772951299336,-0.040011674,0.018020526,0.024740042,36.72809,99.635765,-5.9246464,STD
3404908563000,4.004922,-0.953270184818801,-9.62175060025754,-1.42547413083149,-0.042760566,0.022602014,0.022602014,36.72833,99.644844,-5.928994,STD
3404913575000,4.009934,-0.940025426227925,-9.61292059216336,-1.42105921898455,-0.03390302,0.026267206,0.025961773,36.728104,99.65124,-5.9348555,STD
3404918551000,4.01491,-0.927435407213742,-9.60629443740869,-1.41547394206841,-0.044593163,0.030848695,0.02321288,36.730236,99.66284,-5.938957,STD
3404923587000,4.019946,-0.917717256549292,-9.61115361548537,-1.40332622519772,-0.040011674,0.026267206,0.025961773,36.73118,99.67039,-5.9456344,STD
3404928576000,4.024935,-0.908089803478414,-9.61596744380636,-1.39129188058536,-0.044593163,0.028099801,0.025045475,36.73373,99.67888,-5.9477754,STD
3404933554000,4.029913,-0.898483577503904,-9.62077065835474,-1.3792840699058,-0.046120327,0.022602014,0.02565634,36.733093,99.68625,-5.951496,STD
3404938598000,4.034957,-0.891506635769832,-9.624691,-1.36991518337623,-0.049480084,0.02107485,0.02687807,36.734135,99.69482,-5.9548497,STD
3404943575000,4.039934,-0.895887896326868,-9.624691,-1.3721057907804,-0.047647487,0.020463986,0.01863139,36.7336,99.70078,-5.955777,STD
3404948569000,4.044928,-0.900284122009376,-9.624691,-1.37430388066918,-0.04886922,0.020463986,0.026572637,36.73023,99.705246,-5.9574423,STD
3404953684000,4.050043,-0.904786864173178,-9.624691,-1.37655522824249,-0.052534413,0.01160644,0.02321288,36.723476,99.70633,-5.953957,STD
3404958603000,4.054962,-0.909117067243313,-9.624691,-1.37872030716978,-0.053450707,0.02076942,0.025350908,36.725304,99.70894,-5.9507823,STD
3404963615000,4.059974,-0.918803116870356,-9.59767152123766,-1.38356337780858,-0.044898596,0.02076942,0.019242255,36.721603,99.708084,-5.945101,STD
3404968792000,4.065151,-0.928592272240912,-9.56973585926549,-1.38684711120456,-0.0421497,0.014966198,0.01740966,36.719135,99.7098,-5.9412127,STD
