timestamp,rel_time,acc_x,acc_y,acc_z,gyro_x,gyro_y,gyro_z,azimuth,pitch,roll,label
7959460125000,0,0.842346875244994,-9.53726359991479,-1.75296772475501,-0.038179077,0.0842994,0.022602014,351.611,-111.15869,4.5202184,STD
7959464741000,0.004616,0.837638043885812,-9.52313681082233,-1.75767655611419,-0.035124753,0.07849618,0.02443461,352.05444,-111.452385,4.764945,STD
7959469661000,0.009536,0.832126240401498,-9.51108894846442,-1.76345235122097,-0.035430185,0.07086037,0.013133603,352.4969,-111.75084,5.011292,STD
7959474705000,0.01458,0.822477218273158,-9.52315021667915,-1.77551364462422,-0.030848695,0.06414085,0.015882496,352.94714,-112.06208,5.2668266,STD
7959479747000,0.019622,0.812832022085393,-9.53520670247191,-1.78757015559551,-0.038179077,0.07452556,0.0125227375,353.39935,-112.37765,5.5231876,STD
7959484711000,0.024586,0.803336037580025,-9.54707667380774,-1.79944015172035,-0.034513887,0.06291912,0.015577064,353.86508,-112.70801,5.7844377,STD
7959489674000,0.029549,0.793882461814605,-9.56013427434987,-1.80952024513003,-0.035124753,0.05375614,0.016187929,354.32422,-113.04815,6.047961,STD
7959494699000,0.034574,0.784646621756069,-9.58322391066116,-1.80490231786777,-0.03756821,0.059864793,0.014966198,354.78754,-113.398994,6.3176475,STD
7959499923000,0.039798,0.775396220151319,-9.60586218324414,-1.80011452354678,-0.026267206,0.058337633,0.011301007,355.268,-113.76696,6.5873704,STD
7959504696000,0.044571,0.771178602168297,-9.61007984526665,-1.79589694960325,-0.028405234,0.0711658,0.016798794,355.74905,-114.14162,6.866966,STD
7959510643000,0.050518,0.764959838941118,-9.61487706284018,-1.79133676442355,-0.038179077,0.070554934,0.020463986,356.24054,-114.527626,7.147758,STD
7959514717000,0.054592,0.745654602325581,-9.61101593488372,-1.79905885906977,-0.036651913,0.076358154,0.018325957,356.73215,-114.926926,7.4361753,STD
7959519633000,0.059508,0.722359427263731,-9.60635680257298,-1.80837692909451,-0.03145956,0.07452556,0.026572637,357.23337,-115.33597,7.732246,STD
7959524702000,0.064577,0.672296209386357,-9.62851921330035,-1.67978429126629,-0.03390302,0.08093964,0.026267206,357.73505,-115.75351,8.032711,STD
7959529691000,0.069566,0.617749148046808,-9.65579282465988,-1.52523422243364,-0.034513887,0.079107046,0.03176499,358.24652,-116.18559,8.341233,STD
7959534822000,0.074697,0.647489607339043,-9.65563958231738,-1.58374423419647,-0.036651913,0.07941248,0.025961773,358.76843,-116.6282,8.649517,STD
7959539669000,0.079544,0.703613071617128,-9.64628572695214,-1.71002203858942,-0.036957346,0.08124508,0.022602014,359.29703,-117.08355,8.965417,STD
7959544737000,0.084612,0.762295497233249,-9.63650538055416,-1.84205750643829,-0.020463986,0.07452556,0.027183503,359.82825,-117.526,9.283795,STD
7959549692000,0.089567,0.819669494653904,-9.62694310423174,-1.97114901061965,-0.039095376,0.07727446,0.023518313,0.36100385,-117.96956,9.606201,STD
7959554726000,0.094601,0.777542910066106,-9.59501688762019,-1.84205329702524,-0.03634648,0.07452556,0.02076942,0.90621203,-118.43703,9.934539,STD
7959559729000,0.099604,0.705558589523237,-9.55662547716346,-1.63569823812099,-0.030543262,0.08002335,0.030848695,1.4559338,-118.91341,10.272106,STD
7959564778000,0.104653,0.723014428709646,-9.5331947826044,-1.63067518201204,-0.032986723,0.08674286,0.0290161,2.0224874,-119.44429,10.621994,STD
7959569734000,0.109609,0.765186813229342,-9.51445113091125,-1.68221919666305,-0.033292156,0.08124508,0.01863139,2.5970209,-119.990234,10.976689,STD
7959574706000,0.114581,0.792925162786491,-9.54073608630809,-1.82928433368613,-0.034513887,0.07422013,0.025045475,3.1643364,-120.51046,11.336241,STD
7959579983000,0.119858,0.817238032691234,-9.58449969489079,-2.01892497890888,-0.029626964,0.06414085,0.026267206,3.7384348,-121.04338,11.695972,STD
7959584737000,0.124612,0.785130793129468,-9.59916694440032,-1.92110433689436,-0.03359759,0.067500606,0.025045475,4.312252,-121.59726,12.064454,STD
7959589758000,0.129633,0.727841113337967,-9.60394068308181,-1.70149386279786,-0.02687807,0.08032878,0.016187929,4.8923326,-122.16763,12.436369,STD
7959594739000,0.134614,0.727760269636035,-9.60235783732154,-1.71072230148804,-0.032070424,0.059253927,0.01985312,5.519832,-122.78017,12.814304,STD
7959599707000,0.139582,0.756461783249547,-9.59757465131711,-1.83509562704605,-0.03970624,0.05681047,0.016493361,6.1438227,-123.405426,13.197525,STD
7959604736000,0.144611,0.769271517791411,-9.60221477436946,-1.88018108513974,-0.035124753,0.05467244,0.020158553,6.7581863,-124.01152,13.583718,STD
7959609731000,0.149606,0.773929869675723,-9.61153108900575,-1.88483938838251,-0.03268129,0.055283304,0.01863139,7.3788843,-124.62756,13.972571,STD
7959614778000,0.154653,0.772712012243667,-9.60006721833534,-1.88964025633293,-0.03604105,0.054061573,0.01282817,8.022609,-125.276794,14.364584,STD
7959619733000,0.159608,0.767941853468034,-9.57621667350221,-1.89441036529956,-0.03481932,0.04520403,0.01863139,8.677491,-125.942825,14.762216,STD
7959624709000,0.164584,0.751477371330049,-9.56136333231527,-1.87274029412808,-0.03359759,0.052839845,0.010995574,9.330267,-126.62125,15.160306,STD
7959629772000,0.169647,0.727591982955665,-9.55180947625616,-1.83452367272906,-0.032986723,0.070249505,0.017104227,9.99416,-127.316025,15.567204,STD
7959634733000,0.174608,0.70709255848319,-9.53690882525411,-1.81121734386239,-0.03390302,0.06872234,0.018325957,10.668007,-128.02084,15.971747,STD
7959639725000,0.1796,0.688403197419859,-9.51821907388585,-1.79720032306489,-0.03176499,0.0720821,0.016187929,11.345444,-128.74083,16.38424,STD
7959644683000,0.184558,0.664337864858638,-9.5123716237046,-1.74141402794044,-0.038179077,0.08093964,0.02443461,12.037429,-129.46703,16.805836,STD
7959649686000,0.189561,0.6354137545246,-9.51719240356173,-1.64982102278901,-0.030848695,0.07513642,0.018936822,12.738524,-130.20932,17.225126,STD
7959654694000,0.194569,0.625108830630542,-9.52719536581281,-1.53041145376355,-0.03023783,0.071776666,0.015882496,13.449482,-130.95891,17.649813,STD
7959659696000,0.199571,0.629828353152709,-9.54135422906404,-1.38882572881773,-0.028710667,0.0711658,0.018020526,14.1707735,-131.7247,18.07658,STD
7959664755000,0.20463,0.643951704471154,-9.5647122910503,-1.28595200388314,-0.03359759,0.057726767,0.018325957,14.898833,-132.48999,18.504498,STD
7959669808000,0.209683,0.666322100709135,-9.59603051969305,-1.2188408665588,-0.04642576,0.055283304,0.016493361,15.6348095,-133.26794,18.936306,STD
7959674710000,0.214585,0.687331432657158,-9.61695857168516,-1.16503554858954,-0.03268129,0.048563786,0.0143553335,16.358408,-134.04596,19.37569,STD
7959679708000,0.219583,0.70755957693608,-9.62201571336503,-1.12963624329636,-0.029321533,0.05589417,0.01740966,17.091337,-134.83281,19.819407,STD
7959684698000,0.224573,0.71602329085885,-9.61909797714713,-1.11762123910381,-0.032070424,0.05009095,0.01863139,17.822596,-135.6291,20.26803,STD
7959689699000,0.229574,0.711254201807319,-9.6071752545183,-1.13192853115758,-0.03604105,0.026267206,0.02076942,18.569176,-136.44067,20.716047,STD
7959695388000,0.235263,0.705829017321384,-9.59361229330346,-1.14820411294001,-0.048258353,0.027183503,0.017104227,19.31226,-137.2587,21.171995,STD
7959699698000,0.239573,0.701718884585512,-9.58333696146378,-1.16053453260642,-0.047036625,0.035430185,0.011301007,20.071722,-138.09308,21.624666,STD
7959704700000,0.244575,0.692757593828125,-9.57045778222656,-1.1768362415625,-0.032986723,0.04428773,0.019547688,20.845963,-138.94296,22.079275,STD
7959709718000,0.249593,0.678678575546875,-9.55637895996094,-1.1956082659375,-0.03634648,0.04428773,0.016187929,21.6297,-139.80016,22.52938,STD
7959714693000,0.254568,0.678113157503506,-9.54034018092567,-1.22408519957924,-0.04184427,0.043066,0.018325957,22.434603,-140.67545,22.982382,STD
7959719716000,0.259591,0.697389561590864,-9.52106337427369,-1.26745715909637,-0.036651913,0.057421334,0.019242255,23.248812,-141.56549,23.435802,STD
7959724653000,0.264528,0.712399625121619,-9.51720100544853,-1.30773270048648,-0.037873644,0.059253927,0.018325957,24.090761,-142.46948,23.880997,STD
7959729853000,0.269728,0.722090101868068,-9.53658236368943,-1.34649460747227,-0.036957346,0.05375614,0.01863139,24.945536,-143.38889,24.325033,STD
7959734704000,0.274579,0.727006762301841,-9.55056857840491,-1.38609416263558,-0.036651913,0.046731193,0.01985312,25.812027,-144.32181,24.762547,STD
7959739722000,0.279597,0.724648166846626,-9.55764426625767,-1.4332660963681,-0.03573562,0.049480084,0.014660766,26.690062,-145.267,25.195877,STD
7959744642000,0.284517,0.72233563403681,-9.56458176809816,-1.47951677671166,-0.03940081,0.043066,0.010079277,27.602688,-146.2349,25.627886,STD
7959749741000,0.289616,0.719938966395092,-9.57177167092025,-1.52745015457178,-0.0421497,0.030848695,0.0070249503,28.528862,-147.21494,26.053022,STD
7959754646000,0.294521,0.715730958132858,-9.57427740530641,-1.57746153534304,-0.04795292,0.028710667,0.009773844,29.468527,-148.20541,26.47309,STD
7959759712000,0.299587,0.706124766904267,-9.56467101346401,-1.63990182848233,-0.03573562,0.028710667,0.008552114,30.422108,-149.21017,26.882956,STD
7959765645000,0.30552,0.695248173111292,-9.55572379772543,-1.7202465621446,-0.035124753,0.023823744,0.008552114,31.4149,-150.2397,27.271717,STD
7959769733000,0.309608,0.688180755763156,-9.55219038424045,-1.78385335517646,-0.03604105,0.028099801,0.009773844,32.418877,-151.28247,27.65455,STD
7959774923000,0.314798,0.679131314378174,-9.54848795847854,-1.86612036050981,-0.033292156,0.025045475,0.002443461,33.449245,-152.34264,28.016426,STD
7959779762000,0.319637,0.66990257093498,-9.55310194473763,-1.95840784312456,-0.032070424,0.019547688,0.01038471,34.495655,-153.41438,28.371717,STD
7959784914000,0.324789,0.66220489055362,-9.55624781678281,-2.05505736955091,-0.035430185,0.021685716,0.0027488936,35.543095,-154.49284,28.693804,STD
7959789740000,0.329615,0.680097897444832,-9.5383549033101,-2.12662949053426,-0.04428773,0.028710667,0.007941248,36.606956,-155.58202,29.008755,STD
7959795088000,0.334963,0.699621756670234,-9.51944897348448,-2.20359234093121,-0.04062254,0.03481932,0.012217305,37.70799,-156.6984,29.301064,STD
7959799704000,0.339579,0.710375505040381,-9.52159976807434,-2.22294906553955,-0.03604105,0.034513887,0.012217305,38.817764,-157.82013,29.58222,STD
7959804700000,0.344575,0.722014527323149,-9.5239276211443,-2.24389928134183,-0.044898596,0.03023783,0.0106901415,39.93637,-158.94742,29.846106,STD
7959809714000,0.349589,0.733695483633356,-9.5262638611949,-2.26492497830593,-0.050701816,0.027183503,0.015882496,41.064262,-160.08359,30.098911,STD
7959814678000,0.354553,0.745259956534008,-9.52857680407707,-2.28574100537608,-0.048258353,0.021991149,0.016187929,42.1979,-161.2241,30.336702,STD
7959819781000,0.359656,0.742709668789091,-9.55461047667384,-2.26316935743874,-0.03726278,0.016798794,0.02107485,43.344666,-162.37257,30.566078,STD
7959824661000,0.364536,0.737917832020917,-9.58336159735466,-2.23441838686558,-0.04153884,0.015577064,0.012217305,44.493286,-163.52043,30.78024,STD
7959829767000,0.369642,0.741673031293571,-9.57573667176607,-2.17602984871224,-0.05009095,0.016187929,0.011301007,45.64284,-164.67636,30.96847,STD
7959835089000,0.374964,0.746607939271882,-9.56339940182029,-2.11187599346437,-0.034208454,0.013744468,0.011301007,46.794235,-165.83911,31.140905,STD
7959839725000,0.3796,0.75090674298993,-9.55265239252518,-2.05599150024206,-0.03359759,0.009773844,0.010079277,47.947674,-167.00085,31.300758,STD
7959844700000,0.384575,0.755519889775368,-9.54111952556158,-1.99602054386135,-0.040927973,0.017104227,0.018325957,49.10594,-168.16803,31.44885,STD
7959849736000,0.389611,0.760155574170343,-9.53670603481681,-1.92319934780357,-0.048563786,0.013439035,0.011911872,50.257164,-169.33246,31.574043,STD
7959854704000,0.394579,0.764718953299444,-9.53442430951468,-1.84790393763668,-0.037873644,0.018325957,0.0106901415,51.41255,-170.50264,31.689325,STD
7959859699000,0.399574,0.769307133402072,-9.53213018353156,-1.7721993132841,-0.03634648,0.01740966,0.011911872,52.5448,-171.65128,31.805006,STD
7959864693000,0.404568,0.773894394950125,-9.52983651683292,-1.69650984501247,-0.03634648,0.017104227,0.012217305,53.677097,-172.80276,31.906199,STD
7959869694000,0.409569,0.784977560479196,-9.55052086672372,-1.60774190424644,-0.042760566,0.01038471,0.0070249503,54.80849,-173.95287,31.989056,STD
7959874751000,0.414626,0.800518199105787,-9.58678262370307,-1.50931761439726,-0.04428773,0.008857546,0.0106901415,55.941986,-175.10544,32.057384,STD
7959879765000,0.41964,0.797476969180807,-9.59944810590989,-1.4530183885118,-0.04062254,0.005192355,0.0067195175,57.04869,-176.2402,32.130306,STD
7959884712000,0.424587,0.788236398698069,-9.60406800760679,-1.41143575138483,-0.03573562,0.009773844,0.0076358155,58.157063,-177.37596,32.188194,STD
7959889736000,0.429611,0.788517176214084,-9.61197514687835,-1.36280466525762,-0.043982297,0.0143553335,0.007941248,59.245247,-178.50194,32.24058,STD
7959894688000,0.434563,0.793136277567936,-9.62121354251485,-1.31199459859745,-0.038179077,0.017715093,0.0076358155,60.33135,-179.63164,32.276543,STD
7959899707000,0.439582,0.779738787167618,-9.61863640927763,-1.26562387912033,-0.04153884,0.0070249503,0.0076358155,61.413532,179.2448,32.296787,STD
7959904677000,0.444552,0.755895101374612,-9.60909874972448,-1.22270525763952,-0.032375857,0.015271631,0.007330383,62.491825,178.11858,32.305973,STD
7959909670000,0.449545,0.743942146032068,-9.59943968307286,-1.18838514435762,-0.043676864,0.018020526,0.0015271631,63.542355,177.00851,32.292328,STD
7959914703000,0.454578,0.739050727887152,-9.58965715323727,-1.15903658441242,-0.04153884,0.016798794,0.005192355,64.59073,175.89384,32.263134,STD
7959919695000,0.45957,0.731433345912781,-9.58040312101189,-1.15220717704361,-0.044593163,0.0012217305,0.0076358155,65.631424,174.78767,32.216526,STD
7959924711000,0.464586,0.722364584576175,-9.57133417028507,-1.15674155771191,-0.036651913,0.004886922,0.0061086523,66.66552,173.68138,32.158554,STD
7959929707000,0.469582,0.713220906003571,-9.57352949249554,-1.17769210379808,-0.029626964,0.016493361,0.0070249503,67.70043,172.5773,32.087677,STD
7959934715000,0.47459,0.703962546966845,-9.58510244129144,-1.21241099852324,-0.0421497,0.013439035,0.00580322,68.72438,171.48053,31.997347,STD
7959939660000,0.479535,0.694820656903624,-9.59652980387047,-1.24669313398967,-0.045814894,0.0125227375,0.0070249503,69.74403,170.38138,31.88919,STD
7959944703000,0.484578,0.685497592881618,-9.60818363389798,-1.28165467274745,-0.043676864,0.018325957,0.009468411,70.75283,169.28879,31.766268,STD
7959949635000,0.48951,0.68364793215248,-9.61880870931045,-1.32276625754915,-0.04062254,0.018936822,0.013744468,71.75028,168.20177,31.626106,STD
7959954704000,0.494579,0.693336545903602,-9.62849752539667,-1.37605358259655,-0.03573562,0.011911872,0.010995574,72.733406,167.12029,31.47092,STD
7959959674000,0.499549,0.704627188595627,-9.6305877307465,-1.44091227000197,-0.05009095,0.012217305,0.01282817,73.71415,166.03862,31.286917,STD
7959964773000,0.504648,0.719054636852472,-9.62096923104195,-1.52747705997636,-0.04153884,0.016493361,0.015577064,74.67918,164.9578,31.08899,STD
7959969629000,0.509504,0.729473593504974,-9.61184151550614,-1.60799010667057,-0.041233405,0.008857546,0.008857546,75.62538,163.89014,30.87032,STD
7959974724000,0.514599,0.734232106865613,-9.60232478691242,-1.68888488348937,-0.03604105,0.004581489,0.014049901,76.56083,162.82541,30.640747,STD
7959979724000,0.519599,0.740418401378495,-9.58995227176054,-1.76851539308783,-0.03970624,0.0021380284,0.010079277,77.460724,161.77939,30.386318,STD
7959984780000,0.524655,0.749953710712879,-9.57088125482474,-1.84956562199685,-0.0421497,0.0009162979,0.013744468,78.34734,160.73929,30.120552,STD
7959989676000,0.529551,0.757752966385993,-9.55706041940658,-1.92297088524459,-0.03573562,0.0012217305,0.015577064,79.21489,159.7105,29.838255,STD
7959994701000,0.534576,0.762040917134456,-9.55491663432237,-1.98514589125902,-0.03970624,0.0021380284,0.00580322,80.06252,158.69646,29.549305,STD
7959999684000,0.539559,0.766293028294574,-9.55279076744186,-2.0468012255814,-0.029932396,0.010079277,0.008857546,80.88915,157.6957,29.251028,STD
7960004700000,0.544575,0.770573299131248,-9.55065082197273,-2.1088648733761,-0.034208454,0.002443461,0.010079277,81.69329,156.71198,28.94475,STD
7960009651000,0.549526,0.774798103938341,-9.54853860705694,-2.17012426736167,-0.040927973,0.004581489,0.008552114,82.48318,155.73756,28.637749,STD
7960014716000,0.554591,0.77194169402497,-9.54429725455807,-2.213749332065,-0.04642576,-0.00061086525,0.01863139,83.25758,154.77328,28.320438,STD
7960019632000,0.559507,0.767276608769322,-9.53963212059057,-2.25106962441538,-0.03145956,0.005497787,0.0076358155,84.010925,153.82053,28.005297,STD
7960024737000,0.564612,0.773596597864194,-9.53663693905865,-2.24242767122007,-0.030848695,0.013744468,0.013744468,84.74667,152.88554,27.664968,STD
7960029715000,0.56959,0.78307935429772,-9.53426620353564,-2.21990612933191,-0.0290161,0.015577064,0.01282817,85.46074,151.96182,27.325043,STD
7960034700000,0.574575,0.79257544526219,-9.53189213431463,-2.19735291793928,-0.021991149,0.01863139,0.009468411,86.162094,151.04951,26.980621,STD
7960039630000,0.579505,0.801966764912106,-9.52954425843507,-2.17504853836744,-0.030848695,0.008246681,0.010079277,86.84592,150.15315,26.631712,STD
7960044676000,0.584551,0.81157905678908,-9.52714113841717,-2.15221934986449,-0.02687807,0.0143553335,0.017104227,87.51797,149.26445,26.28596,STD
7960049714000,0.589589,0.821176109202118,-9.52474182833984,-2.12942635508093,-0.030848695,0.024740042,0.0125227375,88.17046,148.39447,25.939993,STD
7960054688000,0.594563,0.830651245903677,-9.52237299778712,-2.10692291005246,-0.029321533,0.01985312,0.014660766,88.81632,147.53223,25.592892,STD
7960059678000,0.599553,0.840156861533106,-9.51999654735324,-2.08434707758522,-0.02565634,0.022296581,0.01038471,89.44747,146.68506,25.251413,STD
7960064713000,0.604588,0.844381744155544,-9.52421433413384,-2.03597563501131,-0.032070424,0.032375857,0.009468411,90.06566,145.85222,24.90952,STD
7960069701000,0.609576,0.846587862402438,-9.53083282709093,-1.978616537556,-0.03634648,0.031154128,0.0143553335,90.66781,145.03075,24.565495,STD
7960074719000,0.614594,0.848807249203344,-9.53749112654136,-1.92091245755784,-0.03634648,0.03604105,0.018325957,91.25254,144.22672,24.24227,STD
7960079755000,0.61963,0.851034597136655,-9.54417330988777,-1.86300138803399,-0.04337143,0.037873644,0.013133603,91.82158,143.43835,23.918678,STD
7960084767000,0.624642,0.850975150972923,-9.54875726768249,-1.79719481944816,-0.032986723,0.03756821,0.014966198,92.380196,142.65637,23.59367,STD
7960090420000,0.630295,0.847259330224098,-9.55061502285596,-1.70987295425032,-0.042455133,0.037873644,0.014966198,92.92425,141.8943,23.270796,STD
7960094680000,0.634555,0.844459153965476,-9.55201499402862,-1.64406875369436,-0.037873644,0.038179077,0.015271631,93.465355,141.12885,22.962124,STD
7960099709000,0.639584,0.841153499879886,-9.55366768300216,-1.56638581364838,-0.040317107,0.03176499,0.007941248,93.990166,140.38034,22.653305,STD
7960104693000,0.644568,0.837877425120972,-9.55530558354782,-1.48939798839699,-0.04428773,0.027488936,0.009773844,94.50459,139.64148,22.34312,STD
7960109689000,0.649564,0.834593462541611,-9.55694742767425,-1.41222479920038,-0.04520403,0.023823744,0.015577064,95.004234,138.91464,22.032665,STD
7960114777000,0.654652,0.825835979860894,-9.55520446791862,-1.34477778708051,-0.036957346,0.013744468,0.009468411,95.486824,138.19962,21.722706,STD
7960119698000,0.659573,0.813543987577813,-9.55110748513302,-1.28741523628934,-0.035430185,0.009468411,0.008246681,95.95987,137.4966,21.411896,STD
7960124693000,0.664568,0.800301478784648,-9.55222722921109,-1.23668432601279,-0.034513887,0.009468411,0.002443461,96.1805053457739,137.143146801716,21.2591280546852,STD
7960129719000,0.669594,0.784907151560768,-9.56762136353944,-1.20589562869936,-0.033292156,-0.0067195175,0.003970624,96.40251,136.7875,21.105412,STD
7960134697000,0.674572,0.770251687686388,-9.58227661712362,-1.18387763781626,-0.025961773,-0.005497787,0.0018325958,96.8362,136.0875,20.801876,STD
7960139704000,0.679579,0.756412956228956,-9.59611510774411,-1.17465184895623,-0.033292156,-0.0070249503,0.0067195175,97.26618,135.39066,20.494904,STD
7960144675000,0.68455,0.745432512501302,-9.60086190259402,-1.17460404999479,-0.03604105,0.0012217305,0.018020526,97.70454,134.69206,20.19169,STD
7960149707000,0.689582,0.740412150213564,-9.58580102541931,-1.19468549914574,-0.038179077,-0.0021380284,0.018020526,98.12562,134.00714,19.887917,STD
7960154655000,0.69453,0.744678504050361,-9.58043926839743,-1.24299962543432,-0.032986723,0.014660766,0.012217305,98.53937,133.32675,19.583326,STD
7960160074000,0.699949,0.76493882600039,-9.5905696144837,-1.3443009707398,-0.05131268,0.022602014,0.019242255,98.9404,132.66211,19.27488,STD
7960164701000,0.704576,0.784293887908792,-9.59767535579293,-1.41878770607025,-0.049785517,0.029321533,0.024740042,99.33429,132.00337,18.966661,STD
7960169702000,0.709577,0.808889993492194,-9.60259417009039,-1.4778184601479,-0.049480084,0.03726278,0.024129177,99.718575,131.36049,18.661617,STD
7960174690000,0.714565,0.827062645715319,-9.60207982980648,-1.5217786142883,-0.05375614,0.027794369,0.015882496,100.08747,130.7403,18.357203,STD
7960179784000,0.719659,0.835885999139085,-9.59325677120637,-1.54383699784771,-0.051923547,0.03481932,0.016493361,100.45273,130.12845,18.05759,STD
7960184706000,0.724581,0.84722530751271,-9.58102441904576,-1.57263189430974,-0.04428773,0.028099801,0.013133603,100.808304,129.53482,17.762962,STD
7960189698000,0.729573,0.870596174497458,-9.55297931619085,-1.63339612113805,-0.043982297,0.016798794,0.0070249503,101.15351,128.95389,17.472025,STD
7960194731000,0.734606,0.889960362149027,-9.53097105220693,-1.69234494286664,-0.04520403,0.021380283,0.0106901415,101.49154,128.38637,17.18598,STD
7960199677000,0.739552,0.885464192280968,-9.54445928951115,-1.73730640680589,-0.043066,0.016187929,0.0033597588,101.811646,127.83092,16.903498,STD
7960204891000,0.744766,0.878050388710218,-9.5580299840871,-1.78467888592965,-0.044593163,0.012217305,0.0033597588,101.974187801618,127.554303524123,16.7593814983518,STD
7960209688000,0.749563,0.839574732441374,-9.56283953904941,-1.82796397663317,-0.04795292,0.00580322,0.0033597588,102.12373,127.29981,16.626791,STD
7960214677000,0.754552,0.803304387919081,-9.56550896494157,-1.87091942403025,-0.03940081,0.0067195175,0.00030543262,102.426704,126.77632,16.356699,STD
7960219666000,0.759541,0.793920389047432,-9.55143315525877,-1.89907148433664,-0.048258353,0.014966198,0.0070249503,102.72243,126.2709,16.085812,STD
7960224681000,0.764556,0.784072996103691,-9.53890839883249,-1.926571761215,-0.043982297,0.01160644,0.009773844,103.01627,125.76863,15.810321,STD
7960230086000,0.769961,0.768708576359949,-9.54402996655783,-1.94705760429405,-0.033292156,0.016798794,0.016187929,103.307335,125.2758,15.538774,STD
7960234740000,0.774615,0.756929498619057,-9.54880057457092,-1.96288360138094,-0.041233405,0.01985312,0.017715093,103.589745,124.80037,15.26859,STD
7960239688000,0.779563,0.761603596705465,-9.55814847790491,-1.95820950329454,-0.04428773,0.01985312,0.009468411,103.86403,124.33137,15.003589,STD
7960244853000,0.784728,0.766843410800122,-9.56688053857915,-1.95331914587708,-0.04184427,0.020158553,0.011911872,104.14017,123.87021,14.738256,STD
7960249673000,0.789548,0.776253327159311,-9.56217549933748,-1.94861420489247,-0.038179077,0.018936822,0.010995574,104.40605,123.42078,14.479611,STD
7960254673000,0.794548,0.784607523813126,-9.55730770701513,-1.9427105126744,-0.04550946,0.016187929,0.01038471,104.664024,122.98237,14.226521,STD
7960259606000,0.799481,0.775324260489291,-9.55266648005502,-1.92414405388092,-0.040317107,0.0125227375,0.01282817,104.91423,122.548904,13.97659,STD
7960264859000,0.804734,0.766678206159905,-9.54914439485808,-1.90329397360678,-0.046731193,0.01160644,0.008552114,105.16898,122.12825,13.734563,STD
7960269614000,0.809489,0.773445600267499,-9.56267896165849,-1.8717128309407,-0.036651913,0.0070249503,0.01038471,105.41539,121.71011,13.493231,STD
7960274814000,0.814689,0.780846325684847,-9.57748017035716,-1.83717614495467,-0.03023783,0.020463986,0.009162978,105.6607,121.301094,13.259868,STD
7960279651000,0.819526,0.787730423539406,-9.59124814083321,-1.80505038531728,-0.04153884,0.012217305,0.009773844,105.89232,120.902405,13.02576,STD
7960284906000,0.824781,0.794325706737931,-9.60542715668473,-1.77061067508176,-0.042455133,0.0143553335,0.010079277,106.1276,120.5081,12.801988,STD
7960289612000,0.829487,0.783326417753697,-9.60322748586909,-1.74861212927222,-0.03848451,0.015577064,0.0143553335,106.35392,120.12334,12.579443,STD
7960294593000,0.834468,0.771684373888319,-9.60089927500366,-1.72532807557964,-0.030543262,0.019242255,0.009773844,106.56939,119.73768,12.366101,STD
7960299619000,0.839494,0.759937151951481,-9.59855003031191,-1.70183366605164,-0.03573562,0.02107485,0.015271631,106.77985,119.360794,12.152503,STD
7960304626000,0.844501,0.748234338533704,-9.59620966656905,-1.67842807343193,-0.042455133,0.008552114,0.01160644,106.979126,118.992,11.944472,STD
7960309676000,0.849551,0.742866801215269,-9.58771263017681,-1.657382733937,-0.03573562,0.01160644,0.013133603,107.17802,118.627625,11.739405,STD
7960314708000,0.854583,0.738273515450603,-9.57852586679693,-1.63671292401468,-0.037873644,0.008552114,0.0070249503,107.36447,118.276306,11.538342,STD
7960319729000,0.859604,0.733690270652433,-9.56935918576943,-1.61608829849402,-0.035124753,0.0076358155,0.016798794,107.53946,117.92067,11.33379,STD
7960324654000,0.864529,0.729194656107325,-9.56036776890817,-1.59585800956965,-0.05100725,0.01160644,0.020463986,107.70794,117.5792,11.136048,STD
7960329764000,0.869639,0.722925529558324,-9.55437858894866,-1.59793618406946,-0.034208454,0.0015271631,0.007941248,107.86836,117.236595,10.943784,STD
7960334673000,0.874548,0.716270304303511,-9.54994191109853,-1.60902822616082,-0.030848695,0.009468411,0.010079277,108.03166,116.90642,10.752841,STD
7960339702000,0.879577,0.709452392751982,-9.54539677911476,-1.62039141208003,-0.04337143,0.0067195175,0.0076358155,108.18139,116.579926,10.568356,STD
7960344743000,0.884618,0.702618212570781,-9.54084080171763,-1.63178171238203,-0.03756821,0.0070249503,0.0076358155,108.3297,116.253914,10.387147,STD
7960349746000,0.889621,0.700257050228947,-9.54540092539319,-1.63993421246765,-0.037873644,-0.0018325958,0.009468411,108.47006,115.93931,10.2078285,STD
7960354736000,0.894611,0.702635520864025,-9.55967179887518,-1.64469117857356,-0.040011674,0.01038471,0.005192355,108.61079,115.63078,10.03571,STD
7960359705000,0.89958,0.705003981903245,-9.57388261457297,-1.64942812538324,-0.05100725,0.0076358155,0.005192355,108.75075,115.33084,9.857796,STD
7960364772000,0.904647,0.707419154389807,-9.58837369993032,-1.65425849557535,-0.047647487,0.0076358155,0.0036651916,108.889534,115.03463,9.686263,STD
7960369739000,0.909614,0.717444607372999,-9.60034131646571,-1.68088009527575,-0.045814894,0.016187929,0.008246681,109.02619,114.74711,9.516894,STD
7960374759000,0.914634,0.736450551630757,-9.60984399090729,-1.73314644198458,-0.043982297,0.021380283,0.008857546,109.15711,114.46532,9.3516655,STD
7960379668000,0.919543,0.756046846229913,-9.61410776390606,-1.76112618491965,-0.04428773,0.022602014,0.013133603,109.28246,114.188934,9.187695,STD
7960384746000,0.924621,0.77768736150309,-9.61170321478368,-1.75872168601236,-0.044593163,0.019242255,0.012217305,109.403435,113.91846,9.028085,STD
7960389621000,0.929496,0.798462767559951,-9.60939479080346,-1.7564133102398,-0.043676864,0.018936822,0.017715093,109.524895,113.661514,8.872693,STD
7960394745000,0.93462,0.820299317433869,-9.60696845962917,-1.75398702973548,-0.048563786,0.024740042,0.018325957,109.642784,113.4124,8.722147,STD
7960399638000,0.939513,0.834942606566401,-9.60377674048953,-1.74375356716799,-0.051923547,0.015577064,0.010079277,109.746216,113.16929,8.570903,STD
7960404737000,0.944612,0.839742773989973,-9.59897697404895,-1.71975273005013,-0.04642576,0.007941248,-0.0009162979,109.84826,112.93063,8.424063,STD
7960409651000,0.949526,0.836338162870025,-9.59114527661243,-1.69985597718094,-0.03573562,0.013744468,0.008246681,109.94929,112.69927,8.286489,STD
7960415397000,0.955272,0.814762648163105,-9.57496331954519,-1.68367435804744,-0.04184427,0.0076358155,0.01038471,110.04037,112.47768,8.154309,STD
7960419656000,0.959531,0.800128203735826,-9.56002406286055,-1.68602951199523,-0.047036625,0.005497787,0.007330383,110.13044,112.25478,8.02765,STD
7960424755000,0.96463,0.785557276180625,-9.53573914979113,-1.72002839029242,-0.03940081,0.007941248,0.007330383,110.1737082502,112.143348741022,7.96446645161612,STD
7960429680000,0.969555,0.776399737388833,-9.52341605124898,-1.74772718367961,-0.0421497,0.0012217305,-0.0009162979,110.2155,112.03572,7.903439,STD
7960434716000,0.974591,0.778703248575727,-9.53723720977218,-1.76385183655251,-0.046120327,0.0015271631,0.005497787,110.29318,111.82191,7.7749486,STD
7960439852000,0.979727,0.781052500651956,-9.55133281544634,-1.78029667713139,-0.047036625,0.0033597588,0.007941248,110.36945,111.61741,7.651578,STD
7960444698000,0.984573,0.783269104149114,-9.56463252438267,-1.79581297336295,-0.042760566,0.00580322,0.015577064,110.44509,111.41555,7.5275908,STD
7960449661000,0.989536,0.78655313736672,-9.57781096802268,-1.80901252411478,-0.04917465,0.022907447,0.01160644,110.518,111.222305,7.406714,STD
7960454702000,0.994577,0.798557483658245,-9.58741438889994,-1.79940902802865,-0.04886922,0.018936822,0.01160644,110.58512,111.029015,7.2833796,STD
7960459676000,0.999551,0.810402280018898,-9.59689017057887,-1.78993317214044,-0.04520403,0.013133603,0.01282817,110.655396,110.84463,7.1648626,STD
7960464756000,1.004631,0.822499498658245,-9.60656788889994,-1.78025537802865,-0.049785517,0.007941248,0.014049901,110.72299,110.66629,7.048439,STD
7960469710000,1.009585,0.834496295699765,-9.61379992259578,-1.77214723647381,-0.04337143,0.0125227375,0.0143553335,110.79078,110.48815,6.9398413,STD
7960474733000,1.014608,0.848600361297889,-9.599696053362,-1.77684864076427,-0.0421497,0.016187929,0.009468411,110.85494,110.31669,6.833949,STD
7960479815000,1.01969,0.860337102350444,-9.58543868245851,-1.78097099744307,-0.042455133,0.02107485,0.009468411,110.91659,110.14473,6.7298336,STD
7960485144000,1.025019,0.835715908876882,-9.57066567020455,-1.77604671144346,-0.04734206,0.03023783,0.012217305,110.97872,109.97746,6.6291122,STD
7960490063000,1.029938,0.814772284126029,-9.55797174537745,-1.77128421503871,-0.032986723,0.031154128,0.015271631,111.04182,109.8111,6.534313,STD
7960494717000,1.034592,0.830155804492875,-9.56456481642917,-1.7624936372171,-0.03390302,0.033292156,0.018325957,111.10663,109.65321,6.4415803,STD
7960499670000,1.039545,0.8465276515872,-9.57158146467137,-1.75313830160249,-0.036651913,0.039095376,0.010079277,111.170265,109.49424,6.3489485,STD
7960504732000,1.044607,0.863259791702579,-9.57875252734086,-1.7435770843844,-0.038179077,0.027183503,0.012217305,111.22945,109.33724,6.2531576,STD
7960509657000,1.049532,0.87953908646122,-9.58572950949164,-1.73427463578719,-0.03756821,0.03145956,0.017104227,111.29274,109.184166,6.1626544,STD
7960514862000,1.054737,0.885431701872177,-9.58201843431043,-1.74649842356559,-0.043066,0.03848451,0.014660766,111.35058,109.03716,6.0768776,STD
7960519637000,1.059512,0.889826656845747,-9.5776234150889,-1.75968320588179,-0.053145275,0.04184427,0.01038471,111.40752,108.894035,5.9920826,STD
7960524756000,1.064631,0.894710604921718,-9.58087462986752,-1.77026753231634,-0.051618114,0.039095376,0.021685716,111.46025,108.75031,5.9116917,STD
7960529776000,1.069651,0.899535528245684,-9.58569965395423,-1.77991742934564,-0.054061573,0.02443461,0.011911872,111.50724,108.61556,5.8389654,STD
7960534754000,1.074629,0.888563736142653,-9.59803993723253,-1.75020312738944,-0.049480084,0.032375857,0.0125227375,111.56368,108.48192,5.7634053,STD
7960539651000,1.079526,0.875183511452211,-9.61141994769377,-1.71452255615787,-0.052534413,0.020463986,0.016493361,111.608986,108.3543,5.688091,STD
7960544732000,1.084607,0.867980321961285,-9.61160484867839,-1.70116252196129,-0.04337143,0.023823744,0.013439035,111.66321,108.22628,5.6184263,STD
7960549640000,1.089515,0.863361776771151,-9.60698620703547,-1.69654397677115,-0.053145275,0.018325957,0.0061086523,111.71063,108.10687,5.5485344,STD
7960554676000,1.094551,0.85337165082449,-9.59699605795918,-1.6950948,-0.049785517,0.017104227,0.008857546,111.75724,107.97474,5.4755073,STD
7960559733000,1.099608,0.841017079891837,-9.58464149734694,-1.6950948,-0.042760566,0.022602014,0.01863139,111.8031,107.84694,5.40408,STD
7960564818000,1.104693,0.828594103187755,-9.57221853102041,-1.6950948,-0.0421497,0.03390302,0.014966198,111.848045,107.722595,5.336527,STD
7960569681000,1.109556,0.816713486528571,-9.56033792428571,-1.6950948,-0.046731193,0.03176499,0.016798794,111.891014,107.59903,5.2655773,STD
7960574760000,1.114635,0.796868596124617,-9.55078923806951,-1.71911871932289,-0.04184427,0.021991149,0.016798794,111.934685,107.475525,5.1987987,STD
7960579735000,1.11961,0.775418641280389,-9.5422095356564,-1.7491486184765,-0.03634648,0.016493361,0.01282817,111.977715,107.35578,5.134142,STD
7960584742000,1.124617,0.771973256688332,-9.54141442855621,-1.75338929692062,-0.03176499,0.025350908,0.015271631,112.01674,107.237564,5.064069,STD
7960589737000,1.129612,0.782167458249334,-9.54651161715503,-1.73809805046351,-0.03756821,0.02443461,0.023823744,112.05077,107.122925,4.993592,STD
7960594732000,1.134607,0.78223880125623,-9.54501755778106,-1.72728324334502,-0.035124753,0.027183503,0.0143553335,112.09258,107.012184,4.9256077,STD
7960599708000,1.139583,0.777840240473509,-9.54061889136053,-1.71848609422189,-0.05100725,0.028099801,0.019242255,112.13442,106.90847,4.8526516,STD
7960604743000,1.144618,0.78911104240831,-9.54653368030528,-1.72228219215603,-0.047036625,0.026572637,0.015577064,112.1742,106.80003,4.789474,STD
7960609717000,1.149592,0.814357472028832,-9.56168133983464,-1.73743006258215,-0.056505036,0.03268129,0.018020526,112.2162,106.70092,4.725316,STD
7960614756000,1.154631,0.832566269158776,-9.5692213524222,-1.74795708748667,-0.04062254,0.03268129,0.02321288,112.25608,106.59391,4.6610274,STD
7960619732000,1.159607,0.846426848572537,-9.57230154193194,-1.75565741653039,-0.049785517,0.04428773,0.025350908,112.29973,106.498566,4.599637,STD
7960624777000,1.164652,0.860479626535242,-9.57542444307275,-1.76346452264486,-0.052839845,0.03634648,0.016187929,112.33844,106.40296,4.5453253,STD
7960629765000,1.16964,0.874373631783602,-9.57851206069224,-1.77118342161394,-0.04520403,0.046120327,0.021380283,112.385445,106.30765,4.4899435,STD
7960634729000,1.174604,0.888200785362764,-9.58158482209224,-1.77886518073231,-0.047647487,0.043676864,0.022907447,112.424866,106.21895,4.437643,STD
7960639740000,1.179615,0.902158856794105,-9.58468667692208,-1.7866196720583,-0.036651913,0.042760566,0.019242255,112.466354,106.12641,4.3873277,STD
7960644684000,1.184559,0.906964610763136,-9.58709202598624,-1.78590681420514,-0.047647487,0.03848451,0.017104227,112.50592,106.04244,4.3325334,STD
7960649727000,1.189602,0.900478677837838,-9.58871354054054,-1.77455643243243,-0.040317107,0.040927973,0.021685716,112.54633,105.952126,4.278493,STD
7960654725000,1.1946,0.894050620578143,-9.59032058589894,-1.76330733306698,-0.043676864,0.044593163,0.015577064,112.586006,105.87726,4.237121,STD
7960659702000,1.199577,0.887649571962397,-9.59192087896592,-1.75210549882491,-0.04153884,0.046120327,0.015271631,112.625656,105.79976,4.193853,STD
7960664738000,1.204613,0.881172641918415,-9.59354014275642,-1.74077087209334,-0.04642576,0.036957346,0.018936822,112.66623,105.72617,4.1504264,STD
7960669696000,1.209571,0.874796029694813,-9.59513432660735,-1.72961180153433,-0.036651913,0.03970624,0.021991149,112.70951,105.6497,4.109152,STD
7960674752000,1.214627,0.859719110668183,-9.59125278594392,-1.72500222893318,-0.031154128,0.04886922,0.021991149,112.75118,105.5773,4.0684276,STD
7960679728000,1.219603,0.836150112794896,-9.58182498991048,-1.72735912872051,-0.036957346,0.05467244,0.019242255,112.79181,105.506935,4.028476,STD
7960684692000,1.224567,0.812637953340917,-9.57241992971957,-1.72971034466591,-0.048258353,0.049480084,0.020463986,112.82978,105.43001,3.985436,STD
7960689741000,1.229616,0.788723188416836,-9.56285382397745,-1.73210182115832,-0.045814894,0.045814894,0.020463986,112.86854,105.3529,3.9449177,STD
7960694651000,1.234526,0.767800923970968,-9.55963315519053,-1.73934234151466,-0.040927973,0.053145275,0.015577064,112.90771,105.28011,3.9067242,STD
7960699711000,1.239586,0.749289326415815,-9.56426113914621,-1.75322600343807,-0.04337143,0.05222898,0.021991149,112.94353,105.20942,3.8654091,STD
7960704630000,1.244505,0.738991532942798,-9.57038493177119,-1.7637098329428,-0.049480084,0.04642576,0.0143553335,112.97389,105.140816,3.8235798,STD
7960709721000,1.249596,0.743791718903219,-9.57998550418431,-1.76851001890322,-0.03634648,0.038179077,0.018936822,113.003784,105.06773,3.7773697,STD
7960714690000,1.254565,0.748389568964878,-9.5849853018256,-1.76891186207024,-0.044593163,0.028099801,0.021380283,113.03039,105.00566,3.7306635,STD
7960719739000,1.259614,0.752870457038273,-9.58050432017422,-1.75995008592345,-0.043982297,0.036651913,0.016187929,113.058846,104.93921,3.6866262,STD
7960724650000,1.264525,0.75367914849865,-9.57752912719298,-1.75231488758435,-0.049785517,0.020158553,0.01160644,113.07728,104.87869,3.6410985,STD
7960729769000,1.269644,0.733831504021592,-9.58249096491228,-1.75066091865047,-0.04795292,0.00580322,0.008552114,113.09769,104.81752,3.5983639,STD
7960734689000,1.274564,0.714755432361673,-9.5872599122807,-1.74907124739541,-0.03970624,0.014660766,0.019242255,113.12164,104.75513,3.5554483,STD
7960740092000,1.279967,0.693806648788799,-9.59249703070175,-1.74732551695007,-0.042455133,0.029321533,0.016493361,113.14149,104.69769,3.51741,STD
7960744683000,1.284558,0.676006192489879,-9.59694707894737,-1.74584214688259,-0.04428773,0.027794369,0.01863139,113.15976,104.637955,3.4754922,STD
7960749741000,1.289616,0.656395060283401,-9.60184978947368,-1.74420788728745,-0.044593163,0.03145956,0.02076942,113.182724,104.58002,3.436634,STD
7960754739000,1.294614,0.64438892915947,-9.6027940765688,-1.74188163062752,-0.044898596,0.032375857,0.013744468,113.20334,104.524315,3.4003084,STD
7960759725000,1.2996,0.655843070523892,-9.59133995912493,-1.73729998364997,-0.045814894,0.034208454,0.028405234,113.22629,104.46848,3.3585749,STD
7960765123000,1.304998,0.668243683256573,-9.57893937228939,-1.73233974891576,-0.032986723,0.038179077,0.023823744,113.24185,104.40798,3.313385,STD
7960769733000,1.309608,0.678834054634427,-9.56834902302821,-1.72810360921128,-0.036957346,0.051923547,0.018325957,113.260994,104.35279,3.2663963,STD
7960774801000,1.314676,0.689730315233166,-9.55685214324859,-1.722623908601,-0.038789943,0.04428773,0.026267206,113.27528,104.294174,3.216863,STD
7960779870000,1.319745,0.692193642944132,-9.54699888384838,-1.70784394233521,-0.037873644,0.048563786,0.027183503,113.29523,104.23801,3.1736374,STD
7960784733000,1.324608,0.694556863038514,-9.53754605282387,-1.69366462176891,-0.03359759,0.044593163,0.02443461,113.31085,104.18305,3.1339383,STD
7960789741000,1.329616,0.696990547231948,-9.52781136687472,-1.67906251660831,-0.035124753,0.03145956,0.018936822,113.32441,104.13075,3.0953503,STD
7960794729000,1.334604,0.699693121293879,-9.52110470060923,-1.66401950870322,-0.04520403,0.029626964,0.01740966,113.33775,104.08076,3.0600305,STD
7960799703000,1.339578,0.704299542645779,-9.53492425326371,-1.64559377519582,-0.036957346,0.021380283,0.016798794,113.344864,104.02744,3.0254533,STD
7960804808000,1.344683,0.707670681714503,-9.54976536380916,-1.6307584856206,-0.04428773,0.013744468,0.013439035,113.34963,103.978386,2.9936576,STD
7960810536000,1.350411,0.69203033470823,-9.57583260881962,-1.67246613207565,-0.042455133,0.015271631,0.015882496,113.35459,103.92519,2.961216,STD
7960815214000,1.355089,0.68098132946748,-9.59621798589771,-1.70595663683435,-0.034208454,0.023823744,0.02107485,113.36008,103.86845,2.9316845,STD
7960819731000,1.359606,0.699191561250263,-9.60077016354452,-1.72871942656283,-0.03940081,0.01863139,0.015882496,113.36123,103.816505,2.9041913,STD
7960824887000,1.364762,0.718924235528585,-9.60527151410536,-1.7517591173657,-0.044898596,0.012217305,0.014966198,113.3662,103.768196,2.8726163,STD
7960829755000,1.36963,0.726508894104058,-9.60223774571308,-1.74265752707513,-0.04550946,0.019242255,0.012217305,113.37264,103.72138,2.8442461,STD
7960835128000,1.375003,0.734880375313181,-9.59888925812644,-1.73261174962418,-0.059864793,0.018936822,0.01038471,113.373215,103.68632,2.8227782,STD
7960839731000,1.379606,0.742052146764065,-9.5960206394104,-1.72400562388312,-0.046731193,0.0106901415,0.015882496,113.37357,103.644226,2.8004444,STD
7960844682000,1.384557,0.749766124703088,-9.59293514489311,-1.71474885035629,-0.039095376,0.008552114,0.014966198,113.37478,103.608864,2.781264,STD
7960849735000,1.38961,0.757639025233462,-9.58978608333062,-1.70530136971984,-0.045814894,0.0009162979,0.01282817,113.372215,103.57434,2.7604678,STD
7960854675000,1.39455,0.765335864461654,-9.58670744408291,-1.69606516264602,-0.03940081,-0.0070249503,0.011911872,113.36878,103.53472,2.7399056,STD
7960859735000,1.39961,0.757600639724951,-9.58211198064833,-1.69082286986248,-0.04062254,-0.0033597588,0.0061086523,113.365074,103.50043,2.721956,STD
7960864733000,1.404608,0.748196937092338,-9.57741003113949,-1.68612101854617,-0.04917465,-0.009773844,0.008246681,113.356705,103.46668,2.7013187,STD
7960869730000,1.409605,0.740080297872975,-9.57818914928934,-1.70348557996223,-0.042760566,-0.015882496,0.004581489,113.34771,103.42663,2.6886714,STD
7960874624000,1.414499,0.73231618244376,-9.57974200480403,-1.72367229629262,-0.029932396,-0.014966198,0.010995574,113.33964,103.38712,2.672967,STD
7960880082000,1.419957,0.723657305857602,-9.58147381628732,-1.74618539349965,-0.041233405,-0.008552114,0.01282817,113.33223,103.35226,2.657471,STD
7960884638000,1.424513,0.716429412540172,-9.58291942513998,-1.76497793121956,-0.04337143,-0.006414085,0.005192355,113.32358,103.31217,2.6429803,STD
7960889728000,1.429603,0.708354351744359,-9.58453447102674,-1.78597310615247,-0.043066,-0.0033597588,0.004276057,113.315765,103.274956,2.6280444,STD
7960894665000,1.43454,0.700522018709207,-9.58610097034755,-1.80633718840076,-0.03940081,0.0021380284,0.013133603,113.30932,103.237946,2.6130707,STD
7960899712000,1.439587,0.712833552276759,-9.57657924837374,-1.79628982724719,-0.047036625,0.0036651916,0.013133603,113.30044,103.20589,2.5995002,STD
7960904679000,1.444554,0.729242765720481,-9.56485838162823,-1.77988058932584,-0.050701816,0.004886922,0.011301007,113.29339,103.17195,2.5846307,STD
7960909715000,1.44959,0.745879930790459,-9.55297469229253,-1.7632433994382,-0.040927973,0.009468411,0.009162978,113.29059,103.147446,2.5667982,STD
7960914743000,1.454618,0.762490666686379,-9.5411098809383,-1.74663263876405,-0.05009095,0.004276057,0.0125227375,113.285576,103.12947,2.5478342,STD
7960919728000,1.459603,0.7661445,-9.5420262520567,-1.7429788,-0.05222898,0.0009162979,0.013133603,113.28564,103.10668,2.5307403,STD
7960924687000,1.464562,0.7661445,-9.54653429122896,-1.7429788,-0.044898596,0.0021380284,0.0143553335,113.28569,103.08401,2.512927,STD
7960929805000,1.46968,0.7661445,-9.55118687128212,-1.7429788,-0.041233405,0.00030543262,0.0076358155,113.28269,103.06006,2.5030904,STD
7960934714000,1.474589,0.7661445,-9.55564945734717,-1.7429788,-0.04337143,0.00030543262,0.009773844,113.2811,103.03561,2.4908955,STD
7960939725000,1.4796,0.7661445,-9.56020476775092,-1.7429788,-0.04734206,-0.011911872,0.0076358155,113.28011,103.01066,2.4800541,STD
7960944727000,1.484602,0.7661445,-9.56475189659537,-1.7429788,-0.049785517,-0.01985312,0.002443461,113.280106,102.98644,2.4699962,STD
7960949793000,1.489668,0.764081940220893,-9.5734178085596,-1.74710391955821,-0.04734206,-0.0143553335,0.0036651916,113.280624,102.96217,2.4590776,STD
7960954732000,1.494607,0.759728528789692,-9.58647831560055,-1.75581074242062,-0.05131268,-0.015577064,-0.004886922,113.276024,102.94163,2.4516401,STD
7960959710000,1.499585,0.759427197039897,-9.59739062162162,-1.77071086126126,-0.05131268,-0.017104227,0.0036651916,113.27351,102.91822,2.4389687,STD
7960964819000,1.504694,0.769922290701416,-9.6026377027027,-1.80219603265766,-0.056505036,-0.015271631,0.007330383,113.2707,102.89851,2.430365,STD
7960969638000,1.509513,0.779479440467905,-9.60647653071857,-1.82241183329401,-0.049480084,-0.0106901415,0.0067195175,113.2675,102.87595,2.423804,STD
7960974758000,1.514633,0.789119303792392,-9.60888654939546,-1.82964173833677,-0.04795292,-0.009162978,0.0027488936,113.26393,102.856735,2.4172652,STD
7960979704000,1.519579,0.79843156238671,-9.61121466509388,-1.83662593957535,-0.053450707,-0.014966198,0.0033597588,113.25855,102.84466,2.4093354,STD
7960984735000,1.52461,0.807903857774501,-9.61358279086799,-1.84373016853436,-0.04550946,-0.020463986,0.003970624,113.25343,102.82884,2.4027793,STD
7960989629000,1.529504,0.816366140050573,-9.61121803867321,-1.84676531546928,-0.052534413,-0.02107485,0.007330383,113.24828,102.81881,2.395393,STD
7960994725000,1.5346,0.823625316124746,-9.59911942872726,-1.8419258714909,-0.05100725,-0.016798794,0.011301007,113.24307,102.804306,2.3878028,STD
7960999628000,1.539503,0.830609566574446,-9.58747902751748,-1.83726971100699,-0.053145275,-0.01160644,0.007941248,113.24132,102.7968,2.3817854,STD
7961004692000,1.544567,0.83782315912539,-9.57545639000446,-1.83246065600178,-0.044593163,-0.011911872,0.0027488936,113.23936,102.78588,2.3753116,STD
7961009744000,1.549619,0.840155194390954,-9.56592807272571,-1.82526439974302,-0.0421497,-0.009468411,0.0061086523,113.23991,102.77716,2.3680634,STD
7961014717000,1.554592,0.831995947198904,-9.5618483724516,-1.81302555451431,-0.04642576,-0.0076358155,0.0061086523,113.23963,102.76857,2.3632817,STD
7961020088000,1.559963,0.823099868605463,-9.55790575097556,-1.79942871457178,-0.035430185,-0.013133603,0.008246681,113.24089,102.75376,2.3615866,STD
7961024695000,1.56457,0.814038394462929,-9.56243658266585,-1.7813057189772,-0.027183503,-0.010079277,0.009162978,113.24488,102.741196,2.3609202,STD
7961029980000,1.569855,0.803720285786099,-9.5690586864895,-1.7614009254042,-0.038179077,0.0015271631,0.008857546,113.248604,102.72821,2.3584523,STD
7961034750000,1.574625,0.795230913522579,-9.59028212822895,-1.75291154870842,-0.044898596,0.0030543262,0.009468411,113.25039,102.71195,2.3551075,STD
7961039684000,1.579559,0.786449663470544,-9.61223526482067,-1.74413029407173,-0.03390302,0.010079277,0.008857546,113.25331,102.690895,2.3489797,STD
7961044699000,1.584574,0.795564069825268,-9.60690132816335,-1.75119153615392,-0.03268129,0.008552114,0.004886922,113.25403,102.674934,2.343348,STD
7961049652000,1.589527,0.807204866948562,-9.59758874492,-1.76050419232846,-0.048563786,0.0027488936,0.01160644,113.25599,102.66053,2.3352273,STD
7961054676000,1.594551,0.819012531949053,-9.58814266815549,-1.7699503430696,-0.036651913,0.0021380284,0.014660766,113.25883,102.63489,2.3281012,STD
7961059662000,1.599537,0.830730887381467,-9.57876803862766,-1.77932504601453,-0.03176499,-0.002443461,0.012217305,113.258896,102.61596,2.3202503,STD
7961065555000,1.60543,0.809981646003996,-9.5721667952048,-1.80912674735265,-0.03940081,-0.004276057,0.01282817,113.2598,102.59733,2.311039,STD
7961069637000,1.609512,0.790454911692308,-9.56826136923077,-1.83255881384615,-0.032986723,-0.0009162979,0.018020526,113.2609,102.57368,2.3014739,STD
7961074693000,1.614568,0.792570574411568,-9.570866280042,-1.83147449179154,-0.04520403,-0.008246681,0.008857546,113.25921,102.564445,2.2988265,STD
7961079713000,1.619588,0.801747917334161,-9.57545504972798,-1.8222971440775,-0.035430185,-0.00580322,0.0076358155,113.26187,102.54682,2.2934709,STD
7961084817000,1.624692,0.800987619714115,-9.57507489278052,-1.8195933,-0.03176499,-0.004886922,0.009773844,113.26289,102.53948,2.2853756,STD
7961089673000,1.629548,0.796347105168388,-9.57275458584044,-1.8195933,-0.03756821,-0.004581489,0.0106901415,113.264206,102.53236,2.2782803,STD
7961094729000,1.634604,0.791515465641371,-9.57033871436412,-1.8195933,-0.04062254,-0.009773844,0.008552114,113.25754,102.52325,2.2744489,STD
7961099669000,1.639544,0.786794678603503,-9.56797827031881,-1.8195933,-0.032986723,-0.017715093,0.0036651916,113.25011,102.51299,2.2711046,STD
7961104735000,1.64461,0.775931865510432,-9.57347431818182,-1.83208167555887,-0.03940081,-0.002443461,0.004886922,113.24802,102.507454,2.267863,STD
7961109691000,1.649566,0.762669178353204,-9.58231627272727,-1.84976521535022,-0.043982297,-0.0027488936,0.0067195175,113.23915,102.49961,2.2644625,STD
7961114754000,1.654629,0.7565677,-9.57813591030534,-1.85102711584485,-0.040317107,-0.0018325958,0.008552114,113.2348,102.4911,2.260156,STD
7961119732000,1.659607,0.7565677,-9.56338241030534,-1.83873257530431,-0.040317107,-0.008857546,0.008857546,113.22819,102.48498,2.2553985,STD
7961124725000,1.6646,0.7565677,-9.54858445419847,-1.82640098813699,-0.026267206,0.0070249503,0.010995574,113.22911,102.4764,2.2487476,STD
7961129759000,1.669634,0.7565677,-9.53366498473283,-1.81396814018981,-0.03940081,0.011301007,0.008857546,113.22464,102.47574,2.2422984,STD
7961135449000,1.675324,0.768137380372175,-9.52699468168168,-1.80230336767095,-0.03756821,0.01282817,0.009468411,113.21823,102.4691,2.231975,STD
7961139735000,1.67961,0.780261500194949,-9.52497395495496,-1.79422060846256,-0.044898596,-0.00061086525,0.009773844,113.208755,102.46889,2.2219493,STD
7961144724000,1.684599,0.794374247230837,-9.52262178378378,-1.78481209570226,-0.04062254,-0.0061086523,0.008857546,113.20195,102.46066,2.2158833,STD
7961149722000,1.689597,0.80851245322109,-9.52026536936937,-1.77538661027913,-0.032375857,-0.008552114,0.0033597588,113.19208,102.45366,2.210557,STD
7961154731000,1.694606,0.81700301742715,-9.52826955863539,-1.7657602851457,-0.030543262,-0.002443461,0.0018325958,113.178474,102.4478,2.207385,STD
7961159722000,1.699597,0.821856079545131,-9.54282904904051,-1.75605416090974,-0.030848695,-0.002443461,0.0015271631,113.170215703549,102.445085935978,2.20566809401531,STD
7961164790000,1.704665,0.820513964799052,-9.54189408047793,-1.7587383904019,-0.037873644,-0.005192355,0.004581489,113.16183,102.44233,2.2039247,STD
7961169734000,1.709609,0.81583857236299,-9.53254310032586,-1.76808917527402,-0.03176499,-0.0076358155,0.005497787,113.142654,102.43176,2.206182,STD
7961174728000,1.714603,0.81013668327044,-9.53670678326077,-1.78338484779874,-0.0421497,-0.007330383,0.014660766,113.125755,102.42456,2.20622,STD
7961179797000,1.719672,0.803731513419097,-9.54951717201038,-1.80260038633505,-0.03848451,-0.007330383,0.011301007,113.118163052418,102.418592925089,2.20710149970273,STD
7961184820000,1.724695,0.797384468999428,-9.56221130945156,-1.82164154831332,-0.04062254,0.0021380284,0.018020526,113.11064,102.41268,2.207975,STD
7961189731000,1.729606,0.791178947369926,-9.5746224002287,-1.84025814128073,-0.04428773,0.0021380284,0.014966198,113.101949407445,102.411217569416,2.20760346358149,STD
7961194760000,1.734635,0.786662904585788,-9.58467808132244,-1.85653576505795,-0.049480084,0.0070249503,0.011911872,113.09305,102.40972,2.207223,STD
7961199671000,1.739546,0.804535468721262,-9.56233737032111,-1.83866319625689,-0.046731193,0.0067195175,0.015271631,113.07701,102.40196,2.2060282,STD
7961205409000,1.745284,0.824478930173093,-9.53893679329609,-1.81740937456727,-0.03970624,0.005497787,0.010995574,113.063126,102.40262,2.2065787,STD
7961209674000,1.749549,0.831960409667552,-9.54267760335195,-1.79870567583112,-0.044898596,0.0061086523,0.01160644,113.05039,102.40541,2.2049756,STD
7961214716000,1.754591,0.840804869130873,-9.54709991620112,-1.77659452717282,-0.043066,-0.002443461,0.01282817,113.03309,102.40267,2.2083008,STD
7961219658000,1.759533,0.839137187077653,-9.55169851037344,-1.76084376123296,-0.040927973,-0.012217305,0.0106901415,113.015686,102.4014,2.2122724,STD
7961224653000,1.764528,0.834411232128038,-9.55642407053942,-1.74666589638411,-0.043066,-0.020463986,0.0018325958,112.99622,102.401054,2.2172844,STD
7961229682000,1.769557,0.82592614909608,-9.55039719154987,-1.73935078212472,-0.049785517,-0.028405234,0.0061086523,112.978584,102.39472,2.2218916,STD
7961234651000,1.774526,0.816259844286004,-9.54073120972984,-1.73451763981312,-0.04520403,-0.027183503,0.00030543262,112.96031,102.38683,2.231654,STD
7961239685000,1.77956,0.803002194880529,-9.55687728159558,-1.72237563104265,-0.04917465,-0.02321288,0.0018325958,112.94042,102.379524,2.236642,STD
7961244657000,1.784532,0.788897978936611,-9.58038431635071,-1.70827141018957,-0.04337143,-0.018325957,0.0021380284,112.92098,102.36864,2.2435389,STD
7961249675000,1.78955,0.773961412602884,-9.58260501115672,-1.70845050992527,-0.05497787,-0.013744468,0.004886922,112.90258,102.36273,2.2477908,STD
7961254571000,1.794446,0.759156194086938,-9.57766984727924,-1.71338557073992,-0.050701816,-0.010995574,0.005497787,112.88516,102.350945,2.2525961,STD
7961259601000,1.799476,0.752625922739375,-9.58469071915985,-1.73789906356375,-0.053450707,-0.006414085,0.011911872,112.86853,102.339325,2.253756,STD
7961264571000,1.804446,0.747932431367715,-9.59407789793906,-1.76606001179371,-0.049480084,0.007330383,0.007330383,112.854805,102.32535,2.2584558,STD
7961269613000,1.809488,0.757802591552703,-9.59235704009675,-1.77891700691227,-0.054061573,0.007941248,0.007330383,112.83942,102.31464,2.2571948,STD
7961274591000,1.814466,0.771108055223742,-9.58792180835427,-1.78778733146339,-0.044593163,0.004886922,0.0036651916,112.82647,102.2995,2.2588162,STD
7961279642000,1.819517,0.768895456538049,-9.58979702518757,-1.7703851408896,-0.05100725,-0.00580322,0.008552114,112.81025,102.29557,2.2572527,STD
7961284620000,1.824495,0.758676044040729,-9.59490681146838,-1.73972701010718,-0.039095376,-0.0033597588,0.01282817,112.796776,102.28413,2.2574592,STD
7961289614000,1.829489,0.763878652362167,-9.61058275204465,-1.72243562871163,-0.04520403,0.0036651916,0.024129177,112.78372,102.28165,2.2565808,STD
7961294632000,1.834507,0.773126537150005,-9.62907832849033,-1.70856387395362,-0.044898596,-0.00030543262,0.015271631,112.7675,102.274925,2.2596226,STD
7961299618000,1.839493,0.77742100235405,-9.62916907048261,-1.71316963839095,-0.040011674,-0.0027488936,0.015271631,112.752846,102.26151,2.2555542,STD
7961304644000,1.844519,0.779808425895541,-9.62200662784584,-1.72510679349239,-0.035124753,0.0036651916,0.013744468,112.73912,102.24872,2.254715,STD
7961309648000,1.849523,0.782185399115123,-9.61487553692773,-1.73699169682059,-0.034208454,0.013744468,0.018936822,112.725464,102.23236,2.2533426,STD
7961314703000,1.854578,0.784586598080948,-9.60767176702545,-1.74899772925946,-0.042455133,0.013439035,0.016187929,112.71028,102.21799,2.254356,STD
7961319652000,1.859527,0.778661026193393,-9.59558145928306,-1.76914843352746,-0.03848451,0.020158553,0.018020526,112.7053,102.19898,2.2511692,STD
7961324654000,1.864529,0.769040918015865,-9.5811515506577,-1.79319866630184,-0.047036625,0.029321533,0.01863139,112.70074,102.18631,2.249277,STD
7961329672000,1.869547,0.780694072006729,-9.57519034900264,-1.79073997970199,-0.05009095,0.03726278,0.020158553,112.69975,102.17652,2.24825,STD
7961334657000,1.874532,0.801346012910358,-9.57289564364335,-1.77697201111271,-0.05131268,0.03023783,0.022602014,112.69719,102.168686,2.2464905,STD
7961339652000,1.879527,0.822039381980293,-9.57059633506369,-1.76317642372987,-0.047036625,0.026267206,0.019547688,112.69266,102.16659,2.2469616,STD
7961344632000,1.884507,0.842670608800769,-9.56830393131459,-1.74942226453737,-0.040011674,0.029321533,0.020463986,112.688576,102.163704,2.2456954,STD
7961349650000,1.889525,0.84482960516931,-9.56848105794493,-1.74047673636275,-0.046731193,0.02076942,0.0143553335,112.679596,102.164024,2.246374,STD
7961354691000,1.894566,0.830736968989978,-9.57082987846648,-1.7357791934222,-0.03604105,0.007330383,0.012217305,112.67046,102.15725,2.2456067,STD
7961359716000,1.899591,0.816689062463267,-9.57317124389413,-1.73109656035808,-0.03970624,-0.006414085,0.0106901415,112.66601,102.151566,2.2514749,STD
7961364738000,1.904613,0.802649542746424,-9.57551121149168,-1.72641672289579,-0.03390302,-0.016798794,0.009468411,112.65866,102.14048,2.2571278,STD
7961369695000,1.90957,0.784327775312279,-9.57258804018625,-1.73226294341533,-0.038179077,-0.026267206,0.007330383,112.64763,102.13353,2.2625706,STD
7961374699000,1.914574,0.760073105175625,-9.5628859837028,-1.75166665115902,-0.035430185,-0.038789943,0.008552114,112.63311,102.123,2.2665026,STD
7961379701000,1.919576,0.740583801016752,-9.56192448852523,-1.76426809966108,-0.042455133,-0.03390302,0.010079277,112.61269,102.11576,2.2631552,STD
7961384701000,1.924576,0.726673468877699,-9.57119823695168,-1.76890487704077,-0.04917465,-0.030848695,0.0036651916,112.5882,102.10809,2.260939,STD
7961389623000,1.929498,0.721742089407821,-9.57506623256185,-1.77635131719074,-0.042760566,-0.026267206,0.011301007,112.56727,102.10094,2.2510288,STD
7961394687000,1.934562,0.731031219418994,-9.57042174030327,-1.78873681848364,-0.05131268,-0.01863139,0.004581489,112.54716,102.10093,2.2474487,STD
7961399630000,1.939505,0.740098393519553,-9.56588822426177,-1.80082637869114,-0.058643065,-0.0067195175,0.004581489,112.53033,102.097885,2.2380536,STD
7961404698000,1.944573,0.749394860916201,-9.56124006336792,-1.81322166316042,-0.042760566,-0.009773844,0.0076358155,112.511505,102.09085,2.2294612,STD
7961409683000,1.949558,0.758539077564246,-9.55666802665603,-1.82541394671987,-0.04795292,-0.014660766,0.014966198,112.49503,102.09225,2.2183044,STD
7961414748000,1.954623,0.767830041921788,-9.55202261723863,-1.83780189380686,-0.04734206,-0.0106901415,0.0125227375,112.48003,102.08788,2.209641,STD
7961419704000,1.959579,0.778251994206061,-9.55060758363636,-1.84642575236364,-0.044898596,-0.01282817,0.0125227375,112.467155,102.08262,2.1984174,STD
7961425187000,1.965062,0.799467969789899,-9.57182347060606,-1.83051375406061,-0.038789943,-0.01985312,0.017715093,112.45432,102.07603,2.1866486,STD
7961429749000,1.969624,0.81638443249179,-9.58481338772578,-1.81802272052545,-0.04917465,-0.014966198,0.0143553335,112.447464,102.08305,2.183616,STD
7961434736000,1.974611,0.831088733013136,-9.57501032963875,-1.80821986715928,-0.04917465,-0.022907447,0.009162978,112.435394,102.08515,2.17865,STD
7961439714000,1.979589,0.841012311327671,-9.56897672150201,-1.80218638502459,-0.043982297,-0.021991149,0.015271631,112.423035,102.08647,2.1757264,STD
7961444731000,1.984606,0.832421000475637,-9.57756819383102,-1.81077767793473,-0.034208454,-0.019547688,0.0076358155,112.40801,102.08732,2.1777632,STD
7961450183000,1.990058,0.823288977996088,-9.58543483416649,-1.82022606400782,-0.044593163,-0.01160644,0.011911872,112.396065,102.09053,2.1776216,STD
7961454733000,1.994608,0.818553655240165,-9.57122856922408,-1.82969670951967,-0.03970624,-0.012217305,0.0070249503,112.38162,102.08754,2.181772,STD
7961459829000,1.999704,0.814731204566945,-9.55835565777342,-1.83980086464934,-0.03268129,-0.008552114,0.009468411,112.37163,102.087204,2.1817446,STD
7961464769000,2.004644,0.819371664674841,-9.56299620510054,-1.84676154027464,-0.036651913,-0.0018325958,0.01740966,112.36252,102.08848,2.1816676,STD
7961469879000,2.009754,0.824171816729769,-9.56779644737616,-1.85396175332026,-0.040011674,-0.005497787,0.014660766,112.35279,102.09017,2.182136,STD
7961474730000,2.014605,0.828728673406572,-9.57235338970083,-1.86079702406081,-0.030543262,0.006414085,0.013439035,112.34998,102.08879,2.1813498,STD
7961479805000,2.01968,0.834142852077285,-9.57648677595355,-1.86555599584543,-0.043066,-0.005192355,0.012217305,112.3395,102.09461,2.1797965,STD
7961484737000,2.024612,0.848328289338272,-9.57175819811793,-1.83718512132346,-0.035124753,-0.011301007,0.01160644,112.33392,102.09201,2.1794825,STD
7961489857000,2.029732,0.861536128111694,-9.56685352024953,-1.80964002811169,-0.035430185,-0.0033597588,0.008552114,112.32819,102.098885,2.1807997,STD
7961495325000,2.0352,0.856350867947322,-9.56166815179721,-1.80445476794732,-0.036651913,-0.0009162979,0.016187929,112.31998,102.103096,2.178648,STD
7961499924000,2.039799,0.851487039578477,-9.55816226646271,-1.800779203885,-0.03970624,-0.002443461,0.013744468,112.31089,102.1038,2.182604,STD
7961504728000,2.044603,0.840315957208625,-9.56486505026224,-1.80524763310023,-0.035124753,-0.0033597588,0.014966198,112.30345,102.102066,2.1835644,STD
7961509701000,2.049576,0.828751887136752,-9.57180363141026,-1.80987325726496,-0.040011674,-0.0009162979,0.002443461,112.289825,102.1059,2.1852543,STD
7961514755000,2.05463,0.816999462012432,-9.57885522785548,-1.81457422338772,-0.04337143,-0.0021380284,0.007330383,112.27621,102.10697,2.1815274,STD
7961519674000,2.059549,0.805560961975525,-9.58571846547203,-1.81914961958042,-0.045814894,-0.00061086525,0.00580322,112.26314,102.110016,2.183411,STD
7961524724000,2.064599,0.791662512820014,-9.57785764528375,-1.82385638832863,-0.041233405,-0.009773844,0.0061086523,112.247345,102.11154,2.1827323,STD
7961529689000,2.069564,0.777776964547844,-9.56860040689185,-1.82848491086343,-0.03756821,-0.009773844,0.008857546,112.243315772573,102.112762901518,2.18234499826209,STD
7961534736000,2.074611,0.77167122416634,-9.57128021812476,-1.81296956582974,-0.039095376,0.004886922,0.013744468,112.23922,102.114006,2.1819513,STD
7961539630000,2.079505,0.767074387308749,-9.57587710298156,-1.79458241039623,-0.045814894,0.016798794,0.020463986,112.22752,102.117805,2.1764832,STD
7961544689000,2.084564,0.76228933585279,-9.5806622446577,-1.80628355658884,-0.04153884,0.014049901,0.015882496,112.21574,102.11874,2.169889,STD
7961549679000,2.089554,0.757561572497032,-9.58539010674713,-1.82519461001187,-0.051618114,0.008552114,0.015577064,112.207275,102.12491,2.1610277,STD
7961554696000,2.094571,0.762268395317532,-9.57878313111311,-1.81966896428643,-0.042455133,0.006414085,0.01740966,112.20329,102.119,2.151257,STD
7961559659000,2.099534,0.769398574465947,-9.56927629837984,-1.80778536132613,-0.04520403,0.00580322,0.021685716,112.198395,102.11916,2.1409204,STD
7961565259000,2.105134,0.77744391059956,-9.55854926567657,-1.79437650044004,-0.043676864,0.0021380284,0.018020526,112.19275,102.119125,2.1315804,STD
7961569671000,2.109546,0.783782486139114,-9.55009789633963,-1.78381223361336,-0.04062254,0.015882496,0.016493361,112.19227,102.119064,2.121757,STD
7961574691000,2.114566,0.77779009656698,-9.54619994587247,-1.77565503561542,-0.042760566,-0.00030543262,0.015271631,112.1787,102.12132,2.110254,STD
7961579796000,2.119671,0.768123333672763,-9.5437832090954,-1.76840495145823,-0.034208454,-0.012217305,0.013439035,112.17014,102.11978,2.1006956,STD
7961584728000,2.124603,0.758784161372219,-9.54144837152744,-1.7614005606525,-0.033292156,0.005497787,0.015882496,112.16487,102.11756,2.0937788,STD
7961589727000,2.129602,0.749318118726149,-9.53908181576866,-1.7543010169303,-0.04550946,0.006414085,0.0143553335,112.15139,102.11693,2.0869865,STD
7961594727000,2.134602,0.750541943539823,-9.54560186460177,-1.76675981123894,-0.041233405,0.0018325958,0.0070249503,112.14121,102.11159,2.0820556,STD
7961599730000,2.139605,0.75525312647001,-9.5550239352999,-1.78560459215339,-0.04184427,0.0018325958,0.0067195175,112.13301,102.11077,2.0760837,STD
7961604726000,2.144601,0.766816706771263,-9.55993060198183,-1.78972412279108,-0.026267206,0.014660766,0.013133603,112.12573,102.10087,2.0675046,STD
7961609714000,2.149589,0.781017275042114,-9.56308634606111,-1.78814628370273,-0.04550946,0.02107485,0.018936822,112.11673,102.10105,2.0590003,STD
7961614777000,2.154652,0.795431364287366,-9.56628954018167,-1.78654472008918,-0.04337143,0.019242255,0.023518313,112.10586,102.095604,2.0498712,STD
7961619730000,2.159605,0.809532289436829,-9.56942314090834,-1.78497795244591,-0.04550946,0.019547688,0.019242255,112.09731,102.096886,2.0423603,STD
7961624725000,2.1646,0.823752786331957,-9.57258331365813,-1.78339789906854,-0.038789943,0.027488936,0.020463986,112.0911,102.094536,2.032655,STD
7961629792000,2.169667,0.83817826336251,-9.57578903844757,-1.78179507014699,-0.037873644,0.025350908,0.015577064,112.08166,102.094864,2.0255232,STD
7961634800000,2.174675,0.83789304925208,-9.576807,-1.78290808132443,-0.03940081,0.028405234,0.013133603,112.08198,102.092026,2.0190868,STD
7961639731000,2.179606,0.830833913289152,-9.576807,-1.78526112336938,-0.03390302,0.01282817,0.015271631,112.07644,102.08701,2.0116885,STD
7961644724000,2.184599,0.823686019177836,-9.576807,-1.78764375142259,-0.036957346,0.004276057,0.010079277,112.07404,102.08576,2.0150273,STD
7961649740000,2.189615,0.816505198656635,-9.576807,-1.79003735493049,-0.029321533,0.01282817,0.014966198,112.07282,102.07941,2.0150425,STD
7961654726000,2.194601,0.798545888762661,-9.57371040496524,-1.79705596073486,-0.039095376,0.01740966,0.013439035,112.0697,102.07886,2.017329,STD
7961659716000,2.199591,0.774817839169811,-9.56896470188679,-1.80654716867925,-0.024129177,0.015271631,0.0143553335,112.06752,102.0689,2.0176878,STD
7961664758000,2.204633,0.773710585882353,-9.57328282951979,-1.8100165,-0.025350908,0.018325957,0.015882496,112.06665,102.066986,2.0167806,STD
7961669734000,2.209609,0.78541004,-9.58264233222037,-1.8100165,-0.03268129,0.021380283,0.022907447,112.06555,102.06237,2.0140073,STD
7961674724000,2.214599,0.797142410588235,-9.59202816792694,-1.8100165,-0.036957346,0.029932396,0.017104227,112.06615,102.05896,2.0110035,STD
7961679773000,2.219648,0.809013500588235,-9.60152497844447,-1.8100165,-0.032070424,0.029932396,0.013439035,112.06571,102.05465,2.005319,STD
7961684726000,2.224601,0.816721682497008,-9.60419055404866,-1.81944240905465,-0.031154128,0.031154128,0.02443461,112.068504,102.05227,1.9978817,STD
7961689722000,2.229597,0.82149290235341,-9.60180514838452,-1.8361416436777,-0.036651913,0.03481932,0.020463986,112.07085,102.05126,1.9959404,STD
7961694720000,2.234595,0.826266032225768,-9.59941878779418,-1.85284756334264,-0.03848451,0.029932396,0.02443461,112.072624,102.04829,1.9923663,STD
7961699702000,2.239577,0.831023881970483,-9.59704006661348,-1.86950000267252,-0.03756821,0.028405234,0.01740966,112.07544,102.04684,1.9934733,STD
7961704654000,2.244529,0.83191750275791,-9.58331408040226,-1.87073064020113,-0.037873644,0.028099801,0.019242255,112.07792,102.04566,1.9908677,STD
7961709721000,2.249596,0.829537034360559,-9.55950949585479,-1.8588283479274,-0.037873644,0.016493361,0.01863139,112.076225,102.04462,1.9902028,STD
7961714919000,2.254794,0.827095022375276,-9.53508947799853,-1.84661833899926,-0.03756821,0.02107485,0.016798794,112.08074,102.04956,1.9977365,STD
7961719733000,2.259608,0.824833412968359,-9.51247347839097,-1.83531033919549,-0.037873644,0.015577064,0.0143553335,112.07914,102.05462,2.0042307,STD
7961724724000,2.264599,0.816861789640565,-9.50244066979362,-1.82242652729337,-0.03604105,0.010079277,0.018936822,112.08097,102.05749,2.0122168,STD
7961729799000,2.269674,0.802463969037227,-9.50723954409006,-1.80802870167868,-0.03634648,0.009773844,0.013744468,112.08201,102.06157,2.0234082,STD
7961734730000,2.274605,0.790598174774583,-9.51297665754442,-1.79723209827782,-0.040317107,0.004581489,0.016798794,112.08051,102.06218,2.0312896,STD
7961739728000,2.279603,0.781123253437423,-9.52008298396595,-1.7901258955263,-0.034208454,0.016798794,0.013439035,112.083145,102.0606,2.0432146,STD
7961744703000,2.284578,0.771691934179245,-9.52715660820508,-1.78305239438808,-0.050701816,0.013133603,0.01282817,112.0741,102.06419,2.0486019,STD
7961750124000,2.289999,0.761415113737319,-9.53486437041619,-1.77534476631365,-0.037873644,0.014966198,0.008857546,112.069695,102.05815,2.0567605,STD
7961754679000,2.294554,0.757524039784086,-9.54136897940824,-1.78031626804278,-0.04153884,0.011911872,0.01863139,112.063774,102.060715,2.0605915,STD
7961759718000,2.299593,0.759935949780088,-9.54860460865654,-1.80202348319172,-0.046731193,0.013133603,0.01038471,112.05836,102.06118,2.0707614,STD
7961764694000,2.304569,0.762317704918033,-9.55574977459016,-1.82345930430328,-0.044593163,0.021991149,0.023518313,112.060486,102.05286,2.070353,STD
7961769736000,2.309611,0.764731050859656,-9.56298971161536,-1.84517944297781,-0.04917465,0.02076942,0.016493361,112.05845,102.0494,2.077261,STD
7961774622000,2.314497,0.768851724261967,-9.56813242473433,-1.85338847055669,-0.050396383,0.022296581,0.015882496,112.06278,102.04282,2.0800667,STD
7961779768000,2.319643,0.776058851034903,-9.57053484464268,-1.84137662186799,-0.04734206,0.021685716,0.008857546,112.06533,102.037125,2.0863564,STD
7961784653000,2.324528,0.782900439508628,-9.57281541620357,-1.82997400219362,-0.039095376,0.013133603,0.011301007,112.06931,102.0378,2.0908895,STD
7961789735000,2.32961,0.790017932369114,-9.57518795758994,-1.81811154299503,-0.034513887,0.0106901415,0.014660766,112.07442,102.038925,2.0973155,STD
7961794642000,2.334517,0.792809568274966,-9.5781839598841,-1.80519723386122,-0.0421497,0.0125227375,0.01740966,112.0704,102.04391,2.100453,STD
7961799702000,2.339577,0.785546932605286,-9.58302580631463,-1.78825109997502,-0.046731193,0.008552114,0.017715093,112.06425,102.04663,2.1028123,STD
7961804650000,2.344525,0.778445050926712,-9.58776048144078,-1.77168005838038,-0.03634648,0.011911872,0.017104227,112.05836,102.04291,2.1089282,STD
7961809718000,2.349593,0.771170932829095,-9.59260998296448,-1.75470713218764,-0.03390302,0.021685716,0.014966198,112.05323,102.04275,2.1154125,STD
7961814713000,2.354588,0.764732614703268,-9.5966668836773,-1.7450966279451,-0.040011674,0.019547688,0.017104227,112.04394,102.04298,2.118068,STD
7961820396000,2.360271,0.759358372143774,-9.59935378048781,-1.75315799178434,-0.040317107,0.011301007,0.011911872,112.03522,102.04136,2.123505,STD
7961824683000,2.364558,0.755304284891873,-9.60138065478424,-1.75923912266219,-0.030543262,0.009468411,0.018325957,112.02582,102.0305,2.122355,STD
7961829751000,2.369626,0.750511629376913,-9.60377678236398,-1.76642810593463,-0.034208454,0.009162978,0.009468411,112.013466,102.02466,2.1265194,STD
7961834714000,2.374589,0.744810157735745,-9.60444671995225,-1.77279958251768,-0.039095376,0.016187929,0.01282817,112.00388,102.015594,2.1257727,STD
7961839731000,2.379606,0.735986944881095,-9.6000354820494,-1.77721123501056,-0.03390302,0.01038471,0.017104227,111.99031,102.00525,2.1264389,STD
7961844755000,2.38463,0.7278373,-9.59633871389563,-1.78223041432039,-0.032070424,0.010079277,0.0143553335,111.97931,102.00208,2.1180542,STD
7961849738000,2.389613,0.7278373,-9.6011647352852,-1.79429584575243,-0.03726278,0.0067195175,0.014049901,111.96637,101.99911,2.107568,STD
7961854701000,2.394576,0.7278373,-9.60597138673139,-1.80631285080906,-0.03359759,0.010995574,0.015577064,111.95564,101.99393,2.096499,STD
7961859721000,2.399596,0.7278373,-9.61083324251618,-1.8184678710356,-0.032375857,0.01160644,0.01160644,111.94278,101.99116,2.0869644,STD
7961864736000,2.404611,0.730163094285714,-9.61220675714286,-1.82626285714286,-0.034208454,0.016798794,0.013133603,111.934814,101.98776,2.0743563,STD
7961869739000,2.409614,0.74971931077551,-9.58776148653061,-1.80181758653061,-0.043676864,0.009162978,0.011911872,111.923134,101.986534,2.0632365,STD
7961874721000,2.414596,0.765774702772277,-9.56649042871287,-1.77943711,-0.027488936,0.013439035,0.018020526,111.92449,101.98075,2.050259,STD
7961879802000,2.419677,0.76336580570297,-9.56167278549505,-1.7673925995,-0.026572637,0.010079277,0.02076942,111.92131,101.98212,2.0380151,STD
7961884729000,2.424604,0.761029919881188,-9.55700116019802,-1.755713146,-0.033292156,0.009773844,0.0143553335,111.919334,101.978455,2.030719,STD
7961890215000,2.43009,0.758429012712871,-9.55179950881188,-1.742708583,-0.038789943,0.0018325958,0.015271631,111.91485,101.973816,2.0202367,STD
7961894701000,2.434576,0.755796229177655,-9.54859129777032,-1.73365915694078,-0.03634648,0.0036651916,0.018325957,111.9093,101.97158,2.0051415,STD
7961899705000,2.43958,0.748902586329417,-9.55318691570367,-1.73595703789019,-0.03756821,0.008246681,0.019242255,111.90235,101.97194,1.9905089,STD
7961904751000,2.444626,0.741951083169504,-9.55782110596979,-1.73827420561017,-0.040011674,0.014966198,0.013439035,111.894775,101.96773,1.9766078,STD
7961909712000,2.449587,0.73511667825941,-9.56237723318149,-1.7405523405802,-0.034513887,0.0125227375,0.0143553335,111.88642,101.96129,1.9607273,STD
7961915153000,2.455028,0.727532194967533,-9.56677234882305,-1.7434364575487,-0.03573562,0.015577064,0.018020526,111.88375,101.95744,1.9446428,STD
7961919731000,2.459606,0.718635565422078,-9.55342759030033,-1.75678140186688,-0.038789943,0.018936822,0.0143553335,111.88012,101.95294,1.9306537,STD
7961925131000,2.465006,0.71028685632,-9.5398359636,-1.77197639551,-0.041233405,0.023518313,0.013133603,111.877785,101.94839,1.9130849,STD
7961929849000,2.469724,0.73739686176,-9.5624276348,-1.77649477693,-0.035124753,0.0143553335,0.01038471,111.87222,101.94258,1.8968303,STD
7961935143000,2.475018,0.766281575298805,-9.58597276980965,-1.78156024773499,-0.036957346,0.018936822,0.013744468,111.87825,101.940735,1.8804597,STD
7961939737000,2.479612,0.768445575033201,-9.57948070281836,-1.78588820201171,-0.03604105,0.0061086523,0.013439035,111.87638,101.936745,1.8647728,STD
7961944649000,2.484524,0.770759368393094,-9.57253925025823,-1.79051574041119,-0.03756821,0.0027488936,0.011301007,111.87923,101.93499,1.8547304,STD
7961949736000,2.489611,0.773155595351926,-9.56535049431902,-1.79530814428705,-0.03145956,-0.0009162979,0.004581489,111.87808,101.93108,1.8456193,STD
7961954622000,2.494497,0.775457141434263,-9.55844578397521,-1.79991118838719,-0.026267206,-0.004276057,0.003970624,111.8763,101.9277,1.8355173,STD
7961959724000,2.499599,0.773578782721584,-9.56408091895354,-1.81115267452826,-0.030543262,-0.00061086525,0.009162978,111.880554,101.92322,1.8287948,STD
7961964685000,2.50456,0.771237993398039,-9.57110336025028,-1.8228564989358,-0.034208454,-0.0018325958,0.012217305,111.88226,101.91735,1.8225266,STD
7961969729000,2.509604,0.768858041503671,-9.57824329048628,-1.83475613415283,-0.040011674,-0.004276057,0.014660766,111.88598,101.9153,1.8184348,STD
7961974625000,2.5145,0.7665479216633,-9.58517372237277,-1.84630661274573,-0.03268129,0.005192355,0.015271631,111.89268,101.910576,1.8147774,STD
7961979793000,2.519668,0.778066235338657,-9.57048847460073,-1.85627150419473,-0.03573562,0.006414085,0.018020526,111.89661,101.91025,1.8093888,STD
7961984681000,2.524556,0.791577351113142,-9.55247379151433,-1.86527889276506,-0.04184427,0.010995574,0.012217305,111.90356,101.90914,1.8071374,STD
7961989728000,2.529603,0.802375268299126,-9.56307752611258,-1.859976997785,-0.041233405,0.0070249503,0.020463986,111.91067,101.910095,1.7992327,STD
7961994707000,2.534582,0.812064937534038,-9.58245677352164,-1.85028732349116,-0.03634648,0.013133603,0.010995574,111.9204,101.91255,1.7989403,STD
7961999708000,2.539583,0.82101260556814,-9.58987608841798,-1.84483168450859,-0.037873644,0.01740966,0.014966198,111.92142,101.91938,1.8044671,STD
7962004721000,2.544596,0.829782901267811,-9.59426131868835,-1.84044654581659,-0.04550946,0.021685716,0.022907447,111.92386,101.926674,1.8117039,STD
7962009727000,2.549602,0.831678824594096,-9.58694075384379,-1.8387469,-0.036651913,0.014049901,0.015882496,111.92287,101.92787,1.8227041,STD
7962014788000,2.554663,0.829194794907749,-9.57203658610086,-1.8387469,-0.029932396,0.013439035,0.015271631,111.92585,101.93111,1.8302163,STD
7962019729000,2.559604,0.826769663376384,-9.55748580704182,-1.8387469,-0.028099801,0.02076942,0.016187929,111.928535,101.932686,1.8405809,STD
7962024744000,2.564619,0.824308211316113,-9.54271710496105,-1.8387469,-0.03756821,0.009468411,0.01740966,111.92579,101.93556,1.849687,STD
7962029761000,2.569636,0.820206406629047,-9.54359835907336,-1.83704742331452,-0.036651913,0.014966198,0.009468411,111.93669,101.93259,1.8650103,STD
7962034739000,2.574614,0.815486744179784,-9.55067775418275,-1.83468759208989,-0.026572637,0.019547688,0.01038471,111.94467,101.9293,1.8765372,STD
7962039724000,2.579599,0.810760445001485,-9.55776710424711,-1.83232444250074,-0.03390302,0.0143553335,0.01863139,111.95163,101.931755,1.8871622,STD
7962044730000,2.584605,0.806014235636076,-9.56488631917632,-1.82995133781804,-0.034208454,0.01985312,0.0143553335,111.96205,101.930016,1.9016484,STD
7962049736000,2.589611,0.817413843022975,-9.56398941495365,-1.83241061737203,-0.029932396,0.014966198,0.011911872,111.96388,101.93078,1.9089912,STD
7962054731000,2.594606,0.836694845018138,-9.55916906882305,-1.83723086283757,-0.03176499,0.020158553,0.014049901,111.97005,101.93333,1.9169958,STD
7962059733000,2.599608,0.83955223969941,-9.55925641028644,-1.83554014639633,-0.03604105,0.01985312,0.010079277,111.977066,101.93126,1.9294372,STD
7962064773000,2.604648,0.834841638733226,-9.56161175503831,-1.83082955526765,-0.03390302,0.02687807,0.015577064,111.98814,101.92749,1.939111,STD
7962069735000,2.60961,0.830203939924852,-9.56393064802615,-1.82619186614454,-0.032070424,0.017104227,0.011911872,111.99444,101.92764,1.954438,STD
7962074710000,2.614585,0.825554090756844,-9.56625561630801,-1.82154202668716,-0.03970624,0.01282817,0.00580322,112.004265,101.92981,1.9693466,STD
7962079816000,2.619691,0.82080815292275,-9.56443273450643,-1.80560723540559,-0.034208454,0.013439035,0.010995574,112.004585,101.92901,1.985633,STD
7962084729000,2.624604,0.816259103478681,-9.55988359006091,-1.78286194068452,-0.03390302,0.012217305,0.00580322,112.00231,101.93259,2.0057204,STD
7962089734000,2.629609,0.806554946620796,-9.55516183195832,-1.77004839818297,-0.028405234,0.00580322,0.010079277,111.99863,101.930016,2.0192785,STD
7962094690000,2.634565,0.792287139260496,-9.55040596569692,-1.76687777653228,-0.030848695,0.00580322,0.011301007,111.99598,101.93003,2.035052,STD
7962099668000,2.639543,0.777955996193594,-9.54562898784195,-1.76369308028992,-0.03481932,0.019242255,0.020158553,111.99376,101.92445,2.044566,STD
7962104699000,2.644574,0.763472271651692,-9.54080115023882,-1.76047447707672,-0.027488936,0.01038471,0.0106901415,111.984375,101.91733,2.0573123,STD
7962109706000,2.649581,0.749057640607903,-9.53599634346505,-1.75727122796353,-0.018020526,0.016493361,0.010995574,111.984055,101.90989,2.066281,STD
7962114732000,2.654607,0.734588310544774,-9.53117330395137,-1.75405582352116,-0.03176499,0.008552114,0.016493361,111.97711,101.90727,2.0748487,STD
7962119729000,2.659604,0.730125275640737,-9.53349892739066,-1.7525556,-0.032375857,0.019547688,0.016798794,111.97184,101.90007,2.0867,STD
7962124733000,2.664608,0.734442406148372,-9.54213314332688,-1.7525556,-0.032986723,0.03023783,0.021991149,111.965,101.896255,2.0949304,STD
7962129823000,2.669698,0.738833731944507,-9.55091574906536,-1.7525556,-0.03970624,0.023518313,0.021685716,111.9515,101.8933,2.092933,STD
7962134740000,2.674615,0.743075804427729,-9.5593998497365,-1.7525556,-0.03726278,0.028710667,0.016187929,111.94445,101.888,2.0923367,STD
7962139670000,2.679545,0.746795179985402,-9.56723,-1.7523598799854,-0.030543262,0.014049901,0.01740966,111.93432,101.88169,2.089468,STD
7962145455000,2.68533,0.74390681191283,-9.56723,-1.74947151191283,-0.0290161,0.016493361,0.014660766,111.92994,101.8767,2.09057,STD
7962149687000,2.689562,0.741793834612377,-9.56723,-1.74735853461238,-0.024129177,0.0106901415,0.01985312,111.921776,101.867485,2.0893037,STD
7962154734000,2.694609,0.73927393942443,-9.56723,-1.74483863942443,-0.025045475,0.018325957,0.014966198,111.91738,101.86025,2.092533,STD
7962159711000,2.699586,0.740412637912637,-9.56623046648883,-1.74997539889963,-0.028099801,0.020463986,0.015271631,111.915184,101.850716,2.0910501,STD
7962164763000,2.704638,0.75251216948983,-9.56219720506836,-1.77820768136045,-0.032375857,0.015882496,0.0143553335,111.91285,101.842285,2.0913472,STD
7962169672000,2.709547,0.764269216305435,-9.55827810761921,-1.80564083151884,-0.028405234,0.019242255,0.014966198,111.915054,101.83056,2.0916207,STD
7962174729000,2.714604,0.753198403046916,-9.54902253906168,-1.81864723130206,-0.02321288,0.021380283,0.018936822,111.915726,101.81976,2.0908859,STD
7962180207000,2.720082,0.736929864491999,-9.53898422033899,-1.828443746738,-0.024129177,0.026267206,0.018325957,111.917786,101.80998,2.0916312,STD
7962184747000,2.724622,0.728696047239845,-9.54721777966102,-1.81609302085977,-0.018936822,0.017715093,0.014660766,111.91944,101.80439,2.0943444,STD
7962189684000,2.729559,0.719742224382161,-9.5561713220339,-1.80266228657324,-0.03023783,0.018936822,0.022602014,111.913925,101.80826,2.0939088,STD
7962194734000,2.734609,0.733285924166049,-9.56892230346553,-1.81546512416605,-0.021991149,0.026572637,0.017104227,111.90696,101.805984,2.0981138,STD
7962199685000,2.73956,0.750859955596738,-9.582103102298,-1.83303915559674,-0.02687807,0.016798794,0.01282817,111.896126,101.81002,2.098847,STD
7962204708000,2.744583,0.759906983515418,-9.58471433209108,-1.8270594512814,-0.02565634,0.02321288,0.018325957,111.893265,101.805016,2.1001062,STD
7962209712000,2.749587,0.764800036139473,-9.58226776745967,-1.80993383096283,-0.02076942,0.018325957,0.018020526,111.884026,101.8009,2.1029117,STD
7962214670000,2.754545,0.769648108663467,-9.57984369323055,-1.79296564040739,-0.025350908,0.019242255,0.016187929,111.88023,101.8028,2.1084821,STD
7962219743000,2.759618,0.774608631437615,-9.57736339299571,-1.77560387544415,-0.026572637,0.018020526,0.014660766,111.87457,101.802376,2.1135519,STD
7962224718000,2.764593,0.783006515790048,-9.5731643603291,-1.77899436523592,-0.0290161,0.019242255,0.016798794,111.87005,101.803444,2.118189,STD
7962229714000,2.769589,0.792492165643339,-9.56842142892546,-1.78848007947066,-0.0290161,0.016187929,0.015882496,111.863815,101.804375,2.1236777,STD
7962234728000,2.774603,0.780571103115129,-9.56007830366544,-1.78728693981325,-0.027488936,0.015882496,0.016187929,111.85701,101.79872,2.13359,STD
7962239746000,2.779621,0.761476449210291,-9.55053129323532,-1.7825132850601,-0.01863139,0.02321288,0.005497787,111.85092,101.791725,2.146848,STD
7962244714000,2.784589,0.76950801402094,-9.55778208265981,-1.79422639037472,-0.031154128,0.01985312,0.0106901415,111.84594,101.79092,2.1585462,STD
7962249708000,2.789583,0.787078413210874,-9.57095967450404,-1.81179675745775,-0.030543262,0.012217305,0.016493361,111.841286,101.78456,2.1728368,STD
7962254639000,2.794514,0.803171397233567,-9.58233806892151,-1.81129686987875,-0.02565634,0.004886922,0.011301007,111.83059,101.781364,2.1827085,STD
7962259621000,2.799496,0.818395264812806,-9.59248752946182,-1.79607299700064,-0.023823744,0.0009162979,0.008246681,111.8193,101.778435,2.1899366,STD
7962264648000,2.804523,0.821996391730137,-9.60078783760684,-1.79247186826986,-0.030543262,0.0061086523,0.0125227375,111.81054,101.78035,2.1996477,STD
7962269635000,2.80951,0.819581001976432,-9.60803390598291,-1.79488725802357,-0.030543262,0.009773844,0.01160644,111.79994,101.780266,2.2110784,STD
7962274633000,2.814508,0.817160284513225,-9.61529595726496,-1.79730797548677,-0.02321288,0.0076358155,0.015577064,111.79347,101.776,2.2200356,STD
7962279667000,2.819542,0.814722130909826,-9.62261031623932,-1.79974612909017,-0.026572637,0.0076358155,0.011911872,111.790979664201,101.776334560264,2.22523602486508,STD
7962284639000,2.824514,0.817449535983855,-9.60758612008073,-1.80386067598385,-0.032375857,0.007941248,0.015882496,111.78852,101.776665,2.2303724,STD
7962289634000,2.829509,0.822276591079717,-9.58345084460141,-1.80868773107972,-0.04337143,0.0033597588,0.016187929,111.78645,101.77424,2.2388449,STD
7962294644000,2.834519,0.826887944950495,-9.57352436020745,-1.79360360952381,-0.039095376,0.0033597588,0.0106901415,111.78544,101.77057,2.2480962,STD
7962299658000,2.839533,0.831415835168317,-9.56899639434229,-1.77096420571429,-0.028099801,0.0036651916,0.0125227375,111.7837,101.76766,2.2548018,STD
7962304725000,2.8446,0.836200172528363,-9.57326607111021,-1.77722229415519,-0.023823744,0.011301007,0.018325957,111.78479,101.76765,2.2632318,STD
7962309731000,2.849606,0.841056479335494,-9.58297888756078,-1.80150387889992,-0.032375857,0.0061086523,0.009468411,111.781654,101.7689,2.2743347,STD
7962314764000,2.854639,0.830359362128962,-9.57708408709391,-1.81311640623087,-0.027488936,0.005192355,0.007941248,111.780495,101.76121,2.279827,STD
7962319736000,2.859611,0.81155185770712,-9.56297817892762,-1.81781827742668,-0.028405234,0.00580322,0.011301007,111.778114,101.757835,2.2860765,STD
7962324724000,2.864599,0.80151948213523,-9.56205151094926,-1.81812716030215,-0.034208454,0.013439035,0.009773844,111.77873,101.759254,2.2953012,STD
7962329741000,2.869616,0.796790701020619,-9.56914483445697,-1.81576276851041,-0.031154128,0.016493361,0.010079277,111.77855,101.758156,2.3026874,STD
7962334693000,2.874568,0.792123185756606,-9.57614625722159,-1.81342900965996,-0.02321288,0.013133603,0.013133603,111.778755,101.75782,2.3067682,STD
7962339695000,2.87957,0.787408542915211,-9.58321837286551,-1.81107168700851,-0.026572637,0.025350908,0.012217305,111.78396,101.76001,2.3128572,STD
7962344675000,2.88455,0.790540829295986,-9.58376261424007,-1.80477383796685,-0.0290161,0.018020526,0.008857546,111.788055,101.7579,2.3181376,STD
7962349703000,2.889578,0.800157790602157,-9.57895403065708,-1.7951568716397,-0.032375857,0.008552114,0.01282817,111.79518,101.75672,2.3220904,STD
7962354643000,2.894518,0.807021401178813,-9.57937669484269,-1.78572359081043,-0.021991149,0.014660766,0.009773844,111.80662,101.75038,2.325556,STD
7962359674000,2.899549,0.81181838254082,-9.58417377638391,-1.77612957799681,-0.022296581,0.0143553335,0.011301007,111.813934,101.7476,2.325739,STD
7962364705000,2.90458,0.810211628994173,-9.58256698795358,-1.76916457844376,-0.03176499,0.013133603,0.01282817,111.82055,101.74482,2.3248537,STD
7962369698000,2.909573,0.80318695648695,-9.5755421662994,-1.76448146180892,-0.028405234,0.015271631,0.015577064,111.82804,101.7385,2.3234422,STD
7962374724000,2.914599,0.796115856142207,-9.56847091582195,-1.75976739327163,-0.027183503,0.018020526,0.014966198,111.83456,101.73386,2.3232064,STD
7962379844000,2.919719,0.788912506805739,-9.56126741354488,-1.75496515870917,-0.030543262,0.017715093,0.01282817,111.84076,101.72962,2.3226578,STD
7962384731000,2.924606,0.780883073832538,-9.56648334447096,-1.75917824309865,-0.021991149,0.015882496,0.015271631,111.84939,101.7216,2.3179872,STD
7962389731000,2.929606,0.771359570451472,-9.58553067939539,-1.77346349568417,-0.03481932,0.015882496,0.016187929,111.85809,101.72086,2.314571,STD
7962394720000,2.934595,0.770388093619095,-9.60020444517717,-1.77916428878937,-0.034208454,0.025045475,0.01038471,111.867645,101.712456,2.3105857,STD
7962399708000,2.939583,0.779791489875,-9.6096075125,-1.77446255875,-0.025350908,0.026267206,0.010995574,111.87522,101.70507,2.3042898,STD
7962404707000,2.944582,0.781356664131511,-9.62102636066548,-1.76382621707269,-0.025961773,0.02565634,0.012217305,111.877655,101.704926,2.2953904,STD
7962409735000,2.94961,0.771819661481482,-9.63533211111111,-1.74475228148148,-0.030848695,0.02321288,0.014966198,111.87999,101.70342,2.2861342,STD
7962414684000,2.954559,0.764761851707857,-9.6406188014017,-1.73616730139678,-0.022907447,0.016187929,0.014660766,111.88047,101.69781,2.278817,STD
7962419737000,2.959612,0.761191835448174,-9.63228871375876,-1.74330734634206,-0.029932396,0.017104227,0.0125227375,111.8825,101.69776,2.2718089,STD
7962424626000,2.964501,0.757737687517521,-9.62422898716341,-1.75021565422599,-0.020463986,0.011911872,0.0070249503,111.8788,101.68637,2.2640727,STD
7962429801000,2.969676,0.754081476525267,-9.61569777727776,-1.75752808893643,-0.022907447,0.0070249503,0.013439035,111.87597,101.67988,2.2539237,STD
7962434723000,2.974598,0.750604013625968,-9.60758364876429,-1.7644830268388,-0.028405234,0.017715093,0.015577064,111.87549,101.672295,2.2473173,STD
7962439735000,2.97961,0.747062964448543,-9.59932115138325,-1.77156513751875,-0.03176499,0.010995574,0.013744468,111.868904,101.6648,2.2390158,STD
7962444645000,2.98452,0.743593979719661,-9.59122680538547,-1.77850311905078,-0.018020526,0.017104227,0.0125227375,111.86907,101.65416,2.2308197,STD
7962449735000,2.98961,0.739997822434526,-9.58283572165253,-1.78569544613796,-0.026267206,0.022907447,0.007941248,111.86697,101.65102,2.2239437,STD
7962454665000,2.99454,0.737017378021477,-9.576807,-1.79125962197852,-0.020158553,0.021380283,0.0106901415,111.864845,101.63982,2.2155154,STD
7962459730000,2.999605,0.735438904477709,-9.576807,-1.79283809552229,-0.027183503,0.015577064,0.01160644,111.86274,101.63511,2.209167,STD
7962464730000,3.004605,0.733880687751383,-9.576807,-1.79439631224862,-0.03145956,0.018936822,0.011301007,111.86382,101.63527,2.197238,STD
7962470258000,3.010133,0.732157923338757,-9.576807,-1.79611907666124,-0.025961773,0.012217305,0.011301007,111.86053,101.63456,2.1844618,STD
7962474721000,3.014596,0.730767059088838,-9.576807,-1.79750994091116,-0.022296581,0.010079277,0.0067195175,111.85921,101.63576,2.173896,STD
7962479862000,3.019737,0.72916490065083,-9.576807,-1.79911209934917,-0.0290161,0.015882496,0.013744468,111.85891,101.63769,2.1605182,STD
7962484687000,3.024562,0.729243091634191,-9.57633839300251,-1.79903390347276,-0.028710667,0.01282817,0.011301007,111.85475,101.63732,2.1507938,STD
7962489732000,3.029607,0.74179569127046,-9.57215410574175,-1.78648126014549,-0.0290161,0.009468411,0.008552114,111.85254,101.63862,2.1398716,STD
7962494699000,3.034574,0.754154217017407,-9.56803451112843,-1.77412269138304,-0.017715093,0.012217305,0.01863139,111.85343,101.6363,2.1254325,STD
7962499706000,3.039581,0.754045170942485,-9.56849129086876,-1.76540287735621,-0.023518313,0.010995574,0.014966198,111.85133,101.639694,2.1155698,STD
7962504685000,3.04456,0.750934030943138,-9.57004689335465,-1.75762502735784,-0.03145956,0.009162978,0.0076358155,111.85019,101.6402,2.1044548,STD
7962509725000,3.0496,0.747784774948618,-9.57162155423613,-1.74975188737155,-0.017715093,0.009162978,0.0067195175,111.848885,101.634155,2.0952773,STD
7962514692000,3.054567,0.744681133177829,-9.57317340752944,-1.74199278294457,-0.027488936,0.016187929,0.015882496,111.84922,101.63679,2.0858846,STD
7962519732000,3.059607,0.74153187718331,-9.57474806841092,-1.73411964295828,-0.03481932,0.008246681,0.015271631,111.84033,101.636314,2.0813992,STD
7962524695000,3.06457,0.73843073482204,-9.57629867197338,-1.7263667870551,-0.027488936,0.007941248,0.010079277,111.8359,101.634186,2.0767004,STD
7962529817000,3.069692,0.740701040587253,-9.58009400923107,-1.72711214058725,-0.027488936,0.009468411,0.012217305,111.83013,101.6349,2.0741904,STD
7962534719000,3.074594,0.745311221634096,-9.58470428655603,-1.7317223216341,-0.029932396,0.0125227375,0.009468411,111.82425,101.63474,2.0746417,STD
7962540372000,3.080247,0.774139082609731,-9.58977759103821,-1.74018904033721,-0.021685716,0.01160644,0.011301007,111.816154,101.62609,2.0712056,STD
7962544722000,3.084597,0.804678155366993,-9.59359505186475,-1.74782380254742,-0.03268129,0.018020526,0.013133603,111.81093,101.62379,2.0692096,STD
7962549730000,3.089605,0.81915970964361,-9.59151525680153,-1.74810994964361,-0.029626964,0.024740042,0.018020526,111.806274,101.61597,2.0666807,STD
7962554733000,3.094608,0.809539645312719,-9.58189499156711,-1.73848988531272,-0.03604105,0.016187929,0.012217305,111.7987,101.61444,2.066213,STD
7962559721000,3.099596,0.793376856926723,-9.57016215899664,-1.7422619113569,-0.026267206,0.010995574,0.016493361,111.796646,101.61004,2.0684903,STD
7962564784000,3.104659,0.769434826926723,-9.55579715899664,-1.7614155113569,-0.016187929,0.014660766,0.013439035,111.79401,101.607994,2.0743852,STD
7962569693000,3.109568,0.7565677,-9.54600260748404,-1.76963485080434,-0.021685716,0.019547688,0.009468411,111.7962,101.603745,2.0765057,STD
7962574728000,3.114603,0.7565677,-9.54122903969708,-1.76486138270554,-0.022296581,0.007330383,0.011301007,111.794716,101.59533,2.0770764,STD
7962579678000,3.119553,0.7565677,-9.53653605845667,-1.76016849947038,-0.02443461,0.024129177,0.0125227375,111.80325,101.59242,2.0773158,STD
7962584734000,3.124609,0.7565677,-9.53174258105232,-1.75537512216997,-0.025961773,0.01985312,0.0076358155,111.80217,101.589806,2.0769603,STD
7962589626000,3.129501,0.758283882603009,-9.53407147612819,-1.75083941739699,-0.02321288,0.0125227375,0.009162978,111.80038,101.58697,2.079265,STD
7962594732000,3.134607,0.762852614808932,-9.54777748192096,-1.74627068519107,-0.029626964,0.015882496,0.011301007,111.80015,101.587395,2.08305,STD
7962599630000,3.139505,0.768568536932101,-9.56250115739203,-1.74176678596346,-0.026267206,0.018020526,0.014660766,111.797226,101.58273,2.0854967,STD
7962604736000,3.144611,0.778722050119394,-9.58280853363787,-1.73669004792359,-0.03145956,0.021991149,0.011301007,111.79553,101.58255,2.0894744,STD
7962609675000,3.14955,0.782216360925762,-9.59750177018634,-1.73802469671695,-0.035124753,0.0106901415,0.0125227375,111.78759,101.58012,2.091407,STD
7962614773000,3.154648,0.772589484295573,-9.60231478881988,-1.7524649588879,-0.02687807,0.0070249503,0.016187929,111.7829,101.57584,2.0941787,STD
7962619674000,3.159549,0.761940051219512,-9.60413563414634,-1.7649353804878,-0.03756821,0.011911872,0.0125227375,111.776924,101.57698,2.099718,STD
7962624729000,3.164604,0.747656792761605,-9.59937494571204,-1.77445760250787,-0.03848451,0.011301007,0.015271631,111.76906,101.572556,2.1018505,STD
7962629740000,3.169615,0.738720670016734,-9.59530770134856,-1.77736638312826,-0.026267206,0.0106901415,0.014049901,111.764305,101.568825,2.108031,STD
7962634740000,3.174615,0.743434126065558,-9.5929509241067,-1.76322599037307,-0.02565634,0.008857546,0.010079277,111.75913,101.56859,2.114013,STD
7962639697000,3.179572,0.748107046392361,-9.59061441514913,-1.74920720499557,-0.02321288,0.006414085,0.012217305,111.75491,101.564896,2.118526,STD
7962644723000,3.184598,0.752845012412639,-9.58824538266562,-1.73499328219805,-0.035124753,0.0061086523,0.016493361,111.750755,101.56519,2.1234229,STD
7962649741000,3.189616,0.756065684641789,-9.5868860258422,-1.72533124607463,-0.029626964,0.0067195175,0.011301007,111.743256,101.56167,2.1277308,STD
7962654730000,3.194605,0.753722789766096,-9.58922896964645,-1.73235993070171,-0.028405234,-0.0015271631,0.0067195175,111.73358,101.562386,2.13013,STD
7962659722000,3.199597,0.751378486054038,-9.59157332231648,-1.73939284183789,-0.02076942,-0.0027488936,0.0076358155,111.726395,101.55336,2.138677,STD
7962664764000,3.204639,0.74901070173589,-9.59394115608297,-1.74649619479233,-0.02687807,-0.007941248,0.01038471,111.71573,101.54811,2.1470397,STD
7962669723000,3.209598,0.745391931616341,-9.5943619982238,-1.75522055287152,-0.03023783,-0.018325957,0.007330383,111.70314,101.54035,2.1561642,STD
7962674732000,3.214607,0.733219845546816,-9.58218965795484,-1.77550740535397,-0.029321533,-0.00030543262,0.0076358155,111.69755,101.53289,2.164657,STD
7962679678000,3.219553,0.721200852194874,-9.57017041360061,-1.79553910277425,-0.040011674,-0.003970624,0.00580322,111.68365,101.53226,2.1720421,STD
7962684711000,3.224586,0.725566118357777,-9.57088288546344,-1.80409250917889,-0.032070424,-0.0076358155,0.0143553335,111.67553,101.52561,2.177223,STD
7962689630000,3.229505,0.734966154115534,-9.57558300149656,-1.80879252705777,-0.035124753,-0.003970624,0.01160644,111.66787,101.52575,2.1860964,STD
7962694682000,3.234557,0.744578177127554,-9.56964277325928,-1.80285242287245,-0.025961773,-0.007941248,0.008857546,111.66254,101.52417,2.184455,STD
7962699643000,3.239518,0.754002994584408,-9.56021775897639,-1.79342760541559,-0.035430185,-0.005497787,0.016187929,111.66053,101.52823,2.1813977,STD
7962704697000,3.244572,0.752977005881162,-9.56483453821237,-1.78368147426865,-0.03268129,-0.015271631,0.0125227375,111.65154,101.52837,2.1854115,STD
7962709663000,3.249538,0.748162916519891,-9.5744629180079,-1.77405324527786,-0.035124753,-0.0125227375,0.018325957,111.64782,101.53164,2.1855347,STD
7962714707000,3.254582,0.756701272598982,-9.57923464194593,-1.7717092,-0.033292156,-0.006414085,0.016798794,111.64159,101.53244,2.1898167,STD
7962719641000,3.259516,0.769194356928416,-9.58235797580805,-1.7717092,-0.029626964,-0.0067195175,0.008857546,111.63442,101.53338,2.1940339,STD
7962724692000,3.264567,0.781983689913411,-9.58555537332276,-1.7717092,-0.026267206,-0.0030543262,0.01740966,111.633354,101.52831,2.1997857,STD
7962729676000,3.269551,0.794603376232401,-9.58871035831846,-1.7717092,-0.027488936,0.003970624,0.021685716,111.632484,101.524254,2.2088754,STD
7962734698000,3.274573,0.807319280063454,-9.59188939817569,-1.7717092,-0.032375857,0.006414085,0.01282817,111.62968,101.521736,2.215943,STD
7962739674000,3.279549,0.819918710064115,-9.59503931899002,-1.7717092,-0.035124753,0.007941248,0.016187929,111.62951,101.51812,2.2186513,STD
7962744680000,3.284555,0.82697447217917,-9.58922264899415,-1.76497098971361,-0.032375857,0.004276057,0.020463986,111.63105,101.51298,2.2278397,STD
7962749700000,3.289575,0.83173868151422,-9.57969405123377,-1.75544259094242,-0.03145956,0.006414085,0.011911872,111.63406,101.509766,2.2398715,STD
7962754696000,3.294571,0.836480113752849,-9.57021100852245,-1.74595974626895,-0.030543262,0.003970624,0.012217305,111.636345,101.50666,2.2532299,STD
7962759817000,3.299692,0.841340176702012,-9.56049069993063,-1.7362396406699,-0.024740042,0.008552114,0.018020526,111.64099,101.50218,2.2675602,STD
7962764708000,3.304583,0.837904842077612,-9.55279891641791,-1.73825615116418,-0.032070424,-0.0030543262,0.00580322,111.64332,101.50159,2.2820091,STD
7962769719000,3.309594,0.830742243329353,-9.54563642736318,-1.7454187399403,-0.021991149,0.0027488936,0.0106901415,111.65296,101.49334,2.2910173,STD
7962774694000,3.314569,0.823631102085572,-9.53852539502488,-1.75252987128358,-0.027183503,0.010995574,0.008246681,111.658066,101.49031,2.3060675,STD
7962779722000,3.319597,0.816444203960199,-9.53133860696517,-1.75971675940299,-0.029321533,0.0067195175,0.008857546,111.66164,101.48335,2.3182042,STD
7962784706000,3.324581,0.817241308670944,-9.5224973684693,-1.75249415398717,-0.0290161,0.008857546,0.008552114,111.67513,101.47549,2.3319013,STD
7962789694000,3.329569,0.8221062723536,-9.5127672379061,-1.7378992629392,-0.027183503,-0.0015271631,0.0018325958,111.68339,101.46836,2.346002,STD
7962795326000,3.335201,0.819745799326838,-9.5213479238264,-1.72954243932684,-0.014049901,0.0018325958,0.007941248,111.697525,101.45999,2.3553452,STD
7962799705000,3.33958,0.815618567046551,-9.53372987924417,-1.72541520704655,-0.025961773,0.0027488936,0.0070249503,111.70712,101.45911,2.367556,STD
7962804694000,3.344569,0.807678007315996,-9.554376389999,-1.7333510339994,-0.029626964,-0.0018325958,0.010079277,111.71448,101.4504,2.376231,STD
7962809682000,3.349557,0.798084864739432,-9.57835925896174,-1.74774075537705,-0.0290161,0.004276057,0.004581489,111.72441,101.4446,2.3879888,STD
7962814702000,3.354577,0.796436236032109,-9.58794530026758,-1.74631052935052,-0.030848695,-0.002443461,0.00061086525,111.728905,101.438675,2.3963375,STD
7962819698000,3.359573,0.798763924810508,-9.59027304008757,-1.73699976451472,-0.021380283,0.002443461,0.014660766,111.73894,101.42885,2.4019432,STD
7962824690000,3.364565,0.801089749946971,-9.59259891622476,-1.72769645425444,-0.031154128,0.0106901415,0.013133603,111.74888,101.426994,2.4108992,STD
7962829830000,3.369705,0.803484529835077,-9.59499374862564,-1.71811732469959,-0.036651913,0.014966198,0.011911872,111.759674,101.420654,2.4158041,STD
7962834698000,3.374573,0.811301921270709,-9.59824419316823,-1.70511486435525,-0.032375857,0.018020526,0.016493361,111.77245,101.41423,2.4198017,STD
7962839694000,3.379569,0.823559588071733,-9.60232973509821,-1.68877133137489,-0.03481932,0.021991149,0.014049901,111.78602,101.41187,2.4263163,STD
7962844685000,3.38456,0.834787090923342,-9.60607197481319,-1.6759412,-0.03359759,0.0070249503,0.013133603,111.78879,101.40516,2.431421,STD
7962849717000,3.389592,0.842341638281862,-9.60859020985525,-1.6759412,-0.027488936,0.017104227,0.010079277,111.79928,101.39821,2.4392884,STD
7962854654000,3.394529,0.849753562031666,-9.61106090270157,-1.6759412,-0.035124753,0.016798794,0.009468411,111.80163,101.3918,2.4470594,STD
7962859745000,3.39962,0.857396686157705,-9.61360866394942,-1.6759412,-0.03481932,0.017104227,0.014049901,111.80695,101.38158,2.4546103,STD
7962865468000,3.405343,0.855590621367438,-9.61258528987551,-1.68732075203268,-0.034513887,0.014966198,0.010079277,111.81089,101.37427,2.4643734,STD
7962869716000,3.409591,0.845698995131297,-9.60862876663101,-1.70512566438436,-0.026572637,0.010995574,0.011911872,111.81486,101.3643,2.4709635,STD
7962874648000,3.414523,0.834214649416456,-9.60403517608442,-1.72579746940284,-0.039095376,-0.0027488936,0.007941248,111.82762,101.35712,2.4818523,STD
7962879738000,3.419613,0.822362394816184,-9.59929442671659,-1.74713150986189,-0.03023783,-0.0012217305,0.0125227375,111.843796,101.34148,2.4902153,STD
7962884668000,3.424543,0.810077742052013,-9.5939855518347,-1.75949852411828,-0.019242255,-0.0015271631,0.0106901415,111.85376,101.33109,2.4939704,STD
7962889685000,3.42956,0.795406199753677,-9.58664963514683,-1.74971750613263,-0.026267206,-0.009162978,0.00580322,111.86196,101.32343,2.4969769,STD
7962894699000,3.434574,0.780743430552191,-9.57931810509441,-1.73994233687211,-0.017104227,0.002443461,0.004886922,111.87409,101.316986,2.496269,STD
7962899797000,3.439672,0.765835014638913,-9.57186374924933,-1.73000340330806,-0.031154128,-0.0036651916,0.009773844,111.87902,101.318985,2.4939945,STD
7962904643000,3.444518,0.753474720972557,-9.55949755243139,-1.72227871048628,-0.03848451,-0.007941248,0.0070249503,111.887085,101.31723,2.4949102,STD
7962909614000,3.449489,0.74430644503611,-9.53657686259027,-1.71769457251806,-0.03634648,-0.007330383,0.0106901415,111.89528,101.31608,2.4926834,STD
7962914643000,3.454518,0.73491572027259,-9.52309364785462,-1.70800245068147,-0.035430185,-0.005497787,0.005497787,111.89557,101.31501,2.4891078,STD
7962919600000,3.459475,0.725330218485613,-9.53747220080767,-1.68403869621403,-0.028710667,-0.0061086523,0.011301007,111.896126,101.31082,2.481522,STD
7962924587000,3.464462,0.719532373957294,-9.5506207346338,-1.67208783280782,-0.035430185,-0.0021380284,0.008857546,111.89447,101.31131,2.478518,STD
7962929642000,3.469517,0.72436281937737,-9.56028157503492,-1.69382483719816,-0.02565634,0.002443461,0.0021380284,111.8929,101.30526,2.4752707,STD
7962934663000,3.474538,0.72916077515466,-9.56987743648972,-1.71541563819597,-0.03573562,0.006414085,0.009468411,111.8908,101.30041,2.4670923,STD
7962939595000,3.47947,0.733873684514069,-9.57930320599681,-1.73662373031331,-0.04337143,0.008552114,0.010995574,111.888756,101.293106,2.4627204,STD
7962944619000,3.484494,0.738648156193826,-9.58514991803439,-1.74885343141852,-0.044593163,0.008857546,0.013133603,111.87557,101.290985,2.4537914,STD
7962949646000,3.489521,0.74335141660805,-9.5804465593982,-1.73474365017585,-0.044898596,0.010995574,0.014966198,111.86377,101.29059,2.445,STD
7962954584000,3.494459,0.748991993888944,-9.5778075678397,-1.72282465305553,-0.03848451,0.009468411,0.01740966,111.8543,101.296196,2.4374683,STD
7962959629000,3.499504,0.758625122390589,-9.5826242326787,-1.71800808880471,-0.043676864,0.0070249503,0.007330383,111.84479,101.305565,2.4332583,STD
7962964633000,3.504508,0.767164479558398,-9.58842387391348,-1.71118849327605,-0.04184427,0.0036651916,0.011911872,111.8308,101.30925,2.4239237,STD
7962969601000,3.509476,0.771918005305225,-9.59793052832451,-1.69692806494155,-0.042455133,0.008246681,0.014049901,111.81798,101.31561,2.4185948,STD
7962974605000,3.51448,0.779589329314101,-9.59973518074772,-1.6903529166912,-0.032986723,-0.0015271631,0.018325957,111.8008,101.31737,2.4120286,STD
7962979640000,3.519515,0.798515494616819,-9.57134629840055,-1.71401064802277,-0.035430185,0.01863139,0.018325957,111.79347,101.32255,2.4081488,STD
7962984602000,3.524477,0.815519565705496,-9.54770424117839,-1.73526575907798,-0.04153884,0.0106901415,0.01863139,111.7696,101.32615,2.3931997,STD
7962989599000,3.529474,0.824442386675989,-9.54547349167949,-1.74641929693749,-0.026572637,0.0125227375,0.0106901415,111.753944,101.32488,2.3826141,STD
7962994598000,3.534473,0.833368778917634,-9.54324184934508,-1.7575772988906,-0.030543262,0.004276057,0.010079277,111.736725,101.33643,2.373023,STD
7962999588000,3.539463,0.842279100439099,-9.54101422477043,-1.76871521242251,-0.032070424,0.01038471,0.013439035,111.7241,101.343124,2.3656726,STD
7963004573000,3.544448,0.851180493782688,-9.53878883228453,-1.77984196572041,-0.033292156,0.011911872,0.014049901,111.707985,101.350746,2.358789,STD
7963009603000,3.549478,0.854432040231722,-9.54688491714942,-1.78338234023172,-0.027794369,0.014049901,0.013133603,111.69253,101.3579,2.347501,STD
7963014619000,3.554494,0.856831022892529,-9.55648079769277,-1.78578132289253,-0.030543262,0.014966198,0.011911872,111.677475,101.36741,2.3365104,STD
7963019588000,3.559463,0.859207527047543,-9.56598676468238,-1.78815782704754,-0.034513887,0.020463986,0.013744468,111.66709,101.380875,2.329123,STD
7963024577000,3.564452,0.861593596524171,-9.57553099275869,-1.79054389652417,-0.031154128,0.025350908,0.018936822,111.65718,101.39258,2.3214014,STD
7963029644000,3.569519,0.863961312563205,-9.576807,-1.78676545348114,-0.03940081,0.02321288,0.019242255,111.64173,101.41119,2.3092835,STD
7963034583000,3.574458,0.866260992415403,-9.576807,-1.78216606976371,-0.038789943,0.03176499,0.019242255,111.631226,101.42568,2.2971041,STD
7963039587000,3.579462,0.868590937339557,-9.576807,-1.77750615558635,-0.034208454,0.033292156,0.015271631,111.618484,101.441475,2.2865193,STD
7963044611000,3.584486,0.870930194593543,-9.576807,-1.77282761665208,-0.037873644,0.021685716,0.013439035,111.60483,101.45886,2.2754762,STD
7963049583000,3.589458,0.867855458281344,-9.58407503521835,-1.76807525828134,-0.034208454,0.02321288,0.011911872,111.58688,101.47574,2.2656465,STD
7963054591000,3.594466,0.863029475749648,-9.59372720185148,-1.76324927574965,-0.038789943,0.030848695,0.015882496,111.568054,101.4952,2.254833,STD
7963059610000,3.599485,0.858246021146598,-9.60329392799048,-1.78413191140647,-0.038179077,0.01985312,0.007330383,111.54773,101.50925,2.2491202,STD
7963064633000,3.604508,0.853474719182702,-9.61283623298949,-1.81275977301131,-0.036651913,0.0290161,0.004581489,111.53608,101.52334,2.242534,STD
7963069596000,3.609471,0.848767489249654,-9.607977602059,-1.80888836774896,-0.032375857,0.032375857,0.0076358155,111.51926,101.53473,2.2350476,STD
7963074625000,3.6145,0.843999945476143,-9.59844281320531,-1.79458573642843,-0.028405234,0.03023783,0.013439035,111.50378,101.545395,2.2279882,STD
7963079648000,3.619523,0.835660953805628,-9.59241191019757,-1.78376483157055,-0.034513887,0.030543262,0.010995574,111.49147,101.56252,2.222368,STD
7963084617000,3.624492,0.826164402502494,-9.58766354530034,-1.77426825051886,-0.043066,0.030543262,0.017715093,111.47961,101.57799,2.2127097,STD
7963089615000,3.62949,0.811468860176142,-9.58811782034536,-1.7682416317253,-0.036651913,0.030848695,0.0143553335,111.4665,101.5887,2.2060282,STD
7963094647000,3.634522,0.794778270639751,-9.59050223793974,-1.76347289612587,-0.0421497,0.031154128,0.018936822,111.45452,101.60396,2.195574,STD
7963099591000,3.639466,0.778379567406858,-9.59284495665727,-1.75878755653852,-0.03268129,0.030543262,0.016493361,111.4449,101.61092,2.1827526,STD
7963104619000,3.644494,0.761702245429716,-9.59522747884815,-1.75402261166691,-0.0290161,0.041233405,0.023518313,111.43954,101.619995,2.1671479,STD
7963109608000,3.649483,0.761488633164261,-9.59432065868591,-1.74107345059233,-0.039095376,0.04062254,0.02107485,111.4344,101.6291,2.1557662,STD
7963114643000,3.654518,0.768689126765555,-9.59192044987556,-1.72427233979094,-0.040011674,0.031154128,0.012217305,111.42988,101.63442,2.1447756,STD
7963119888000,3.659763,0.776189938868591,-9.58942013305127,-1.70677048752613,-0.032070424,0.025045475,0.016493361,111.42692,101.63458,2.1291268,STD
7963124625000,3.6645,0.782964266215032,-9.58716198227974,-1.69096376222997,-0.038179077,0.023823744,0.015271631,111.42194,101.63958,2.117675,STD
7963129649000,3.669524,0.801259513333333,-9.599153,-1.70147933333333,-0.039095376,0.021991149,0.01740966,111.41561,101.64042,2.104135,STD
7963134625000,3.6745,0.824674502845912,-9.61788488207547,-1.7248943081761,-0.043066,0.01740966,0.01038471,111.40768,101.64427,2.0937085,STD
7963139620000,3.679495,0.836197539023908,-9.60961430488046,-1.72737132195218,-0.03390302,0.019242255,0.0125227375,111.410164,101.63432,2.0861275,STD
7963144642000,3.684517,0.840949039675953,-9.58585680162023,-1.71786832064809,-0.040317107,0.015577064,0.015882496,111.40944,101.630295,2.0798206,STD
7963149664000,3.689539,0.83115051613139,-9.576807,-1.7171505171792,-0.041233405,0.01740966,0.0076358155,111.412315,101.627556,2.080745,STD
7963154619000,3.694494,0.812649378283542,-9.576807,-1.72177579560407,-0.035430185,0.016493361,0.008246681,111.41402,101.62413,2.0780194,STD
7963159604000,3.699479,0.794036225473951,-9.576807,-1.72642907773283,-0.03970624,0.02107485,0.01160644,111.410324,101.62498,2.082112,STD
7963164633000,3.704508,0.775258784053804,-9.576807,-1.73112343196062,-0.04428773,0.016798794,0.013439035,111.40393,101.62433,2.0858212,STD
7963169621000,3.709496,0.761204075755734,-9.57433673629045,-1.7296966818168,-0.032375857,0.025045475,0.013133603,111.40666,101.61792,2.0941412,STD
7963174620000,3.714495,0.751507499078434,-9.5694883467011,-1.72242424930883,-0.0421497,0.02076942,0.008857546,111.40458,101.61907,2.1019547,STD
7963179645000,3.71952,0.741760490115955,-9.56461474044255,-1.71511399258697,-0.04184427,0.01863139,0.009162978,111.40037,101.6162,2.100323,STD
7963184633000,3.724508,0.732085250174692,-9.55977701944402,-1.70785756263102,-0.03940081,0.023823744,0.015882496,111.39724,101.615326,2.098329,STD
7963189877000,3.729752,0.733096704279806,-9.57606102481568,-1.7020418978601,-0.03848451,0.024740042,0.0143553335,111.39857,101.61156,2.10502,STD
7963194704000,3.734579,0.741409456230894,-9.60515583024636,-1.69788552188455,-0.03268129,0.024129177,0.0106901415,111.40106,101.6056,2.1105413,STD
7963199659000,3.739534,0.748226139978929,-9.62222052004214,-1.69427130954698,-0.03604105,0.023518313,0.01160644,111.402435,101.59878,2.1120944,STD
7963204713000,3.744588,0.751868440360207,-9.61493591927959,-1.69184311774444,-0.034208454,0.016187929,0.01160644,111.40139,101.58928,2.1144676,STD
7963209752000,3.749627,0.755499930589976,-9.60767293882005,-1.68942213268449,-0.03359759,0.022296581,0.01160644,111.40753,101.57743,2.1211314,STD
7963214753000,3.754628,0.759104035102594,-9.60046472979481,-1.68701940470576,-0.038179077,0.018325957,0.01038471,111.408554,101.56689,2.1269925,STD
7963219722000,3.759597,0.762685077958662,-9.59330264408268,-1.68463205111122,-0.03940081,0.01863139,0.014966198,111.41269,101.5552,2.1316507,STD
7963224763000,3.764638,0.766318009541966,-9.58603678091607,-1.68221010515226,-0.034208454,0.026572637,0.022602014,111.41784,101.54315,2.1358643,STD
7963229684000,3.769559,0.769864459913209,-9.57894388017358,-1.679845813134,-0.044593163,0.015577064,0.0125227375,111.417816,101.53633,2.1432276,STD
7963234725000,3.7746,0.773497391496513,-9.57167801700697,-1.67742386717504,-0.0290161,0.014049901,0.014966198,111.42362,101.51998,2.1458435,STD
7963239669000,3.779544,0.777466387610081,-9.56897502951849,-1.6776861930764,-0.035430185,0.023823744,0.01863139,111.43,101.51214,2.1554039,STD
7963244671000,3.784546,0.782164142198686,-9.57367289693047,-1.68238396238109,-0.036957346,0.01282817,0.01282817,111.429565,101.49926,2.1654344,STD
7963249657000,3.789532,0.787352098021785,-9.57834742497155,-1.68962585711592,-0.03756821,0.011911872,0.01038471,111.43508,101.48792,2.1766028,STD
7963264794000,3.804669,0.80620613590278,-9.59248776020159,-1.72733394272151,-0.040927973,0.00580322,0.013744468,111.42988,101.463486,2.2146204,STD
7963269818000,3.809693,0.812463828068607,-9.59718096520891,-1.73984933032027,-0.03481932,0.007941248,0.010995574,111.42834,101.457184,2.2289505,STD
7963274735000,3.81461,0.81858824534157,-9.60177421541213,-1.75209816806373,-0.036957346,0.0021380284,0.009773844,111.42354,101.45488,2.242609,STD
7963279699000,3.819574,0.820957762772472,-9.60377198985921,-1.76389747464803,-0.030543262,0.013439035,0.009468411,111.42138,101.45011,2.254754,STD
7963284709000,3.824584,0.806786328894359,-9.59432465993896,-1.7733451498474,-0.03268129,0.014966198,0.008857546,111.41487,101.44846,2.2661629,STD
7963289685000,3.82956,0.795215519637428,-9.58604344289499,-1.78196719998605,-0.03481932,0.0125227375,0.014966198,111.41169,101.44785,2.2839746,STD
7963294673000,3.834548,0.797435992306047,-9.58382292153582,-1.78640814996049,-0.029626964,0.01740966,0.0106901415,111.41044,101.44647,2.3048337,STD
7963299680000,3.839555,0.799664923070237,-9.5815939418956,-1.79086601614373,-0.03634648,0.022907447,0.011911872,111.40746,101.45135,2.3160307,STD
7963304698000,3.844573,0.801898750626598,-9.57936006535583,-1.79533367592154,-0.034513887,0.02565634,0.0143553335,111.40501,101.452515,2.3278892,STD
7963309694000,3.849569,0.804122784598615,-9.57713598261516,-1.7997817485102,-0.03023783,0.025961773,0.014660766,111.406944,101.453606,2.340062,STD
7963314716000,3.854591,0.786982637919506,-9.57243963511499,-1.79607242632027,-0.03359759,0.031154128,0.0125227375,111.41102,101.456314,2.352385,STD
7963320083000,3.859958,0.76768793446368,-9.56745049491344,-1.79042191708014,-0.04428773,0.02321288,0.009468411,111.411385,101.459946,2.3638854,STD
7963324693000,3.864568,0.795266356469748,-9.57139034588613,-1.78254233855078,-0.03573562,0.028099801,0.011301007,111.42538,101.4578,2.3805685,STD
7963329878000,3.869753,0.826284603346422,-9.5758216099411,-1.7736799492504,-0.03481932,0.034208454,0.013439035,111.43194,101.46162,2.3899884,STD
7963334703000,3.874578,0.831360779972031,-9.57498554954162,-1.76442355031854,-0.033292156,0.027488936,0.016187929,111.43631,101.46273,2.3980591,STD
7963339626000,3.879501,0.828918827140415,-9.57254355591236,-1.75465577978971,-0.038789943,0.01985312,0.010995574,111.4417,101.46593,2.4078686,STD
7963344685000,3.88456,0.826409414307764,-9.57003410115502,-1.7446181703838,-0.0421497,0.018020526,0.004276057,111.447044,101.46779,2.421825,STD
7963349639000,3.889514,0.823952084564148,-9.56757673035687,-1.73478889246387,-0.03481932,0.016493361,0.003970624,111.45036,101.468094,2.4347234,STD
7963354700000,3.894575,0.817497158938441,-9.57130222050007,-1.7252577290832,-0.03940081,0.011301007,0.008246681,111.45201,101.47278,2.447562,STD
7963359692000,3.899567,0.810506755522737,-9.57596258839012,-1.71593718795145,-0.03359759,0.0143553335,0.008857546,111.45531,101.472755,2.4615374,STD
7963364722000,3.904597,0.803463139901545,-9.58065843183701,-1.7065456971877,-0.03359759,0.0033597588,0.007330383,111.45513,101.46992,2.4773247,STD
7963369747000,3.909622,0.796426525886338,-9.58534960744748,-1.69716354190184,-0.03176499,0.014660766,0.015882496,111.46259,101.464455,2.491087,STD
7963374690000,3.914565,0.782109852599305,-9.58273675124131,-1.69874197259186,-0.043066,0.022907447,0.018325957,111.46566,101.463264,2.5057912,STD
7963379689000,3.919564,0.765470264102284,-9.57798248877855,-1.70349613576961,-0.03481932,0.024129177,0.004581489,111.469406,101.456764,2.5225291,STD
7963384702000,3.924577,0.748784075437438,-9.57321491171798,-1.70826361326713,-0.03634648,0.019547688,0.010995574,111.47179,101.450775,2.52899,STD
7963389715000,3.92959,0.732097886772592,-9.5684473346574,-1.71303109076465,-0.037873644,0.015882496,0.0143553335,111.47375,101.443756,2.5399632,STD
7963394676000,3.934551,0.733068631737238,-9.56897381366245,-1.71773595449149,-0.029321533,0.017104227,0.005497787,111.48258,101.43256,2.5511396,STD
7963399707000,3.939582,0.740218544796201,-9.57135716778789,-1.72250256319747,-0.03176499,0.027488936,0.008552114,111.49358,101.42415,2.5581408,STD
7963404695000,3.94457,0.747307347487139,-9.57372015136526,-1.72722843165809,-0.032070424,0.022907447,0.0061086523,111.499756,101.41428,2.5635319,STD
7963409684000,3.949559,0.754397571349426,-9.5760836086763,-1.73195524756628,-0.030848695,0.010079277,0.004581489,111.506485,101.40472,2.5678217,STD
7963414701000,3.954576,0.753235393718843,-9.58347175174477,-1.72673738743769,-0.025045475,0.013439035,0.0027488936,111.525955,101.391594,2.5687914,STD
7963419700000,3.959575,0.748462270767697,-9.59301819700897,-1.71719114153539,-0.03145956,0.020463986,0.007330383,111.5427,101.38161,2.5679247,STD
7963424694000,3.964569,0.753376666225741,-9.59276805020759,-1.71744128311287,-0.028710667,0.01863139,0.00580322,111.557976,101.37073,2.5712764,STD
7963429693000,3.969568,0.762621509944965,-9.58814553181423,-1.72206370497248,-0.031154128,0.021685716,0.006414085,111.576515,101.36297,2.573389,STD
7963434699000,3.974574,0.775265424188165,-9.58334363585176,-1.7268655006552,-0.037873644,0.018936822,0.01160644,111.59768,101.35159,2.5708475,STD
7963439699000,3.979574,0.789971848225839,-9.57844140407453,-1.73176763005733,-0.033292156,0.008552114,0.007330383,111.61652,101.33875,2.5706336,STD
7963444682000,3.984557,0.788709234817008,-9.57372406319775,-1.72415338273954,-0.028710667,0.011911872,0.009162978,111.639175,101.329025,2.5695775,STD
7963449708000,3.989583,0.779363943794777,-9.56905131278517,-1.71013542425007,-0.03481932,0.013133603,0.0067195175,111.6574,101.3219,2.5703025,STD
7963454694000,3.994569,0.777608331471392,-9.57100384915056,-1.70561506721343,-0.027183503,0.015577064,0.013439035,111.677765,101.311165,2.5705583,STD
7963459688000,3.999563,0.780721425547419,-9.57723001454794,-1.70717161668945,-0.035124753,0.015882496,0.012217305,111.696884,101.30744,2.5736814,STD
7963464694000,4.004569,0.783842000025711,-9.58347114069518,-1.70873190637245,-0.023518313,0.018936822,0.0061086523,111.71593,101.29335,2.5749958,STD
7963469703000,4.009578,0.786964444604569,-9.58971600702988,-1.71029313110721,-0.028710667,0.020463986,0.006414085,111.73448,101.286125,2.5748625,STD
7963474688000,4.014563,0.790071928378897,-9.59593095186487,-1.71184687542798,-0.02076942,0.011301007,0.010079277,111.74972,101.27229,2.5782568,STD
7963479683000,4.019558,0.79318564582178,-9.60215836399141,-1.71340373658791,-0.018020526,0.016798794,0.010995574,111.768974,101.261856,2.5831456,STD
7963484700000,4.024575,0.791633518792547,-9.60121509815141,-1.71748984330986,-0.02687807,0.01863139,0.004581489,111.78406,101.25304,2.5883126,STD
7963489696000,4.029571,0.784613887135661,-9.59185566094484,-1.72450945786385,-0.021380283,0.014966198,0.0067195175,111.79927,101.23921,2.5907726,STD
7963494675000,4.03455,0.777618141335094,-9.58252807130282,-1.73150518661972,-0.022602014,0.019547688,0.007330383,111.81679,101.231255,2.5972066,STD
7963499707000,4.039582,0.770547927864828,-9.57310119219484,-1.73857538286385,-0.025350908,0.015577064,0.004886922,111.83048,101.22259,2.603124,STD
7963504665000,4.04454,0.782283801016323,-9.56185031413613,-1.73580578564829,-0.02076942,0.022296581,0.006414085,111.848366,101.21221,2.6084843,STD
7963509688000,4.049563,0.826728816918181,-9.54703553228621,-1.71605246816549,-0.032070424,0.03023783,0.011301007,111.86521,101.20725,2.6133215,STD
7963515361000,4.055236,0.847191521039915,-9.54878850420412,-1.71238801844013,-0.034513887,0.03756821,0.015577064,111.87194,101.205696,2.6177642,STD
7963519700000,4.059575,0.839159485628685,-9.56485249115686,-1.72443607155697,-0.03268129,0.032986723,0.008857546,111.87711,101.206535,2.6236465,STD
