timestamp,rel_time,acc_x,acc_y,acc_z,gyro_x,gyro_y,gyro_z,azimuth,pitch,roll,label
260695186000,0,-2.11836289225789,-9.28671516940923,-1.8526845679795,-0.054367006,-0.09010262,0.01282817,50.084675,103.371544,-9.554835,STD
260700168000,0.004982,-2.09905686949015,-9.27169928432695,-1.92776361260678,-0.051923547,-0.059864793,0.019242255,50.30073,103.29938,-9.549589,STD
260705261000,0.010075,-2.07886160517662,-9.28419340816432,-1.9575889332953,-0.044898596,-0.026267206,0.022602014,50.516808,103.22895,-9.54153,STD
260710250000,0.015064,-2.05903535695835,-9.29906310726697,-1.98237167887339,-0.018020526,0.016187929,0.025350908,50.740284,103.15871,-9.534221,STD
260715194000,0.020008,-2.03938793839929,-9.31379868400851,-2.00693088796099,-0.0018325958,0.03970624,0.028710667,50.998608,103.100945,-9.524838,STD
260720225000,0.025039,-2.02007457333866,-9.32938906665334,-2.03123043999201,0.017104227,0.05497787,0.036957346,51.25746,103.04539,-9.51812,STD
260725200000,0.030014,-2.01055232291396,-9.3531946927151,-2.04551381562906,0.03604105,0.071776666,0.03634648,51.517906,102.98952,-9.510214,STD
260730286000,0.0351,-1.99987030759378,-9.37703982689844,-2.05430298126258,0.05467244,0.08582657,0.034208454,51.792397,102.92874,-9.497459,STD
260735199000,0.040013,-1.97834660292772,-9.39425870073193,-1.99403660819762,0.061086524,0.099571034,0.03268129,52.06533,102.87141,-9.485902,STD
260740146000,0.04496,-1.9566739452882,-9.41159673632205,-1.93335316680695,0.07422013,0.10842858,0.032375857,52.33422,102.8139,-9.47397,STD
260745167000,0.049981,-1.92490687894893,-9.39756584115202,-1.90850291244062,0.062002823,0.10629055,0.03756821,52.598194,102.76537,-9.464911,STD
260750174000,0.054988,-1.89168659352732,-9.37858294833729,-1.889519870962,0.048563786,0.10293079,0.027794369,52.857933,102.71564,-9.452998,STD
260755233000,0.060047,-1.86306412920683,-9.41104407416245,-2.12229877198626,0.048258353,0.09865474,0.021991149,53.099422,102.66163,-9.440364,STD
260760350000,0.065164,-1.83500009240241,-9.45314003168846,-2.40293933539181,0.034208454,0.09621128,0.024129177,53.335434,102.616264,-9.428947,STD
260765164000,0.069978,-1.85515790876395,-9.47302286492352,-2.12339755347251,0.0143553335,0.07849618,0.02107485,53.55985,102.56643,-9.41204,STD
260770178000,0.074992,-1.88989607809012,-9.48791096269119,-1.67180104131873,0.003970624,0.07666359,0.020463986,53.783493,102.52217,-9.397565,STD
260775171000,0.079985,-1.86779450477624,-9.43378969432042,-1.67498957043921,-0.015577064,0.06719518,0.018936822,54.009483,102.52456,-9.392827,STD
260780102000,0.084916,-1.8334717547399,-9.36514429664625,-1.77795792294673,-0.025350908,0.062308256,0.021380283,54.233234,102.52969,-9.390134,STD
260785165000,0.089979,-1.85374797297921,-9.36063718384334,-1.96290813917436,-0.023518313,0.050701816,0.018020526,54.411846,102.480354,-9.375013,STD
260790143000,0.094957,-1.88127297898383,-9.36522454113741,-2.15558332491339,-0.032375857,0.040927973,0.016187929,54.58651,102.438446,-9.362292,STD
260795175000,0.099989,-1.93814370793381,-9.38083554940898,-1.8950504414279,-0.025961773,0.02565634,0.009468411,54.771187,102.40143,-9.348095,STD
260800179000,0.104993,-2.00158699882742,-9.39896233238771,-1.5279857241513,-0.029932396,0.0030543262,0.0012217305,54.947144,102.369995,-9.334948,STD
260805163000,0.109977,-2.00347737736565,-9.38719611739843,-1.44608217440697,-0.025045475,-0.020463986,-0.003970624,55.13314,102.36855,-9.333602,STD
260810176000,0.11499,-1.97863040156991,-9.36234905511947,-1.48749375749159,-0.022296581,-0.05100725,-0.004276057,55.307476,102.36928,-9.333511,STD
260815104000,0.119918,-1.96656049858139,-9.34862154063671,-1.56866335316221,-0.028405234,-0.081855945,0.0030543262,55.423595,102.33573,-9.331544,STD
260820182000,0.124996,-1.97578970395218,-9.35323611922949,-1.72325268767851,-0.02687807,-0.10262536,0.0018325958,55.531864,102.29992,-9.328311,STD
260825134000,0.129948,-1.98478990580253,-9.35773619665986,-1.87400620964084,-0.042455133,-0.10598512,0.008552114,55.64364,102.274895,-9.328021,STD
260830136000,0.13495,-1.99388098206576,-9.36228171105945,-2.02628187944205,-0.037873644,-0.10262536,0.006414085,55.749283,102.24511,-9.325755,STD
260835141000,0.139955,-2.00229572972732,-9.36537437415252,-2.16035506907507,-0.04734206,-0.092240654,0.012217305,55.854527,102.22603,-9.330548,STD
260840178000,0.144992,-2.00707014865146,-9.36059998015539,-2.19616318607908,-0.06780604,-0.07727446,0.008552114,55.959988,102.20692,-9.33197,STD
260845107000,0.149921,-2.01174219766418,-9.35592795553521,-2.23120352928193,-0.06566802,-0.06383542,0.009773844,56.10956,102.22718,-9.346136,STD
260850150000,0.154964,-2.01652230380561,-9.35114787435047,-2.267054300386,-0.063224554,-0.03970624,0.009773844,56.264034,102.250916,-9.358313,STD
260855223000,0.160037,-2.01628775609841,-9.34664839050858,-2.29559307719158,-0.056505036,-0.018020526,0.0106901415,56.419422,102.27475,-9.371076,STD
260860209000,0.165023,-1.9828577693104,-9.34426048622293,-2.27410241236185,-0.04734206,-0.0009162979,0.012217305,56.578083,102.29866,-9.383692,STD
260865217000,0.170031,-1.94928027756663,-9.34186204565685,-2.25251692309846,-0.02565634,0.02565634,0.022296581,56.74534,102.337,-9.4074335,STD
260870181000,0.174995,-1.91599779573436,-9.33948467765165,-2.23112108270241,-0.002443461,0.04428773,0.02687807,56.912945,102.37295,-9.429864,STD
260876000000,0.180814,-1.88066509255411,-9.3326142543723,-2.20866291553247,0.01740966,0.049480084,0.029932396,57.08243,102.40796,-9.454341,STD
260880171000,0.184985,-1.86337295714286,-9.31878025714286,-2.19828763428571,0.036651913,0.06169739,0.02107485,57.25668,102.437836,-9.475845,STD
260885142000,0.189956,-1.84276418103896,-9.30229289194805,-2.18592236862338,0.04550946,0.06627888,0.02107485,57.41699,102.458244,-9.492497,STD
260890184000,0.194998,-1.83079454395515,-9.29510273893986,-2.11989306860347,0.06047566,0.07666359,0.026267206,57.580193,102.47413,-9.507717,STD
260895105000,0.199919,-1.82118650464832,-9.29029861896024,-2.04302865382263,0.062002823,0.08460484,0.024740042,57.741604,102.490364,-9.521267,STD
260900204000,0.205018,-1.81534806770855,-9.29374732094804,-1.96235923900849,0.05100725,0.07727446,0.025045475,57.89485,102.50636,-9.535498,STD
260905211000,0.210025,-1.81038521968537,-9.29871027261437,-1.88295361881598,0.057726767,0.06414085,0.020463986,58.04645,102.518394,-9.548118,STD
260910179000,0.214993,-1.80568985370097,-9.32503941993512,-1.80782771403716,0.037873644,0.04428773,0.013744468,58.18584,102.526276,-9.559477,STD
260915107000,0.219921,-1.80105066463187,-9.3528751356532,-1.73360064048953,0.022296581,0.02687807,0.011911872,58.32028,102.533325,-9.571639,STD
260920190000,0.225004,-1.81311159829902,-9.38610849806028,-1.63512182369442,0.010995574,0.008552114,0.012217305,58.43945,102.53191,-9.58028,STD
260925149000,0.229963,-1.8272838905103,-9.41917688391525,-1.53591567955834,0.0018325958,-0.019242255,0.0067195175,58.548847,102.53238,-9.58812,STD
260930173000,0.234987,-1.82507032020797,-9.43997703354914,-1.45711572332745,-0.015271631,-0.04795292,-0.00030543262,58.642574,102.52576,-9.595224,STD
260935112000,0.239926,-1.82043035403178,-9.45853680135374,-1.38287626450853,-0.029932396,-0.063224554,-0.0027488936,58.730648,102.521225,-9.602792,STD
260940153000,0.244967,-1.84886774618359,-9.48384091105791,-1.31459377519565,-0.051923547,-0.076052725,-0.007330383,58.79621,102.508675,-9.607253,STD
260945879000,0.250693,-1.88925942783353,-9.51413477773686,-1.23885931938127,-0.05375614,-0.08032878,-0.007330383,58.8317596564969,102.503683293488,-9.6108929649895,STD
260950150000,0.254964,-1.89457724744314,-9.51771551339309,-1.22257039488628,-0.06872234,-0.08246681,-0.004276057,58.858276,102.49996,-9.613608,STD
260955249000,0.260063,-1.89204721774519,-9.51518543085851,-1.21751033549039,-0.070554934,-0.076358154,-0.0067195175,58.906895,102.48134,-9.613669,STD
260960177000,0.264991,-1.88960203509145,-9.51274019714004,-1.21261997018289,-0.08155051,-0.06963864,-0.0125227375,58.943287,102.46377,-9.61584,STD
260965127000,0.269941,-1.88714593644371,-9.51028404719963,-1.20770777288742,-0.08246681,-0.06719518,-0.0067195175,58.980045,102.44745,-9.620503,STD
260970213000,0.275027,-1.92896547313611,-9.46358611426586,-1.23361785733148,-0.081855945,-0.04337143,-0.004581489,59.02395,102.431465,-9.621425,STD
260975193000,0.280007,-1.98104703791323,-9.40677021234984,-1.26676063981932,-0.084910266,-0.03481932,0.0018325958,59.06401,102.4192,-9.625734,STD
260980168000,0.284982,-2.0031572688057,-9.3613032822341,-1.26998814373143,-0.07574729,-0.025961773,-0.0012217305,59.10163,102.407036,-9.631583,STD
260985174000,0.289988,-2.01740012703506,-9.31857431095266,-1.26524052432165,-0.071776666,-0.01038471,-0.00030543262,59.143486,102.39922,-9.639674,STD
260990969000,0.295783,-2.02512369446436,-9.31749117343688,-1.24205102767822,-0.06505715,-0.014049901,0.0012217305,59.188236,102.402214,-9.656114,STD
260995204000,0.300018,-2.02916170203106,-9.3255673572282,-1.22186098984468,-0.047036625,-0.013744468,0.0012217305,59.237938,102.402664,-9.671402,STD
261000200000,0.305014,-2.0404705176831,-9.33460182029147,-1.24342124928061,-0.045814894,-0.025350908,0.004886922,59.2833,102.40937,-9.691182,STD
261005261000,0.310075,-2.05396764516848,-9.34360009319595,-1.27941363622018,-0.042760566,-0.031154128,0.0106901415,59.329857,102.41334,-9.710998,STD
261010225000,0.315039,-2.0514597567834,-9.35149612283044,-1.33516941778782,-0.02443461,-0.026267206,0.01160644,59.37153,102.41158,-9.727788,STD
261015268000,0.320082,-2.03905968427647,-9.35893606275033,-1.40460984972271,-0.017104227,-0.011911872,0.013133603,59.414032,102.41295,-9.745877,STD
261020194000,0.325008,-2.02694729935298,-9.36620339252336,-1.4724392305895,-0.016187929,-0.0106901415,0.011911872,59.45753,102.41735,-9.762365,STD
261025190000,0.330004,-2.01466279365308,-9.37357399332443,-1.54123248816371,-0.021685716,0.0027488936,0.018936822,59.508457,102.42409,-9.780352,STD
261030177000,0.334991,-2.0078668271868,-9.37406276469459,-1.60180169423252,-0.007941248,0.013439035,0.012217305,59.55771,102.42418,-9.793912,STD
261035184000,0.339998,-2.00326522096828,-9.37176203365961,-1.65932182001344,0.00030543262,0.029626964,0.017715093,59.612514,102.4308,-9.811955,STD
261040180000,0.344994,-1.99867372413032,-9.36946635715657,-1.71671557843194,0.010995574,0.03573562,0.022296581,59.682987,102.444756,-9.827566,STD
261045199000,0.350013,-1.99406108949667,-9.36716011208675,-1.7743735595173,0.028099801,0.035430185,0.01985312,59.755177,102.45606,-9.842281,STD
261050182000,0.354996,-1.98678840648638,-9.35574263172338,-1.8419388751921,0.032375857,0.03145956,0.02565634,59.827488,102.47094,-9.860424,STD
261055219000,0.360033,-1.97716095581279,-9.33648757958288,-1.91895853084523,0.04062254,0.039095376,0.016493361,59.90131,102.478546,-9.873079,STD
261060207000,0.365021,-1.96287579480321,-9.32532347659534,-1.99096767141765,0.03359759,0.0290161,0.018936822,59.98325,102.50524,-9.893489,STD
261065180000,0.369994,-1.94467731318303,-9.32077399871036,-2.05921207250669,0.03573562,0.021380283,0.0143553335,60.066193,102.52548,-9.90889,STD
261070187000,0.375001,-1.93668029088513,-9.3095720425327,-2.11031254531076,0.042455133,0.01282817,0.019242255,60.14823,102.56145,-9.931968,STD
261075194000,0.380008,-1.94154200006083,-9.29012454587854,-2.139482800365,0.029932396,-0.00061086525,0.01282817,60.224983,102.596664,-9.950882,STD
261080180000,0.384994,-1.93959627578319,-9.28442061810045,-2.17051593475883,0.016493361,-0.016187929,0.014049901,60.304363,102.641045,-9.973978,STD
261085402000,0.390216,-1.92964897601193,-9.29436812560915,-2.20533148395823,-0.0012217305,-0.023823744,0.009468411,60.3808,102.68526,-9.99366,STD
261090147000,0.394961,-1.92928468214143,-9.30559885936876,-2.23051216428286,-0.016493361,-0.035430185,0.0061086523,60.451538,102.73783,-10.016368,STD
261095161000,0.399975,-1.93887678665601,-9.31998731662006,-2.24969637331203,-0.02107485,-0.036957346,0.0067195175,60.52231,102.79086,-10.03859,STD
261100177000,0.404991,-1.94791284225107,-9.34118372767663,-2.25630535774893,-0.038789943,-0.041233405,0.009773844,60.590954,102.851006,-10.060739,STD
261105185000,0.409999,-1.95626907788135,-9.37043072689259,-2.24794912211865,-0.051923547,-0.041233405,0.005497787,60.65954,102.9089,-10.0806675,STD
261110491000,0.415305,-1.96406387809572,-9.39184687946315,-2.22978692414535,-0.04795292,-0.028710667,0.007330383,60.732643,102.97104,-10.103955,STD
261115168000,0.419982,-1.96746656436566,-9.37937022101798,-2.1832835095923,-0.065973446,-0.047036625,0.011301007,60.796253,103.03807,-10.127682,STD
261120173000,0.424987,-1.97110788247151,-9.36601856920739,-2.13351879079007,-0.064446285,-0.04550946,0.010079277,60.862053,103.10141,-10.152626,STD
261125181000,0.429995,-1.97475138318562,-9.35265891440871,-2.08372424298557,-0.062308256,-0.04184427,0.007330383,60.92288,103.16728,-10.178505,STD
261130125000,0.434939,-1.97834832159028,-9.33946999002279,-2.03456604722968,-0.060170226,-0.043066,0.0018325958,60.98219,103.23091,-10.20301,STD
261135176000,0.43999,-1.98202310635604,-9.32599562572803,-1.9843439503925,-0.0720821,-0.049480084,0.005192355,61.040886,103.297035,-10.228954,STD
261140134000,0.444948,-1.98563023026589,-9.31276935406432,-1.93504655262598,-0.057421334,-0.04520403,0.008246681,61.103035,103.35558,-10.254227,STD
261145164000,0.449978,-1.98928973677387,-9.29935101068625,-1.88503325880476,-0.053450707,-0.04337143,0.005497787,61.16214,103.41665,-10.278786,STD
261150174000,0.454988,-1.99321181864473,-9.29444617783,-1.84214360677634,-0.065973446,-0.04062254,0.008246681,61.22226,103.479034,-10.304761,STD
261155185000,0.459999,-1.99791112777125,-9.31324380689385,-1.81864706114375,-0.067500606,-0.046120327,0.00580322,61.279747,103.53601,-10.3284,STD
261160143000,0.464957,-2.00024367021392,-9.33140956374559,-1.78702315602492,-0.05681047,-0.034513887,0.010995574,61.324604,103.57274,-10.352952,STD
261165160000,0.469974,-1.99413492534249,-9.34820864403547,-1.72440845730587,-0.047647487,-0.029932396,0.007330383,61.365025,103.606926,-10.374394,STD
261170183000,0.474997,-1.98801887481644,-9.3650278149137,-1.66171887555068,-0.034208454,-0.02443461,0.008857546,61.40587,103.63684,-10.397058,STD
261175169000,0.479983,-1.98194787582721,-9.38172309383046,-1.59949107251836,-0.028405234,-0.018325957,0.011301007,61.447685,103.665436,-10.418289,STD
261180167000,0.484981,-1.97586226552875,-9.39845855392391,-1.53711350341375,-0.01863139,-0.013439035,0.009773844,61.48648,103.692696,-10.441308,STD
261185140000,0.489954,-1.96980709545787,-9.41511030323257,-1.47504794695973,-0.01282817,-0.008552114,0.017104227,61.52716,103.72167,-10.466724,STD
261190126000,0.49494,-1.96373609646864,-9.43180558214933,-1.4128201439274,-0.004276057,0.008246681,0.003970624,61.57123,103.74319,-10.484684,STD
261195166000,0.49998,-1.94875993030336,-9.43798359073611,-1.36433414132869,-0.005192355,0.005497787,0.01160644,61.61193,103.7712,-10.510716,STD
261200963000,0.505777,-1.93047497101725,-9.44157768362077,-1.31294220192439,-0.0106901415,0.0067195175,0.018020526,61.62652,103.7685,-10.522154,STD
261205192000,0.510006,-1.91666310152002,-9.43763135866705,-1.2833453622625,-0.0036651916,-0.0021380284,0.011911872,61.636974,103.762825,-10.532483,STD
261210334000,0.515148,-1.89986938363052,-9.43283306050862,-1.24735885255773,-0.00030543262,0.0021380284,0.007941248,61.643604,103.754776,-10.54157,STD
261215164000,0.519978,-1.88409465445776,-9.42832590762935,-1.21355588836597,-0.002443461,0.0018325958,0.0106901415,61.6463,103.74687,-10.551134,STD
261220510000,0.525324,-1.86772045449491,-9.42333485312208,-1.17904149522708,0.0070249503,0.002443461,0.014049901,61.65535,103.73222,-10.555842,STD
261225171000,0.529985,-1.87211325721104,-9.41894218801358,-1.19880910744969,0.0036651916,0.005192355,0.0067195175,61.664375,103.71897,-10.5581,STD
261230519000,0.535333,-1.87715352945431,-9.41390207366038,-1.22149033254441,-0.007941248,0.0009162979,0.010079277,61.662888,103.69655,-10.559396,STD
261235179000,0.539993,-1.88154538971116,-9.40951035098165,-1.24125370370024,0.00030543262,0.00030543262,0.0061086523,61.6624,103.6686,-10.556259,STD
261240109000,0.544923,-1.88619171397432,-9.40486417226787,-1.26216216288442,-0.0018325958,-0.0030543262,0.0067195175,61.659363,103.649124,-10.560463,STD
261245173000,0.549987,-1.87822984564533,-9.39182315529905,-1.28094065257083,0.0012217305,-0.00580322,0.005497787,61.6559,103.62653,-10.562843,STD
261250139000,0.554953,-1.8691564146046,-9.37821272450634,-1.29908756202423,0.0021380284,-0.0018325958,0.0018325958,61.653217,103.60487,-10.564391,STD
261255323000,0.560137,-1.87583776504964,-9.40077548244806,-1.34842831412343,-0.005192355,-0.0070249503,0.0027488936,61.652954,103.592316,-10.569949,STD
261260159000,0.564973,-1.88531753268857,-9.42921488435165,-1.40056698664415,-0.010079277,-0.020463986,-0.0015271631,61.650906,103.5776,-10.573015,STD
261265182000,0.569996,-1.89808678224787,-9.41788062324814,-1.48416286224237,-0.022602014,-0.029626964,-0.003970624,61.65035,103.56794,-10.574798,STD
261270523000,0.575337,-1.91214280501053,-9.39913942264358,-1.57786945234955,-0.029321533,-0.039095376,-0.0027488936,61.645725,103.558266,-10.576881,STD
261275171000,0.579985,-1.9170566935704,-9.39145734205086,-1.60780316785197,-0.036957346,-0.046731193,-0.00580322,61.640717,103.55812,-10.579776,STD
261280102000,0.584916,-1.91949742133554,-9.38657578457722,-1.62000680667769,-0.05100725,-0.055283304,-0.007941248,61.63289,103.560715,-10.583557,STD
261285149000,0.589963,-1.92199556634277,-9.38157939022121,-1.63249753171387,-0.0421497,-0.058948494,-0.004581489,61.641663,103.573425,-10.593572,STD
261290135000,0.594949,-1.92446351780029,-9.37664338422576,-1.64483728900145,-0.057421334,-0.05955936,-0.004581489,61.648632,103.591354,-10.602062,STD
261295189000,0.600003,-1.94415844897079,-9.36800614124681,-1.7817525632131,-0.05589417,-0.0729984,-0.0061086523,61.65094,103.60478,-10.611512,STD
261300174000,0.604988,-1.96755599258969,-9.35864741697706,-1.94553551513429,-0.058337633,-0.06811147,0.0012217305,61.65878,103.62324,-10.622495,STD
261305290000,0.610104,-1.96522618387449,-9.34514673786119,-2.03557119219541,-0.05375614,-0.06261369,0.004581489,61.66613,103.64243,-10.633769,STD
261310221000,0.615035,-1.95584812791183,-9.33107936014298,-2.1012176818588,-0.039095376,-0.05467244,0.005497787,61.675877,103.66085,-10.645799,STD
261315172000,0.619986,-1.94273119507254,-9.33145587143572,-2.1310575811906,-0.032070424,-0.044898596,0.010995574,61.710327,103.7029,-10.66282,STD
261320203000,0.625017,-1.92826967491746,-9.33627647043522,-2.15033957450725,-0.024740042,-0.03970624,0.005192355,61.745102,103.73925,-10.676522,STD
261325195000,0.630009,-1.91392025956978,-9.34105970045023,-2.1694720950075,-0.016798794,-0.024740042,0.009468411,61.790165,103.786606,-10.694765,STD
261330174000,0.634988,-1.89960821249125,-9.34583047413707,-2.18855479123562,-0.008246681,-0.008857546,0.01038471,61.8363,103.82974,-10.709959,STD
261335187000,0.640001,-1.90689720990868,-9.35765332387799,-2.17170985459491,-0.0076358155,0.0067195175,0.008857546,61.88639,103.87261,-10.724839,STD
261340485000,0.645299,-1.92168390011657,-9.37243975675151,-2.14213657711288,-0.00030543262,0.022296581,0.0070249503,61.940636,103.91227,-10.739026,STD
261345179000,0.649993,-1.94557775430666,-9.38257399511301,-2.10810852241906,-0.018020526,0.027794369,0.01038471,62.00036,103.95609,-10.748369,STD
261350186000,0.655,-1.97486977483201,-9.39233820586439,-2.06905239309713,-0.01863139,0.023518313,0.006414085,62.060658,103.993095,-10.754976,STD
261355215000,0.660029,-1.98594750832756,-9.3983965824339,-2.02707682505199,-0.01985312,0.028099801,0.0106901415,62.123013,104.03242,-10.764821,STD
261360248000,0.665062,-1.99072026151104,-9.40316943529062,-1.98412204640063,-0.038179077,0.018020526,0.007941248,62.17878,104.07218,-10.772499,STD
261365190000,0.670004,-1.99519445883883,-9.40764338996749,-1.9309796014863,-0.04550946,0.016493361,0.0143553335,62.23547,104.11027,-10.785082,STD
261370194000,0.675008,-1.99964613623781,-9.41209469549466,-1.87310774881561,-0.04795292,-0.005192355,0.005192355,62.28205,104.14632,-10.79387,STD
261375181000,0.679995,-1.97929380404536,-9.3945247278578,-1.81771782650935,-0.05589417,-0.02687807,0.011301007,62.332546,104.17838,-10.804349,STD
261380182000,0.684996,-1.94015307318419,-9.36027689488201,-1.76389927048728,-0.06811147,-0.03848451,0.010079277,62.378315,104.20784,-10.810812,STD
261385181000,0.689995,-1.9191738173776,-9.34408174849769,-1.7372144173776,-0.070554934,-0.054367006,0.0106901415,62.408783,104.230934,-10.819382,STD
261390148000,0.694962,-1.90980174258694,-9.33939561324007,-1.72784234258694,-0.065973446,-0.063224554,0.015882496,62.43778,104.25537,-10.829068,STD
261395178000,0.699992,-1.90166135964678,-9.33463819701692,-1.71282991631048,-0.06261369,-0.05467244,0.021991149,62.45996,104.27087,-10.833964,STD
261400172000,0.704986,-1.89456330300287,-9.32990620043039,-1.69390180643613,-0.06261369,-0.064446285,0.013439035,62.473705,104.28384,-10.837392,STD
261405277000,0.710091,-1.88730748018205,-9.32506902730781,-1.67455298767191,-0.047647487,-0.06291912,0.0076358155,62.494553,104.292,-10.841582,STD
261410193000,0.715007,-1.88032028625705,-9.32041093855744,-1.65592051107153,-0.03604105,-0.05100725,0.0070249503,62.51523,104.299934,-10.844767,STD
261415177000,0.719991,-1.86690684761341,-9.32330709970414,-1.62945300832347,-0.029321533,-0.051618114,0.004581489,62.536224,104.30107,-10.842555,STD
261420206000,0.72502,-1.84790813865878,-9.3328064045858,-1.59620526765286,-0.0027488936,-0.039095376,0.008552114,62.56433,104.29785,-10.841004,STD
261425158000,0.729972,-1.84101265916113,-9.34644998932684,-1.58470461832225,0.01038471,-0.028710667,0.017104227,62.58893,104.29039,-10.840991,STD
261430157000,0.734971,-1.84549486337422,-9.36437871257373,-1.59366902674843,0.025045475,-0.011911872,0.0061086523,62.617737,104.274826,-10.8358,STD
261435157000,0.739971,-1.84084942081218,-9.37195697747462,-1.59372099060914,0.03268129,-0.015271631,0.0021380284,62.643543,104.251724,-10.82852,STD
261440183000,0.744997,-1.82048859306261,-9.36177688250846,-1.57845036979695,0.017715093,-0.004886922,0.01038471,62.67744,104.23133,-10.82055,STD
261445155000,0.749969,-1.8190689984061,-9.36333027927928,-1.56380694982675,0.017104227,-0.00030543262,0.002443461,62.711258,104.20153,-10.804475,STD
261450185000,0.754999,-1.83814485386595,-9.37763697168597,-1.54950010802891,0.020158553,0.007941248,-0.00030543262,62.748936,104.177734,-10.792031,STD
261455135000,0.759949,-1.85261625836218,-9.39170974789833,-1.53971967599644,0.007330383,0.007330383,0.0033597588,62.782337,104.153984,-10.777485,STD
261460188000,0.765002,-1.86218832252992,-9.40606764424884,-1.53493354396202,0.009773844,0.008552114,-0.007330383,62.81701,104.12421,-10.7582855,STD
261465124000,0.769938,-1.86647069841161,-9.414001,-1.52725599205804,-0.013133603,0.0018325958,-0.009773844,62.85001,104.102905,-10.742735,STD
261470178000,0.774992,-1.86409786052554,-9.414001,-1.51539180262771,-0.0012217305,-0.002443461,-0.01282817,62.88273,104.07333,-10.724519,STD
261475161000,0.779975,-1.86175835692715,-9.414001,-1.50369428463575,-0.01985312,-0.017715093,-0.009468411,62.909103,104.05536,-10.709563,STD
261480176000,0.78499,-1.85940382942445,-9.414001,-1.49192164712227,-0.021685716,-0.025045475,-0.006414085,62.93571,104.03231,-10.694134,STD
261485116000,0.78993,-1.86280073897939,-9.41563444710501,-1.47787136508342,-0.027488936,-0.02565634,-0.0076358155,62.95532,104.011116,-10.678493,STD
261490157000,0.794971,-1.87701368759568,-9.42037219558391,-1.45892081639843,-0.04917465,-0.034208454,-0.008246681,62.97021,103.99475,-10.665096,STD
261495102000,0.799916,-1.8885654354666,-9.42228835457817,-1.45512570075498,-0.04642576,-0.03390302,-0.008552114,62.983723,103.9764,-10.650496,STD
261500173000,0.804987,-1.89496050023264,-9.41802512645948,-1.48496923245545,-0.05131268,-0.03848451,-0.009468411,62.99301,103.96372,-10.636682,STD
261505575000,0.810389,-1.90177299083926,-9.41348362413309,-1.51676074463173,-0.05375614,-0.03604105,-0.004276057,63.0005,103.95312,-10.629311,STD
261510235000,0.815049,-1.90764974134404,-9.4095659268282,-1.54418548486524,-0.06963864,-0.03359759,-0.0106901415,63.005898,103.943535,-10.618911,STD
261515098000,0.819912,-1.91378249621631,-9.40547756588535,-1.57280490798876,-0.06047566,-0.02443461,-0.005497787,63.014565,103.933784,-10.61311,STD
261520203000,0.825017,-1.92563978729805,-9.4181294448468,-1.5870253581987,-0.06963864,-0.027183503,-0.0070249503,63.019722,103.92776,-10.604354,STD
261525176000,0.82999,-1.93890592278552,-9.43581753314763,-1.59586944852368,-0.058948494,-0.013744468,0.0018325958,63.032696,103.9201,-10.599145,STD
261530184000,0.834998,-1.95050143634775,-9.43952711489733,-1.60894115452163,-0.061086524,-0.004581489,-0.003970624,63.05195,103.92364,-10.593782,STD
261535192000,0.840006,-1.96097776103102,-9.43428884316295,-1.62465564154653,-0.055283304,-0.0036651916,-0.0009162979,63.0732,103.92772,-10.593386,STD
261540190000,0.845004,-1.9744056605796,-9.42199489479952,-1.6466575731441,-0.05375614,0.004581489,-0.0009162979,63.098606,103.93363,-10.591201,STD
261545179000,0.849993,-1.98863114346963,-9.40776960996427,-1.67036676080786,-0.061086524,0.013133603,-0.0009162979,63.12413,103.94087,-10.590011,STD
261550196000,0.85501,-1.98835494633619,-9.40804555119504,-1.68680376099144,-0.056505036,0.017104227,0.003970624,63.150238,103.95132,-10.592379,STD
261555346000,0.86016,-1.98350390669814,-9.41289618560047,-1.70135687990558,-0.062308256,0.0143553335,0.0061086523,63.17637,103.964424,-10.594062,STD
261560229000,0.865043,-1.98922314827619,-9.41058921089023,-1.68419911954288,-0.057726767,0.014966198,0.0015271631,63.208122,103.97953,-10.597709,STD
261565208000,0.870022,-1.9983814863536,-9.40601042437338,-1.65672405749544,-0.05497787,0.0015271631,0.0061086523,63.235172,103.99833,-10.605347,STD
261570203000,0.875017,-1.99530598905248,-9.40338387643325,-1.6534573218186,-0.05100725,-0.008246681,0.005497787,63.263943,104.01496,-10.6098995,STD
261575199000,0.880013,-1.98576515496693,-9.40179370421084,-1.66299817250823,-0.031154128,-0.007941248,0.0070249503,63.291706,104.02937,-10.616497,STD
261580179000,0.884993,-1.97625487599455,-9.40020862461365,-1.67250846803151,-0.04428773,-0.0027488936,0.0015271631,63.31939,104.04145,-10.618342,STD
261585180000,0.889994,-1.96670449343614,-9.39861686094586,-1.68205886721061,-0.032375857,-0.018936822,0.005497787,63.341095,104.047615,-10.624289,STD
261590135000,0.894949,-1.95724195682808,-9.39703973857556,-1.69152142028648,-0.023823744,-0.02565634,0.004886922,63.364285,104.05548,-10.626547,STD
261595801000,0.900615,-1.94642162737878,-9.39523631267241,-1.70234176856659,-0.011911872,-0.029626964,0.004886922,63.38353,104.06147,-10.630728,STD
261600182000,0.904996,-1.94115900937803,-9.39191514813021,-1.71053718124395,0.0018325958,-0.029626964,0.008246681,63.40137,104.06626,-10.635523,STD
261605293000,0.910107,-1.93641699961248,-9.38717303933346,-1.72002120077504,0.004276057,-0.02687807,0.006414085,63.41837,104.06983,-10.638885,STD
261610202000,0.915016,-1.94009650467842,-9.38806181062073,-1.72940670467842,0.008246681,-0.017104227,0.0067195175,63.435555,104.07785,-10.650171,STD
261615179000,0.919993,-1.94981289110182,-9.39292010528998,-1.73912309110182,0.01038471,-0.0125227375,0.0015271631,63.4515,104.08408,-10.659218,STD
261620195000,0.925009,-1.94604699986588,-9.3986587751971,-1.74774230381432,0.021380283,0.00061086525,0.0067195175,63.474056,104.08968,-10.666147,STD
261625189000,0.930003,-1.93353063318722,-9.4049169176944,-1.75556503911479,0.027794369,0.015577064,0.0012217305,63.49742,104.092354,-10.66826,STD
261630169000,0.934983,-1.92104935444077,-9.41115751634008,-1.76336584444045,0.015882496,0.019547688,0.003970624,63.51993,104.104324,-10.678872,STD
261635188000,0.940002,-1.90847033074029,-9.41744698714384,-1.77122774041022,0.01160644,0.02107485,0.011301007,63.545616,104.11355,-10.688536,STD
261640187000,0.945001,-1.89594143265727,-9.42371139530243,-1.77905830784455,0.0067195175,0.03481932,0.004886922,63.576145,104.12223,-10.694344,STD
261645184000,0.949998,-1.88341754713599,-9.4299732971965,-1.78688574242533,0.015271631,0.036957346,-0.007941248,63.603462,104.12935,-10.700699,STD
261650193000,0.955007,-1.87237370902256,-9.42379426691729,-1.77448150714286,-0.0012217305,0.03573562,-0.0012217305,63.633945,104.14489,-10.710209,STD
261655298000,0.960112,-1.8627002693708,-9.40444748862287,-1.74062441785714,-0.011911872,0.039095376,-0.002443461,63.664944,104.15336,-10.713577,STD
261660262000,0.965076,-1.86246499383394,-9.39370685271052,-1.71697845924909,-0.0125227375,0.03604105,-0.008246681,63.69379,104.161736,-10.713945,STD
261665564000,0.970378,-1.87242013423194,-9.39121801563572,-1.70204574865209,-0.025961773,0.03726278,-0.015577064,63.724293,104.1739,-10.713307,STD
261670142000,0.974956,-1.88101587786492,-9.38906903484952,-1.68915213320263,-0.035124753,0.017104227,-0.008857546,63.75227,104.17818,-10.713392,STD
261675194000,0.980008,-1.89050161330262,-9.38669755146554,-1.67492353004607,-0.03940081,0.016493361,-0.013439035,63.78479,104.1803,-10.707579,STD
261680120000,0.984934,-1.90599817607861,-9.38438093897754,-1.66547435756501,-0.0580322,-0.00061086525,-0.016798794,63.80762,104.18918,-10.708368,STD
261685177000,0.989991,-1.93223582182821,-9.38199565090622,-1.66308911930654,-0.059864793,-0.011301007,-0.022296581,63.8314,104.19438,-10.707139,STD
261690177000,0.994991,-1.95817772982664,-9.37963724862096,-1.66073076627266,-0.06261369,-0.013744468,-0.020463986,63.850216,104.20256,-10.708907,STD
261695185000,0.999999,-1.98416114487786,-9.37727507289204,-1.65836863987392,-0.07269296,-0.016798794,-0.01985312,63.86527,104.21098,-10.709402,STD
261700171000,1.004985,-2.00308346394052,-9.37467345600991,-1.65882875192069,-0.083383106,-0.035430185,-0.022296581,63.87575,104.22024,-10.71291,STD
261705296000,1.01011,-2.00788498027783,-9.37147254539229,-1.66523077370378,-0.08979719,-0.038179077,-0.01985312,63.890015,104.23166,-10.7173395,STD
261710215000,1.015029,-2.01249349908041,-9.3684002957673,-1.67137546544055,-0.09162979,-0.049785517,-0.017715093,63.898415,104.24846,-10.727932,STD
261715187000,1.020001,-2.01715167258853,-9.36529494404226,-1.67758636345138,-0.09285152,-0.053145275,-0.012217305,63.908623,104.26723,-10.739665,STD
261720192000,1.025006,-2.02184076317746,-9.36216898157569,-1.68383848423661,-0.089491755,-0.048563786,-0.016187929,63.917427,104.283455,-10.749215,STD
261725180000,1.029994,-2.02651392678536,-9.35905363676384,-1.69006936904715,-0.08124508,-0.056505036,-0.0061086523,63.92262,104.30277,-10.76471,STD
261730182000,1.034996,-2.02752084134342,-9.35838238142001,-1.69877767820878,-0.06414085,-0.048563786,-0.0061086523,63.9304227560789,104.309577240283,-10.7687562282213,STD
261735626000,1.04044,-2.01216109494255,-9.36862189158401,-1.7192573400766,-0.0580322,-0.02443461,0.005192355,63.938915,104.316986,-10.77316,STD
261740182000,1.044996,-2.0038182427977,-9.3794700713295,-1.7364228570636,-0.05100725,-0.0143553335,0.00061086525,63.94636,104.33101,-10.781128,STD
261745182000,1.049996,-2.01804966740638,-9.40318911234397,-1.75539808987517,-0.036957346,-0.0027488936,0.0076358155,63.961456,104.35219,-10.798211,STD
261750199000,1.055013,-2.02894894610094,-9.42224398789111,-1.76970811915141,-0.02443461,0.01282817,0.004276057,63.98112,104.36927,-10.808877,STD
261755193000,1.060007,-2.01968293056282,-9.41297826261746,-1.75580909584423,-0.018020526,0.02565634,0.010995574,64.004005,104.38822,-10.8236475,STD
261760212000,1.065026,-2.01230966653274,-9.40639211088791,-1.73904457411611,-0.013439035,0.030848695,0.007941248,64.03054,104.40507,-10.835583,STD
261765181000,1.069995,-2.02664889489755,-9.43029082482925,-1.69124709632382,-0.02443461,0.03756821,0.008552114,64.06136,104.42565,-10.849482,STD
261770191000,1.075005,-2.03946355657504,-9.45191274829997,-1.64602196972512,-0.020463986,0.026572637,0.010995574,64.08537,104.435844,-10.850652,STD
261775166000,1.07998,-2.03490033657696,-9.4473494330045,-1.63233230973087,-0.015271631,0.01863139,0.013439035,64.111824,104.44796,-10.851744,STD
261780471000,1.085285,-2.02930271187913,-9.44371228300283,-1.61651972631728,-0.021991149,0.029321533,0.018936822,64.13755,104.45676,-10.856843,STD
261785171000,1.089985,-2.01230140498584,-9.46071350113314,-1.58251715691218,-0.028710667,0.017104227,0.016798794,64.15385,104.4635,-10.861923,STD
261790171000,1.094985,-1.99421490829084,-9.47879990339943,-1.54634421073654,-0.046120327,0.002443461,0.02443461,64.1711,104.474655,-10.870043,STD
261795167000,1.099981,-1.98237455739668,-9.47692423903014,-1.5446091978502,-0.05467244,-0.009773844,0.027794369,64.18498,104.484,-10.876781,STD
261800154000,1.104968,-1.97143523894506,-9.47223602496646,-1.54773470108962,-0.059864793,-0.01038471,0.018325957,64.1976,104.494675,-10.8820505,STD
261805231000,1.110045,-1.96029849946664,-9.46746320306927,-1.55091661004221,-0.06505715,-0.019242255,0.015882496,64.20038,104.500465,-10.887657,STD
261810111000,1.114925,-1.94959389268021,-9.46287557831877,-1.55397505315598,-0.0693332,-0.020463986,0.021685716,64.20508,104.50674,-10.89254,STD
261815166000,1.11998,-1.93850541167501,-9.45812343833644,-1.55714317404535,-0.06963864,-0.03145956,0.01985312,64.203926,104.510956,-10.895427,STD
261820171000,1.124985,-1.92752660901803,-9.45341830270606,-1.56027995842741,-0.067500606,-0.037873644,0.021380283,64.20419,104.51735,-10.900652,STD
261825169000,1.129983,-1.90991742651741,-9.42977782017048,-1.55350917207559,-0.06841691,-0.032986723,0.0143553335,64.20181,104.52387,-10.904987,STD
261830150000,1.134964,-1.8903211790798,-9.40038342343638,-1.54371112508986,-0.046731193,-0.029626964,0.017715093,64.19786,104.52805,-10.9128475,STD
261835180000,1.139994,-1.88283432321256,-9.38345822999419,-1.56464542108119,-0.04550946,-0.043676864,0.022907447,64.18718,104.53456,-10.916281,STD
261840114000,1.144928,-1.87825653487696,-9.36972481718659,-1.59211210329394,-0.036651913,-0.037873644,0.01863139,64.183,104.53413,-10.916801,STD
261845180000,1.149994,-1.8871486,-9.37284710810811,-1.59259705675676,-0.032070424,-0.027488936,0.022296581,64.17569,104.53494,-10.919744,STD
261850139000,1.154953,-1.90042675,-9.38169913108108,-1.58374498756757,-0.02565634,-0.021991149,0.01863139,64.1682,104.53121,-10.919305,STD
261855198000,1.160012,-1.90432953167387,-9.38381591648035,-1.58890341879565,-0.016493361,-0.03481932,0.015882496,64.161476,104.53045,-10.918751,STD
261860205000,1.165019,-1.90194708330601,-9.38143344323545,-1.60319795974065,-0.003970624,-0.034513887,0.01038471,64.15983,104.52647,-10.915554,STD
261865178000,1.169992,-1.89958081293784,-9.37906714815919,-1.617395433701,-0.003970624,-0.032375857,0.011301007,64.15455,104.52377,-10.914985,STD
261870215000,1.175029,-1.89718408986436,-9.37667040005962,-1.63177562198539,0.004581489,-0.022296581,0.015882496,64.15159,104.516846,-10.913553,STD
261875190000,1.180004,-1.89039821854312,-9.38150360278095,-1.65506237470167,0.0018325958,-0.0033597588,0.016187929,64.15167,104.51143,-10.910692,STD
261880187000,1.185001,-1.88046664863547,-9.39143538009754,-1.68485713627685,0.0125227375,-0.005192355,0.01985312,64.14904,104.50378,-10.910616,STD
261885188000,1.190002,-1.87392020421005,-9.394848,-1.69979564368492,0.0076358155,-0.01038471,0.0070249503,64.14668,104.5048,-10.910873,STD
261890193000,1.195007,-1.8691439714364,-9.394848,-1.7069599928454,-0.00030543262,-0.018936822,0.004581489,64.14354,104.50738,-10.915205,STD
261895177000,1.199991,-1.86438777880026,-9.394848,-1.71409428179961,0.0067195175,-0.017715093,0.01038471,64.144165,104.50938,-10.917545,STD
261900224000,1.205038,-1.85957146575158,-9.394848,-1.72131875137263,0.00580322,-0.02076942,0.004886922,64.140495,104.511284,-10.916611,STD
261905259000,1.210073,-1.83280307460349,-9.40739664718205,-1.75205983632918,-0.0070249503,-0.022602014,0.0030543262,64.139496,104.51387,-10.914142,STD
261910238000,1.215052,-1.79475189279801,-9.42642213875312,-1.79486746552618,-0.0018325958,-0.025961773,-0.0015271631,64.13677,104.511475,-10.90969,STD
261915181000,1.219995,-1.77731944891602,-9.43414668089193,-1.81398314072917,-0.0021380284,-0.02443461,0.0033597588,64.1366,104.515,-10.906779,STD
261921112000,1.225926,-1.76992359617188,-9.43599567786458,-1.82137897416667,-0.005497787,-0.025045475,0.00580322,64.13455,104.516594,-10.902336,STD
261925171000,1.229985,-1.76486209452148,-9.43726107639974,-1.82644046260417,-0.01038471,-0.014966198,0.007330383,64.13255,104.52596,-10.902545,STD
261930159000,1.234973,-1.75864214620117,-9.43881609189453,-1.8326603946875,-0.02321288,-0.016493361,0.0070249503,64.12726,104.537285,-10.903472,STD
261935143000,1.239957,-1.75242718581055,-9.44036986038411,-1.83887533885417,-0.03176499,-0.014660766,0.004886922,64.12593,104.54837,-10.903645,STD
261940146000,1.24496,-1.74618853275391,-9.44192955214844,-1.845113975625,-0.03940081,-0.008857546,0.0009162979,64.12535,104.56089,-10.903082,STD
261945172000,1.249986,-1.74407405716418,-9.44382728003731,-1.84503792850746,-0.0421497,-0.0125227375,-0.0018325958,64.124985,104.57062,-10.89775,STD
261950143000,1.254957,-1.74629449899254,-9.44604776823694,-1.83837660302239,-0.04428773,-0.0143553335,-0.0021380284,64.12681,104.58114,-10.891866,STD
261955463000,1.260277,-1.74867083182836,-9.44842415069963,-1.83124760451493,-0.04550946,-0.0030543262,-0.00580322,64.13233,104.58957,-10.8791,STD
261960160000,1.264974,-1.75076888358209,-9.45052224626866,-1.82495344925373,-0.05375614,0.004581489,0.00030543262,64.13681,104.601616,-10.8697,STD
261965162000,1.269976,-1.75485734790118,-9.45307618253778,-1.81652431348045,-0.067500606,-0.0143553335,-0.007330383,64.13605,104.611115,-10.856613,STD
261970188000,1.275002,-1.76640284186456,-9.45692434564644,-1.80113037510994,-0.058643065,-0.01282817,-0.0106901415,64.143875,104.61995,-10.845527,STD
261975171000,1.279985,-1.77784955822339,-9.46073958575198,-1.78586813975374,-0.06811147,-0.0106901415,-0.004581489,64.14932,104.62989,-10.832112,STD
261980159000,1.284973,-1.79021651874624,-9.4563034882836,-1.76900676256759,-0.06566802,-0.016187929,-0.005497787,64.15248,104.633675,-10.816675,STD
261985166000,1.28998,-1.80302138892449,-9.44830044442219,-1.7514000493591,-0.06414085,-0.019242255,-0.009162978,64.15712,104.64011,-10.802504,STD
261990922000,1.295736,-1.81774174697243,-9.43910022064223,-1.73115953782963,-0.0720821,-0.02443461,-0.010079277,64.15797,104.646965,-10.790583,STD
261995161000,1.299975,-1.82858253880099,-9.43232472574938,-1.71625343491555,-0.07544186,-0.032375857,-0.009162978,64.157104,104.65222,-10.778918,STD
262000181000,1.304995,-1.84142065509714,-9.42430090306429,-1.69860100825155,-0.0729984,-0.04337143,-0.007330383,64.153946,104.65916,-10.772048,STD
262005305000,1.310119,-1.85452474033647,-9.41611084978971,-1.68058287394352,-0.07819075,-0.04153884,-0.009468411,64.15218,104.6674,-10.764348,STD
262010216000,1.31503,-1.86448111400689,-9.41071096785304,-1.68581212101033,-0.07238753,-0.029932396,-0.0070249503,64.14535,104.67594,-10.756476,STD
262015193000,1.320007,-1.8736016141217,-9.40615109873708,-1.69949287118255,-0.06963864,-0.018936822,-0.011301007,64.13868,104.68393,-10.746348,STD
262020186000,1.325,-1.88938557605094,-9.40750760343757,-1.707754460965,-0.069027774,-0.0106901415,0.00061086525,64.132095,104.69285,-10.744533,STD
262025177000,1.329991,-1.90918177964382,-9.41245622799752,-1.71270349894388,-0.058948494,-0.0030543262,0.0009162979,64.127846,104.69589,-10.737951,STD
262030169000,1.334983,-1.90931545774428,-9.42004703695192,-1.71727135534516,-0.051923547,-0.0009162979,-0.0009162979,64.128456,104.70323,-10.734013,STD
262035171000,1.339985,-1.9005088755768,-9.42885375705488,-1.72167462343965,-0.05131268,0.003970624,0.004276057,64.13245,104.71127,-10.731812,STD
262040172000,1.344986,-1.89873714865256,-9.42809604987093,-1.71370751103769,-0.04337143,0.0030543262,0.002443461,64.13632,104.716934,-10.729577,STD
262045170000,1.349984,-1.9036793630253,-9.4182115179143,-1.69393885996902,-0.04153884,0.013439035,0.005192355,64.14531,104.72557,-10.729384,STD
262050150000,1.354964,-1.90711168548654,-9.41267402537183,-1.68419091451346,-0.03145956,0.021380283,0.01160644,64.15318,104.73058,-10.728841,STD
262055239000,1.360053,-1.90948051678818,-9.41030539195101,-1.68182208321182,-0.035124753,0.016798794,0.0070249503,64.15993,104.73612,-10.726212,STD
262060171000,1.364985,-1.91177626761933,-9.40800983289589,-1.67952633238067,-0.0290161,0.02107485,0.008552114,64.16942,104.73857,-10.724744,STD
262065170000,1.369984,-1.91410320565763,-9.40568308923885,-1.67719939434237,-0.032375857,0.022602014,0.0106901415,64.176506,104.74275,-10.722698,STD
262070163000,1.374977,-1.91308073527454,-9.40898618656406,-1.66909918200915,-0.034208454,0.0125227375,0.008246681,64.18088,104.74445,-10.718653,STD
262075177000,1.379991,-1.9080871750416,-9.41897299417637,-1.65411844916805,-0.018020526,0.015577064,0.004886922,64.18941,104.74357,-10.714411,STD
262080171000,1.384985,-1.90062383815552,-9.40551558951175,-1.65237146184448,-0.013439035,0.011301007,0.0027488936,64.19264,104.74511,-10.711386,STD
262085171000,1.389985,-1.89100273106289,-9.37184219188266,-1.66199256893711,-0.017104227,0.011911872,0.01038471,64.198395,104.74653,-10.709942,STD
262090184000,1.394998,-1.89167608111186,-9.35401836334807,-1.6663644,-0.017104227,0.018936822,0.015577064,64.2022,104.74268,-10.706077,STD
262095194000,1.400008,-1.90089766351624,-9.3494074878916,-1.6663644,-0.028099801,0.019242255,0.013133603,64.20419,104.741806,-10.702644,STD
262100180000,1.404994,-1.91007507067557,-9.34481870046127,-1.6663644,-0.02321288,0.02076942,0.01282817,64.21145,104.74049,-10.700258,STD
262105197000,1.410011,-1.91930953752643,-9.34020138266385,-1.6663644,-0.015271631,0.013744468,0.017715093,64.216385,104.741356,-10.699224,STD
262110175000,1.414989,-1.92963103242305,-9.34020270925425,-1.66542583351539,-0.022296581,0.00580322,0.016493361,64.22103,104.742935,-10.696523,STD
262115170000,1.419984,-1.94183972927365,-9.34752795286101,-1.66298409414527,-0.021685716,-0.0015271631,0.018325957,64.22418,104.74319,-10.696468,STD
262120181000,1.424995,-1.9540875330611,-9.35487666071155,-1.66053453338778,-0.027488936,0.0018325958,0.021685716,64.229355,104.74851,-10.69877,STD
262125177000,1.429991,-1.96629867409525,-9.36220337083355,-1.65809230518095,-0.025045475,-0.006414085,0.023518313,64.2291,104.752106,-10.702093,STD
262130333000,1.435147,-1.9728222,-9.38109272584155,-1.66369923714452,-0.020158553,-0.00061086525,0.024740042,64.227325,104.76165,-10.709713,STD
262135171000,1.439985,-1.9728222,-9.41022426690366,-1.67714455298897,-0.040317107,-0.0012217305,0.025350908,64.22158,104.77555,-10.718171,STD
262140110000,1.444924,-1.9728222,-9.43996396952989,-1.69087055856065,-0.032986723,-0.00061086525,0.030543262,64.21533,104.7867,-10.729496,STD
262145171000,1.449985,-1.9728222,-9.47043828315438,-1.70493561508996,-0.038179077,0.006414085,0.025961773,64.210526,104.80186,-10.737658,STD
262150146000,1.45496,-1.96522140856221,-9.48833571732968,-1.71576855670022,-0.0421497,-0.004886922,0.03481932,64.20181,104.81879,-10.75165,STD
262155254000,1.460068,-1.94131448573942,-9.48116349819177,-1.72054993627211,-0.038179077,0.0036651916,0.04062254,64.20059,104.83317,-10.761876,STD
262160198000,1.465012,-1.91817513052488,-9.4742215539048,-1.72517780248265,-0.043676864,0.0030543262,0.04153884,64.19216,104.85269,-10.771612,STD
262165169000,1.469983,-1.89490940747239,-9.46724169851432,-1.72983094223439,-0.03145956,0.006414085,0.04062254,64.18777,104.86823,-10.781519,STD
262170188000,1.475002,-1.86981913492291,-9.46291858802438,-1.73443556643958,-0.026572637,0.02076942,0.043982297,64.19119,104.88475,-10.792443,STD
262175178000,1.479992,-1.83983368996056,-9.46720231247759,-1.73871920143421,-0.044593163,0.02443461,0.047036625,64.19256,104.9027,-10.803101,STD
262180417000,1.485231,-1.80854505049459,-9.46999054793381,-1.74420500834797,-0.034513887,0.027488936,0.04642576,64.19706,104.91085,-10.808175,STD
262185171000,1.489985,-1.78329136475918,-9.44473681824906,-1.76524975378571,-0.023823744,0.03573562,0.048563786,64.20443,104.92329,-10.814309,STD
262190166000,1.49498,-1.75675746483313,-9.4182028721457,-1.78736134475363,-0.019242255,0.053450707,0.038179077,64.21063,104.931755,-10.816444,STD
262195172000,1.499986,-1.73260590542651,-9.4020313499061,-1.76692322484926,-0.0076358155,0.056505036,0.040927973,64.21579,104.93969,-10.823051,STD
262200186000,1.505,-1.70887452497776,-9.38779271987743,-1.73844551875062,0.0076358155,0.05100725,0.04337143,64.22292,104.94369,-10.826165,STD
262205219000,1.510033,-1.68864259293358,-9.37324941207349,-1.74943100706642,0.018936822,0.04520403,0.04734206,64.23324,104.948586,-10.828682,STD
262210110000,1.514924,-1.66972875130224,-9.35906422834646,-1.76834484869776,0.0290161,0.049480084,0.046120327,64.24459,104.95014,-10.830158,STD
262215168000,1.519982,-1.64651891649678,-9.37241727075705,-1.77567832985651,0.03756821,0.05131268,0.041233405,64.248405,104.94386,-10.826544,STD
262220201000,1.525015,-1.62266927025235,-9.39149684829292,-1.78044829895101,0.036957346,0.049480084,0.04428773,64.252625,104.939,-10.824871,STD
262225199000,1.530013,-1.61454630547179,-9.40861685761358,-1.78915408905642,0.041233405,0.04886922,0.035124753,64.25504,104.932045,-10.819901,STD
262230183000,1.534997,-1.60978037724413,-9.42529745711433,-1.79868594551173,0.04520403,0.051923547,0.034208454,64.2585,104.92774,-10.818048,STD
262235141000,1.539955,-1.6050393114029,-9.44189103904144,-1.80816807719421,0.041233405,0.055283304,0.034513887,64.2601,104.920006,-10.811104,STD
262240162000,1.544976,-1.60023800208687,-9.45869547124314,-1.81777069582626,0.03756821,0.05222898,0.03573562,64.260635,104.91168,-10.8045225,STD
262245499000,1.550313,-1.60350386557556,-9.47023950562133,-1.81541613442444,0.028710667,0.04917465,0.030848695,64.266655,104.902336,-10.798157,STD
262250175000,1.554989,-1.60795925477067,-9.47915047010248,-1.81096074522933,0.017104227,0.040317107,0.028405234,64.270134,104.89531,-10.793403,STD
262255207000,1.560021,-1.59762184161889,-9.47727836867166,-1.81753760558741,0.016493361,0.046120327,0.022296581,64.27987,104.8836,-10.780347,STD
262260161000,1.564975,-1.58379127106209,-9.47266808220776,-1.8267579859586,0.011911872,0.04550946,0.019547688,64.285095,104.87544,-10.768689,STD
262265162000,1.569976,-1.60131853742551,-9.45736511531585,-1.83974281871275,-0.00030543262,0.03023783,0.014966198,64.28657,104.867004,-10.755777,STD
262270185000,1.574999,-1.62998615744934,-9.43825346841478,-1.85407662872467,-0.01282817,0.027183503,0.009468411,64.29102,104.85909,-10.741664,STD
262275184000,1.579998,-1.65172805894419,-9.44020220824535,-1.86142403053796,-0.0143553335,0.026572637,0.004581489,64.29232,104.84974,-10.723441,STD
262280186000,1.585,-1.67099534045249,-9.44983602503771,-1.86624083834087,-0.015882496,0.028710667,0.005192355,64.29348,104.843094,-10.705823,STD
262285183000,1.589997,-1.7079920688633,-9.44874771797696,-1.84967126174261,-0.014966198,0.038179077,0.0036651916,64.302086,104.84154,-10.695864,STD
262290212000,1.595026,-1.75140273934902,-9.44392420941412,-1.82555422258388,-0.02687807,0.03756821,0.003970624,64.30844,104.84342,-10.6873045,STD
262295183000,1.599997,-1.77227417672569,-9.44949294915254,-1.80607097809866,-0.03481932,0.044898596,0.0061086523,64.32085,104.84651,-10.679608,STD
262300221000,1.605035,-1.78597972156046,-9.45862966101695,-1.78779698192406,-0.03970624,0.054061573,0.0036651916,64.33327,104.8505,-10.670947,STD
262305243000,1.610057,-1.8151229989893,-9.44369017907958,-1.76612350646649,-0.04428773,0.04886922,-0.0036651916,64.34291,104.856804,-10.666257,STD
262310263000,1.615077,-1.85286260138357,-9.41538587135708,-1.74253620571092,-0.05009095,0.046731193,0.0027488936,64.356476,104.86661,-10.664337,STD
262315967000,1.620781,-1.89560643973245,-9.39036033834586,-1.73691813787716,-0.048563786,0.04886922,-0.0015271631,64.36632,104.87165,-10.660897,STD
262320197000,1.625011,-1.92725172193145,-9.37453759398496,-1.74087379298897,-0.06536258,0.050701816,0.00061086525,64.37606,104.883995,-10.661259,STD
262325188000,1.630002,-1.95183462443199,-9.36869836062752,-1.73781691704534,-0.064751714,0.051923547,-0.0015271631,64.38573,104.89266,-10.663455,STD
262330185000,1.634999,-1.9659553885512,-9.37340513455296,-1.7284030742992,-0.06566802,0.046731193,0.007330383,64.39471,104.90744,-10.669576,STD
262335145000,1.639959,-1.98229556063731,-9.3745098670153,-1.71316765691804,-0.065973446,0.04520403,0.009162978,64.40767,104.92525,-10.677681,STD
262340163000,1.644977,-2.00108501663653,-9.37216125858951,-1.69202949439421,-0.07269296,0.037873644,0.014049901,64.418045,104.94657,-10.6895,STD
262345135000,1.649949,-2.01970222971507,-9.36983417985436,-1.67108510538097,-0.052839845,0.041233405,0.015577064,64.440895,104.95704,-10.702482,STD
262350146000,1.65496,-2.03846547483505,-9.36748884768584,-1.64997643013049,-0.047036625,0.048258353,0.022296581,64.46298,104.97345,-10.718137,STD
262355153000,1.659967,-2.04656866897679,-9.37376532604412,-1.63572194598452,-0.042455133,0.040011674,0.02321288,64.48117,104.985115,-10.732861,STD
262360179000,1.664993,-2.03962874537415,-9.39227181313981,-1.63109533024944,-0.038179077,0.03634648,0.017104227,64.50235,104.9955,-10.74651,STD
262365101000,1.669915,-2.03283242544336,-9.41039535661076,-1.62656445029557,-0.027183503,0.03756821,0.021685716,64.5268,105.00028,-10.76478,STD
262370185000,1.674999,-2.02581241517758,-9.42911540842024,-1.62188444345172,-0.01160644,0.049785517,0.018936822,64.55223,105.00064,-10.778491,STD
262375147000,1.679961,-2.02314011478838,-9.44394891927214,-1.61665486390872,-0.016187929,0.059864793,0.02107485,64.57752,105.00492,-10.794492,STD
262380171000,1.684985,-2.03281415584598,-9.44878578827787,-1.60939933311551,-0.0061086523,0.04886922,0.027794369,64.59988,105.00387,-10.811113,STD
262385241000,1.690055,-2.04257677291646,-9.45366694390268,-1.60207737031266,-0.005497787,0.051923547,0.02443461,64.625145,104.999756,-10.821034,STD
262390151000,1.694965,-2.05203129950739,-9.4583940591133,-1.59498647536946,0.00061086525,0.049785517,0.024129177,64.64586,104.99491,-10.83419,STD
262395137000,1.699951,-2.05643608764223,-9.46059645146928,-1.59103855617889,-0.0021380284,0.04520403,0.031154128,64.66913,104.991394,-10.84759,STD
262400161000,1.704975,-2.0469151925794,-9.45583640160285,-1.5957990037103,-0.00580322,0.039095376,0.0290161,64.69035,104.9853,-10.858236,STD
262405270000,1.710084,-2.03465401715855,-9.4484045813315,-1.60323103713109,-0.003970624,0.031154128,0.030543262,64.70881,104.98085,-10.873263,STD
262410208000,1.715022,-2.01610700729483,-9.43449403343465,-1.61714129452888,-0.0027488936,0.036957346,0.027794369,64.72874,104.976204,-10.885705,STD
262415197000,1.720011,-1.99212437957581,-9.42043530361351,-1.63329501117439,-0.008246681,0.04886922,0.032375857,64.74387,104.97768,-10.902092,STD
262420218000,1.725032,-1.94962968051846,-9.40627060113904,-1.65690322662019,-0.013439035,0.040011674,0.02565634,64.753716,104.97608,-10.914863,STD
262425162000,1.729976,-1.91276719121267,-9.39398324868846,-1.68199433276836,-0.0018325958,0.04428773,0.030543262,64.772514,104.97644,-10.929242,STD
262430145000,1.734959,-1.89832368016546,-9.38916866121872,-1.71569574124294,-0.004581489,0.057726767,0.02443461,64.79021,104.97698,-10.938299,STD
262435175000,1.739989,-1.88379149948402,-9.38621748660448,-1.74392526683866,0.003970624,0.054367006,0.03176499,64.80615,104.976524,-10.949249,STD
262440171000,1.744985,-1.86954888404445,-9.390965124231,-1.74867280531852,0.0030543262,0.052534413,0.034513887,64.82548,104.97641,-10.956295,STD
262445155000,1.749969,-1.85868103788346,-9.39406744581594,-1.75333613788346,-0.0015271631,0.04886922,0.030543262,64.84673,104.97888,-10.963549,STD
262450153000,1.754967,-1.86302527879833,-9.3897231141768,-1.75768037879833,0.0070249503,0.055588737,0.025961773,64.87019,104.979546,-10.970761,STD
262455501000,1.760315,-1.86818276179922,-9.38550615884398,-1.76095663033464,0.0070249503,0.05497787,0.01985312,64.892334,104.98057,-10.978674,STD
262460177000,1.764991,-1.88277895371578,-9.3903716577575,-1.73662964380704,0.012217305,0.061086524,0.02321288,64.91816,104.9802,-10.98711,STD
262465146000,1.76996,-1.89743753422218,-9.39546292674239,-1.71240365829804,0.004276057,0.03970624,0.02107485,64.935875,104.981514,-10.994368,STD
262470171000,1.774985,-1.90670277705044,-9.40009562071621,-1.69850586661533,-0.004276057,0.026572637,0.011911872,64.95708,104.9814,-10.999698,STD
262475256000,1.78007,-1.91500442652357,-9.40406801906861,-1.68444707957072,-0.0070249503,0.013133603,0.011911872,64.96981,104.98141,-11.008652,STD
262480189000,1.785003,-1.91047756236106,-9.39954106036796,-1.67086648708317,-0.019547688,0.004276057,0.013439035,64.979454,104.983475,-11.015718,STD
262485523000,1.790337,-1.90684665060994,-9.39421076741607,-1.65721242024398,-0.020158553,0.009162978,0.011301007,64.987434,104.98193,-11.022014,STD
262490155000,1.794969,-1.92920764345196,-9.3807941250126,-1.66615681738078,-0.028405234,-0.0030543262,0.013744468,64.988205,104.98556,-11.031093,STD
262495453000,1.800267,-1.95347151841425,-9.36631457541203,-1.67574411841425,-0.029932396,-0.009162978,0.01038471,64.989815,104.98417,-11.036355,STD
262500165000,1.804979,-1.94945139533185,-9.37033457256125,-1.67172399533185,-0.03023783,-0.014660766,0.010995574,64.98841,104.98544,-11.04377,STD
262505262000,1.810076,-1.94510280293987,-9.37468302873051,-1.66737540293987,-0.03573562,-0.013439035,0.010995574,64.99079,104.98886,-11.047358,STD
262510251000,1.815065,-1.94589117504692,-9.3828914626099,-1.68795691935197,-0.03604105,-0.0015271631,0.007330383,64.9945,104.99061,-11.049707,STD
262515100000,1.819914,-1.94818485790774,-9.39206614615233,-1.71548113763212,-0.03481932,-0.0036651916,0.008857546,64.994804,104.994156,-11.054074,STD
262520188000,1.825002,-1.95059159298627,-9.40169303620468,-1.74436198370542,-0.028099801,0.002443461,0.014966198,64.99994,104.99552,-11.056855,STD
262525163000,1.829977,-1.95294487659785,-9.41110612150548,-1.77260141161711,-0.029626964,0.012217305,0.0143553335,65.00521,104.99713,-11.058069,STD
262530183000,1.834997,-1.96141258331789,-9.41709865801668,-1.77354210050973,-0.025961773,0.023518313,0.009468411,65.012695,104.99685,-11.059338,STD
262535178000,1.839992,-1.97249602075996,-9.42153212557924,-1.76245863992122,-0.023823744,0.025350908,0.0125227375,65.02052,104.998726,-11.06262,STD
262540153000,1.844967,-1.98353508007414,-9.42594784151992,-1.75141955755329,-0.035430185,0.036957346,0.016187929,65.04054,105.008965,-11.065355,STD
262545224000,1.850038,-1.99478715440222,-9.4304487652456,-1.7401674597266,-0.029626964,0.03940081,0.014049901,65.05808,105.01482,-11.067679,STD
262550146000,1.85496,-1.99975509059024,-9.42955990610282,-1.72980698118048,-0.030848695,0.03604105,0.015882496,65.07744,105.025795,-11.071873,STD
262555243000,1.860057,-1.99486352333901,-9.41977656729131,-1.72002384667802,-0.034208454,0.039095376,0.015577064,65.09884,105.03514,-11.07445,STD
262560135000,1.864949,-1.99556698080255,-9.40861430379369,-1.70347485759235,-0.052534413,0.02565634,0.01038471,65.112114,105.04572,-11.078803,STD
262565188000,1.870002,-2.00520385631783,-9.39415919177537,-1.6745642310465,-0.04642576,0.01160644,0.01160644,65.12616,105.05349,-11.084715,STD
262570364000,1.875178,-2.00339015609804,-9.37946664788595,-1.65872241097549,-0.04062254,0.014660766,0.018325957,65.14005,105.06343,-11.0899725,STD
262575190000,1.880004,-1.98533815461381,-9.36592783526999,-1.66323541134655,-0.04337143,0.017104227,0.018020526,65.14937,105.07246,-11.094262,STD
262580114000,1.884928,-1.97583454671849,-9.35729406308865,-1.6663644,-0.03940081,0.0070249503,0.018325957,65.14934,105.084564,-11.112744,STD
262585191000,1.890005,-1.98552636185778,-9.35971694097274,-1.6663644,-0.03726278,-0.0030543262,0.019547688,65.150055,105.09734,-11.130731,STD
262590126000,1.89494,-1.99494710397169,-9.36207205272338,-1.6663644,-0.03604105,-0.002443461,0.018936822,65.15071,105.10819,-11.145748,STD
262595185000,1.899999,-2.00460455774157,-9.36448634053421,-1.6663644,-0.023823744,-0.0070249503,0.017104227,65.14709,105.11618,-11.161016,STD
262600176000,1.90499,-2.01403532330247,-9.37338223239776,-1.66200549987461,-0.027794369,-0.0021380284,0.021380283,65.14674,105.1279,-11.176824,STD
262605935000,1.910749,-2.02467436481481,-9.39997955844907,-1.64604688206019,-0.031154128,0.00061086525,0.01985312,65.14416,105.135284,-11.190324,STD
262610255000,1.915069,-2.03144558024014,-9.41748881355772,-1.63647131975986,-0.03756821,0.0012217305,0.022296581,65.14269,105.14676,-11.204979,STD
262615179000,1.919993,-2.03590394870001,-9.43086419826038,-1.63201295129999,-0.04550946,-0.0021380284,0.018325957,65.14054,105.157196,-11.217043,STD
262620182000,1.924996,-2.0388561732055,-9.44248108806149,-1.62755528660275,-0.04795292,0.005497787,0.017715093,65.134766,105.16868,-11.228063,STD
262625196000,1.93001,-2.03091897328815,-9.44049674664242,-1.62358668664408,-0.04795292,-0.008246681,0.022296581,65.12218,105.18107,-11.240341,STD
262630434000,1.935248,-2.02262717967685,-9.43842375494855,-1.61944078983842,-0.062308256,-0.022296581,0.013744468,65.11037,105.19257,-11.248064,STD
262635180000,1.939994,-2.01511422578619,-9.43654547725113,-1.61568431289309,-0.06078109,-0.0125227375,0.017715093,65.10263,105.204254,-11.2597065,STD
262644176000,1.94899,-2.00048933726708,-9.43294234301242,-1.60932880509317,-0.064446285,-0.026267206,0.02076942,65.08853,105.21377,-11.267091,STD
262645423000,1.950237,-1.99739868778468,-9.43232420020704,-1.61056506488613,-0.064446285,-0.026267206,0.02076942,65.08143,105.22218,-11.273339,STD
262650209000,1.955023,-1.98553674037267,-9.42995176118012,-1.61530984385093,-0.07147124,-0.032375857,0.01985312,65.06706,105.229744,-11.278739,STD
262655196000,1.96001,-1.97317662091097,-9.42747968566253,-1.62025389163561,-0.062002823,-0.03359759,0.019547688,65.05438,105.234,-11.283867,STD
262660172000,1.964986,-1.96084376459627,-9.4250130628882,-1.62518703416149,-0.05955936,-0.034208454,0.01740966,65.04027,105.24002,-11.288318,STD
262665139000,1.969953,-1.9575037622729,-9.42741324236567,-1.6318922622729,-0.043982297,-0.02565634,0.016493361,65.03431,105.23892,-11.292323,STD
262670206000,1.97502,-1.96688251093931,-9.43679218689602,-1.64127101093931,-0.040927973,-0.026267206,0.020158553,65.02581,105.24015,-11.2973585,STD
262675787000,1.980601,-1.97172818297053,-9.43726191485263,-1.64830472845309,-0.028099801,-0.027488936,0.013133603,65.01286,105.23723,-11.299261,STD
262680142000,1.984956,-1.96971956401464,-9.4272188200732,-1.65031336838278,-0.024129177,-0.018936822,0.013439035,65.00332,105.23762,-11.303596,STD
262685216000,1.99003,-1.96737932691196,-9.41551763455982,-1.65265362992198,-0.023823744,-0.010995574,0.010079277,64.99419,105.235725,-11.3059025,STD
262690145000,1.994959,-1.96510596690426,-9.40415083452129,-1.65492701366789,-0.010079277,-0.010995574,0.015577064,64.98582,105.232414,-11.310608,STD
262695183000,1.999997,-1.96229931053823,-9.39106366191085,-1.65300323227394,0.004581489,-0.007330383,0.010079277,64.97776,105.2261,-11.308214,STD
262700182000,2.004996,-1.95758865195316,-9.37222112594706,-1.63416054874545,0.0027488936,-0.01863139,0.002443461,64.965675,105.22105,-11.307462,STD
262705204000,2.010018,-1.95690688639796,-9.35411223448073,-1.62171859485143,-0.010995574,-0.028405234,0.0070249503,64.9566,105.218254,-11.308608,STD
262710217000,2.015031,-1.9757392874571,-9.33998763871727,-1.64055104507208,-0.0106901415,-0.031154128,0.0067195175,64.945755,105.21058,-11.306466,STD
262715146000,2.01996,-1.99025899031305,-9.32895456369364,-1.65850440968695,-0.0106901415,-0.030543262,0.003970624,64.931435,105.20389,-11.304668,STD
262720185000,2.024999,-1.97600692439457,-9.33845613939752,-1.67275647560543,-0.018325957,-0.03573562,0.002443461,64.9149,105.198814,-11.303525,STD
262725148000,2.029962,-1.96121248236845,-9.34737059201732,-1.68714433410524,-0.010079277,-0.043982297,0.004886922,64.90161,105.19613,-11.305861,STD
262730165000,2.034979,-1.93859796405912,-9.35189359013461,-1.70523594875271,-0.016798794,-0.040317107,0.01863139,64.89097,105.19974,-11.310545,STD
262735524000,2.040338,-1.91507986373331,-9.35701022547795,-1.72448211664905,-0.03023783,-0.04917465,0.013439035,64.87445,105.19941,-11.310119,STD
262740173000,2.044987,-1.90866387302815,-9.36770350610049,-1.73945273185224,-0.030848695,-0.054367006,0.010995574,64.8611,105.20128,-11.313801,STD
262745539000,2.050353,-1.90125836515035,-9.38004597627054,-1.75673221586608,-0.03848451,-0.038179077,0.02076942,64.852684,105.208145,-11.316115,STD
262750175000,2.054989,-1.89486031548179,-9.39070935526948,-1.77166096873379,-0.04428773,-0.036651913,0.014049901,64.83786,105.2105,-11.314063,STD
262755199000,2.060013,-1.88792679487463,-9.40226518272649,-1.78783915130656,-0.04917465,-0.026267206,0.01160644,64.831184,105.216896,-11.314618,STD
262760236000,2.06505,-1.86251925158714,-9.42049934835142,-1.78684429193119,-0.055283304,-0.025961773,0.013744468,64.82214,105.22394,-11.315014,STD
262765101000,2.069915,-1.83389475926684,-9.43958224360025,-1.78207354321114,-0.06047566,-0.023518313,0.0070249503,64.81628,105.22912,-11.311633,STD
262770198000,2.075012,-1.81320318903126,-9.43075656668608,-1.80124473871093,-0.0571159,-0.023823744,0.015882496,64.81337,105.23924,-11.312188,STD
262775165000,2.079979,-1.79473377897496,-9.41690421986022,-1.8243315012813,-0.06536258,-0.01740966,0.0143553335,64.81234,105.24869,-11.307614,STD
262780164000,2.084978,-1.78897604777241,-9.40834052212654,-1.80841470579422,-0.06047566,-0.013439035,0.013744468,64.80854,105.2524,-11.302243,STD
262785146000,2.08996,-1.78660103569615,-9.40121558509632,-1.78228954815571,-0.061086524,-0.01985312,-0.00061086525,64.802925,105.25533,-11.292984,STD
262790219000,2.095033,-1.78418264222709,-9.39396050569964,-1.75568719474339,-0.06291912,-0.014660766,0.005497787,64.81288,105.26148,-11.292342,STD
262795165000,2.099979,-1.78182479202051,-9.38688705356165,-1.72975081785057,-0.06047566,-0.027183503,-0.0030543262,64.81433,105.26077,-11.2849655,STD
262800223000,2.105037,-1.79029675210309,-9.39428165210309,-1.71661667831752,-0.06505715,-0.022907447,-0.0015271631,64.819466,105.26784,-11.283856,STD
262805294000,2.110108,-1.80192939385839,-9.40591429385839,-1.70731056491329,-0.063224554,-0.026267206,-0.0030543262,64.81824,105.27064,-11.280614,STD
262810202000,2.115016,-1.81318812107885,-9.41717302107885,-1.69830358313692,-0.07269296,-0.026572637,0.004276057,64.81011,105.27425,-11.280411,STD
262815250000,2.120064,-1.82476800188752,-9.42875290188752,-1.68903967848999,-0.05589417,-0.03359759,-0.0067195175,64.7982,105.26815,-11.275149,STD
262820199000,2.125013,-1.84759014062632,-9.43622507088447,-1.68858800677105,-0.05375614,-0.034208454,-0.0076358155,64.78913,105.27021,-11.274449,STD
262825175000,2.129989,-1.87784034595853,-9.44126687706305,-1.69362970765975,-0.050701816,-0.028710667,-0.0015271631,64.77975,105.26799,-11.272697,STD
262830172000,2.134986,-1.8969205626828,-9.44616194725164,-1.68480517313162,-0.059253927,-0.033292156,-0.0009162979,64.76521,105.26503,-11.271082,STD
262835138000,2.139952,-1.9113104429652,-9.45095865748865,-1.67041534293495,-0.046731193,-0.03481932,-0.0070249503,64.75326,105.257286,-11.268787,STD
262840144000,2.144958,-1.92204543025438,-9.43225683944289,-1.68641649076313,-0.051618114,-0.03756821,-0.005192355,64.742294,105.25804,-11.268089,STD
262845169000,2.149983,-1.93135453558371,-9.40432942625012,-1.71434380675114,-0.044898596,-0.032375857,-0.005192355,64.73293,105.25249,-11.264867,STD
262850202000,2.155016,-1.94081028547296,-9.3901265194616,-1.72539902136824,-0.03359759,-0.027794369,0.0012217305,64.722,105.24806,-11.265145,STD
262855234000,2.160048,-1.95033173918498,-9.38298540432205,-1.72777938479625,-0.03481932,-0.026267206,0.0036651916,64.711624,105.243935,-11.26419,STD
262860208000,2.165022,-1.95974344641146,-9.37592659933317,-1.73013231160287,-0.025961773,-0.021685716,0.004886922,64.71105,105.24262,-11.269276,STD
262865167000,2.169981,-1.96912677092615,-9.36888908145221,-1.73247814273154,-0.011911872,-0.0076358155,0.002443461,64.7136,105.24025,-11.273253,STD
262870192000,2.175006,-1.97136352928752,-9.37049352736873,-1.73631934142496,0.0021380284,-0.0036651916,0.004276057,64.71484,105.23736,-11.278864,STD
262875205000,2.180019,-1.96898321799792,-9.37763448609252,-1.74107996400416,0.0015271631,0.009468411,0.011301007,64.72282,105.23531,-11.283928,STD
262880183000,2.184997,-1.96661952567802,-9.38472558773365,-1.74580734864396,0.007941248,0.008246681,0.016798794,64.72966,105.23273,-11.292074,STD
262885185000,2.189999,-1.96424443749318,-9.3918508770886,-1.75055752501363,0.0061086523,0.0106901415,0.016798794,64.7412,105.23229,-11.299561,STD
262890169000,2.194983,-1.96192944103249,-9.39353201355026,-1.74597580516246,0.0018325958,0.026572637,0.019242255,64.75471,105.233406,-11.307444,STD
262895184000,2.199998,-1.95963793609428,-9.39124046075672,-1.7345182804714,0.0027488936,0.022602014,0.01985312,64.762955,105.23358,-11.315477,STD
262900221000,2.205035,-1.95733637869173,-9.3889388552889,-1.72301049345866,-0.003970624,0.016493361,0.0106901415,64.774994,105.23466,-11.319913,STD
262905312000,2.210126,-1.95501014705854,-9.38661257507515,-1.71137933529271,-0.007941248,0.014966198,0.01282817,64.7876,105.23766,-11.3274975,STD
262910220000,2.215034,-1.9575016524863,-9.3871875662675,-1.70275507375685,-0.014049901,0.011911872,0.014660766,64.79736,105.240395,-11.332703,STD
262915184000,2.219998,-1.96715037081388,-9.39201202618226,-1.69793071459306,-0.034513887,0.014049901,0.0143553335,64.808014,105.246635,-11.337589,STD
262920177000,2.224991,-1.97685545756038,-9.39686467089507,-1.69307817121981,-0.03726278,0.004886922,0.011301007,64.8155,105.246284,-11.345051,STD
262925189000,2.230003,-1.98659747533996,-9.40173578151005,-1.68820716233002,-0.046731193,-0.0012217305,0.01160644,64.824486,105.251755,-11.352903,STD
262930843000,2.235657,-1.99060156561459,-9.40854764575774,-1.68826646877081,-0.056199603,-0.009468411,0.0125227375,64.82652,105.259636,-11.362513,STD
262935176000,2.23999,-1.9885390240171,-9.4147351844028,-1.6923915519658,-0.05375614,-0.015271631,0.015882496,64.82764,105.267426,-11.372791,STD
262940174000,2.244988,-1.98615993726328,-9.42187234529549,-1.69714972547343,-0.064446285,-0.00580322,0.014049901,64.829796,105.27858,-11.382303,STD
262945183000,2.249997,-1.98377561442418,-9.42902521422536,-1.70191837115165,-0.070554934,-0.014660766,0.014660766,64.82542,105.289345,-11.394303,STD
262950218000,2.255032,-1.9721630486783,-9.42906053396509,-1.70671879026434,-0.07360926,-0.020158553,0.009162978,64.83035,105.293785,-11.395289,STD
262955283000,2.260097,-1.94797028458853,-9.41938322623441,-1.71155734308229,-0.070554934,-0.010995574,0.015882496,64.8376,105.30085,-11.399541,STD
262960196000,2.26501,-1.93648091477401,-9.41498397791489,-1.7142484,-0.06994407,-0.012217305,0.01160644,64.83988,105.30541,-11.399314,STD
262965218000,2.270032,-1.94119123156555,-9.41733918549532,-1.7142484,-0.06078109,-0.0018325958,0.016187929,64.84891,105.311005,-11.402397,STD
262970190000,2.275004,-1.94585465153518,-9.41967094417511,-1.7142484,-0.051923547,-0.0015271631,0.0143553335,64.85084,105.31278,-11.397053,STD
262975197000,2.280011,-1.95055089928015,-9.42201911708535,-1.7142484,-0.0421497,0.00061086525,0.009468411,64.8563,105.31297,-11.39171,STD
262980105000,2.284919,-1.95501677376466,-9.42627440383932,-1.71829292129399,-0.022907447,0.00580322,0.0076358155,64.86274,105.309975,-11.386723,STD
262985179000,2.289993,-1.95933535563455,-9.43491174795592,-1.73124866690366,-0.011911872,0.009468411,0.010995574,64.86926,105.30687,-11.382021,STD
262990168000,2.294982,-1.9625564843198,-9.44342089409943,-1.74401217352031,-0.0027488936,0.021685716,0.0143553335,64.87608,105.30367,-11.3794985,STD
262995184000,2.299998,-1.95380812722637,-9.45216897714442,-1.75713470916044,-0.004276057,0.013133603,0.018325957,64.878075,105.301414,-11.379066,STD
263000998000,2.305812,-1.94350767167169,-9.46141770075301,-1.77182602664157,0.0106901415,0.011301007,0.024129177,64.89073,105.294876,-11.377196,STD
263005197000,2.310011,-1.93341403031124,-9.45334284668675,-1.77384477177711,0.012217305,0.015577064,0.021380283,64.90222,105.29042,-11.374275,STD
263010412000,2.315226,-1.92087810754518,-9.44331418177711,-1.7763519772741,0.015577064,0.011911872,0.024129177,64.91073,105.28519,-11.3703165,STD
263015185000,2.319999,-1.90940467334337,-9.43413550150602,-1.77864668328313,0.01282817,0.015577064,0.014966198,64.92157,105.277954,-11.36188,STD
263020164000,2.324978,-1.89743605216365,-9.42456067454819,-1.78104042751506,0.007330383,0.022296581,0.016493361,64.93277,105.27396,-11.358064,STD
263025194000,2.330008,-1.88755189963332,-9.419250160072,-1.77118765117504,0.009468411,0.03176499,0.01985312,64.9452,105.267746,-11.35212,STD
263030510000,2.335324,-1.87736950646022,-9.41415903436781,-1.75930817475249,0.015882496,0.022907447,0.016187929,64.95379,105.260864,-11.345493,STD
263035219000,2.340033,-1.86834977556252,-9.40964923170772,-1.74878513967466,0.0018325958,0.023518313,0.008857546,64.96754,105.25673,-11.336151,STD
263040147000,2.344961,-1.85891056684223,-9.40492969305643,-1.73777271307377,-0.0106901415,0.0290161,0.015577064,64.98074,105.25363,-11.330655,STD
263045183000,2.349997,-1.84926449234641,-9.40010672295743,-1.72651894270809,-0.00030543262,0.031154128,0.013744468,64.992096,105.245735,-11.321179,STD
263050219000,2.355033,-1.8396184178506,-9.39528375285843,-1.71526517234241,-0.008246681,0.03359759,0.008246681,65.005066,105.24456,-11.31257,STD
263055215000,2.360029,-1.86065754530431,-9.37731957527207,-1.69233775469569,-0.0076358155,0.021991149,0.010079277,65.016624,105.23928,-11.303831,STD
263060109000,2.364923,-1.88427144050786,-9.35842855773882,-1.66872385949214,-0.014049901,0.014660766,0.015882496,65.029755,105.23684,-11.29478,STD
263065183000,2.369997,-1.90260388749545,-9.34056792911059,-1.68233734579847,-0.01863139,0.007330383,0.013439035,65.034,105.22616,-11.28122,STD
263070724000,2.375538,-1.9219073386868,-9.32126437713714,-1.70164074659876,-0.022907447,-0.0018325958,0.008552114,65.035645,105.21766,-11.269466,STD
263075196000,2.38001,-1.9324031715646,-9.31450074139796,-1.68600917108851,-0.03176499,-0.0067195175,0.0018325958,65.03249,105.20902,-11.2524805,STD
263080105000,2.384919,-1.94257683769747,-9.30941353651807,-1.66057500575633,-0.046731193,-0.010079277,0.0061086523,65.027504,105.20396,-11.238152,STD
263085168000,2.389982,-1.95637930052325,-9.29636824286701,-1.64450005670846,-0.04642576,-0.020463986,0.008246681,65.02255,105.20134,-11.225664,STD
263090109000,2.394923,-1.97039419897325,-9.28235305173265,-1.63048510947774,-0.049480084,-0.03176499,0.0067195175,65.01649,105.20238,-11.214011,STD
263095186000,2.4,-2.00053133725029,-9.32742695681551,-1.60430641092832,-0.053450707,-0.03176499,0.011301007,65.00702,105.205215,-11.208084,STD
263100170000,2.404984,-2.03324925718762,-9.3835155028398,-1.57626247955347,-0.065973446,-0.040011674,0.01160644,64.991875,105.20893,-11.201748,STD
263105202000,2.410016,-2.04761175977878,-9.40647577777778,-1.55509233996983,-0.06841691,-0.042455133,0.007941248,64.97812,105.21164,-11.196985,STD
263110159000,2.414973,-2.05715870751131,-9.420796,-1.53599839466063,-0.08124508,-0.04642576,0.009468411,64.96216,105.21968,-11.194369,STD
263115182000,2.419996,-2.05643733692649,-9.42744217530725,-1.53744113959652,-0.086437434,-0.03726278,0.0076358155,64.94178,105.22421,-11.19159,STD
263120200000,2.425014,-2.05325342448736,-9.43221814370424,-1.54380898109782,-0.08735373,-0.027183503,0.01282817,64.921455,105.23184,-11.191398,STD
263125188000,2.430002,-2.05008854699705,-9.43696555908172,-1.55013875260211,-0.09865474,-0.026572637,0.018936822,64.89912,105.23974,-11.191118,STD
263130176000,2.43499,-2.04692366950674,-9.4417129744592,-1.5564685241064,-0.09590584,-0.0125227375,0.023518313,64.88411,105.24557,-11.190692,STD
263135163000,2.439977,-2.04375942651473,-9.44645943806937,-1.56279702661079,-0.092240654,-0.016493361,0.020158553,64.8644,105.25265,-11.1906395,STD
263140456000,2.44527,-2.04040102704475,-9.45149714247855,-1.56951384308477,-0.08246681,-0.010079277,0.019242255,64.8524,105.25915,-11.191294,STD
263145180000,2.449994,-2.02180418301188,-9.42703098538866,-1.6030964482856,-0.049785517,0.0036651916,0.023518313,64.84607,105.257195,-11.188709,STD
263150234000,2.455048,-1.99823066499123,-9.39402786323787,-1.64552882995324,-0.04184427,0.01282817,0.02076942,64.84001,105.25638,-11.18395,STD
263155203000,2.460017,-1.9745581990375,-9.37830399598957,-1.6602711201925,-0.01985312,0.018936822,0.032375857,64.83942,105.251465,-11.183154,STD
263160215000,2.465029,-1.95049617698015,-9.36867923741728,-1.66508352460397,0.011911872,0.03940081,0.036651913,64.845,105.241165,-11.178507,STD
263165186000,2.47,-1.93738840862202,-9.35606237793495,-1.68647457413395,0.02443461,0.04337143,0.03145956,64.85271,105.2358,-11.174695,STD
263170187000,2.475001,-1.92817101508853,-9.34223623951116,-1.71412675473441,0.042760566,0.05955936,0.031154128,64.87,105.22543,-11.171913,STD
263175189000,2.480003,-1.91255912225649,-9.34667131638643,-1.71144615457168,0.044593163,0.054061573,0.04062254,64.88367,105.216705,-11.174239,STD
263180182000,2.484996,-1.89352933925978,-9.36094366605313,-1.69241642125162,0.049785517,0.05467244,0.03573562,64.902504,105.20126,-11.1714,STD
263185161000,2.489975,-1.88063072617635,-9.37511779206208,-1.67651773926453,0.04795292,0.04886922,0.035124753,64.92166,105.193695,-11.173254,STD
263190147000,2.494961,-1.87119025073151,-9.3892785545176,-1.66235702609727,0.035430185,0.03970624,0.031154128,64.93914,105.18592,-11.172991,STD
263195214000,2.500028,-1.85566999989084,-9.40075146511859,-1.63022114393173,0.031154128,0.033292156,0.03390302,64.948265,105.17575,-11.172679,STD
263200169000,2.504983,-1.83683382086931,-9.41016925960107,-1.58783969196189,0.01740966,0.013439035,0.029626964,64.95009,105.16783,-11.170521,STD
263205198000,2.510012,-1.82357643936222,-9.42239166618203,-1.59856463239314,-0.0012217305,0.010995574,0.023823744,64.9523,105.15871,-11.1663265,STD
263210189000,2.515003,-1.81431060456528,-9.43629070863623,-1.64489385475429,-0.013133603,0.009468411,0.022602014,64.94907,105.15124,-11.163254,STD
263215178000,2.519992,-1.80492510895997,-9.43764050263236,-1.66891009552002,-0.014966198,0.0036651916,0.021991149,64.937065,105.13802,-11.159772,STD
263220187000,2.525001,-1.79539492296613,-9.428110117612,-1.67367518851694,-0.023823744,-0.0070249503,0.018020526,64.92307,105.127686,-11.155388,STD
263225187000,2.530001,-1.78380959457989,-9.41652481732933,-1.69004776174044,-0.032986723,-0.008552114,0.022907447,64.90775,105.1307,-11.160077,STD
263230178000,2.534992,-1.77036305242873,-9.4030785091898,-1.71694075243811,-0.027488936,-0.008552114,0.01863139,64.8987906391732,105.130720032109,-11.1601841717841,STD
263235153000,2.539967,-1.77158077120395,-9.39768246893787,-1.72867781933097,-0.03726278,-0.006414085,0.015271631,64.88986,105.13074,-11.160291,STD
263240171000,2.544985,-1.79627448302759,-9.40509047160988,-1.7163309763116,-0.04520403,-0.0067195175,0.012217305,64.87205,105.135056,-11.162524,STD
263245141000,2.549955,-1.82073198557114,-9.41242761255845,-1.70410223780895,-0.027183503,-0.0076358155,0.01282817,64.85998,105.13635,-11.163865,STD
263250168000,2.554982,-1.84546998663481,-9.41984890180361,-1.69173325019269,-0.036957346,0.007330383,0.010079277,64.85229,105.142876,-11.162528,STD
263255972000,2.560786,-1.87339088584822,-9.42047986460081,-1.67622378790092,-0.043066,0.008552114,0.013439035,64.840935,105.14648,-11.163753,STD
263260171000,2.564985,-1.8932335125037,-9.41651126467976,-1.66431823677095,-0.042455133,0.008857546,0.0070249503,64.83313,105.14784,-11.160721,STD
263265180000,2.569994,-1.91655827106521,-9.41184644578313,-1.65247810907439,-0.03268129,0.022602014,0.008857546,64.830444,105.15099,-11.163164,STD
263270187000,2.575001,-1.93948380061197,-9.40726172289157,-1.64330784937847,-0.043066,0.017104227,0.007941248,64.821976,105.15581,-11.16394,STD
263275131000,2.579945,-1.95812169138539,-9.40620618075567,-1.63585266344584,-0.040011674,0.019547688,0.004276057,64.81936,105.15665,-11.165623,STD
263280181000,2.584995,-1.97030376695214,-9.41107885833753,-1.63097983321914,-0.0290161,0.03145956,0.007330383,64.81829,105.15904,-11.168637,STD
263285119000,2.589933,-1.98221566579345,-9.41584346861461,-1.62621507368262,-0.037873644,0.036651913,0.01160644,64.81851,105.16513,-11.1759405,STD
263290251000,2.595065,-1.9945955493199,-9.42079526690176,-1.62126312027204,-0.034513887,0.031154128,0.009773844,64.818886,105.16607,-11.182127,STD
263295098000,2.599912,-2.00333841347012,-9.41643478341408,-1.61312285958963,-0.025961773,0.035124753,0.0070249503,64.82454,105.168785,-11.190747,STD
263300205000,2.605019,-2.00798443965042,-9.39785077571958,-1.59918478104873,-0.028405234,0.035430185,0.004581489,64.82744,105.17256,-11.199117,STD
263305147000,2.609961,-2.01404514536135,-9.37798163659662,-1.58391840927729,-0.017715093,0.034208454,0.016493361,64.83131,105.17538,-11.212434,STD
263310195000,2.615009,-2.02395671612506,-9.35320270968734,-1.56409526774987,-0.021685716,0.031154128,0.01160644,64.83367,105.17735,-11.2201185,STD
263315100000,2.619914,-2.0318261071709,-9.33893013939684,-1.55915823585448,-0.01985312,0.025350908,0.015882496,64.83768,105.178604,-11.233621,STD
263320204000,2.625018,-2.0365058570225,-9.34360998697942,-1.58255698511249,-0.01160644,0.028099801,0.014966198,64.842636,105.17726,-11.243663,STD
263325747000,2.630561,-2.04343946845132,-9.34875382488102,-1.60380128556415,-0.008552114,0.022296581,0.018936822,64.84282,105.17806,-11.257773,STD
263330182000,2.634996,-2.05186165921079,-9.35296489827484,-1.61432902401348,-0.006414085,0.012217305,0.021991149,64.8424,105.17713,-11.271036,STD
263335138000,2.639952,-2.0612732437438,-9.35767066597263,-1.62609350467975,-0.014049901,0.015577064,0.02443461,64.84316,105.18385,-11.286148,STD
263340192000,2.645006,-2.07087093305572,-9.36246948557406,-1.63809061631965,-0.0009162979,0.009468411,0.03573562,64.83901,105.18861,-11.30509,STD
263345183000,2.649997,-2.07047821956478,-9.36831428294071,-1.65050590308445,0.00030543262,0.017715093,0.022907447,64.83887,105.192215,-11.316488,STD
263350211000,2.655025,-2.03683227698143,-9.37792735920343,-1.66492564295269,-0.0027488936,0.021380283,0.02076942,64.83685,105.19864,-11.333997,STD
263355199000,2.660013,-2.01002907047982,-9.39187300010017,-1.67924218856055,0.0012217305,0.023518313,0.0290161,64.842804,105.20608,-11.351959,STD
263360207000,2.665021,-2.00522484185115,-9.42069847220274,-1.69365487444656,-0.0015271631,0.03390302,0.028099801,64.85151,105.21281,-11.365683,STD
263365192000,2.670006,-1.99715781265245,-9.44602804462073,-1.70686899367377,-0.014049901,0.034208454,0.026572637,64.85802,105.220116,-11.377972,STD
263370185000,2.674999,-1.97819223510164,-9.46025202974715,-1.71635178244918,-0.011301007,0.043982297,0.036957346,64.87066,105.22737,-11.392011,STD
263375176000,2.67999,-1.95725777371226,-9.47345791711072,-1.71584168786264,-0.026267206,0.048563786,0.033292156,64.882965,105.235985,-11.400024,STD
263380181000,2.684995,-1.92887891995263,-9.48291773258338,-1.67800316679495,-0.035430185,0.04917465,0.027488936,64.89719,105.244675,-11.409747,STD
263385153000,2.689967,-1.9074989654321,-9.49147320061728,-1.6420676037037,-0.040011674,0.048563786,0.031154128,64.91713,105.25187,-11.4163475,STD
263390122000,2.694936,-1.91697469605735,-9.49621116487455,-1.61364041182796,-0.045814894,0.04734206,0.025045475,64.935974,105.2577,-11.418529,STD
263395464000,2.700278,-1.91948523969138,-9.49474005107921,-1.58756872043168,-0.046120327,0.044898596,0.023518313,64.94367,105.257416,-11.414806,STD
263400180000,2.704994,-1.89743021326301,-9.47268507071003,-1.57874672828401,-0.05589417,0.032986723,0.023518313,64.947945,105.25913,-11.410555,STD
263405195000,2.710009,-1.87767506318486,-9.44982512780843,-1.57245918955459,-0.05497787,0.031154128,0.01740966,64.95009,105.25284,-11.399226,STD
263410266000,2.71508,-1.88246063204572,-9.43068270245369,-1.58681589613717,-0.04642576,0.016493361,0.01740966,64.945435,105.248375,-11.391209,STD
263415137000,2.719951,-1.8870574582972,-9.41229525344895,-1.6006063748916,-0.04153884,0.002443461,0.014049901,64.938385,105.239914,-11.378748,STD
263420189000,2.725003,-1.89182509661017,-9.39322455084746,-1.61490928983051,-0.03634648,0.003970624,0.01282817,64.931786,105.23044,-11.367203,STD
263425227000,2.730041,-1.89583462711094,-9.37457479691517,-1.62917632256278,-0.025045475,-0.007941248,0.014966198,64.91741,105.21906,-11.357391,STD
263430155000,2.734969,-1.89116837534111,-9.36057623650386,-1.6431751265968,-0.008552114,-0.008552114,0.007330383,64.90626,105.20358,-11.344161,STD
263435325000,2.740139,-1.88805526951603,-9.34838836022034,-1.65839001361401,-0.0012217305,0.00580322,0.017104227,64.90507,105.19542,-11.334752,STD
263440182000,2.744996,-1.90635728734507,-9.36669025860712,-1.67897975679717,-0.0012217305,0.01740966,0.013133603,64.901825,105.181274,-11.319904,STD
263445443000,2.750257,-1.92618164719654,-9.38651448908125,-1.70128213252017,0.01038471,0.01740966,0.016493361,64.902145,105.169586,-11.310398,STD
263450180000,2.754994,-1.94403148422683,-9.4043642096203,-1.72136317296872,0.011911872,0.01740966,0.016187929,64.90528,105.15852,-11.298572,STD
263455491000,2.760305,-1.96331105815924,-9.42351234046957,-1.74291314184076,0.0125227375,0.018325957,0.0143553335,64.90863,105.14621,-11.287575,STD
263460191000,2.765005,-1.96476668716124,-9.42205668106849,-1.74145751283876,0.009468411,0.02076942,0.01282817,64.91226,105.134674,-11.276855,STD
263465402000,2.770216,-1.96638057710368,-9.4204427574219,-1.73984362289632,0.007941248,0.03604105,0.026267206,64.928085,105.13476,-11.278797,STD
263470185000,2.774999,-1.96786191189444,-9.41896139169523,-1.73836228810556,0.01985312,0.038789943,0.016798794,64.93953,105.12783,-11.274463,STD
263475207000,2.780021,-1.9694172669685,-9.41740600413945,-1.7368069330315,0.007330383,0.0421497,0.018325957,64.95654,105.13121,-11.276253,STD
263480088000,2.784902,-1.9709289531725,-9.4158942863657,-1.7352952468275,0.0070249503,0.04642576,0.02107485,64.97387,105.12851,-11.275649,STD
263485085000,2.789899,-1.9724765655391,-9.41434664167906,-1.7337476344609,0.0076358155,0.039095376,0.02107485,64.98848,105.12792,-11.275234,STD
263490087000,2.794901,-1.98015673780055,-9.4121675187229,-1.72056655884903,-0.00030543262,0.043676864,0.017104227,65.01061,105.127945,-11.27525,STD
263495089000,2.799903,-1.9895976431218,-9.40980748955459,-1.70404497453685,-0.010995574,0.03390302,0.01740966,65.0264,105.12949,-11.277592,STD
263500097000,2.804911,-1.99904987299961,-9.40744462948364,-1.68750357225069,-0.0143553335,0.042455133,0.013439035,65.047844,105.129654,-11.277047,STD
263505129000,2.809943,-2.00854740110367,-9.40507044580213,-1.67088289806858,-0.020158553,0.03176499,0.0106901415,65.06076,105.13273,-11.27843,STD
263510085000,2.814899,-2.0252423719273,-9.41148126491426,-1.67342088596365,-0.034513887,0.028099801,0.01740966,65.07814,105.13936,-11.280672,STD
263515087000,2.819901,-2.04491714494301,-9.42131834325906,-1.68325827247151,-0.055588737,0.027183503,0.022602014,65.09281,105.14752,-11.282197,STD
263520260000,2.825074,-2.04756305032816,-9.42732517759735,-1.66865603339005,-0.045814894,0.018020526,0.014049901,65.10464,105.14682,-11.283575,STD
263525191000,2.830005,-2.04526720703,-9.43191696008557,-1.64799341973358,-0.05589417,0.014049901,0.018325957,65.11844,105.157684,-11.289762,STD
263530168000,2.834982,-2.04294994641451,-9.43655157810297,-1.62713804999757,-0.06505715,0.014966198,0.01740966,65.13191,105.16634,-11.294352,STD
263535146000,2.83996,-2.04063222020516,-9.44118712732753,-1.606278489912,-0.059864793,0.0067195175,0.01160644,65.14146,105.17391,-11.299321,STD
263540143000,2.844957,-2.0398598,-9.4300124535462,-1.60250658246295,-0.06688975,0.0033597588,0.02107485,65.159584,105.18454,-11.305746,STD
263545164000,2.849978,-2.0398598,-9.41087978645678,-1.60728974299214,-0.070554934,-0.002443461,0.014966198,65.17332,105.18899,-11.306705,STD
263550146000,2.85496,-2.0398598,-9.39189573000597,-1.61203575091018,-0.06291912,-0.016493361,0.01282817,65.17847,105.18888,-11.309954,STD
263555191000,2.860005,-2.0398598,-9.37267161021586,-1.6168417745847,-0.057726767,-0.007941248,0.016187929,65.188286,105.18986,-11.312184,STD
263560176000,2.86499,-2.03677432022893,-9.36817447577462,-1.62979373656667,-0.057726767,-0.015882496,0.018020526,65.190315,105.190125,-11.317761,STD
263565164000,2.869978,-2.03206057655417,-9.37131695515098,-1.64707747978094,-0.03726278,-0.023823744,0.018020526,65.194725,105.185936,-11.323208,STD
263570192000,2.875006,-2.02730903220841,-9.3744846348431,-1.66449982558713,-0.016798794,-0.017104227,0.013133603,65.205574,105.18384,-11.330982,STD
263575171000,2.879985,-2.02260379368463,-9.37762144414841,-1.68175238321821,-0.0018325958,-0.0033597588,0.018325957,65.21651,105.181175,-11.341345,STD
263580170000,2.884984,-2.01787965482534,-9.3807708536116,-1.69907424214525,0.012217305,0.009468411,0.019547688,65.22191,105.17827,-11.353832,STD
263585147000,2.889961,-2.01317630633511,-9.38390640290112,-1.71631986964673,0.01282817,-0.0076358155,0.023518313,65.222916,105.17689,-11.368929,STD
263590158000,2.894972,-2.00574853775057,-9.37719981899872,-1.71306347550114,0.018325957,0.0027488936,0.02443461,65.23519,105.17177,-11.381079,STD
263595172000,2.899986,-1.99626535907969,-9.36297524903723,-1.69409711815938,0.011301007,0.019547688,0.014966198,65.24391,105.16765,-11.391466,STD
263600194000,2.905008,-1.98439256043703,-9.35906866733755,-1.68678187326049,0.017715093,0.016493361,0.025961773,65.25483,105.17219,-11.412284,STD
263605347000,2.910161,-1.97020358677401,-9.36379817706536,-1.68914670220433,0.018020526,0.027488936,0.027183503,65.273384,105.175095,-11.425717,STD
263610198000,2.915012,-1.95684618113859,-9.36825050613379,-1.6913729364769,0.00580322,0.03023783,0.023518313,65.28642,105.17768,-11.439733,STD
263615217000,2.920031,-1.9430261813686,-9.37285702841671,-1.6936762697719,-0.0015271631,0.03634648,0.02107485,65.303444,105.17993,-11.453264,STD
263620192000,2.925006,-1.93273423695223,-9.36857098499803,-1.70043708914331,-0.0018325958,0.032070424,0.02107485,65.31651,105.18391,-11.467122,STD
263625174000,2.929988,-1.92802523403079,-9.34973507165417,-1.71456409790762,-0.006414085,0.033292156,0.013439035,65.33213,105.18787,-11.47719,STD
263630171000,2.934985,-1.91975449190119,-9.34429855065666,-1.71345781988743,-0.007330383,0.02321288,0.01160644,65.34225,105.189705,-11.48611,STD
263635144000,2.939958,-1.90486218665833,-9.36415478486554,-1.68367331307067,-0.018020526,0.008857546,0.01863139,65.35131,105.19457,-11.495337,STD
263640145000,2.944959,-1.89822373868169,-9.37771005973275,-1.65830030842641,-0.018325957,0.0106901415,0.009773844,65.36475,105.19277,-11.493122,STD
263645166000,2.94998,-1.90301887379338,-9.38250524491424,-1.63911991818907,-0.03573562,0.0030543262,0.009162978,65.37198,105.19948,-11.496345,STD
263650729000,2.955543,-1.90835337457508,-9.39811487287539,-1.62035077627477,-0.03970624,-0.012217305,0.01038471,65.37223,105.19622,-11.495,STD
263655252000,2.960066,-1.91270979279895,-9.41989696399477,-1.60728152160314,-0.046120327,-0.025961773,0.0030543262,65.37021,105.194725,-11.491459,STD
263660177000,2.964991,-1.91328969857079,-9.43626249265475,-1.60657762796176,-0.06414085,-0.039095376,0.0067195175,65.35753,105.19946,-11.4934635,STD
263665181000,2.969995,-1.90851677317863,-9.44342174368806,-1.62328280453663,-0.060170226,-0.030848695,0.0106901415,65.34689,105.199646,-11.493086,STD
263670187000,2.975001,-1.90374194014242,-9.45058385613266,-1.63999465784075,-0.06536258,-0.021380283,0.0036651916,65.33051,105.2006,-11.490591,STD
263675169000,2.979983,-1.89898999883472,-9.45771163164185,-1.6566263903939,-0.07147124,-0.01985312,0.0030543262,65.31502,105.20303,-11.490931,STD
263680098000,2.984912,-1.89803585206831,-9.44908818368121,-1.66819253297913,-0.064446285,-0.0027488936,0.0067195175,65.30271,105.203636,-11.485325,STD
263685194000,2.990008,-1.90266620144213,-9.41667636660342,-1.67282283400379,-0.064446285,0.011301007,0.015882496,65.29052,105.20756,-11.481328,STD
263690132000,2.994946,-1.90435433310194,-9.39198743633479,-1.67308069607299,-0.05100725,0.020463986,0.0143553335,65.284874,105.20873,-11.4744625,STD
263695166000,2.99998,-1.89957348080127,-9.38242563189211,-1.66351909131297,-0.050396383,0.018936822,0.012217305,65.28075,105.214,-11.469995,STD
263700167000,3.004981,-1.8962077,-9.37639280253405,-1.65259486505909,-0.03573562,0.02107485,0.014660766,65.28242,105.217316,-11.467501,STD
263705239000,3.010053,-1.8962077,-9.37882542192508,-1.63799942811999,-0.030543262,0.029626964,0.016187929,65.28536,105.22151,-11.464042,STD
263710102000,3.014916,-1.8962077,-9.38115780128205,-1.62400541987179,-0.021991149,0.025350908,0.008246681,65.283195,105.21919,-11.457299,STD
263715165000,3.019979,-1.8962077,-9.38358610411658,-1.60943588177584,-0.007330383,0.019547688,0.0143553335,65.28382,105.218155,-11.454782,STD
263720905000,3.025719,-1.89446667684898,-9.38875311902041,-1.59758567684898,-0.004581489,0.023518313,0.007330383,65.284325,105.21325,-11.445445,STD
263725186000,3.03,-1.89111987841633,-9.39544685567347,-1.59423887841633,-0.007330383,0.009162978,0.004581489,65.278404,105.20898,-11.440411,STD
263730130000,3.034944,-1.88725476011429,-9.40317725371429,-1.59037376011429,-0.004276057,0.01863139,0.011301007,65.27724,105.19988,-11.43434,STD
263735161000,3.039975,-1.8783762483201,-9.39617017593158,-1.60213187751985,-0.003970624,0.01160644,0.012217305,65.26682,105.19017,-11.427609,STD
263740136000,3.04495,-1.86867464375891,-9.386468368764,-1.61668428436164,-0.003970624,0.009468411,0.013744468,65.2625463543849,105.185370214507,-11.4245025411055,STD
263745184000,3.049998,-1.87158362735712,-9.3934838262257,-1.63901197966348,-0.0033597588,0.0009162979,0.008552114,65.25821,105.1805,-11.4213505,STD
263750139000,3.054953,-1.87617245280921,-9.40266166879412,-1.66195615483996,0.0036651916,0.00061086525,0.005192355,65.2567,105.16362,-11.410771,STD
263755244000,3.060058,-1.89281184731577,-9.41624311509509,-1.65848550577456,0.002443461,0.004581489,0.01160644,65.25877,105.147285,-11.3965845,STD
263760112000,3.064926,-1.91128252247425,-9.43009589243264,-1.64925014408677,0.00030543262,0.0070249503,0.008246681,65.25951,105.12753,-11.379306,STD
263765183000,3.069997,-1.92103058564022,-9.43882410671078,-1.65287990537257,0.0015271631,0.007941248,0.00580322,65.264015,105.11268,-11.365408,STD
263770168000,3.074982,-1.92810288053923,-9.44589630314552,-1.65995222488766,-0.009773844,0.007941248,0.0021380284,65.26853,105.100044,-11.350625,STD
263775190000,3.080004,-1.93522766789788,-9.45302099130907,-1.66707703704508,-0.012217305,0.009468411,0.007330383,65.27167,105.090935,-11.346351,STD
263780102000,3.084916,-1.94219639659276,-9.45998962298158,-1.67404578999556,-0.021685716,0.016187929,0.010995574,65.27592,105.08443,-11.340578,STD
263785187000,3.090001,-1.95498703261177,-9.44735809902893,-1.67957294420392,-0.02443461,0.016187929,0.009468411,65.28106,105.07391,-11.329495,STD
263790203000,3.095017,-1.96956438304673,-9.42792173325915,-1.68443206101558,-0.03726278,0.015882496,0.01740966,65.28852,105.07023,-11.322168,STD
263795187000,3.100001,-1.98355788728961,-9.41284246217837,-1.68909656242987,-0.03359759,0.027794369,0.013439035,65.300644,105.064064,-11.312379,STD
263800178000,3.104992,-1.99742840638421,-9.39897213619656,-1.69372006879474,-0.04520403,0.040927973,0.018936822,65.31379,105.06707,-11.307712,STD
263805217000,3.110031,-1.98492718540873,-9.38819769528274,-1.68511955124524,-0.042455133,0.05009095,0.02321288,65.32692,105.07086,-11.304736,STD
263810159000,3.114973,-1.96181528698115,-9.37895274284598,-1.67125241218869,-0.049480084,0.04153884,0.023518313,65.33861,105.078995,-11.30262,STD
263815193000,3.120007,-1.95061869910032,-9.37874396459321,-1.67856400359872,-0.03848451,0.05100725,0.03604105,65.360825,105.0895,-11.306454,STD
263820190000,3.125004,-1.94598918670794,-9.38337357366741,-1.69708205316823,-0.0421497,0.062002823,0.024740042,65.379616,105.09889,-11.3040905,STD
263825187000,3.130001,-1.93551281082928,-9.39385000410085,-1.6889434656288,-0.027183503,0.07544186,0.028710667,65.40043,105.10468,-11.306236,STD
263830181000,3.134995,-1.9209846752177,-9.40837816499595,-1.66230857141049,-0.023823744,0.07666359,0.020463986,65.41941,105.10833,-11.301994,STD
263835164000,3.139978,-1.90648853990482,-9.42287432553665,-1.63573234436006,-0.021991149,0.07422013,0.028099801,65.44382,105.11565,-11.302955,STD
263840208000,3.145022,-1.89181494839004,-9.43754794258809,-1.60883078119684,-0.019547688,0.07666359,0.03023783,65.46891,105.11941,-11.299998,STD
263845183000,3.149997,-1.88207823661538,-9.43969682769231,-1.58263358507692,-0.020158553,0.07452556,0.030848695,65.493835,105.12609,-11.304829,STD
263850192000,3.155006,-1.87493627266501,-9.43493541895782,-1.556446359067,-0.002443461,0.07360926,0.021380283,65.51901,105.12721,-11.307197,STD
263855239000,3.160053,-1.86774012731514,-9.43013788853598,-1.53006046773697,-0.0106901415,0.058337633,0.021685716,65.53091,105.124565,-11.307882,STD
263860259000,3.165073,-1.86058247927543,-9.42536602352357,-1.50381573334491,-0.022602014,0.049785517,0.02565634,65.54385,105.11843,-11.306774,STD
263865186000,3.17,-1.86930430484754,-9.40362152013292,-1.48542894636435,-0.027183503,0.05222898,0.016187929,65.55914,105.10955,-11.306648,STD
263870208000,3.175022,-1.88810598178264,-9.37071887998436,-1.47132768866302,-0.029321533,0.037873644,0.009773844,65.56723,105.10421,-11.30966,STD
263875188000,3.180002,-1.91231378207834,-9.36056746095655,-1.46927791701588,-0.02107485,0.03359759,0.004276057,65.570114,105.09078,-11.311488,STD
263880175000,3.184989,-1.94083687558851,-9.36769812885084,-1.47640868418852,-0.027183503,0.021991149,0.002443461,65.56652,105.08019,-11.313499,STD
263885163000,3.189977,-1.96936568858807,-9.37483022659633,-1.48354088123227,-0.03634648,0.00580322,0.0030543262,65.560326,105.06988,-11.317552,STD
263890254000,3.195068,-1.99848360899318,-9.38210959901458,-1.49082035499925,-0.038179077,-0.0036651916,-0.0018325958,65.55232,105.05801,-11.319602,STD
263895185000,3.199999,-2.02640363874908,-9.3763610561935,-1.50416462140239,-0.030848695,-0.0076358155,-0.004581489,65.541435,105.04688,-11.322752,STD
263900217000,3.205031,-2.05466098043489,-9.35987766015148,-1.52300284099682,-0.03481932,-0.020158553,0.0009162979,65.52565,105.039085,-11.327546,STD
263905260000,3.210074,-2.08298009293916,-9.34335823124847,-1.54188224111898,-0.035430185,-0.022907447,0.0018325958,65.50869,105.03856,-11.337172,STD
263910230000,3.215044,-2.11088927182995,-9.3270779295138,-1.56048835228439,-0.021991149,-0.02565634,0.005192355,65.48882,105.03765,-11.349191,STD
263915181000,3.219995,-2.12397398119098,-9.32031065373868,-1.57682795642706,-0.020158553,-0.02107485,0.0030543262,65.473724,105.03821,-11.364093,STD
263920190000,3.225004,-2.11935168487184,-9.32493280526113,-1.59069484538447,-0.014966198,-0.018020526,0.009468411,65.458206,105.038055,-11.381898,STD
263925167000,3.229981,-2.1127956581465,-9.33148881867962,-1.61220231569377,-0.01038471,-0.006414085,0.009773844,65.45556,105.04732,-11.403415,STD
263930181000,3.234995,-2.10287354321727,-9.34141114082033,-1.64692976974894,-0.0021380284,0.014049901,0.017104227,65.45713,105.05753,-11.427342,STD
263935196000,3.24001,-2.09117517247991,-9.35515807020432,-1.67660704123172,0.004276057,0.02443461,0.014049901,65.461716,105.063644,-11.443754,STD
263940292000,3.245106,-2.07699766327104,-9.37406118553307,-1.70023605875859,-0.0018325958,0.040011674,0.024129177,65.474594,105.07487,-11.464098,STD
263945210000,3.250024,-2.06143308025227,-9.38616565865195,-1.70351271103666,0.006414085,0.052839845,0.025350908,65.49224,105.082504,-11.479897,STD
263950210000,3.255024,-2.04255881931415,-9.38852499054001,-1.67520129499409,0.009162978,0.0571159,0.024740042,65.51207,105.09391,-11.4971695,STD
263955186000,3.26,-2.02377515482854,-9.390872997635,-1.64702577374852,0.01038471,0.07269296,0.028099801,65.53845,105.10787,-11.515506,STD
263960262000,3.265076,-2.00461400512416,-9.39326819136776,-1.6182840241821,0.011911872,0.06780604,0.028099801,65.559685,105.120255,-11.533029,STD
263965155000,3.269969,-1.98933327537617,-9.39815115577979,-1.60262985577979,0.01038471,0.06994407,0.026267206,65.58713,105.13319,-11.549418,STD
263970191000,3.275005,-1.98071984236282,-9.40891794704648,-1.61339664704648,-0.0015271631,0.061086524,0.01863139,65.60937,105.14635,-11.564502,STD
263975841000,3.280655,-1.97105624098763,-9.42099744876546,-1.62547614876546,-0.00030543262,0.0580322,0.02076942,65.630264,105.14279,-11.569845,STD
263980183000,3.284997,-1.9636298060901,-9.43028049238737,-1.63475919238737,-0.016187929,0.051923547,0.025045475,65.64712,105.14361,-11.574199,STD
263985141000,3.289955,-1.95514978208689,-9.44088052239139,-1.64535922239139,-0.0290161,0.04428773,0.021685716,65.66204,105.14268,-11.577167,STD
263990138000,3.294952,-1.93737966091611,-9.45087621441071,-1.65942744683479,-0.030543262,0.031154128,0.019242255,65.673615,105.14383,-11.582072,STD
263995102000,3.299916,-1.91780612094699,-9.46066267781781,-1.67410765290787,-0.03726278,0.03604105,0.022602014,65.6881,105.148865,-11.587077,STD
264000199000,3.305013,-1.89833720086361,-9.44486093418702,-1.66317303953742,-0.043066,0.034208454,0.023823744,65.696625,105.15351,-11.589535,STD
264005146000,3.30996,-1.87952578403812,-9.42604966468136,-1.64906446464165,-0.032070424,0.03268129,0.009773844,65.70595,105.15364,-11.588342,STD
264010293000,3.315107,-1.88137028256164,-9.41926172730006,-1.64289451743836,-0.030543262,0.03176499,0.016798794,65.71642,105.16085,-11.5915575,STD
264015101000,3.319915,-1.88598496029264,-9.41464695319703,-1.63827983970736,-0.046120327,0.028099801,0.012217305,65.72426,105.1636,-11.587863,STD
264020255000,3.325069,-1.90338263331707,-9.40562541758564,-1.6250701328096,-0.038789943,0.021685716,0.008246681,65.727104,105.160995,-11.583247,STD
264025166000,3.32998,-1.92174187507563,-9.3964461082268,-1.61130073743535,-0.028099801,0.02443461,0.0061086523,65.73137,105.16005,-11.577771,STD
264030180000,3.334994,-1.93452099068425,-9.39676459816187,-1.5935710148927,-0.036651913,0.01282817,0.0061086523,65.72933,105.16102,-11.573497,STD
264035136000,3.33995,-1.94594015650082,-9.3990484790203,-1.57530032573862,-0.029321533,0.005192355,0.0009162979,65.72882,105.15561,-11.567004,STD
264040191000,3.345005,-1.9575874291406,-9.40137798219613,-1.55666466519103,-0.030543262,-0.002443461,0.004581489,65.71762,105.159096,-11.565378,STD
264045847000,3.350661,-1.97061947148494,-9.40398444509672,-1.53581337022423,-0.026267206,-0.0009162979,-0.0015271631,65.70631,105.156845,-11.559543,STD
264050197000,3.355011,-1.98260656459964,-9.42399345675296,-1.53555052297813,-0.02687807,0.007330383,0.00030543262,65.69555,105.15813,-11.5570755,STD
264055250000,3.360064,-1.99717356351595,-9.45312704896649,-1.54040629068834,-0.03390302,0.00580322,0.00061086525,65.682236,105.158066,-11.552963,STD
264060262000,3.365076,-2.00509696982412,-9.44416315087942,-1.55249907246239,-0.030848695,-0.002443461,0.0021380284,65.66602,105.15418,-11.55106,STD
264065158000,3.369972,-2.01006497287561,-9.41932313562195,-1.56740302974147,-0.04550946,0.003970624,0.002443461,65.65377,105.154594,-11.548292,STD
264070186000,3.375,-2.02988424161827,-9.39899720503987,-1.55934343419628,-0.039095376,0.004581489,0.004581489,65.65141,105.14306,-11.541085,STD
264075195000,3.380009,-2.05349394296683,-9.38010954257309,-1.54517766269318,-0.034208454,0.004581489,-0.0012217305,65.6504016785178,105.137351194792,-11.5363328460691,STD
264080171000,3.384985,-2.06445355590943,-9.38113423164966,-1.5509328444638,-0.027794369,0.0015271631,-0.0021380284,65.6494,105.13168,-11.531612,STD
264085168000,3.389982,-2.07159796039811,-9.38827873560587,-1.56284007752177,-0.03023783,-0.0061086523,0.00030543262,65.64545,105.12991,-11.527971,STD
264090211000,3.395025,-2.07880813286887,-9.39548900845982,-1.57485692289127,-0.015577064,-0.0067195175,0.00061086525,65.64269,105.12155,-11.522607,STD
264095172000,3.399986,-2.08590106676288,-9.40258204110475,-1.58667837240109,-0.013744468,0.00061086525,0.00580322,65.64044,105.117714,-11.519451,STD
264100196000,3.40501,-2.09115840893471,-9.40101051975945,-1.59828592233677,-0.017715093,-0.00580322,0.0030543262,65.633705,105.11075,-11.514982,STD
264105260000,3.410074,-2.0957877441008,-9.39638108791523,-1.609859260252,-0.009773844,-0.0021380284,0.007330383,65.632576,105.1041,-11.513216,STD
264110174000,3.414988,-2.10027995441008,-9.39188878379152,-1.6210897860252,-0.0018325958,0.006414085,0.005192355,65.63258,105.10122,-11.511989,STD
264115587000,3.420401,-2.1052283334097,-9.38694030145094,-1.63346073352425,-0.005497787,0.0125227375,0.010079277,65.63351,105.10154,-11.513882,STD
264120186000,3.425,-2.11239355745033,-9.38801903611341,-1.62389400637417,-0.015577064,0.0125227375,0.005497787,65.6345,105.099144,-11.512417,STD
264125174000,3.429988,-2.12227954221854,-9.39296213172599,-1.59917904445364,-0.018020526,0.0061086523,0.01038471,65.63605,105.09925,-11.515034,STD
264130173000,3.434987,-2.11729200472674,-9.39338810871492,-1.59120976079764,-0.022602014,0.008552114,0.015271631,65.64515,105.10338,-11.515538,STD
264135144000,3.439958,-2.10322806425406,-9.39104407784343,-1.59355374271787,-0.02443461,0.017715093,0.01282817,65.65414,105.10688,-11.515394,STD
264140244000,3.445058,-2.08879915731167,-9.38863921816839,-1.59595855217134,-0.030543262,0.027183503,0.013439035,65.65887,105.11441,-11.52168,STD
264145170000,3.449984,-2.07486253072378,-9.38631640664697,-1.59828131518464,-0.03940081,0.019242255,0.009162978,65.66081,105.12106,-11.52619,STD
264150198000,3.455012,-2.06241195359496,-9.38703625012294,-1.59403106944035,-0.043066,0.025350908,0.01282817,65.66989,105.12964,-11.531881,STD
264155256000,3.46007,-2.05129506625357,-9.39021256998131,-1.58450232544507,-0.039095376,0.026572637,0.020158553,65.675224,105.13816,-11.537967,STD
264160247000,3.465061,-2.04032543700862,-9.39334681521917,-1.57509980245566,-0.04520403,0.01740966,0.017104227,65.67829,105.145454,-11.539502,STD
264165170000,3.469984,-2.02950526374217,-9.39643835785712,-1.56582538436773,-0.047036625,0.022602014,0.015882496,65.68625,105.1531,-11.542804,STD
264170194000,3.475008,-2.01846310439002,-9.39959332641553,-1.55636069282319,-0.050396383,0.017104227,0.0143553335,65.68967,105.15869,-11.541433,STD
264175176000,3.47999,-2.00751325608341,-9.40272191983869,-1.54697512489427,-0.046731193,0.007330383,0.01863139,65.69352,105.164276,-11.541458,STD
264180167000,3.484981,-1.99274132539362,-9.41103336394833,-1.53305467939039,-0.04153884,0.00061086525,0.007330383,65.695786,105.16638,-11.536917,STD
264185324000,3.490138,-1.97280286855067,-9.42598699838514,-1.51311611844974,-0.050396383,-0.00030543262,0.008552114,65.69776,105.17397,-11.537388,STD
264191120000,3.495934,-1.96013576991306,-9.43937439005568,-1.49422970973918,-0.04520403,-0.010995574,0.015577064,65.69013,105.1685,-11.531699,STD
264195170000,3.499984,-1.95634696069161,-9.44695216674807,-1.48286328207483,-0.049480084,-0.019547688,0.00580322,65.68216,105.16312,-11.521828,STD
264200182000,3.504996,-1.95554655813487,-9.44667500793868,-1.4860959488092,-0.04428773,-0.022296581,0.008246681,65.67451,105.15184,-11.513976,STD
264205192000,3.510006,-1.95992467365636,-9.43354038707911,-1.51236464193813,-0.039095376,-0.02107485,0.010079277,65.66511,105.13935,-11.503754,STD
264210142000,3.514956,-1.96093555939597,-9.41780339848993,-1.5357537729656,-0.036651913,-0.018936822,0.010079277,65.65302,105.124054,-11.492893,STD
264215175000,3.519989,-1.95082649177852,-9.39253072944631,-1.55091742717072,-0.03970624,-0.02565634,0.00030543262,65.63842,105.10741,-11.480451,STD
264220179000,3.524993,-1.94556818048462,-9.37495583288202,-1.56840141013119,-0.036957346,-0.016798794,0.0030543262,65.63216,105.09939,-11.476312,STD
264225178000,3.529992,-1.95003845670666,-9.37272076478827,-1.59075281458051,-0.035124753,-0.015577064,0.0015271631,65.62117,105.0892,-11.469088,STD
264230115000,3.534929,-1.95445329041505,-9.37051341708296,-1.61282700617209,-0.03268129,-0.016798794,-0.002443461,65.60933,105.08373,-11.464,STD
264235140000,3.539954,-1.95894681672347,-9.36826672431019,-1.63529466117466,-0.025045475,-0.026267206,-0.0061086523,65.59555,105.07673,-11.459012,STD
264240433000,3.545247,-1.96394295579757,-9.3661175,-1.65632256037368,-0.01740966,-0.027794369,-0.0061086523,65.580025,105.07014,-11.451443,STD
264245174000,3.549988,-1.97074771307389,-9.3661175,-1.65178603183794,-0.012217305,-0.029321533,-0.005497787,65.56187,105.061966,-11.443678,STD
264250263000,3.555077,-1.97805195474846,-9.3661175,-1.64691651196483,-0.005192355,-0.02076942,0.0015271631,65.55315,105.060875,-11.440029,STD
264255261000,3.560075,-1.9852255841235,-9.3661175,-1.6421340674127,-0.008552114,-0.013133603,-0.0027488936,65.54338,105.05838,-11.433611,STD
264260398000,3.565212,-1.99237132088309,-9.36671078338964,-1.63882046471428,-0.015577064,-0.008552114,0.002443461,65.53792,105.05816,-11.432005,STD
264265316000,3.57013,-1.99685328333254,-9.37343375046391,-1.65226637546272,-0.018325957,-0.015882496,0.0018325958,65.5308,105.0556,-11.4278965,STD
264270505000,3.575319,-2.00158221849931,-9.3805271779036,-1.66645320565257,-0.02565634,-0.018020526,0.007330383,65.52498,105.06017,-11.431497,STD
264275192000,3.580006,-2.00585366176904,-9.3869343651092,-1.67926755776276,-0.03481932,-0.018936822,0.002443461,65.51699,105.063034,-11.4321995,STD
264280164000,3.584978,-2.01038483649427,-9.39373115085407,-1.69286110559547,-0.0421497,-0.01160644,0.002443461,65.51046,105.07103,-11.439249,STD
264285176000,3.58999,-2.03096482806359,-9.41071625960304,-1.68716062877456,-0.040927973,-0.0033597588,0.0076358155,65.50414,105.07891,-11.446158,STD
264290138000,3.594952,-2.0544269005431,-9.42948581959119,-1.67777579978276,-0.05497787,-0.0012217305,0.0070249503,65.498055,105.089424,-11.451194,STD
264295186000,3.6,-2.05713154241796,-9.42374571208982,-1.65524074694743,-0.054061573,0.011301007,0.007330383,65.499306,105.10402,-11.460909,STD
264300152000,3.604966,-2.05483990319472,-9.41228751597359,-1.63003269156267,-0.057726767,0.015577064,0.0018325958,65.49863,105.12018,-11.468821,STD
264305213000,3.610027,-2.05250442471932,-9.40061012359659,-1.60434240394642,-0.06963864,0.005192355,0.004886922,65.49725,105.13955,-11.480845,STD
264310160000,3.614974,-2.0502215533465,-9.38919576673252,-1.57923079500795,-0.069027774,-0.0070249503,0.0009162979,65.49604,105.154144,-11.488991,STD
264315166000,3.61998,-2.03637508179098,-9.37874027499226,-1.55753474769421,-0.058337633,-0.008246681,0.004581489,65.50217,105.16574,-11.494683,STD
264320212000,3.625026,-2.016433048241,-9.36876931027546,-1.53759266208604,-0.06352998,-0.0143553335,0.009773844,65.503296,105.17936,-11.50046,STD
264325140000,3.629954,-1.99712638071356,-9.369618145158,-1.51128447107034,-0.058337633,-0.018020526,0.013133603,65.49905,105.18301,-11.505214,STD
264330180000,3.634994,-1.97744561741081,-9.37453818185525,-1.48176332611621,-0.06963864,-0.020158553,0.009162978,65.49349,105.19,-11.509427,STD
264335178000,3.639992,-1.97628109348485,-9.36877642973485,-1.48520488045455,-0.06872234,-0.03481932,0.0012217305,65.47816,105.19115,-11.513317,STD
264340199000,3.645013,-1.98083460795455,-9.35966968607955,-1.49886542386364,-0.057421334,-0.029932396,0.005497787,65.468475,105.19404,-11.518499,STD
264345183000,3.649997,-1.98138802593936,-9.36462875025913,-1.51670127334478,-0.056505036,-0.025350908,0.00580322,65.44959,105.19002,-11.517932,STD
264350218000,3.655032,-1.97982611909821,-9.37712393975123,-1.53700607858901,-0.060170226,-0.033292156,0.00580322,65.42898,105.18558,-11.518757,STD
264355282000,3.660096,-1.97825521616999,-9.38969109756414,-1.55742783305908,-0.048258353,-0.038179077,0.0021380284,65.41381,105.18065,-11.521816,STD
264360264000,3.665078,-1.97670975045349,-9.40205475874579,-1.57751890351127,-0.043676864,-0.04337143,0.0033597588,65.39675,105.178696,-11.526463,STD
264365183000,3.669997,-1.97518382796061,-9.41426207495465,-1.59735591185216,-0.027183503,-0.04550946,0.0076358155,65.37937,105.17216,-11.530831,STD
264370993000,3.675807,-1.97338150844778,-9.4286805557787,-1.62078608433856,-0.036651913,-0.042455133,0.0070249503,65.36204,105.16872,-11.533942,STD
264375191000,3.680005,-1.97526406479293,-9.43071308421164,-1.61828964082828,-0.026572637,-0.04337143,0.008857546,65.34351,105.1601,-11.538993,STD
264380181000,3.684995,-1.98035170793144,-9.4256253348238,-1.59793906827425,-0.03726278,-0.03756821,0.004886922,65.32772,105.15564,-11.54151,STD
264385148000,3.689962,-1.98149222097853,-9.42448479795846,-1.59700414164027,-0.042760566,-0.034208454,0.005497787,65.319435,105.150734,-11.536068,STD
264390144000,3.694958,-1.97996120780135,-9.42601584310902,-1.60925226304438,-0.04642576,-0.038789943,0.0033597588,65.31029,105.14607,-11.529043,STD
264395163000,3.699977,-1.97842314632492,-9.42755393670602,-1.62155677091613,-0.049785517,-0.040927973,0.006414085,65.30133,105.1435,-11.527638,STD
264400188000,3.705002,-1.97688324616172,-9.42909386902819,-1.63387598830117,-0.052839845,-0.034513887,0.0030543262,65.293205,105.139694,-11.52367,STD
264405278000,3.710092,-1.97532342689194,-9.43065372087293,-1.64635455874692,-0.053145275,-0.03756821,0.004886922,65.28186,105.14061,-11.529116,STD
264410163000,3.714977,-1.97382642941986,-9.43215074960801,-1.65833055415507,-0.04550946,-0.033292156,0.004581489,65.27433,105.13932,-11.532172,STD
264415102000,3.719916,-1.96807945816448,-9.4299931886174,-1.6663644,-0.047036625,-0.030543262,0.0018325958,65.2656,105.139534,-11.53511,STD
264420197000,3.725011,-1.9535401864124,-9.42030039138856,-1.6663644,-0.047647487,-0.035430185,-0.0021380284,65.25596,105.13777,-11.537613,STD
264425106000,3.72992,-1.93953169082241,-9.41096144308701,-1.6663644,-0.05467244,-0.03604105,0.002443461,65.24737,105.14885,-11.549954,STD
264430133000,3.734947,-1.92518646626937,-9.40139800998212,-1.6663644,-0.047647487,-0.03390302,-0.0021380284,65.23771,105.154236,-11.558305,STD
264435105000,3.739919,-1.91899758753414,-9.39412074730569,-1.66709163750683,-0.06261369,-0.03756821,-0.004581489,65.22678,105.16604,-11.568458,STD
264440730000,3.745544,-1.93237466724609,-9.39144527549044,-1.66976705344922,-0.06688975,-0.049785517,-0.004581489,65.2183382791396,105.16930975988,-11.5733294357179,STD
264445100000,3.749914,-1.94276717184008,-9.38936673116464,-1.67184555436802,-0.061391957,-0.0571159,-0.008857546,65.21178,105.17185,-11.577114,STD
264450157000,3.754971,-1.95479346376956,-9.3869614225478,-1.67425081275391,-0.056199603,-0.06352998,-0.009468411,65.20533,105.173676,-11.580596,STD
264455158000,3.759972,-1.95952656210752,-9.38651063851865,-1.67966003789248,-0.058643065,-0.05467244,-0.004886922,65.201324,105.17405,-11.581719,STD
264460194000,3.765008,-1.94658387542714,-9.39082495750962,-1.69260272457286,-0.057421334,-0.048563786,-0.008857546,65.194336,105.17075,-11.580632,STD
264465201000,3.770015,-1.93471888723987,-9.39423633615142,-1.70487548723987,-0.055588737,-0.04153884,0.0030543262,65.19318,105.175514,-11.587582,STD
264470231000,3.775045,-1.9380164847207,-9.38434350927574,-1.7081730847207,-0.06078109,-0.044898596,0.0018325958,65.18996,105.17751,-11.589809,STD
264475084000,3.779898,-1.94119804348302,-9.37479879976725,-1.71135464348302,-0.057726767,-0.037873644,0.0012217305,65.19333,105.18047,-11.5932865,STD
264485097000,3.789911,-1.93847149674545,-9.36049722608878,-1.69176715763849,-0.04795292,-0.028710667,0.011301007,65.199196,105.18854,-11.602423,STD
264490092000,3.794906,-1.93345749160945,-9.35548324713065,-1.67171111091662,-0.048563786,-0.021685716,0.005192355,65.20309,105.19487,-11.610727,STD
264495087000,3.799901,-1.92844348647346,-9.35046926817253,-1.65165506419475,-0.043066,-0.014660766,0.01282817,65.20967,105.20408,-11.623618,STD
264500094000,3.804908,-1.92360454323008,-9.35363228384962,-1.63496658646015,-0.043982297,-0.010995574,0.0076358155,65.21632,105.21049,-11.631295,STD
264505131000,3.809945,-1.91917046458314,-9.37580267708429,-1.62609842916628,-0.0421497,-0.014049901,0.009162978,65.223694,105.218376,-11.64266,STD
264510076000,3.81489,-1.91476405821558,-9.39544535425918,-1.61728561643117,-0.03573562,-0.013133603,0.008246681,65.22303,105.22168,-11.652069,STD
264515073000,3.819887,-1.90993409559952,-9.40027541774324,-1.60762569119903,-0.032986723,-0.022907447,0.012217305,65.21877,105.22658,-11.663591,STD
264520210000,3.825024,-1.90657680025483,-9.40521713407821,-1.59695009923552,-0.03848451,-0.03756821,0.010995574,65.21092,105.22756,-11.671775,STD
264525087000,3.829901,-1.91115447874155,-9.4097944301676,-1.58321706377536,-0.038179077,-0.032986723,0.005497787,65.20588,105.226814,-11.679026,STD
264530083000,3.834897,-1.91584215741772,-9.4173663220041,-1.57396160192402,-0.04062254,-0.048258353,0.008246681,65.185555,105.23069,-11.692767,STD
264535090000,3.839904,-1.92052533327473,-9.45014874860826,-1.60674383292314,-0.039095376,-0.049480084,0.004581489,65.170235,105.230934,-11.701777,STD
264540167000,3.844981,-1.92459172502267,-9.47861366068729,-1.63832685357251,-0.035124753,-0.050701816,0.007941248,65.14961,105.231514,-11.71373,STD
264545081000,3.849895,-1.91984916781215,-9.44541556212839,-1.64781201751486,-0.029626964,-0.047036625,0.011301007,65.13019,105.230515,-11.723999,STD
264550114000,3.854928,-1.91438873302395,-9.41367680588703,-1.65711182119685,-0.026572637,-0.031154128,0.0070249503,65.11936,105.231,-11.733956,STD
264555122000,3.859936,-1.90167041392204,-9.40943773508353,-1.66135124614161,-0.029321533,-0.021991149,0.004581489,65.10814,105.232475,-11.744986,STD
264560053000,3.864867,-1.88914764405551,-9.40526384168656,-1.66552548823477,-0.03940081,-0.021685716,0.006414085,65.1011,105.23681,-11.755941,STD
264565081000,3.869895,-1.87304757400966,-9.39423729275362,-1.68673938898551,-0.028710667,-0.008552114,0.005497787,65.10022,105.2366,-11.76399,STD
264570211000,3.875025,-1.85578662223101,-9.3812913085639,-1.71263081665349,-0.033292156,0.004276057,0.005497787,65.09958,105.24141,-11.772441,STD
264575224000,3.880038,-1.854051745367,-9.37855808249519,-1.7095050865825,-0.03145956,0.0143553335,0.010079277,65.10327,105.240616,-11.774842,STD
264580165000,3.884979,-1.8641777819174,-9.38362120650546,-1.68418999520651,-0.027794369,0.016798794,0.0106901415,65.10818,105.23947,-11.775824,STD
264585141000,3.889955,-1.86150886659878,-9.39422352545825,-1.66102008533605,-0.03481932,0.022602014,0.010995574,65.12015,105.243256,-11.776506,STD
264590859000,3.895673,-1.8513699770598,-9.40943164802814,-1.63567280855397,-0.03359759,0.009468411,0.006414085,65.12698,105.243965,-11.776766,STD
264595170000,3.899984,-1.85079904314195,-9.41152586363636,-1.60577903756978,-0.039095376,0.011301007,0.004886922,65.13535,105.24442,-11.77227,STD
264600193000,3.905007,-1.85559412551834,-9.40673118181818,-1.56262334625199,-0.04520403,-0.00061086525,0.007330383,65.13588,105.24471,-11.7690525,STD
264605191000,3.910005,-1.87580588340747,-9.40186703848143,-1.53163431418227,-0.049785517,-0.0009162979,0.00030543262,65.13137,105.23909,-11.756369,STD
264610169000,3.914983,-1.91032679688631,-9.39693538377987,-1.51190800434468,-0.0580322,-0.01160644,0.004886922,65.12123,105.23839,-11.749005,STD
264615162000,3.919976,-1.92769105306773,-9.38934217888446,-1.51181715920319,-0.0580322,-0.017104227,-0.0009162979,65.104225,105.229836,-11.73675,STD
264620183000,3.924997,-1.93248040693227,-9.37976327111554,-1.52618522079681,-0.06261369,-0.025961773,-0.0106901415,65.08347,105.22372,-11.725559,STD
264625169000,3.929983,-1.94269868921725,-9.3784219533746,-1.54592851051318,-0.06414085,-0.03573562,-0.00061086525,65.061,105.22134,-11.721618,STD
264630167000,3.934981,-1.95703520471246,-9.38320089167332,-1.56982275290535,-0.071776666,-0.040011674,-0.0012217305,65.03691,105.21635,-11.712281,STD
264635165000,3.939979,-1.96579052893058,-9.38781618208255,-1.58526335786116,-0.07086037,-0.036957346,0.0012217305,65.011765,105.21775,-11.709114,STD
264640240000,3.945054,-1.97034984037523,-9.39237558874297,-1.59438198075047,-0.054061573,-0.028405234,0.0009162979,64.9873,105.21661,-11.704972,STD
264645133000,3.949947,-1.9809570656219,-9.39891530539575,-1.60136041640548,-0.06811147,-0.017715093,-0.0015271631,64.96833,105.22504,-11.702792,STD
264650193000,3.955007,-2.00018285732989,-9.40852790011902,-1.60616686433247,-0.05681047,-0.015271631,0.0070249503,64.95035,105.2279,-11.703592,STD
264655186000,3.96,-2.00419608897078,-9.41573436395578,-1.61063682775731,-0.05100725,-0.01282817,-0.00061086525,64.93611,105.231445,-11.699338,STD
264660170000,3.964984,-1.98783452544348,-9.41982484026052,-1.61472721863913,-0.04184427,-0.002443461,0.0067195175,64.92632,105.237236,-11.701173,STD
264665175000,3.969989,-1.97340326426966,-9.42396538426966,-1.6184803,-0.035124753,0.008552114,0.007330383,64.919266,105.23846,-11.695173,STD
264670185000,3.974999,-1.98014199573034,-9.42845796573034,-1.6184803,-0.030543262,0.007330383,0.010995574,64.91233,105.24059,-11.692346,STD
264675533000,3.980347,-1.98733535617978,-9.43325363951311,-1.6184803,-0.023518313,0.005192355,0.011301007,64.907745,105.23884,-11.686358,STD
264680165000,3.984979,-1.99356565640449,-9.43740725973783,-1.6184803,-0.017104227,0.007941248,0.01863139,64.90483,105.23871,-11.683382,STD
264685137000,3.989951,-2.00025327573034,-9.44186576573034,-1.6184803,-0.021991149,0.0143553335,0.016798794,64.90424,105.235756,-11.676419,STD
264690222000,3.995036,-1.98652952499286,-9.43897615281348,-1.61096876249643,-0.023823744,0.0070249503,0.013744468,64.900826,105.2325,-11.671868,STD
264695664000,4.000478,-1.96668112145101,-9.43401394830048,-1.60104456072551,-0.02443461,0.00580322,0.01863139,64.901276,105.231346,-11.6685915,STD
264700166000,4.00498,-1.95835231173516,-9.43804802014065,-1.60585081768646,-0.02443461,0.004276057,0.018325957,64.899536,105.22973,-11.664822,STD
264705197000,4.010011,-1.95143738840358,-9.44496284719897,-1.6150707154619,-0.021991149,0.009773844,0.018325957,64.89976,105.228935,-11.662326,STD
264710168000,4.014982,-1.94460493285174,-9.4517952076257,-1.62418065619768,-0.014660766,0.0018325958,0.018020526,64.89801,105.22229,-11.658657,STD
264715190000,4.020004,-1.93770237968713,-9.45869766468928,-1.63338406041717,-0.023823744,0.0106901415,0.020158553,64.90274,105.21895,-11.6547365,STD
264720170000,4.024984,-1.91545856161735,-9.45644048199979,-1.64035624427946,-0.034513887,0.002443461,0.015577064,64.89985,105.21317,-11.650176,STD
264725167000,4.029981,-1.8796731341096,-9.44621640967845,-1.64546844058327,-0.03604105,0.01863139,0.018936822,64.906975,105.209785,-11.646953,STD
264730259000,4.035073,-1.87398341911396,-9.42646670221509,-1.64070458088604,-0.03604105,0.014966198,0.014966198,64.90193,105.20722,-11.638539,STD
264735138000,4.039952,-1.88335000369851,-9.40305024075373,-1.63133799630149,-0.03268129,0.013744468,0.016798794,64.90271,105.2064,-11.632063,STD
264740224000,4.045038,-1.88506755811379,-9.39641137453473,-1.63118378377242,-0.032070424,0.013439035,0.016493361,64.901634,105.20237,-11.621086,STD
264745172000,4.049986,-1.88277694050853,-9.3987020399768,-1.63576501898294,-0.025350908,0.01038471,0.01160644,64.89926,105.19614,-11.609865,STD
264750162000,4.054976,-1.88046687950404,-9.40101214922415,-1.64038514099193,-0.03573562,0.006414085,0.009773844,64.89677,105.19448,-11.60122,STD
