timestamp,rel_time,acc_x,acc_y,acc_z,gyro_x,gyro_y,gyro_z,azimuth,pitch,roll,label
14919478126000,0,-0.521466226487446,9.81979539260252,0.575168989178357,-0.03940081,-0.05681047,-0.0033597588,31.738264,-85.602646,-2.220732,STD
14919483112000,0.004986,-0.521943693808533,9.81860172803904,0.579466184099713,-0.04153884,-0.05131268,-0.00061086525,31.784609,-85.63685,-2.2431347,STD
14919488111000,0.009985,-0.522422406030378,9.81740495123341,0.583774583099283,-0.061086524,-0.040927973,-0.0067195175,31.827892,-85.66032,-2.26857,STD
14919493137000,0.015011,-0.522903703815333,9.81620171054026,0.588106252107452,-0.05467244,-0.025045475,-0.011911872,31.86686,-85.68839,-2.2926695,STD
14919498117000,0.019991,-0.52338059656684,9.81500948239623,0.592398275915786,-0.04550946,0.002443461,-0.005497787,31.898464,-85.71172,-2.3150682,STD
14919503091000,0.024965,-0.523856914748768,9.81381869067165,0.596685128611097,-0.03940081,0.01282817,-0.008857546,31.92985,-85.732124,-2.3411224,STD
14919508087000,0.029961,-0.524335339685822,9.81262263207575,0.600990942054156,-0.038789943,0.019242255,-0.0033597588,31.953594,-85.754395,-2.362605,STD
14919513114000,0.034988,-0.524816733232374,9.81141915197936,0.605323472914496,-0.03268129,0.030543262,0.007941248,31.97236,-85.778496,-2.3829818,STD
14919518098000,0.039972,-0.525294009030268,9.81022596622236,0.609618944131511,-0.044593163,0.040927973,0.013439035,31.989061,-85.797195,-2.4029152,STD
14919523128000,0.045002,-0.52577568986161,9.80902176791625,0.613954060548362,-0.02687807,0.049480084,0.01740966,32.002445,-85.82466,-2.4196408,STD
14919528129000,0.050003,-0.526254593606648,9.80782451230414,0.618264183252272,-0.025045475,0.050396383,0.016493361,32.01468,-85.84465,-2.435718,STD
14919533419000,0.055293,-0.526871162171805,9.80677841759952,0.620878045841963,-0.0125227375,0.051923547,0.018020526,32.023884,-85.87118,-2.4495847,STD
14919538336000,0.06021,-0.528750405918587,9.80842276483089,0.600206361193355,-0.002443461,0.030848695,0.014660766,32.039097,-85.89548,-2.464233,STD
14919543133000,0.065007,-0.530583786486681,9.81002698156241,0.580039171594134,0.0036651916,0.024740042,0.013439035,32.052216,-85.90705,-2.4814436,STD
14919548109000,0.069983,-0.532485579629652,9.81169105962287,0.559119443546244,-0.003970624,0.013744468,0.020463986,32.07229,-85.91787,-2.4963546,STD
14919553095000,0.074969,-0.53439119470418,9.81335848189165,0.538157674244238,-0.007330383,-0.013744468,0.013133603,32.09865,-85.9275,-2.5148985,STD
14919558052000,0.079926,-0.536285726177193,9.8150162059563,0.517317824579168,-0.021991149,-0.02076942,0.013133603,32.121574,-85.934654,-2.5291293,STD
14919563120000,0.084994,-0.538222681090492,9.81671105073331,0.496011316993415,-0.025045475,-0.035124753,0.0030543262,32.154076,-85.939835,-2.5474598,STD
14919568104000,0.089978,-0.540127531778709,9.81837780416043,0.475057955942233,-0.04062254,-0.030543262,0.005497787,32.182293,-85.94062,-2.562117,STD
14919573133000,0.095007,-0.542049581158935,9.82005960652499,0.453915409247531,-0.05222898,-0.027794369,0.0036651916,32.214634,-85.938484,-2.58032,STD
14919578117000,0.099991,-0.543954431847152,9.82172635995211,0.432962048196348,-0.048258353,-0.018020526,0.0030543262,32.242916,-85.936615,-2.5973797,STD
14919583140000,0.105014,-0.545874188068443,9.82340615579168,0.411844726254116,-0.038179077,-0.005192355,0.009468411,32.268837,-85.93419,-2.6127748,STD
14919588153000,0.110027,-0.547790122358176,9.82508260742293,0.390769445565998,-0.048258353,-0.0027488936,0.0061086523,32.294556,-85.92604,-2.6308346,STD
14919593152000,0.115026,-0.549700705943729,9.82675437716253,0.369753022633643,-0.03481932,-0.00030543262,0.009468411,32.315926,-85.92737,-2.6450365,STD
14919598142000,0.120016,-0.551607849790881,9.82842313711464,0.348774436829991,-0.03145956,0.0009162979,0.005497787,32.3367,-85.9221,-2.6620135,STD
14919603102000,0.124976,-0.55350352784336,9.83008186444178,0.327921974788686,-0.021380283,0.017715093,0.0027488936,32.35182,-85.92176,-2.6776547,STD
14919608139000,0.130013,-0.555428634768832,9.831766342173,0.306745795090691,-0.015577064,0.024129177,0.006414085,32.369133,-85.921394,-2.692125,STD
14919613115000,0.134989,-0.557330427911803,9.83343042023346,0.285826067042802,-0.0009162979,0.036651913,0.008552114,32.37968,-85.923996,-2.7077732,STD
14919618119000,0.139993,-0.559242922463135,9.83510386207722,0.264788623483388,0.008246681,0.03970624,0.0009162979,32.390953,-85.925156,-2.7247338,STD
14919623137000,0.145011,-0.561160767718647,9.83678198581263,0.243692322168213,0.014966198,0.035430185,0.00580322,32.400345,-85.931335,-2.7371643,STD
14919628117000,0.149991,-0.563064089634241,9.83844740155642,0.222755777618677,0.017104227,0.028710667,-0.0030543262,32.409737,-85.93397,-2.7552443,STD
14919633141000,0.155015,-0.564984228048688,9.84012753181682,0.201634251551033,0.0009162979,0.02443461,0.0012217305,32.4192,-85.9372,-2.7677126,STD
14919638146000,0.16002,-0.566897104793176,9.84180130808141,0.180592603866208,-0.010079277,0.01038471,0.00061086525,32.43338,-85.93889,-2.7834063,STD
14919643143000,0.165017,-0.568806923992418,9.84347240897935,0.159584589184675,-0.019242255,0.012217305,0.00061086525,32.44393,-85.93823,-2.7974923,STD
14919648150000,0.170024,-0.570720565123217,9.8451468540856,0.138534533249027,-0.03634648,0.015882496,-0.0009162979,32.45771,-85.93299,-2.8116827,STD
14919653155000,0.175029,-0.572633441867704,9.84682063035019,0.117492885564202,-0.040011674,0.021991149,-0.0012217305,32.469967,-85.92872,-2.8252785,STD
14919658119000,0.179993,-0.574530648692807,9.84848069536067,0.0966236070212511,-0.048258353,0.018936822,-0.0009162979,32.483604,-85.91977,-2.8387606,STD
14919663153000,0.185027,-0.576454609038811,9.85016416982939,0.0754600396994911,-0.06505715,0.017104227,-0.00030543262,32.494965,-85.90833,-2.852056,STD
14919668146000,0.19002,-0.57836289946543,9.851833933044,0.0544688415196048,-0.059253927,0.015882496,0.0015271631,32.506832,-85.90023,-2.864611,STD
14919673232000,0.195106,-0.580306733855532,9.85353479739599,0.0330866596764442,-0.056199603,0.008246681,0.0009162979,32.520927,-85.88789,-2.877344,STD
14919678240000,0.200114,-0.582220757179487,9.85520957692308,0.0120323996153846,-0.0421497,0.007330383,0.0033597588,32.53319,-85.8801,-2.8885434,STD
14919683159000,0.205033,-0.584100765312581,9.85685459299611,-0.00864769328404671,-0.046731193,0.0030543262,0.0070249503,32.548363,-85.86933,-2.8992043,STD
14919688159000,0.210033,-0.58601173109129,9.85852669715654,-0.0296683203418139,-0.04337143,0.004581489,0.010995574,32.561832,-85.863594,-2.9089515,STD
14919693151000,0.215025,-0.587919639324753,9.86019612595031,-0.0506553143962886,-0.028099801,0.017104227,0.021380283,32.57295,-85.8614,-2.9157586,STD
14919698149000,0.220023,-0.589829840717151,9.86186756126908,-0.0716675332032325,-0.03604105,0.018020526,0.021685716,32.586754,-85.85392,-2.9240348,STD
14919703098000,0.224972,-0.591721314644917,9.86352260996707,-0.0924737498650105,-0.025961773,0.017715093,0.025961773,32.596897,-85.85599,-2.9282613,STD
14919708138000,0.230012,-0.593647568149855,9.86520809096079,-0.11366254193924,-0.03023783,0.01985312,0.017104227,32.60606,-85.85088,-2.9361112,STD
14919713116000,0.23499,-0.595550125679138,9.86687283786291,-0.134590678237953,-0.025961773,0.016187929,0.01985312,32.616524,-85.85266,-2.9392505,STD
14919718093000,0.239967,-0.597452301015265,9.86853725034421,-0.155514610411254,-0.029932396,0.01863139,0.021380283,32.624588,-85.84979,-2.9452572,STD
14919724068000,0.245942,-0.599735905120822,9.87053541481592,-0.180634259745286,-0.025350908,0.023518313,0.021685716,32.632774,-85.84974,-2.9506958,STD
14919728180000,0.250054,-0.601307483377232,9.87191055327746,-0.197921623437594,-0.035124753,0.01740966,0.014966198,32.643307,-85.84479,-2.9574814,STD
14919733101000,0.254975,-0.603188255896638,9.87355623819216,-0.218610124587848,-0.035430185,0.008552114,0.008857546,32.653053,-85.84279,-2.9639256,STD
14919738099000,0.259973,-0.598061461030142,9.87390789521036,-0.218507423906322,-0.039095376,0.0125227375,0.010995574,32.660694,-85.83845,-2.969903,STD
14919743120000,0.264994,-0.592306091827784,9.87414770708073,-0.21658896775594,-0.03176499,0.027488936,0.0036651916,32.66773,-85.83306,-2.980218,STD
14919748119000,0.269993,-0.586575940335534,9.87438646819206,-0.21467891750783,-0.03268129,0.03940081,0.003970624,32.658474,-85.87371,-2.978614,STD
14919753098000,0.274972,-0.580868714034292,9.8746242740679,-0.212776508989058,-0.029626964,0.046731193,0.0021380284,32.64639,-85.91331,-2.9794636,STD
14919759160000,0.281034,-0.573920088640009,9.87491380594566,-0.210460300826617,-0.01160644,0.04550946,0.0027488936,32.6334,-85.954895,-2.9791646,STD
14919763112000,0.284986,-0.569390070896986,9.87510256047896,-0.208950295109368,-0.017715093,0.041233405,0.008246681,32.619312,-85.9918,-2.9776309,STD
14919768098000,0.289972,-0.563674820778891,9.87534070068723,-0.207045211985328,-0.016798794,0.03634648,0.0027488936,32.606007,-86.03,-2.9786248,STD
14919773199000,0.295073,-0.557827750812504,9.87558433349957,-0.205096188917593,-0.011911872,0.025961773,0.013133603,32.595314,-86.07112,-2.9730732,STD
14919778128000,0.300002,-0.552177837488779,9.87581975128668,-0.203212884722167,-0.022296581,0.014660766,0.011911872,32.586586,-86.10468,-2.972044,STD
14919783143000,0.305017,-0.546429345843723,9.87605927658641,-0.201296721090586,-0.021685716,0.01038471,0.01985312,32.578556,-86.144264,-2.9651775,STD
14919788127000,0.310001,-0.540716388244729,9.87629732127112,-0.19939240213948,-0.026267206,0.0021380284,0.015577064,32.57499,-86.17691,-2.9618173,STD
14919793854000,0.315728,-0.534151759799817,9.87657085295438,-0.197204192943456,-0.02076942,0.011911872,0.01985312,32.56717,-86.21406,-2.9538393,STD
14919798151000,0.320025,-0.529226282511919,9.87677608529993,-0.195562367395121,-0.01985312,0.011911872,0.008246681,32.5646,-86.243996,-2.95135,STD
14919803093000,0.324967,-0.52356146781404,9.87701212399011,-0.193674096075625,-0.018020526,0.0106901415,0.020463986,32.559166,-86.28037,-2.9408596,STD
14919808177000,0.330051,-0.517733884260009,9.87725494485228,-0.191731568477827,-0.015882496,0.004886922,0.007941248,32.555393,-86.30778,-2.9405868,STD
14919813144000,0.335018,-0.512040413073371,9.87749217758683,-0.189833744996659,-0.01282817,-0.0030543262,0.021991149,32.552063,-86.34352,-2.9291384,STD
14919818109000,0.339983,-0.506349234405833,9.87772931479782,-0.187936685688424,-0.018325957,-0.006414085,0.008857546,32.549408,-86.36813,-2.928937,STD
14919823245000,0.345119,-0.500462045355184,9.87797461927228,-0.185974289594347,-0.00580322,-0.015577064,0.014966198,32.55016,-86.403,-2.9190772,STD
14919828116000,0.34999,-0.49487861508538,9.87820726687646,-0.184113146414002,-0.021991149,-0.01985312,0.02321288,32.550415,-86.42874,-2.9123216,STD
14919833111000,0.354985,-0.489153048631331,9.87844583694069,-0.18220462451176,-0.032986723,-0.02076942,0.024740042,32.552105,-86.45639,-2.9056756,STD
14919838095000,0.359969,-0.483440091032337,9.87868388162541,-0.180300305560654,-0.029932396,-0.024740042,0.029321533,32.555515,-86.48548,-2.895818,STD
14919843127000,0.365001,-0.477672112974925,9.8789242188753,-0.178377646459135,-0.02687807,-0.027794369,0.02687807,32.55873,-86.51073,-2.8876626,STD
14919848108000,0.369982,-0.471962594154581,9.87916212027469,-0.17647447376743,-0.024740042,-0.027794369,0.034208454,32.561794,-86.538956,-2.8755524,STD
14919853129000,0.375003,-0.466207224952223,9.87940193214506,-0.174556017617048,-0.03848451,-0.030543262,0.04550946,32.566227,-86.56479,-2.8630993,STD
14919858159000,0.380033,-0.460441539413912,9.87964217387141,-0.172634122688464,-0.034208454,-0.029321533,0.045814894,32.569267,-86.592186,-2.8519301,STD
14919863325000,0.385199,-0.454519962576752,9.87988891119911,-0.170660264000379,-0.029932396,-0.030543262,0.03970624,32.57345,-86.61785,-2.8396165,STD
14919868115000,0.389989,-0.449029379330527,9.88011769009954,-0.168830069823854,-0.03481932,-0.032070424,0.033292156,32.577087,-86.64205,-2.827601,STD
14919873183000,0.395057,-0.443220135929302,9.88035974677332,-0.166893655609527,-0.03268129,-0.05131268,0.024740042,32.585945,-86.665306,-2.818016,STD
14919878199000,0.400073,-0.437470498024696,9.88059931983483,-0.16497710989148,-0.025961773,-0.05222898,0.0143553335,32.5898,-86.685875,-2.8111424,STD
14919883112000,0.404986,-0.431838924853777,9.88083397343354,-0.163099919079525,-0.030543262,-0.06780604,0.0018325958,32.603092,-86.70182,-2.8072097,STD
14919888147000,0.410021,-0.426067508017714,9.88107445396876,-0.161176113718606,-0.02687807,-0.07696902,-0.0015271631,32.614468,-86.71911,-2.8037636,STD
14919893161000,0.415035,-0.420320162632209,9.88131393150671,-0.159260332173492,-0.032375857,-0.07086037,-0.0030543262,32.625587,-86.73119,-2.8034143,STD
14919898149000,0.420023,-0.414602619995013,9.88155216723852,-0.157354484876519,-0.043676864,-0.06383542,-0.004886922,32.638626,-86.74153,-2.8040779,STD
14919903080000,0.424954,-0.408950414152187,9.88178768054918,-0.155470416508159,-0.044593163,-0.04062254,0.0012217305,32.644814,-86.7537,-2.8031003,STD
14919908134000,0.430008,-0.403157218384668,9.88202906855812,-0.153539351504369,-0.04428773,-0.027488936,0.003970624,32.65159,-86.76275,-2.8035855,STD
14919913153000,0.435027,-0.39740414170141,9.88226878490494,-0.151621659526921,-0.03268129,-0.016798794,0.010995574,32.652157,-86.77552,-2.8012617,STD
14919918184000,0.440058,-0.391637309903549,9.88250907439306,-0.149699382511869,-0.024740042,-0.015577064,0.015577064,32.65159,-86.78758,-2.79887,STD
14919923264000,0.445138,-0.38581431138772,9.88275170420814,-0.147758383259939,-0.003970624,-0.014049901,0.015577064,32.64782,-86.8033,-2.795858,STD
14919928187000,0.450061,-0.380171275621297,9.8829868354246,-0.145877371583315,0.003970624,-0.01282817,0.025045475,32.64365,-86.821434,-2.788846,STD
14919933265000,0.455139,-0.374350569624569,9.88322936971613,-0.143937136504319,0.004886922,-0.017715093,0.032375857,32.64077,-86.84045,-2.7823975,STD
14919938147000,0.460021,-0.380837750274492,9.88227279928358,-0.139683294399178,0.018325957,-0.03145956,0.029932396,32.640026,-86.86157,-2.776019,STD
14919943158000,0.465032,-0.389733353892838,9.88107069150071,-0.134874859953889,0.021685716,-0.03268129,0.025045475,32.63695,-86.88207,-2.7684007,STD
14919948151000,0.470025,-0.398597003636682,9.87987290180607,-0.1300836978734,0.020158553,-0.050396383,0.022907447,32.624878,-86.91473,-2.744203,STD
14919953147000,0.475021,-0.407465979026277,9.87867439243005,-0.125289657065444,0.027488936,-0.071776666,0.026267206,32.614334,-86.9485,-2.7201676,STD
14919958403000,0.480277,-0.416796510380902,9.87741351066857,-0.120246126543704,0.018325957,-0.09407325,0.015577064,32.609264,-86.97518,-2.7010248,STD
14919963150000,0.485024,-0.425223457173217,9.87627473484632,-0.115691020115488,0.013133603,-0.09773844,0.009773844,32.604786,-87.00474,-2.6799462,STD
14919968147000,0.490021,-0.434094207778062,9.87507598557651,-0.11089601973171,0.013133603,-0.101098195,0.005192355,32.6048428520958,-87.0150980528942,-2.67220364273453,STD
14919973170000,0.495044,-0.443011113979409,9.87387099906816,-0.106076070376554,-0.009773844,-0.09560041,-0.0036651916,32.6049,-87.02551,-2.6644208,STD
14919978180000,0.500054,-0.451904942382505,9.87266913117908,-0.101268595507087,-0.022907447,-0.098043874,0.006414085,32.60701,-87.05085,-2.6441576,STD
14919983109000,0.504983,-0.460654978350342,9.87148669468701,-0.0965388462792215,-0.035430185,-0.09010262,0.004276057,32.60552,-87.06636,-2.6316307,STD
14919988096000,0.50997,-0.469507976802685,9.8702903443551,-0.091753441653666,-0.021380283,-0.095294975,0.010079277,32.608185,-87.087776,-2.6142447,STD
14919993150000,0.515024,-0.478479914676787,9.86907792113925,-0.0869037454480198,-0.009162978,-0.08155051,0.02321288,32.603004,-87.10837,-2.595921,STD
14919998138000,0.520012,-0.48733468834438,9.86788133091355,-0.0821173812466421,0.002443461,-0.076052725,0.020158553,32.601574,-87.127556,-2.5808825,STD
14920003128000,0.525002,-0.496193012442474,9.86668426090028,-0.0773290978936199,0.01985312,-0.07513642,0.035430185,32.597218,-87.15662,-2.5573316,STD
14920008147000,0.530021,-0.505102817782821,9.86548023396709,-0.0725129868417525,0.043982297,-0.07422013,0.028710667,32.591373,-87.18101,-2.5413544,STD
14920013150000,0.535024,-0.513984219679166,9.86428004533454,-0.067712229003041,0.06780604,-0.070554934,0.03726278,32.584187,-87.214745,-2.5170965,STD
14920018130000,0.540004,-0.522824791624759,9.86308537425916,-0.0629335414082413,0.07086037,-0.07238753,0.0290161,32.578358,-87.24213,-2.4998891,STD
14920023172000,0.545046,-0.531775426915859,9.86187582976879,-0.0580953601124621,0.0870483,-0.083383106,0.028099801,32.57389,-87.27727,-2.4784565,STD
14920028174000,0.550048,-0.540655053596954,9.86067588103004,-0.0532955618495729,0.0870483,-0.09101892,0.021380283,32.568966,-87.30636,-2.4613469,STD
14920033116000,0.55499,-0.549428167363042,9.85949032591869,-0.0485533381360186,0.079107046,-0.089491755,0.02076942,32.56434,-87.33692,-2.4430168,STD
14920038109000,0.559983,-0.558291817106886,9.85829253622404,-0.0437621760555297,0.07880162,-0.10873401,0.021380283,32.567673,-87.366066,-2.4263566,STD
14920043121000,0.564995,-0.567189195940482,9.85709018854738,-0.038952782034418,0.064751714,-0.111177474,0.020158553,32.565567,-87.391396,-2.4107342,STD
14920048113000,0.569987,-0.576051070469076,9.85589263874652,-0.0341625795297513,0.032986723,-0.12980886,0.02076942,32.5733,-87.414696,-2.394522,STD
14920053106000,0.57498,-0.584914720212921,9.85469484905188,-0.0293714174492623,0.021380283,-0.12308934,0.02321288,32.574158,-87.43819,-2.3785563,STD
14920058153000,0.580027,-0.593874231580271,9.85348410509256,-0.0245284382743719,0.004276057,-0.115453534,0.022907447,32.579723,-87.45659,-2.3635006,STD
14920063115000,0.584989,-0.602682849651361,9.85229375210541,-0.0197670230443726,0.0018325958,-0.09682214,0.022602014,32.57989,-87.47547,-2.348223,STD
14920068155000,0.590029,-0.611629934511961,9.85108468740262,-0.014930760900238,0.0070249503,-0.08460484,0.02565634,32.579453,-87.49375,-2.3324757,STD
14920073134000,0.595008,-0.620468731242304,9.84989025622104,-0.0101530328812605,0.0143553335,-0.08552113,0.02565634,32.57737,-87.510735,-2.3180656,STD
14920078132000,0.600006,-0.629341257062398,9.84869126705744,-0.00535707292166028,0.03756821,-0.0852157,0.03573562,32.57136,-87.533066,-2.3002906,STD
14920083112000,0.604986,-0.638181829007991,9.84749659598207,-0.000578385326860546,0.06047566,-0.08246681,0.03848451,32.564934,-87.553764,-2.2849264,STD
14920088116000,0.60999,-0.647065006119586,9.84629616745572,0.00422333208767315,0.08032878,-0.09712757,0.042760566,32.563293,-87.57912,-2.2665098,STD
14920093120000,0.614994,-0.655948183231182,9.84509573892939,0.00902504950220686,0.105374254,-0.099571034,0.047036625,32.557285,-87.60741,-2.2476742,STD
14920098125000,0.619999,-0.664833135558027,9.84389507050926,0.0138277264925628,0.12003502,-0.11636983,0.061391957,32.559338,-87.639725,-2.2249458,STD
14920103107000,0.624981,-0.67367725793412,9.8426999196463,0.018608333239007,0.11636983,-0.12034045,0.064751714,32.55821,-87.67001,-2.2045093,STD
14920108203000,0.630077,-0.682723754848726,9.84147742089126,0.0234983316291877,0.124311075,-0.109650314,0.06872234,32.557243,-87.705734,-2.1802154,STD
14920113117000,0.634991,-0.691447162587811,9.84029858280604,0.0282136872197189,0.115453534,-0.094989546,0.0729984,32.555866,-87.73958,-2.1553288,STD
14920118701000,0.640575,-0.701359964544475,9.83895901588137,0.033571958611157,0.1001819,-0.08155051,0.07086037,32.55146,-87.77191,-2.1316214,STD
14920123097000,0.644971,-0.709163810783998,9.83790444277949,0.0377902539257634,0.08460484,-0.08002335,0.07086037,32.54604,-87.804344,-2.1065357,STD
14920128120000,0.649994,-0.718080716985346,9.83669945627114,0.0426102032809198,0.0693332,-0.06994407,0.0693332,32.53424,-87.83379,-2.082997,STD
14920133046000,0.65492,-0.726825427307432,9.83551773946043,0.0473370737813181,0.055283304,-0.065973446,0.077579886,32.523674,-87.86414,-2.0570765,STD
14920138103000,0.659977,-0.724409276654335,9.83195297441714,0.0343861892207176,0.03359759,-0.05681047,0.082161374,32.508797,-87.89075,-2.0331147,STD
14920143094000,0.664968,-0.720596202324445,9.82813989759877,0.0193722080949323,0.018020526,-0.06169739,0.090713486,32.496853,-87.919586,-2.0061119,STD
14920148114000,0.669988,-0.716760972283161,9.82430466505455,0.00427098885000299,0.0125227375,-0.05589417,0.086132,32.491833,-87.90658,-2.0162883,STD
14920153101000,0.674975,-0.712950953913464,9.82049464419836,-0.0107309594317624,0.0036651916,-0.043982297,0.087659165,32.486565,-87.89627,-2.022212,STD
14920158066000,0.67994,-0.709157743324824,9.8167014311342,-0.0256667270714186,0.007330383,-0.046120327,0.07544186,32.483913,-87.88163,-2.0332427,STD
14920163115000,0.684989,-0.705300357572147,9.81284404286412,-0.0408551844354919,-0.00580322,-0.043982297,0.07269296,32.476868,-87.86811,-2.0410614,STD
14920168125000,0.689999,-0.701472767431344,9.80901645022536,-0.0559263215703716,-0.016493361,-0.04062254,0.07727446,32.47037,-87.85395,-2.0500987,STD
14920173102000,0.694976,-0.697670388962127,9.80521406927465,-0.0708981877420873,-0.01038471,-0.027488936,0.07360926,32.4608,-87.83733,-2.062155,STD
14920178119000,0.699993,-0.693837450890987,9.80138112870206,-0.0859903823540017,-0.014966198,-0.016493361,0.06536258,32.451206,-87.81911,-2.0740871,STD
14920183144000,0.705018,-0.689998400899464,9.7975420762051,-0.101106642653956,-0.015882496,0.0009162979,0.05681047,32.436417,-87.80091,-2.087037,STD
14920188917000,0.710791,-0.685587886351987,9.79313155877924,-0.118473044785625,-0.016187929,0.01863139,0.043676864,32.418907,-87.779236,-2.1034524,STD
14920193150000,0.715024,-0.682353916478531,9.78989758679524,-0.131206801969646,-0.013133603,0.042760566,0.036957346,32.395195,-87.75767,-2.1202235,STD
14920198148000,0.720022,-0.678535494218304,9.78607916204304,-0.146241840572466,-0.0018325958,0.079107046,0.028710667,32.363693,-87.73347,-2.140842,STD
14920203112000,0.724986,-0.674743047619712,9.78228671296943,-0.161174600001117,-0.019547688,0.10781772,0.037873644,32.32832,-87.710365,-2.1579201,STD
14920208125000,0.729999,-0.670913165508765,9.77845682835903,-0.176254761769011,-0.02687807,0.13500121,0.032070424,32.284176,-87.68383,-2.181104,STD
14920213139000,0.735013,-0.66708251940777,9.77462617975808,-0.191337931747911,-0.028405234,0.15577064,0.038179077,32.234848,-87.66262,-2.1977186,STD
14920218199000,0.740073,-0.663216729764564,9.77076038759199,-0.206559479433039,-0.023823744,0.16920967,0.036651913,32.18135,-87.63852,-2.2175791,STD
14920223153000,0.745027,-0.659431923066453,9.76697557842384,-0.22146215675164,-0.010079277,0.1994475,0.04337143,32.118576,-87.61989,-2.232826,STD
14920228128000,0.750002,-0.655631072577332,9.76317472545422,-0.236428006501346,0.0027488936,0.20738874,0.04642576,32.059948,-87.60109,-2.248846,STD
14920233125000,0.754999,-0.651813414307154,9.75935706469257,-0.251460036893161,0.008857546,0.20525073,0.06963864,31.997164,-87.59105,-2.2565527,STD
14920238134000,0.760008,-0.647986588156399,9.75553023604435,-0.266528165817036,0.018936822,0.20769419,0.082161374,31.93253,-87.58146,-2.2658072,STD
14920243138000,0.765012,-0.644163581955884,9.75170722734888,-0.281581253685886,0.03390302,0.19486602,0.07788532,31.874447,-87.5753,-2.2726421,STD
14920248152000,0.770026,-0.640332935854889,9.74787657874793,-0.296664423664785,0.05681047,0.16584991,0.089491755,31.821726,-87.57909,-2.2708545,STD
14920253138000,0.775012,-0.63652368147524,9.74406732188229,-0.311663363735546,0.06780604,0.13225232,0.09743301,31.77541,-87.58148,-2.2708356,STD
14920258205000,0.780079,-0.632652543901697,9.74019618178237,-0.326905968897708,0.06994407,0.10445796,0.10476339,31.736818,-87.58848,-2.2672546,STD
14920263140000,0.785014,-0.628882253014499,9.73642588843462,-0.341751490207216,0.06658431,0.071776666,0.1020145,31.710075,-87.59553,-2.2639327,STD
14920268171000,0.790045,-0.625038619082687,9.73258225199438,-0.3568857997732,0.057421334,0.06169739,0.099571034,31.685375,-87.60425,-2.25833,STD
14920273059000,0.794933,-0.621304235727748,9.72884786620231,-0.371589935165473,0.04642576,0.060170226,0.10598512,31.667921,-87.61405,-2.2508726,STD
14920278034000,0.799908,-0.617503385238627,9.72504701323268,-0.386555784915179,0.03176499,0.07238753,0.09468412,31.649778,-87.61713,-2.2492125,STD
14920283037000,0.804911,-0.613681143028161,9.72122476852775,-0.401605864573024,0.04886922,0.105374254,0.07086037,31.626421,-87.62041,-2.249461,STD
14920288042000,0.809916,-0.609857372837598,9.71740099584173,-0.416661960652879,0.077579886,0.13225232,0.062002823,31.601685,-87.624405,-2.2486818,STD
14920293056000,0.81493,-0.606026726736603,9.71357034724078,-0.431745130631778,0.10720685,0.1853976,0.04917465,31.560707,-87.622665,-2.2558298,STD
14920298053000,0.819927,-0.602209068466425,9.70975268647913,-0.446777161023593,0.12186762,0.2144137,0.030848695,31.519781,-87.61843,-2.2666645,STD
14920303022000,0.824896,-0.598412801917592,9.70595641745278,-0.461724961507269,0.13469578,0.23854288,0.015577064,31.466192,-87.61414,-2.2798185,STD
14920308146000,0.83002,-0.59449811691131,9.70204172989171,-0.477139034696715,0.13530666,0.24984388,0.014660766,31.409298,-87.60921,-2.293318,STD
14920313150000,0.835024,-0.590675110710796,9.69821872119623,-0.492192122565565,0.13561209,0.2764165,-0.00061086525,31.342678,-87.59744,-2.3144336,STD
14920318173000,0.840047,-0.586837588699368,9.69438119668036,-0.507302366443509,0.1441642,0.29138273,-0.014660766,31.277643,-87.58667,-2.3344634,STD
14920323207000,0.845081,-0.582991662797411,9.69053526826848,-0.522445700642508,0.14721853,0.2947425,-0.018325957,31.210016,-87.57453,-2.3548234,STD
14920328196000,0.85007,-0.579180116447618,9.68672371943121,-0.537453665346283,0.17684549,0.30879238,-0.026572637,31.136845,-87.55997,-2.379368,STD
14920333049000,0.854923,-0.575472472744361,9.68301607330827,-0.552052513353384,0.20066923,0.3191771,-0.03726278,31.065514,-87.54374,-2.4044416,STD
14920338140000,0.860014,-0.522632072246696,9.70442762995595,-0.484915496387665,0.2434298,0.3145956,-0.062002823,30.996258,-87.524155,-2.4345791,STD
14920343054000,0.864928,-0.458134174625551,9.73206966167401,-0.397382633268722,0.29657507,0.2950479,-0.07941248,30.930092,-87.50508,-2.4642677,STD
14920348142000,0.870016,-0.37345965095819,9.76785428460403,-0.324072924421053,0.35063666,0.27030787,-0.095294975,30.860395,-87.50942,-2.4759026,STD
14920353110000,0.874984,-0.284529601628136,9.8052982936547,-0.258545527368421,0.38759398,0.24373524,-0.10629055,30.798107,-87.50636,-2.4895093,STD
14920358600000,0.880474,-0.193887801807732,9.82026995506792,-0.203034314712644,0.42394048,0.20738874,-0.118202426,30.746479,-87.50242,-2.4975278,STD
14920363124000,0.884998,-0.121452326535005,9.82479726415883,-0.162289350712644,0.45234573,0.17012598,-0.12370021,30.703526,-92.508156,-2.5054736,STD
14920368124000,0.889998,-0.0586919942645265,9.81460727686979,-0.171890061955896,0.45998153,0.1282817,-0.13530666,30.667385,-92.51532,-2.503822,STD
14920373180000,0.895054,0.000365840056593653,9.80043335795482,-0.195513192724301,0.46120325,0.105068825,-0.15607607,30.636877,-92.53213,-2.5054271,STD
14920378143000,0.900017,0.0583373653207786,9.78652015392496,-0.218701799924379,0.45540005,0.06383542,-0.15515977,30.62118,-92.5383,-2.4913988,STD
14920383136000,0.90501,0.116659312861394,9.77252284831927,-0.242030576017466,0.44012842,0.0290161,-0.16615535,30.610142,-92.55713,-2.4861133,STD
14920388137000,0.910011,0.153800240176039,9.75519311540342,-0.278584388845966,0.4266894,-0.027488936,-0.17806722,30.624031,-92.579124,-2.4795818,STD
14920393157000,0.915031,0.182010838376528,9.73638615794621,-0.320900298420538,0.42332962,-0.08552113,-0.1994475,30.647543,-92.60937,-2.4786732,STD
14920398155000,0.920029,0.199950439031743,9.74966919835077,-0.410917027143111,0.4166101,-0.13103059,-0.19547687,30.67158,-92.62366,-2.454463,STD
14920403094000,0.924968,0.21253241672105,9.77902686309629,-0.524154835105515,0.40469822,-0.18570304,-0.20799962,30.713432,-92.65041,-2.4413826,STD
14920408109000,0.929983,0.198319239995789,9.8289963804611,-0.671575232477103,0.3735441,-0.27030787,-0.2275473,30.77236,-92.67451,-2.4232218,STD
14920413148000,0.935022,0.142436220737972,9.91028082419202,-0.869705943387725,0.34300083,-0.3643811,-0.2434298,30.847769,-92.70175,-2.4082665,STD
14920418144000,0.940018,0.11730569238741,10.0051341280808,-1.02447378734039,0.29077184,-0.4361578,-0.2706133,30.934216,-92.74064,-2.3994086,STD
14920423184000,0.945058,0.122083196336732,10.1150164046323,-1.13913386216965,0.26939157,-0.4700608,-0.30634892,31.033838,-92.78724,-2.398383,STD
14920428147000,0.950021,0.257325835890682,10.2232412567581,-1.16503912660659,0.30207285,-0.5119051,-0.32436943,31.149185,-92.852165,-2.4032664,STD
14920433175000,0.955049,0.533870720005941,10.3329063230023,-1.09828691268442,0.32436943,-0.5030475,-0.36071593,31.256273,-92.92604,-2.4236734,STD
14920438125000,0.959999,0.871100606051817,10.4800378706497,-0.950461078035576,0.39645153,-0.44806966,-0.38240165,31.354403,-93.01886,-2.4394696,STD
14920443792000,0.965666,1.34330277841261,10.7003983767401,-0.672386472119103,0.48380527,-0.38728857,-0.37782016,31.445219,-93.12122,-2.4578617,STD
14920448096000,0.96997,1.69741647653437,10.86077123396,-0.449314476633841,0.5412266,-0.32620203,-0.3472769,31.492552,-93.2184,-2.4433124,STD
14920453139000,0.975013,2.10576684257436,11.0385238158759,-0.170675408057296,0.56291234,-0.26816985,-0.2751948,31.52189,-93.31809,-2.4149306,STD
14920458095000,0.979969,2.46198703944002,11.1755838642685,0.116038654320415,0.54702985,-0.23335053,-0.17959438,31.526981,-93.35224,-2.302948,STD
14920463150000,0.985024,2.74923785966994,11.2518850259596,0.430219370758391,0.50640726,-0.20066923,-0.05131268,31.51599,-93.37522,-2.162643,STD
14920468101000,0.989975,2.99580512528363,11.2764650199892,0.749112238033495,0.45081854,-0.18387043,0.08124508,31.493652,-93.34967,-1.9439201,STD
14920473227000,0.995101,3.12310688444084,11.1173374748784,1.12040882787682,0.4184427,-0.19333886,0.20677789,31.469927,-93.3216,-1.6956694,STD
14920478048000,0.999922,3.17345061402367,10.9422549473373,1.43316350588757,0.38789943,-0.20066923,0.31337386,31.443157,-93.24881,-1.3819264,STD
14920483141000,1.005015,3.1012986757002,10.7113692670611,1.69772039542406,0.36743546,-0.18570304,0.40408736,31.413054,-93.19157,-1.0438354,STD
14920488061000,1.009935,3.00208345763896,10.4994051323168,1.921951581515,0.35277468,-0.15668693,0.47311515,31.392233,-93.11975,-0.6791312,STD
14920493166000,1.01504,2.83855707431382,10.3022110103296,2.0902876633153,0.34147367,-0.1386664,0.5213735,31.36962,-93.08276,-0.30163276,STD
14920498071000,1.019945,2.64182604433061,10.1536202375135,2.26057080172397,0.32895094,-0.10995574,0.5488624,31.357851,-93.05734,0.06196178,STD
14920503096000,1.02497,2.34789893862674,10.0967314556201,2.45494196983548,0.30482176,-0.13041973,0.54061574,31.353294,-93.06757,0.42242366,STD
14920508134000,1.030008,1.93587085410569,10.0771397616415,2.6496789709079,0.2724459,-0.20341812,0.51343226,31.368002,-93.07931,0.7456215,STD
14920513092000,1.034966,1.23296387799213,10.152768656048,2.84097638408133,0.22357668,-0.29840767,0.46731192,31.392363,-93.110275,1.0554143,STD
14920518104000,1.039978,0.583592412672354,10.2372314179149,2.97961901669477,0.14477506,-0.35918877,0.40042216,31.446562,-93.09096,1.2882565,STD
14920523141000,1.045015,0.306057869783752,10.3712143188176,2.78343083962901,0.04886922,-0.47678033,0.3652974,31.541489,-93.074165,1.5113949,STD
14920528082000,1.049956,0.0431793657888163,10.4904878692352,2.5845067375,-0.002443461,-0.57604593,0.35338554,31.694447,-92.94663,1.571734,STD
14920533109000,1.054983,-0.155718801258647,10.5228663280169,2.334727675,-0.09621128,-0.62949663,0.34697145,31.864994,-92.79154,1.6220217,STD
14920538265000,1.060139,-0.36117498299184,10.5489003689937,2.07981685639166,-0.1966986,-0.68661255,0.3436117,32.066345,-92.621666,1.618193,STD
14920543127000,1.065001,-0.572246789410698,10.4879243162083,1.8546735393976,-0.2864958,-0.7367035,0.37415496,32.27831,-92.44822,1.62177,STD
14920548174000,1.070048,-0.788005521791238,10.4202090733663,1.62786244352579,-0.40103304,-0.77732605,0.39950588,32.506283,-92.26442,1.5849817,STD
14920553152000,1.075026,-0.957867628115637,10.296672721192,1.49274491483521,-0.5296202,-0.8332202,0.4129449,32.74976,-92.074844,1.5532556,STD
14920558070000,1.079944,-1.12568238080816,10.17462535679,1.35925596222366,-0.675617,-0.89858276,0.4288274,33.010376,-91.87594,1.4868392,STD
14920563118000,1.084992,-1.29282475685732,10.0385634706335,1.19221825733395,-0.8436049,-0.96883225,0.41783184,33.28441,-91.664825,1.4167697,STD
14920568165000,1.090039,-1.45631656922919,9.89488873790488,1.00395483674662,-1.0256428,-1.0467176,0.40225476,33.575306,-91.46361,1.3500552,STD
14920573134000,1.095008,-1.59000905854389,9.77423342165185,0.803229424448217,-1.17897,-1.1291844,0.37598756,33.882915,-91.2559,1.2284148,STD
14920578150000,1.100024,-1.70994631243384,9.66389144062718,0.592139878641766,-1.3063353,-1.205848,0.33017266,34.206726,-88.89919,1.097873,STD
14920583099000,1.104973,-1.82427188685103,9.59351003402899,0.336297817877146,-1.3988814,-1.2983941,0.2742785,34.560184,-88.97261,0.93531626,STD
14920588114000,1.109988,-1.93783588386964,9.54413442798396,0.0499191135998766,-1.434617,-1.4010195,0.21197024,34.9336,-88.9088,0.76007366,STD
14920593126000,1.115,-2.03155357521619,9.49629449606918,-0.309124004848958,-1.4440855,-1.5128077,0.14446963,35.35103,-88.73848,0.5629464,STD
14920598113000,1.119987,-2.11603392370283,9.4493610235849,-0.69867210728125,-1.391551,-1.6328428,0.07513642,35.79393,-88.496574,0.35087243,STD
14920603091000,1.124965,-2.17388059621115,9.41881710189443,-1.1744244144565,-1.278541,-1.7302758,-0.016187929,36.25323,-88.25703,0.10572626,STD
14920608134000,1.130008,-2.21829461350009,9.39661009324995,-1.70295159120839,-1.1120802,-1.7971655,-0.111177474,36.730644,-88.00875,-0.15582412,STD
14920613120000,1.134994,-2.2144329554023,9.40698536792059,-2.24787164971787,-0.87017757,-1.8197676,-0.20647246,37.216473,-87.8215,-0.42860344,STD
14920618112000,1.139986,-2.15948193747126,9.45194518735632,-2.81736433034483,-0.5717699,-1.8017471,-0.2932153,37.701412,-87.66116,-0.72194266,STD
14920623180000,1.145054,-2.02098650889993,9.53920468939323,-3.20266891915971,-0.23457226,-1.7482964,-0.36132678,38.183884,-87.599846,-0.9914701,STD
14920628163000,1.150037,-1.82406870464222,9.65556519309763,-3.43986542042577,-0.06291912,-1.6444492,-0.3857614,38.638874,-87.5343,-1.2716023,STD
14920633112000,1.154986,-1.5912033139919,9.81328234475953,-3.55056210958762,0.23273966,-1.5360206,-0.42821655,39.083836,-87.604095,-1.5192583,STD
14920638116000,1.15999,-1.30746247971331,10.0273321222603,-3.50078293925418,0.46670106,-1.4309518,-0.46792278,39.493435,-87.63436,-1.7732582,STD
14920643111000,1.164985,-0.986771282427958,10.2218170159411,-3.37687443599019,0.6252206,-1.3158038,-0.47586402,39.85039,-87.69356,-1.9816226,STD
14920648109000,1.169983,-0.629716644573881,10.3978992219497,-3.18122817032495,0.7119634,-1.1942415,-0.48655418,40.169815,-87.671394,-2.202647,STD
14920653258000,1.175132,-0.289410638414198,10.5290896164879,-3.00101571250426,0.74464476,-1.0641272,-0.47586402,40.43057,-87.60445,-2.375819,STD
14920658153000,1.180027,0.0138548990858018,10.6168769081546,-2.84539250417092,0.7312057,-0.9401216,-0.46609017,40.652855,-92.55551,-2.5514543,STD
14920663045000,1.184919,0.310730534461538,10.6793183692308,-2.67075028923077,0.68752885,-0.81581056,-0.43401974,40.826584,-92.7162,-2.6566622,STD
14920668122000,1.189996,0.591834455025478,10.6340558321656,-2.40632206993631,0.61300325,-0.7141015,-0.38759398,40.966286,-92.91671,-2.7527356,STD
14920673146000,1.19502,0.870003865487016,10.5892658013964,-2.14465427916707,0.5155703,-0.6441574,-0.3436117,41.046196,-93.07504,-2.7823648,STD
14920678167000,1.200041,1.14800717160314,10.5445025162665,-1.88314273906908,0.4260785,-0.58276546,-0.30024028,41.096035,-93.234985,-2.7967336,STD
14920683088000,1.204962,1.40347383040615,10.4887221157569,-1.62106928970163,0.3387248,-0.55955255,-0.2489276,41.166534,-93.37761,-2.7848473,STD
14920688112000,1.209986,1.5331090233809,10.3398816663008,-1.30898443589462,0.26389378,-0.57910025,-0.19883664,41.229176,-93.50913,-2.7605033,STD
14920693094000,1.214968,1.6374168517138,10.1885349361304,-0.998133193350815,0.22479841,-0.6209445,-0.16035213,41.286495,-93.51452,-2.6335177,STD
14920698112000,1.219986,1.54965697546357,10.0062644745271,-0.674096679840794,0.204029,-0.67073005,-0.12186762,41.348877,-93.51096,-2.496626,STD
14920703294000,1.225168,1.45902890078666,9.81803698707623,-0.339469893669226,0.20250183,-0.7309003,-0.09132435,41.428825,-93.47105,-2.3439758,STD
14920708123000,1.229997,1.37457444833302,9.64263163452894,-0.0276380236533059,0.22602014,-0.7855727,-0.054061573,41.51813,-93.435326,-2.1840835,STD
14920713099000,1.234973,1.28754911070425,9.46188675271586,0.293686346858026,0.2415972,-0.82986045,-0.0061086523,41.660927,-93.39666,-2.0023868,STD
14920718100000,1.239974,1.10528547981805,9.42566907909395,0.475766021674712,0.2782491,-0.83108217,0.03940081,41.80133,-93.37787,-1.8172817,STD
14920723164000,1.245038,0.90268961060156,9.41666463646491,0.633340599157074,0.29168814,-0.85154617,0.06078109,41.9539,-93.36926,-1.6327319,STD
14920728119000,1.249993,0.685026613437405,9.45091713431323,0.807481627004562,0.30726522,-0.8677341,0.07880162,42.1519,-93.313736,-1.491974,STD
14920733092000,1.254966,0.458123761723264,9.50402212012164,0.990935017283325,0.29443705,-0.88422745,0.0888809,42.34994,-93.26022,-1.3524276,STD
14920738099000,1.259973,0.20666059785686,9.52949103084223,1.15208347307236,0.26053402,-0.9138544,0.096516706,42.565495,-93.197235,-1.2546507,STD
14920743121000,1.264995,-0.0548271281573744,9.54375428529063,1.30422177591934,0.1994475,-0.9584476,0.10476339,42.784454,-93.1264,-1.1580658,STD
14920748156000,1.27003,-0.319987368441676,9.48047266281523,1.40441326974781,0.12217305,-1.0647382,0.10781772,43.077408,-93.03548,-1.1022933,STD
14920753136000,1.27501,-0.583534792534914,9.38463730865066,1.48108155307947,0.03970624,-1.1591167,0.101098195,43.373165,-92.92934,-1.0507759,STD
14920758121000,1.279995,-0.828326242522137,9.27441985326457,1.4542861177581,-0.021991149,-1.2812898,0.10048734,43.727493,-92.804184,-1.0527723,STD
14920763201000,1.285075,-1.06975456479517,9.15607221484869,1.38327783129318,-0.07819075,-1.4101825,0.09132435,44.103134,-92.66401,-1.0627377,STD
14920768891000,1.290765,-1.26347872968425,9.02951900960111,1.2342184853014,-0.12492194,-1.529912,0.0729984,44.537437,-92.52399,-1.1243588,STD
14920773195000,1.295069,-1.38587378826091,8.93568260774028,1.09958392938731,-0.14782938,-1.6362026,0.070249505,44.995888,-92.38424,-1.1866561,STD
14920778145000,1.300019,-1.45474308297808,8.84522395516862,0.919354337846492,-0.16126843,-1.7079792,0.05222898,45.496117,-92.27569,-1.2938212,STD
14920783152000,1.305026,-1.48353385908136,8.76365039017312,0.722617217492245,-0.14782938,-1.7724255,0.027183503,46.01429,-92.187515,-1.4047059,STD
14920788154000,1.310028,-1.46998331991542,8.74004759652832,0.501232084667585,-0.14905111,-1.8414533,-0.009468411,46.564713,-92.15291,-1.5435826,STD
14920793163000,1.315037,-1.43224128326121,8.74948306874508,0.265343860491739,-0.121256754,-1.933083,-0.044898596,47.12866,-92.15248,-1.6889096,STD
14920798146000,1.32002,-1.33560621954799,8.97593035309657,-0.205410845529792,-0.07849618,-2.1001546,-0.084910266,47.744244,-92.20346,-1.8425661,STD
14920803106000,1.32498,-1.20083189218276,9.34307395939732,-0.828160959530379,-0.06811147,-2.3561072,-0.10751228,48.398712,-92.27152,-2.000727,STD
14920808197000,1.330071,-0.94192303344605,9.57155550849923,-1.49892915724934,-0.089186326,-2.586098,-0.10903945,49.088253,-92.36418,-2.148357,STD
14920813147000,1.335021,-0.597189329873648,9.67928471493501,-2.17546906862103,-0.10476339,-2.6621506,-0.113926366,49.79098,-92.47065,-2.3025026,STD
14920818157000,1.340031,-0.240042417617581,9.69982980539335,-2.74060881396114,-0.08032878,-2.62275,-0.10781772,50.47784,-92.570045,-2.4037035,STD
14920823223000,1.345097,0.135971549406519,9.56075656853169,-3.09601918310861,0.018020526,-2.414445,-0.08399397,51.121956,-92.67004,-2.5008688,STD
14920828246000,1.35012,0.513980116437537,9.35404866188484,-3.26114015959354,0.09040806,-2.097406,-0.020463986,51.695747,-92.716606,-2.4845662,STD
14920833148000,1.355022,0.888122438924088,9.0827953833433,-3.23307950591751,0.24190263,-1.7424932,0.03604105,52.18753,-92.791885,-2.4657369,STD
14920838926000,1.3608,1.2818290237865,8.85740378282731,-3.0277340363566,0.32345316,-1.2861768,0.10873401,52.535942,-92.83668,-2.3504677,STD
14920843157000,1.365031,1.54041389955521,8.75161896422355,-2.76914924240959,0.29810223,-1.1560625,0.13408493,52.868996,-92.918144,-2.2377527,STD
14920848105000,1.369979,1.77014847629931,8.64508731451853,-2.40600368331511,0.27977628,-0.91507614,0.19303341,53.02505,-92.98711,-2.0287342,STD
14920853132000,1.375006,1.88975151171619,8.56375761810593,-1.94194389390838,0.23365596,-0.7290677,0.24404067,53.154297,-93.08512,-1.8196256,STD
14920858078000,1.379952,1.93460751077899,8.48156428351449,-1.47422104453502,0.21991149,-0.59986967,0.3042109,53.245037,-93.15389,-1.5410713,STD
14920863154000,1.385028,1.85632752925725,8.39349905525362,-0.975186130404589,0.23151793,-0.5323691,0.37201694,53.296642,-93.25427,-1.2521279,STD
14920868097000,1.389971,1.71625742875519,8.30463056738571,-0.510819270156343,0.28771752,-0.48197266,0.43401974,53.34686,-93.34009,-0.9523413,STD
14920873128000,1.395002,1.47311212595488,8.20927902899268,-0.0722041649277657,0.3585779,-0.44043383,0.49174652,53.377632,-93.465454,-0.64222544,STD
14920878044000,1.399918,1.2112960329221,8.13798329171227,0.309719319387126,0.41355577,-0.40103304,0.5476407,53.445435,-93.56394,-0.34644637,STD
14920883111000,1.404985,0.89747954724903,8.10418799980101,0.618707822674361,0.45448375,-0.34300083,0.59620446,53.493862,-93.7039,-0.04253842,STD
14920888072000,1.409946,0.56418174702111,8.10257002716966,0.866682281923378,0.4633413,-0.25045475,0.65393126,53.568356,-93.79754,0.22268863,STD
14920893120000,1.414994,0.176751614917905,8.15926678322909,1.01787453918686,0.44806966,-0.11575896,0.7180721,53.61246,-93.913635,0.49937338,STD
14920898076000,1.41995,-0.228643277499634,8.21492619053203,1.12764479528067,0.40653083,0.090713486,0.7666359,53.650307,-93.974815,0.72675514,STD
14920903106000,1.42498,-0.696965923266403,8.27140747051639,1.15117860460208,0.3472769,0.3631594,0.7883216,53.629364,-94.03938,0.96266156,STD
14920908587000,1.430461,-1.20727932713274,8.33295297659876,1.17682250298989,0.2742785,0.6957755,0.75716746,53.56965,-94.043785,1.1311221,STD
14920913155000,1.435029,-1.63258704996824,8.38424651277542,1.19819475765792,0.19333886,1.0598512,0.679893,53.42312,-94.03456,1.292115,STD
14920918162000,1.440036,-2.09441092212389,8.50598415929204,1.25074794100295,0.09010262,1.2513574,0.5671884,53.232758,-94.00045,1.4312785,STD
14920923228000,1.445102,-2.54684015375393,8.85223072509278,1.40309647816158,0.045814894,1.6022996,0.5213735,52.89859,-93.96733,1.5722148,STD
14920928126000,1.45,-2.98040186045273,9.20342562583222,1.57341444047936,-0.073303826,1.9019289,0.43585235,52.600166,-93.77809,1.5243092,STD
14920933146000,1.45502,-3.39650199246719,9.68354130968233,1.91635416009131,-0.1863139,2.091908,0.36193767,52.239216,-93.57993,1.4710923,STD
14920938416000,1.46029,-3.83696373303892,10.1963781504278,2.33414774474193,-0.32070425,2.078469,0.30451632,51.87669,-93.26305,1.3133537,STD
14920943146000,1.46502,-4.27456797979575,10.7590122814426,3.38023034958138,-0.5122105,1.613906,0.27305678,51.594727,-92.90564,1.1415896,STD
14920948109000,1.469983,-4.73372863025117,11.3493617935413,4.47784302776704,-0.89888823,0.62796944,0.25228736,51.500397,-92.35846,0.87234616,STD
14920953134000,1.475008,-5.66925338618222,12.2428391131296,5.01832044233416,-1.5143349,-0.64904433,0.21197024,51.624584,-91.70974,0.59031814,STD
14920958333000,1.480207,-6.7290971315717,13.2250222295623,5.46601306303331,-2.175291,-1.9370537,0.12583824,52.033314,-90.954185,0.29252467,STD
14920963152000,1.485026,-7.36333170337233,13.6198671658637,5.05411518141776,-2.7140744,-3.0161471,-0.0015271631,52.82131,-89.818405,-0.1265413,STD
14920968134000,1.490008,-7.86057238304985,13.7934318951922,4.25196282750959,-3.0460796,-3.894266,-0.16707164,53.910076,-88.60875,-0.5515104,STD
14920973116000,1.49499,-8.0076641776881,13.5121387926649,2.11101744420493,-3.1526756,-4.670981,-0.364992,55.291348,-87.16024,-1.1418526,STD
14920978296000,1.50017,-7.94684856457067,12.9419919070338,-0.932300636399857,-3.0699034,-5.5698695,-0.57635134,56.93971,-85.70675,-1.7094108,STD
14920983106000,1.50498,-7.89037692381877,12.4125697989477,-3.75823885410431,-2.8017335,-6.7665544,-0.7877107,58.850628,-84.381546,-2.2986522,STD
14920988130000,1.510004,-7.83139282337437,11.8595933600654,-6.70990488440517,-2.0570886,-7.5631227,-0.96974856,60.88391,-83.22107,-2.8630233,STD
14920993123000,1.514997,-7.13986843156812,11.0631981489974,-8.84693082566581,-0.8597928,-7.4513345,-1.0839803,62.97909,-82.26443,-3.4001017,STD
14920998128000,1.520002,-6.19355185213368,10.1661688538818,-10.6705615806273,0.36193767,-6.6452975,-1.1777482,65.083435,-81.50788,-3.9345365,STD
14921003090000,1.524964,-5.27162691792182,9.56619308292924,-10.851563478575,1.3939945,-5.460219,-1.260215,66.87059,-81.732376,-4.431812,STD
14921008166000,1.53004,-4.33354524722415,9.04182947362692,-10.534059050668,2.0186043,-4.143499,-1.3286319,68.38205,-82.032326,-4.9960628,STD
14921013113000,1.534987,-3.50719367322363,8.8276868427661,-9.56787761033958,2.1560488,-3.4736853,-1.3524556,69.669655,-82.57445,-5.468068,STD
14921018174000,1.540048,-2.69116839303719,8.70781869694664,-8.35997558109008,1.8521434,-2.166739,-1.3090842,70.38865,-82.905136,-6.0106177,STD
14921023118000,1.544992,-1.9899728151183,8.75863743695585,-7.18413315896753,1.5980235,-0.9969321,-1.2605205,70.93712,-83.07469,-6.45773,STD
14921028128000,1.550002,-1.33143610283724,8.90115636249104,-5.9948354661477,1.0021244,-0.022907447,-1.1249083,71.15459,-82.97253,-6.8861675,STD
14921033113000,1.554987,-0.866593073058686,9.06683302671978,-4.98212596095997,0.48838675,0.77121735,-0.9593639,71.09494,-82.788536,-7.1936345,STD
14921038100000,1.559974,-0.486075979790128,9.243170381267,-4.04475476875243,0.12675454,1.3967434,-0.7959574,70.79676,-97.464836,-7.459461,STD
14921043122000,1.564996,-0.214873047233831,9.40229906169154,-3.18614164199005,-0.08155051,1.8619173,-0.6392705,70.32064,-97.62251,-7.5791783,STD
14921048118000,1.569992,-0.0101599886029851,9.54988289014925,-2.3815716839403,-0.15332718,2.157576,-0.4896085,69.71394,-97.75383,-7.645723,STD
14921053095000,1.574969,0.127104328657019,9.67652489943774,-1.67135180032261,-0.12980886,2.3356433,-0.35705075,69.0071,-97.746,-7.5833545,STD
14921058135000,1.580009,0.224982136749931,9.79219868319661,-1.00845215390359,-0.067500606,2.366492,-0.22357668,68.26588,-97.702,-7.4734087,STD
14921063110000,1.584984,0.28423974384708,9.89360805854907,-0.414607728133654,0.01160644,2.3127358,-0.10354166,67.5462,-97.505646,-7.229387,STD
14921068138000,1.590012,0.298734681812161,9.98057767624925,0.112041711505117,0.09040806,2.1572707,0.007330383,66.86191,-97.29074,-6.9548473,STD
14921073118000,1.594992,0.266748686894212,10.0946558765635,0.581851431857113,0.16218472,1.920255,0.076052725,66.264015,-96.93785,-6.568762,STD
14921078121000,1.599995,0.180410228429086,10.2419397100912,0.993228818359127,0.22602014,1.6554449,0.12736541,65.73562,-96.587845,-6.1749625,STD
14921083109000,1.604983,0.0435385662912696,10.3836818084512,1.25794573297719,0.26542094,1.3768903,0.14446963,65.32562,-96.223145,-5.787138,STD
14921088106000,1.60998,-0.131502486172875,10.5218717776013,1.41456135200693,0.28527406,1.102001,0.1328632,64.999954,-95.878395,-5.4141936,STD
14921093894000,1.615768,-0.410579446333713,10.6500100521168,1.45527408736156,0.28619036,0.8567385,0.10170906,64.76517,-95.54763,-5.080384,STD
14921098109000,1.619983,-0.657097226925784,10.7252188542594,1.40513487139013,0.28008172,0.6826419,0.08155051,64.59296,-95.2362,-4.765631,STD
14921103105000,1.624979,-0.931062825434722,10.7266332734675,1.28607232206832,0.26450464,0.6001751,0.086437434,64.51517,-94.966385,-4.5003076,STD
14921108157000,1.630031,-1.19368873101825,10.6587128332241,1.1185351415723,0.21991149,0.6093381,0.10903945,64.46067,-94.70644,-4.250085,STD
14921113082000,1.634956,-1.43430087807635,10.547034683887,0.98491069805652,0.17867808,0.63529986,0.12644911,64.42735,-94.51234,-4.068275,STD
14921118159000,1.640033,-1.66089561900843,10.3686510040654,0.888487417967278,0.14996742,0.7153232,0.13500121,64.37611,-94.31904,-3.8904011,STD
14921123089000,1.644963,-1.82564217792802,10.2099373168288,0.84822188483463,0.08827003,0.8240572,0.12492194,64.28882,-94.20113,-3.7908275,STD
14921128116000,1.64999,-1.91228015124027,10.0694436695039,0.885686947106031,-0.0018325958,0.91751957,0.10751228,64.18479,-94.07943,-3.693672,STD
14921133039000,1.654913,-1.99712573361868,9.93185659455253,0.92237692155642,-0.099571034,0.95569867,0.07788532,64.06223,-94.01561,-3.6588912,STD
14921138095000,1.659969,-2.08426350824903,9.79055246070039,0.960058114085603,-0.21685717,0.9410379,0.06811147,63.93101,-93.94108,-3.624139,STD
14921143069000,1.664943,-2.122773434633,9.66368982988904,0.989215017011096,-0.3210097,0.88239485,0.06291912,63.811626,-93.8692,-3.5976646,STD
14921148151000,1.670025,-2.04349930473379,9.56459729685432,0.999124270314568,-0.40530908,0.8014552,0.050396383,63.706017,-93.79733,-3.5773902,STD
14921153068000,1.674942,-1.96481066086702,9.48359205975395,0.969344519742238,-0.4529566,0.6924158,0.028405234,63.621803,-93.76639,-3.6049461,STD
14921158084000,1.679958,-1.88038665969537,9.43199954657293,0.856779201171646,-0.4813618,0.5714644,0.004276057,63.567036,-93.744934,-3.637274,STD
14921163927000,1.685801,-1.77401058628782,9.41971114497673,0.707347335922227,-0.47952923,0.45875978,-0.013439035,63.54801,-93.72583,-3.661432,STD
14921168132000,1.690006,-1.68809605865012,9.46657332544608,0.578475556698991,-0.46120325,0.3567453,-0.022296581,63.56261,-93.722275,-3.690399,STD
14921173190000,1.695064,-1.58705697370453,9.52615389472161,0.415993645928592,-0.44073927,0.27183503,-0.04184427,63.61093,-93.72934,-3.716234,STD
14921178123000,1.699997,-1.49588191937663,9.59453518546753,0.233643405891151,-0.42180246,0.20861048,-0.055588737,63.683205,-93.74591,-3.7431161,STD
14921183106000,1.70498,-1.40199641516734,9.66377977213387,0.0381867505017802,-0.39828414,0.16890424,-0.06994407,63.76768,-93.75762,-3.7575924,STD
14921188183000,1.710057,-1.29582090809874,9.73533281447899,-0.227251957879801,-0.38240165,0.13744467,-0.07391469,63.867702,-86.22509,-3.7732847,STD
14921193186000,1.71506,-1.19119296603371,9.80584293282697,-0.488821754616663,-0.37843102,0.14477506,-0.07238753,63.95121,-86.22209,-3.7725406,STD
14921198387000,1.720261,-1.08242424193211,9.87914357754569,-0.760743504132637,-0.35888332,0.18448131,-0.07422013,64.03356,-86.21503,-3.7744505,STD
14921203092000,1.724966,-0.984028385962497,9.94545381277,-1.00673308911104,-0.3454443,0.2510656,-0.07238753,64.10523,-86.20727,-3.7754517,STD
14921208102000,1.729976,-0.853280244618535,9.99148655770609,-1.26725029039427,-0.30207285,0.35369098,-0.056505036,64.154434,-86.20262,-3.7735553,STD
14921213452000,1.735326,-0.712845568439084,10.036718626713,-1.53815517909705,-0.2510656,0.47678033,-0.047647487,64.1783,-86.19596,-3.773752,STD
14921218152000,1.740026,-0.611450435625117,10.0409435093861,-1.64799996697015,-0.18142697,0.5390886,-0.04642576,64.154106,-86.24484,-3.7317882,STD
14921223171000,1.745045,-0.503173377839309,10.0454551447344,-1.76530017767974,-0.13652839,0.65576386,-0.034513887,64.06037,-86.326004,-3.6613173,STD
14921228050000,1.749924,-0.435766195357629,10.0440449223751,-1.68408434051111,-0.042455133,0.75655663,-0.025045475,63.953823,-86.40443,-3.5920558,STD
14921233626000,1.7555,-0.365782471141691,10.0413531862997,-1.55488362277333,0.03145956,0.8417723,-0.004276057,63.81938,-86.48305,-3.516946,STD
14921238028000,1.759902,-0.310533483695751,10.0392281823177,-1.45288549517617,0.110872045,0.90133166,0.004276057,63.652832,-93.42407,-3.4187412,STD
14921242985000,1.764859,-0.248318756124301,10.0368352598417,-1.33802754004234,0.15851954,0.9398162,0.021685716,63.46986,-93.3367,-3.3128395,STD
14921248028000,1.769902,-0.255858963254617,10.06731570251,-1.13255334107629,0.19456059,0.9492846,0.04062254,63.280346,-93.264404,-3.20464,STD
14921253002000,1.774876,-0.274725254880935,10.1026899808406,-0.915590928273677,0.20586158,0.9456194,0.05222898,63.085896,-93.20831,-3.0941417,STD
14921258054000,1.779928,-0.293887399090054,10.1386189824744,-0.695226209842071,0.2125811,0.9425651,0.06536258,62.901096,-93.12891,-2.9525747,STD
14921263000000,1.784874,-0.31264748722511,10.1737941293628,-0.479485137521659,0.21074851,0.9294315,0.07360926,62.72206,-93.065094,-2.8116949,STD
14921268047000,1.789921,-0.358865454053049,10.2074011272389,-0.347084017500245,0.21135938,0.91690874,0.08002335,62.545574,-93.01705,-2.6701567,STD
14921273052000,1.794926,-0.410470731962416,10.240241020554,-0.234490695903886,0.18997909,0.91232723,0.08857546,62.372414,-92.980774,-2.5282462,STD
14921278053000,1.799927,-0.463903552078215,10.2433171000205,-0.133373310171171,0.18142697,0.90010995,0.105068825,62.21616,-92.908615,-2.3859522,STD
14921282993000,1.804867,-0.517179944993857,10.2384736950246,-0.0365071644054054,0.17745635,0.90041536,0.106595986,62.059658,-92.84584,-2.2496176,STD
14921288053000,1.809927,-0.555595892682809,10.1740888407067,0.0154921780232995,0.15271631,0.890947,0.10720685,61.917377,-92.778,-2.1225348,STD
14921293019000,1.814893,-0.589937409488278,10.0985376519521,0.0567019991461031,0.13439035,0.88331115,0.11636983,61.776634,-92.71664,-1.9964911,STD
14921298028000,1.819902,-0.624576285380061,10.0223322744909,0.0982686511807635,0.10903945,0.8863655,0.118202426,61.627487,-92.65272,-1.8899472,STD
14921303102000,1.824976,-0.659664657565109,9.94513800712463,0.140374698779858,0.07971791,0.9025534,0.12614368,61.479507,-92.58711,-1.7824187,STD
14921308178000,1.830052,-0.704939426725582,9.86187252158139,0.181507664352558,0.0720821,0.9236283,0.12522738,61.320454,-92.5299,-1.6853943,STD
14921313136000,1.83501,-0.753525474558139,9.77795133813954,0.221259879855814,0.06169739,0.9465357,0.13500121,61.159595,-92.46774,-1.5859314,STD
14921318167000,1.840041,-0.796761454646545,9.71594271882446,0.270980283939635,0.062308256,0.9841039,0.1301143,60.989,-92.41121,-1.5093595,STD
14921323263000,1.845137,-0.835525054964257,9.67233326370135,0.329125724892772,0.06872234,1.0225884,0.12583824,60.815388,-92.3559,-1.4320521,STD
14921328161000,1.850035,-0.869245899076241,9.65764861029684,0.393446465079443,0.061086524,1.058324,0.11789699,60.6245,-92.30406,-1.3746186,STD
14921333103000,1.854977,-0.900335820815371,9.66542124797799,0.465341910876545,0.06841691,1.0830641,0.113926366,60.43032,-92.260216,-1.3185477,STD
14921338182000,1.860056,-0.932287604002956,9.67340935538038,0.539230411322412,0.055588737,1.0830641,0.11056661,60.2241,-92.20305,-1.272784,STD
14921343100000,1.864974,-0.96322654271462,9.68114424654104,0.610776708859876,0.041233405,1.0626001,0.115453534,60.02204,-92.14926,-1.2268829,STD
14921348096000,1.86997,-0.99465617626555,9.68900181389334,0.683457738241163,0.020463986,1.0464121,0.1142318,59.823906,-92.09521,-1.1847569,STD
14921353150000,1.875024,-1.02278688904035,9.70321037943487,0.754609487487587,-0.013744468,1.006095,0.109650314,59.628006,-92.03986,-1.1516747,STD
14921359089000,1.880963,-1.05359489527851,9.72374890728537,0.83676408142999,-0.051618114,0.9370673,0.106901415,59.450146,-91.98125,-1.1196641,STD
14921363086000,1.88496,-1.05443621877958,9.74721462790698,0.872649311951019,-0.09682214,0.86834496,0.103847094,59.287155,-91.901344,-1.111565,STD
14921368195000,1.890069,-1.03429709594567,9.78749255813953,0.89782318132126,-0.15027285,0.78801614,0.09010262,59.151905,-91.81763,-1.1086395,STD
14921373147000,1.895021,-1.01406708744047,9.82369207355795,0.892754706558476,-0.20005837,0.7247916,0.08155051,59.039864,-91.7225,-1.1120468,STD
14921378158000,1.900032,-0.99290403187511,9.85755322764156,0.858893791136003,-0.2434298,0.65576386,0.06780604,58.956085,-91.62875,-1.1222409,STD
14921383098000,1.904972,-0.973472887697145,9.90007197376559,0.819736562488403,-0.2773328,0.59437186,0.062002823,58.878994,-91.534485,-1.1365616,STD
14921388150000,1.910024,-0.95851090095351,9.97488151690547,0.75988866759097,-0.31398472,0.5342017,0.053450707,58.82445,-91.448616,-1.1566414,STD
14921393118000,1.914992,-0.93645031852334,10.0346854759159,0.661287674640134,-0.35033122,0.47403142,0.04917465,58.78785,-91.37436,-1.1738329,STD
14921398124000,1.919998,-0.89632818745583,10.0614334081272,0.465135017314488,-0.3817908,0.43035457,0.052534413,58.76601,-91.313805,-1.1921145,STD
14921403032000,1.924906,-0.862219161451436,10.0819245211928,0.287990731314113,-0.41691554,0.39522982,0.054367006,58.757637,-91.271194,-1.2091973,STD
14921408109000,1.929983,-0.864754035211929,10.0616456369845,0.214479337733903,-0.44012842,0.3839288,0.062002823,58.756443,-91.245895,-1.2244233,STD
14921413039000,1.934913,-0.867215513966946,10.0419539097544,0.143096400891194,-0.45906523,0.3576616,0.062308256,58.720703,-91.248146,-1.2446725,STD
14921418067000,1.939941,-0.869725922725614,10.0218707445389,0.0702944928901517,-0.46578476,0.36926803,0.06566802,58.679466,-88.7371,-1.2621466,STD
14921423097000,1.944971,-0.87574808089056,9.99072825272116,-0.0248526950215713,-0.47036624,0.40042216,0.06261369,58.634903,-88.70467,-1.2821573,STD
14921428067000,1.949941,-0.889877349265783,9.93421110053434,-0.170854935233327,-0.44532076,0.45051312,0.061391957,58.583706,-88.6615,-1.3010681,STD
14921433057000,1.954931,-0.883909596635659,9.85771127131783,-0.304074755465116,-0.4071417,0.5103779,0.0580322,58.51632,-88.61789,-1.3184983,STD
14921438139000,1.960013,-0.822601343368217,9.72566298643411,-0.403111190726744,-0.36041048,0.57360244,0.061391957,58.43603,-88.57433,-1.3344935,STD
14921443051000,1.964925,-0.766002022179138,9.62712084242544,-0.477382443529848,-0.29229903,0.6426302,0.04734206,58.310574,-88.53849,-1.351929,STD
14921448043000,1.969917,-0.71871241781097,9.63894323364162,-0.470289003862209,-0.2489276,0.69027776,0.054367006,58.176483,-88.51163,-1.3621022,STD
14921453358000,1.975232,-0.668363009314012,9.651530575251,-0.462736593639151,-0.22785273,0.71593404,0.06047566,58.011116,-88.5005,-1.3669854,STD
14921458161000,1.980035,-0.622863816649686,9.66290536391513,-0.455911715689698,-0.21074851,0.7467828,0.06872234,57.834698,-88.49767,-1.3686013,STD
14921463056000,1.98493,-0.579573834378336,9.67103783376161,-0.444729954902155,-0.20738874,0.7788532,0.07971791,57.65466,-88.49927,-1.3669547,STD
14921468063000,1.989937,-0.551138726068393,9.66155927297885,-0.41155565032714,-0.20066923,0.8213083,0.101098195,57.466953,-88.50935,-1.3592907,STD
14921473031000,1.994905,-0.525457588478497,9.66292205664854,-0.376104814489372,-0.19394971,0.8594874,0.106901415,57.26252,-88.53585,-1.3284885,STD
14921478027000,1.999901,-0.515997214246169,9.73387464112704,-0.324072889569946,-0.17012598,0.88453287,0.109650314,57.05447,-88.57042,-1.2926596,STD
14921483028000,2.004902,-0.508623054952637,9.80233455828098,-0.276148930867484,-0.16157386,0.8903361,0.1142318,56.835327,-88.604095,-1.2525635,STD
14921488034000,2.009908,-0.518183651418885,9.85013739086649,-0.26180806611726,-0.15088372,0.87872964,0.11759156,56.61924,-88.641815,-1.2121809,STD
14921493024000,2.014898,-0.52576132526888,9.89332254591342,-0.251886187656766,-0.16187929,0.84604836,0.116675265,56.40416,-88.67273,-1.1702924,STD
14921498017000,2.019891,-0.516478251654048,9.89796416511357,-0.27973534549505,-0.16890424,0.82772243,0.11759156,56.19346,-88.7068,-1.1273236,STD
14921503165000,2.025039,-0.50964407,9.9010357886598,-0.309567813917526,-0.19425514,0.79443026,0.1133155,56.00045,-88.73059,-1.0908573,STD
14921508039000,2.029913,-0.537950541764706,9.88216492571255,-0.352027506785931,-0.18997909,0.7840455,0.116675265,55.810745,-88.75973,-1.0522872,STD
14921513071000,2.034945,-0.567423948691489,9.86000981837524,-0.391965551394584,-0.19211712,0.77549344,0.11911872,55.627026,-88.78676,-1.0111271,STD
14921518009000,2.039883,-0.599438631180851,9.80512733907157,-0.382818493796905,-0.18845193,0.7620544,0.111177474,55.452015,-88.81336,-0.9724862,STD
14921523408000,2.045282,-0.635287553283003,9.7434675709039,-0.372065094511324,-0.1591304,0.7632761,0.109650314,55.26651,-88.84477,-0.9331561,STD
14921528016000,2.04989,-0.675806771009998,9.67143384064477,-0.35405655852275,-0.13500121,0.782213,0.10415252,55.084087,-88.87333,-0.89767724,STD
14921533210000,2.055084,-0.721562224751319,9.59067823681236,-0.329575307302185,-0.09896017,0.78954333,0.09560041,54.910187,-88.902695,-0.868678,STD
14921538025000,2.059899,-0.764998849553504,9.52117958995855,-0.255733036974378,-0.04734206,0.8060367,0.08582657,54.732384,-88.93815,-0.8416855,STD
14921542970000,2.064844,-0.809608218119819,9.44980455180859,-0.179897102027129,-0.0143553335,0.8197812,0.062002823,54.54091,-88.956184,-0.83600044,STD
14921548016000,2.06989,-0.839770112314651,9.46418327866273,-0.0822870868987217,0.018020526,0.8213083,0.04337143,54.35268,-88.98255,-0.8307372,STD
14921553062000,2.074936,-0.868280181010816,9.48794165270403,0.0174981535378564,0.025350908,0.80909103,0.03359759,54.168903,-89.00697,-0.82861114,STD
14921558153000,2.080027,-0.836960995566959,9.57262083828218,0.110735407005779,0.027488936,0.7892379,0.018020526,53.978283,-89.00943,-0.84031415,STD
14921563069000,2.084943,-0.799432444562575,9.66175101404942,0.199865744419091,0.02687807,0.76174897,0.011301007,53.797947,-89.013145,-0.850844,STD
14921568121000,2.089995,-0.756868228650896,9.71691620632485,0.217024208361378,0.0027488936,0.7370089,0.018020526,53.613453,-88.99189,-0.8734322,STD
14921573090000,2.094964,-0.714476422194398,9.76637332287439,0.224089511076908,-0.03359759,0.7162395,0.02321288,53.44032,-88.968544,-0.89675,STD
14921578120000,2.099994,-0.671564209178462,9.81643758052064,0.231241548239137,-0.05497787,0.7086037,0.021685716,53.26454,-88.937874,-0.915151,STD
14921583044000,2.104918,-0.629556309200238,9.8654468060972,0.238242866526774,-0.06872234,0.70616025,0.026267206,53.09768,-88.90718,-0.9294005,STD
14921588100000,2.109974,-0.578174201649751,9.86562997890547,0.247478028608955,-0.07941248,0.7131852,0.013133603,52.91549,-88.86142,-0.9587915,STD
14921593552000,2.115426,-0.521025909084577,9.8552391721393,0.257868612955224,-0.065973446,0.7110472,0.018936822,52.74134,-88.824776,-0.9802909,STD
14921598111000,2.119985,-0.486582026746667,9.83160979723809,0.292959982383809,-0.08368854,0.72204274,0.022907447,52.5439,-88.781075,-1.0028937,STD
14921603093000,2.124967,-0.45023029912,9.80434592085714,0.333855687825714,-0.08246681,0.72326446,0.016187929,52.354942,-88.74343,-1.0256401,STD
14921608203000,2.130077,-0.42265873139303,9.79349842639945,0.391238408830092,-0.06169739,0.7305948,0.01863139,52.15036,-88.71031,-1.0451604,STD
14921613159000,2.135033,-0.399229646279001,9.78881300276434,0.452154043826636,-0.054061573,0.72326446,0.019547688,51.95489,-88.67553,-1.0656939,STD
14921618107000,2.139981,-0.349072459731286,9.79372203134997,0.491051838259757,-0.056199603,0.71593404,0.022296581,51.751415,-88.64093,-1.0824906,STD
14921623212000,2.145086,-0.286513785245407,9.80265869755964,0.522331187167535,-0.06261369,0.69974613,0.03268129,51.557796,-88.61092,-1.0955625,STD
14921628198000,2.150072,-0.25613610460634,9.80421228369862,0.528988188546703,-0.07544186,0.68661255,0.033292156,51.3574,-88.568695,-1.1145487,STD
14921633109000,2.154983,-0.251712093243345,9.79978817994544,0.515716126740664,-0.09468412,0.6805039,0.04886922,51.16471,-88.531746,-1.125141,STD
14921638088000,2.159962,-0.246965842924987,9.7991041716136,0.49335282714517,-0.13500121,0.6786713,0.050701816,50.96946,-88.487206,-1.1384522,STD
14921643141000,2.165015,-0.241742797067458,9.80432733200216,0.456791446150027,-0.1563815,0.6872234,0.05467244,50.77794,-88.44812,-1.1458167,STD
14921648112000,2.169986,-0.234304532571821,9.82199697166389,0.430301815827042,-0.16249016,0.70341134,0.061086524,50.575584,-88.40459,-1.1546482,STD
14921653090000,2.174964,-0.224955893475831,9.85004294264144,0.411604557158545,-0.18142697,0.70463306,0.070249505,50.38028,-88.35746,-1.1607062,STD
14921658141000,2.180015,-0.22271908912965,9.87146850726963,0.392415728603229,-0.19333886,0.7089091,0.071776666,50.182888,-88.31746,-1.1645266,STD
14921663213000,2.185087,-0.227589597534343,9.88607981379725,0.372933705155921,-0.20097467,0.70616025,0.06963864,49.992184,-88.27726,-1.1661149,STD
14921668114000,2.189988,-0.241592407762513,9.89989056998751,0.35686923232395,-0.21746802,0.70524395,0.07269296,49.767418,-88.22717,-1.1695769,STD
14921673156000,2.19503,-0.264786886548179,9.91380753626669,0.342952546990105,-0.22113322,0.70707655,0.07452556,49.54847,-88.17969,-1.1731753,STD
14921678210000,2.200084,-0.281460831540402,9.91783849438984,0.337054953820997,-0.22540927,0.7147123,0.08246681,49.32186,-88.13074,-1.1745538,STD
14921683108000,2.204982,-0.289620736799165,9.90967842724189,0.341134902190137,-0.22724187,0.72021013,0.07941248,49.10118,-88.082115,-1.1777918,STD
14921688133000,2.210007,-0.30127078103279,9.89614691655213,0.359815650752013,-0.20525073,0.72021013,0.079107046,48.87823,-88.03915,-1.1817456,STD
14921693121000,2.214995,-0.334098559191047,9.84925011859415,0.472368044201846,-0.18173242,0.7079928,0.07452556,48.66299,-87.99742,-1.1869105,STD
14921698076000,2.21995,-0.358969767696058,9.80760170937046,0.573371177122768,-0.16187929,0.6957755,0.0693332,48.44066,-87.95552,-1.1945276,STD
14921703088000,2.224962,-0.300470125650401,9.81885163240051,0.558746268960765,-0.14569137,0.6759224,0.051923547,48.229797,-87.91801,-1.2057642,STD
14921709180000,2.231054,-0.229364814528665,9.83252572080814,0.540969944036001,-0.16310102,0.62796944,0.04886922,48.023804,-87.85209,-1.2232603,STD
14921713114000,2.234988,-0.183447497727464,9.84135596765574,0.529490616679792,-0.16707164,0.6047566,0.047036625,47.822216,-87.79339,-1.2441894,STD
14921718090000,2.239964,-0.12536804465101,9.85252508517321,0.514970755743215,-0.16768251,0.5723807,0.051618114,47.640022,-87.73407,-1.2631888,STD
14921723114000,2.244988,-0.066728339615619,9.86380194337412,0.500310831839404,-0.183565,0.5384777,0.055283304,47.469933,-87.67244,-1.2816808,STD
14921728131000,2.250005,-0.00817033799090612,9.87506308939202,0.485671333784981,-0.17470746,0.51893,0.053145275,47.309628,-87.61895,-1.2993994,STD
14921733114000,2.254988,0.0499908184962265,9.88624791909249,0.471131046999016,-0.17531833,0.50335294,0.059253927,47.162037,-87.56365,-1.3126312,STD
14921738124000,2.259998,0.108467116710261,9.89749335292739,0.456511974793981,-0.16615535,0.48808134,0.057726767,47.024033,-87.51363,-1.3276856,STD
14921743118000,2.264992,0.158467406327067,9.91325887325652,0.423007585548817,-0.15118915,0.46181414,0.056199603,46.897346,-87.46798,-1.340036,STD
14921748110000,2.269984,0.201955047321609,9.93258660157671,0.374687977155852,-0.15332718,0.4373795,0.06291912,46.77793,-87.42341,-1.3496541,STD
14921753088000,2.274962,0.253589738202885,9.9432883738483,0.328708632746394,-0.15241088,0.41599923,0.069027774,46.62346,-87.41178,-1.3284593,STD
14921758241000,2.280115,0.313295714840391,9.94788123387622,0.282780948449511,-0.15332718,0.4129449,0.077579886,46.47426,-87.401726,-1.3044262,STD
14921763109000,2.284983,0.353549901193521,9.94590970929241,0.241004047612958,-0.16249016,0.40653083,0.0870483,46.325665,-87.40201,-1.2704492,STD
14921768132000,2.290006,0.374054714286019,9.93565762926258,0.199994421427962,-0.14813483,0.40408736,0.092240654,46.180145,-87.40928,-1.2353678,STD
14921773105000,2.294979,0.379199694624013,9.92598547166683,0.19357703556325,-0.14569137,0.39675698,0.09682214,46.030457,-87.42352,-1.1846492,STD
14921778800000,2.300674,0.371220584704964,9.91534643626256,0.217514384761046,-0.12370021,0.39675698,0.10170906,45.882584,-87.44718,-1.1328725,STD
14921783112000,2.304986,0.365179158546767,9.90729103316103,0.235638677955233,-0.11636983,0.3943135,0.09896017,45.738068,-87.47524,-1.0781373,STD
14921788109000,2.309983,0.358177997481713,9.89795595679313,0.256642178208329,-0.10445796,0.3830125,0.100792766,45.599,-87.511,-1.0211127,STD
14921793114000,2.314988,0.343824674511941,9.89389273952429,0.275512627315797,-0.092240654,0.36865717,0.10903945,45.441532,-87.53999,-0.9653375,STD
14921798113000,2.319987,0.32063305110885,9.89621194811801,0.291746758128179,-0.09712757,0.35094208,0.102319926,45.29179,-87.565956,-0.91352683,STD
14921803097000,2.324971,0.297511016493727,9.89852419769413,0.307932176805697,-0.100792766,0.3417791,0.10934488,45.14933,-87.58909,-0.8596388,STD
14921808136000,2.33001,0.274133822989391,9.90086196366807,0.324296206644383,-0.10476339,0.32253686,0.10873401,45.01798,-87.60914,-0.8099439,STD
14921813110000,2.334984,0.248897988032787,9.90932926870991,0.337952750370634,-0.106595986,0.3145956,0.111177474,44.863693,-87.62199,-0.7628283,STD
14921818107000,2.339981,0.219052381557377,9.9306475463293,0.346480070322523,-0.101098195,0.29840767,0.11056661,44.720608,-87.635544,-0.71671724,STD
14921823137000,2.345011,0.188475480057205,9.95073924457636,0.35609080269401,-0.098043874,0.2950479,0.111177474,44.582798,-87.63914,-0.6783884,STD
14921828180000,2.350054,0.151986454852671,9.95595206821371,0.376941672684296,-0.09773844,0.2764165,0.111177474,44.456978,-87.64374,-0.64026153,STD
14921833103000,2.354977,0.115253430608455,9.9557701090753,0.391621850833095,-0.10445796,0.2669481,0.10140363,44.31858,-87.6427,-0.61873835,STD
14921838095000,2.359969,0.0741935227057925,9.93752136931005,0.387059637308903,-0.103847094,0.24129178,0.10262536,44.1931,-87.64535,-0.5935148,STD
14921843125000,2.364999,0.0328210594144479,9.9191337168623,0.382462695396507,-0.1001819,0.22388211,0.09865474,44.0734,-87.6411,-0.5781579,STD
14921848799000,2.370673,-0.0138483952008779,9.89839186000573,0.377277198694532,-0.10934488,0.19333886,0.093462385,43.967525,-87.63431,-0.5621557,STD
14921853342000,2.375216,-0.0512086709681774,9.88118710221794,0.374742199537126,-0.09743301,0.17898351,0.08735373,43.864586,-87.63482,-0.54733527,STD
14921858143000,2.380017,-0.0906200084650166,9.85655503492982,0.389521450198221,-0.10140363,0.1563815,0.07360926,43.775185,-87.62826,-0.53559715,STD
14921863110000,2.384984,-0.127292453115395,9.83328548554311,0.394542483073717,-0.11026118,0.1255328,0.07391469,43.69764,-87.61984,-0.534009,STD
14921868120000,2.389994,-0.143956447410784,9.8207872386038,0.348716508549101,-0.10751228,0.101098195,0.06719518,43.62696,-87.61289,-0.53768545,STD
14921873204000,2.395078,-0.160866576552053,9.80810438681948,0.302213663342884,-0.111177474,0.08032878,0.05681047,43.5448,-87.59086,-0.55331534,STD
14921878192000,2.400066,-0.153480819900531,9.76468809073829,0.292218565081786,-0.10445796,0.058948494,0.04886922,43.472015,-87.573074,-0.5691571,STD
14921883198000,2.405072,-0.144341789917667,9.72080385180042,0.285235130967166,-0.090713486,0.050396383,0.045814894,43.403538,-87.55667,-0.58574164,STD
14921888104000,2.409978,-0.153663053653407,9.72546457613332,0.257271349493106,-0.089491755,0.04062254,0.042455133,43.341873,-87.54557,-0.604628,STD
14921893273000,2.415147,-0.161267882443325,9.7328040988665,0.229228225170025,-0.076052725,0.041233405,0.04062254,43.27101,-87.53987,-0.62311333,STD
14921898114000,2.419988,-0.140414460561353,9.77034013979849,0.220886859030227,-0.061391957,0.026572637,0.042760566,43.209118,-87.53529,-0.64030933,STD
14921903094000,2.424968,-0.11896227279597,9.8089539559194,0.212305986612091,-0.06963864,0.023518313,0.03848451,43.137066,-87.527664,-0.6588869,STD
14921908175000,2.430049,-0.101982215921296,9.86367175866942,0.193437129727144,-0.06261369,0.032375857,0.04428773,43.06744,-87.529434,-0.67311686,STD
14921913438000,2.435312,-0.0882212719242227,9.92175655026997,0.171459787342208,-0.06261369,0.02076942,0.046731193,43.006382,-87.526665,-0.6884483,STD
14921918735000,2.440609,-0.140168002178365,9.92647907577732,0.147847638123255,-0.0693332,0.0061086523,0.05222898,42.93786,-87.52457,-0.6943638,STD
14921923147000,2.445021,-0.183435695944889,9.93041258201452,0.128180505339788,-0.064751714,0.011911872,0.052534413,42.86696,-87.530304,-0.6974409,STD
14921928184000,2.450058,-0.233178782920785,9.90933615666027,0.170107106907607,-0.05955936,0.013744468,0.04550946,42.803,-87.53449,-0.70040554,STD
14921933070000,2.454944,-0.281496522690662,9.88402683522643,0.22302653274721,-0.054061573,0.0033597588,0.05375614,42.742283,-87.54154,-0.6984212,STD
14921938110000,2.459984,-0.331337171163889,9.85791979879038,0.277613906106112,-0.04337143,0.016798794,0.044593163,42.666004,-87.54637,-0.7136228,STD
14921943136000,2.46501,-0.381039373391356,9.83188528189998,0.332049647872351,-0.04062254,0.014966198,0.030543262,42.598793,-87.550934,-0.726883,STD
14921948110000,2.469984,-0.388855884669585,9.82959726662497,0.386490137144048,-0.028405234,0.004276057,0.029626964,42.531567,-87.56182,-0.73912376,STD
14921953099000,2.474973,-0.38387581848447,9.83457742641234,0.441270797578695,-0.026572637,-0.01160644,0.034208454,42.46822,-87.5699,-0.7528638,STD
14921959200000,2.481074,-0.367519137399571,9.85611838853113,0.398266150104262,-0.03390302,-0.025961773,0.03145956,42.418728,-87.55162,-0.7882934,STD
14921963050000,2.484924,-0.356212581128488,9.87119371818461,0.360577601652867,-0.059864793,-0.053450707,0.029321533,42.378952,-87.52941,-0.8208187,STD
14921968109000,2.489983,-0.350514939880716,9.86986100795229,0.277803561510934,-0.074830994,-0.060170226,0.027183503,42.333,-87.49731,-0.85492027,STD
14921973112000,2.494986,-0.346185206421471,9.86553119311404,0.191209009873486,-0.09743301,-0.04917465,0.036651913,42.291084,-87.457886,-0.8852704,STD
14921978211000,2.500085,-0.369398035952593,9.85425777486859,0.14638372326986,-0.11362094,-0.044593163,0.040011674,42.251514,-87.42514,-0.9127294,STD
14921983060000,2.504934,-0.40393979343499,9.84044103436477,0.123355885749777,-0.111177474,-0.04153884,0.032070424,42.21057,-87.392044,-0.9401067,STD
14921988299000,2.510173,-0.441259708355648,9.82551302786869,0.0984759433353169,-0.10323623,-0.03176499,0.03390302,42.16318,-87.37367,-0.9587642,STD
14921993121000,2.514995,-0.475609131861549,9.81177322116434,0.0755763284617673,-0.09590584,-0.024129177,0.04062254,42.116898,-87.35611,-0.9776318,STD
14921998112000,2.519986,-0.48223024655134,9.78808925412241,0.0917852411836115,-0.06872234,-0.016187929,0.03145956,42.073425,-87.34641,-0.99929875,STD
14922003105000,2.524979,-0.472555580431968,9.75906520020233,0.13048387030349,-0.06291912,-0.012217305,0.029626964,42.029972,-87.33493,-1.0163751,STD
14922008116000,2.52999,-0.453332643632346,9.77467859116022,0.185072394525364,-0.06566802,-0.0012217305,0.027183503,41.98487,-87.327644,-1.045398,STD
14922013117000,2.534991,-0.429277597522853,9.81316695027624,0.247615538523355,-0.043676864,0.0067195175,0.021685716,41.940807,-87.327774,-1.0748632,STD
14922018123000,2.539997,-0.415295770637334,9.85013876498914,0.255983141274667,-0.048258353,0.0033597588,0.026572637,41.89185,-87.31318,-1.1019396,STD
14922023246000,2.54512,-0.406030923572845,9.88719792106506,0.23745344714569,-0.06291912,0.009773844,0.027183503,41.839443,-87.30072,-1.130958,STD
14922028181000,2.550055,-0.404739734501623,9.88984872749189,0.227329502873435,-0.0720821,0.0033597588,0.027794369,41.794518,-87.28261,-1.1557958,STD
14922033110000,2.554984,-0.409116558535002,9.86796460732499,0.222952674269819,-0.076358154,-0.0030543262,0.03573562,41.7491,-87.263535,-1.1775972,STD
14922038087000,2.559961,-0.417853799965473,9.84848296849374,0.218249511415624,-0.08124508,0.0036651916,0.040927973,41.701763,-87.24658,-1.1968488,STD
14922043124000,2.564998,-0.433468293441951,9.8328687032801,0.213044683880017,-0.07696902,0.004276057,0.03726278,41.659275,-87.23136,-1.2155573,STD
14922048110000,2.569984,-0.458268722701329,9.81060199384284,0.200555106566654,-0.0888809,0.008246681,0.050396383,41.614983,-87.21411,-1.2282183,STD
14922053090000,2.574964,-0.49089650292025,9.78263524442924,0.181910657250782,-0.0729984,0.03023783,0.048258353,41.566814,-87.203285,-1.2459058,STD
14922058134000,2.580008,-0.509609103273997,9.77038140584277,0.188689436834171,-0.070249505,0.04337143,0.043676864,41.51921,-87.18647,-1.2629719,STD
14922063115000,2.584989,-0.513671963405161,9.77444435082191,0.221192339095477,-0.06383542,0.06505715,0.03756821,41.46428,-87.17475,-1.2808286,STD
14922068099000,2.589973,-0.517744442567241,9.78030758284483,0.250787668352586,-0.063224554,0.06078109,0.04520403,41.415142,-87.162994,-1.3000023,STD
14922073158000,2.595032,-0.521921109355172,9.79701405810345,0.263317603298276,-0.06291912,0.069027774,0.043676864,41.357952,-87.151276,-1.3230876,STD
14922078104000,2.599978,-0.526004484317241,9.81334737034483,0.275567664227586,-0.06627888,0.06047566,0.04184427,41.31227,-87.13584,-1.3469161,STD
14922083114000,2.604988,-0.518860738418494,9.8319541917849,0.285591045159242,-0.080634214,0.057421334,0.040927973,41.26409,-87.11816,-1.3702288,STD
14922088117000,2.609991,-0.509353271310646,9.85096896715944,0.295098492411946,-0.09132435,0.04337143,0.04184427,41.22283,-87.101074,-1.3924642,STD
14922093121000,2.614995,-0.475812730718728,9.85850383199103,0.308790275553063,-0.1020145,0.026267206,0.04428773,41.185368,-87.07859,-1.4148878,STD
14922098077000,2.619951,-0.437103263429504,9.86334261392599,0.323306328312774,-0.102319926,0.0106901415,0.041233405,41.15272,-87.05609,-1.4377503,STD
14922103088000,2.624962,-0.423170994872979,9.85243321709007,0.333396736997691,-0.10751228,0.0067195175,0.040011674,41.122528,-87.03086,-1.4574172,STD
14922108129000,2.630003,-0.413879867234411,9.83849673421863,0.342687854934565,-0.105374254,0.00030543262,0.04184427,41.098354,-87.008095,-1.4762937,STD
14922113110000,2.634984,-0.418749607487295,9.83885416996047,0.313503873561077,-0.105374254,-0.008857546,0.040317107,41.075844,-86.985825,-1.4902403,STD
14922118077000,2.639951,-0.427702744184077,9.8433303596838,0.273214767774327,-0.0983493,-0.008246681,0.037873644,41.053097,-86.96663,-1.503608,STD
14922123201000,2.645075,-0.45648931800984,9.83538225655186,0.268148656752686,-0.07880162,0.01282817,0.03573562,41.02781,-86.950516,-1.5160553,STD
14922128205000,2.650079,-0.494985016148208,9.82094657827091,0.282584551091475,-0.07086037,0.018325957,0.042760566,41.007355,-86.93481,-1.5260583,STD
14922133107000,2.654981,-0.501594849195644,9.80128726518915,0.245472914449752,-0.069027774,0.023518313,0.04062254,40.980408,-86.92664,-1.5389906,STD
14922138170000,2.660044,-0.492330937639473,9.77812747420711,0.180625456170233,-0.061391957,0.030543262,0.03756821,40.952026,-86.92303,-1.5498664,STD
14922143121000,2.664995,-0.491048313810454,9.78413003781143,0.171647067662921,-0.061391957,0.042760566,0.041233405,40.932228,-86.911896,-1.5579549,STD
14922148115000,2.669989,-0.495721155940401,9.81216718817782,0.204356982089888,-0.06994407,0.049785517,0.03634648,40.91261,-86.899216,-1.569099,STD
14922153096000,2.67497,-0.518666404683865,9.83614016663142,0.171169468979065,-0.086437434,0.06688975,0.038789943,40.883823,-86.89729,-1.5731286,STD
14922158452000,2.680326,-0.562052637946712,9.8578331558469,0.0681271625730598,-0.09101892,0.067500606,0.041233405,40.858482,-86.89568,-1.5781472,STD
14922163114000,2.684988,-0.580614055181864,9.84609400937028,0.0323015802840302,-0.08979719,0.086437434,0.038789943,40.825382,-86.88619,-1.5859573,STD
14922168136000,2.69001,-0.590305700529975,9.81701903284635,0.0226099485977834,-0.09285152,0.10140363,0.043676864,40.793896,-86.8764,-1.5906992,STD
14922173640000,2.695514,-0.597357455409505,9.79226841344793,0.0694894657743175,-0.084910266,0.11911872,0.03390302,40.76464,-86.87811,-1.5971819,STD
14922178135000,2.700009,-0.601710106167846,9.77485790131446,0.130426620023054,-0.06963864,0.124311075,0.03848451,40.735134,-86.88389,-1.5980103,STD
14922183109000,2.704983,-0.59118273492192,9.76226482687488,0.177541110636206,-0.064446285,0.12308934,0.032375857,40.70361,-86.88633,-1.605904,STD
14922188104000,2.709978,-0.572738097964141,9.75304232542896,0.214430370106998,-0.04886922,0.12156218,0.026572637,40.671413,-86.89584,-1.6121337,STD
14922193139000,2.715013,-0.547741142178218,9.74630750076554,0.252897297744207,-0.036651913,0.122478485,0.02076942,40.64286,-86.89432,-1.6232477,STD
14922198125000,2.719999,-0.518497511683168,9.74143397458406,0.291888794892314,-0.028710667,0.12156218,0.026572637,40.61592,-86.89659,-1.6322209,STD
14922203105000,2.724979,-0.48884202046249,9.75299064883033,0.317159944651788,-0.025961773,0.1414153,0.02687807,40.58431,-86.89483,-1.6413535,STD
14922208121000,2.729995,-0.458703022323205,9.77451849179887,0.334382228018284,-0.03023783,0.15974127,0.029321533,40.553955,-86.89463,-1.6478292,STD
14922213048000,2.734922,-0.436960339678494,9.7946424833366,0.341192279678494,-0.032375857,0.17256944,0.036957346,40.523174,-86.89335,-1.6448313,STD
14922218107000,2.739981,-0.427462391981964,9.81363827955303,0.331694331981964,-0.036957346,0.1777618,0.040011674,40.490173,-86.89041,-1.6424912,STD
14922223081000,2.744955,-0.426259845378135,9.82905745826803,0.333745343867555,-0.041233405,0.18692477,0.0421497,40.452087,-86.89085,-1.6360233,STD
14922228086000,2.74996,-0.440346424742359,9.83844820719044,0.35722296143221,-0.04886922,0.18600847,0.03634648,40.416317,-86.888885,-1.6309143,STD
14922233050000,2.754924,-0.451540517130296,9.85067946802558,0.369203695621503,-0.04917465,0.18967366,0.043676864,40.375904,-86.892,-1.6180854,STD
14922238093000,2.759967,-0.456366236794564,9.86998274980016,0.354726526550759,-0.054367006,0.18661933,0.03756821,40.33886,-86.88948,-1.6107606,STD
14922243689000,2.765563,-0.463461349588432,9.88515215016685,0.335328496941046,-0.046120327,0.19211712,0.04184427,40.30064,-86.88799,-1.6018589,STD
14922248089000,2.769963,-0.471273356262514,9.88905782313682,0.315798492491657,-0.0571159,0.19394971,0.030543262,40.265526,-86.87773,-1.5991427,STD
14922253012000,2.774886,-0.479496948361166,9.89021462026761,0.300164013177056,-0.054061573,0.1957823,0.035124753,40.228992,-86.87804,-1.5908835,STD
14922258006000,2.77988,-0.48445769301421,9.87037174525464,0.324967746802199,-0.048563786,0.20189096,0.03390302,40.19184,-86.87415,-1.5875834,STD
14922263033000,2.784907,-0.482597834419691,9.85647381068197,0.347674697283782,-0.043982297,0.1994475,0.036651913,40.15679,-86.87491,-1.5823358,STD
14922268047000,2.789921,-0.454568969559296,9.86581695262185,0.361689127275027,-0.0421497,0.19608775,0.03573562,40.12122,-86.87594,-1.5784973,STD
14922273050000,2.794924,-0.424074074544895,9.87521733446084,0.378848301488315,-0.046731193,0.18875736,0.028710667,40.08967,-86.87198,-1.5773256,STD
14922278034000,2.799908,-0.380041967140221,9.88500193388684,0.413095492730627,-0.050396383,0.17745635,0.029626964,40.060913,-86.87001,-1.5739914,STD
14922283030000,2.804904,-0.34000558384501,9.89188918868299,0.447196339809732,-0.04337143,0.17165314,0.03176499,40.025093,-86.86715,-1.5687593,STD
14922288047000,2.809921,-0.316198812629075,9.88712823416906,0.480525825478149,-0.052839845,0.15851954,0.029626964,39.995502,-86.85922,-1.5642632,STD
14922293028000,2.814902,-0.293983056952365,9.88109148516086,0.512642173252972,-0.056199603,0.1591304,0.0290161,39.963764,-86.85543,-1.5531908,STD
14922298029000,2.819903,-0.278056998489484,9.86914670745698,0.540512764130019,-0.06994407,0.15241088,0.03390302,39.93851,-86.84749,-1.5411123,STD
14922303068000,2.824942,-0.262009926185053,9.85711116759498,0.568595129142905,-0.07513642,0.1469131,0.025350908,39.91392,-86.83686,-1.5307916,STD
14922308186000,2.83006,-0.240004057395103,9.83967831368219,0.578322356481997,-0.0729984,0.15363261,0.032070424,39.888084,-86.827805,-1.5151689,STD
14922313301000,2.835175,-0.216487325537206,9.82086503427748,0.583025720533845,-0.08307768,0.15454891,0.029626964,39.866295,-86.812355,-1.504792,STD
14922318125000,2.839999,-0.220257608873727,9.82579471567436,0.561860225970652,-0.093767814,0.15485434,0.031154128,39.839367,-86.797615,-1.4958616,STD
14922323108000,2.844982,-0.233638647539957,9.83917555407048,0.53063778844378,-0.09101892,0.1704314,0.032070424,39.808556,-86.783844,-1.4882213,STD
14922328113000,2.849987,-0.229641067175081,9.84984665341926,0.485365441188686,-0.09254608,0.18112154,0.03390302,39.774044,-86.76609,-1.4757606,STD
14922333133000,2.855007,-0.212428182749731,9.85845326638024,0.429423598259935,-0.10842858,0.19211712,0.038789943,39.73584,-86.746445,-1.4626591,STD
14922338117000,2.859991,-0.191294660403835,9.86492920648369,0.378739850002537,-0.1020145,0.20525073,0.04337143,39.68073,-86.734634,-1.4570124,STD
14922343123000,2.864997,-0.162108016901223,9.86736147587641,0.337392103347369,-0.116980694,0.21380283,0.046731193,39.625126,-86.71455,-1.4503902,STD
14922348109000,2.869983,-0.133037980044645,9.86978402785247,0.296209549447517,-0.11728613,0.22418754,0.047647487,39.563076,-86.71239,-1.4377778,STD
14922353094000,2.874968,-0.103973773520369,9.87220609395769,0.255035255185429,-0.1255328,0.23243423,0.04550946,39.500656,-86.704926,-1.4252436,STD
14922358107000,2.879981,-0.0757843877897983,9.87963474899169,0.217949792158956,-0.11942416,0.2302962,0.046731193,39.44035,-86.70226,-1.4111964,STD
14922363115000,2.884989,-0.0492344050956109,9.89480607805457,0.187606955812574,-0.11056661,0.23335053,0.05009095,39.377697,-86.69879,-1.3974106,STD
14922368111000,2.889985,-0.0227480405708185,9.90994105409253,0.157336825943061,-0.105374254,0.22724187,0.051923547,39.31361,-86.7147,-1.3711513,STD
14922373131000,2.895005,-0.00377689365461773,9.9196835151151,0.172449808424702,-0.09132435,0.21594086,0.050701816,39.251545,-86.7353,-1.3450271,STD
14922378114000,2.899988,0.0138698584137931,9.92850706896552,0.194508246206897,-0.081855945,0.19028452,0.058948494,39.196487,-86.75735,-1.3156374,STD
14922383117000,2.904991,-0.000479026400058388,9.93442083106267,0.207657152213896,-0.06566802,0.16768251,0.05467244,39.12635,-86.79068,-1.2908067,STD
14922388124000,2.909998,-0.0284769274205917,9.93908675476839,0.216989784100817,-0.057421334,0.14263703,0.050701816,39.065514,-86.82509,-1.2632774,STD
14922393124000,2.914998,-0.0634676865447731,9.93443508650729,0.217121494732577,-0.049785517,0.13775012,0.050701816,39.00915,-86.86003,-1.2303498,STD
14922398115000,2.919989,-0.102201756127735,9.92475187915316,0.212279739384117,-0.036957346,0.13775012,0.047647487,38.959557,-86.89722,-1.1995116,STD
14922403098000,2.924972,-0.140108341502163,9.91842360361778,0.223283079107354,-0.029321533,0.14049901,0.047647487,38.9131,-86.930595,-1.1731192,STD
14922408194000,2.930068,-0.178490885465985,9.91362568855682,0.242474348584349,-0.039095376,0.1600467,0.05222898,38.862625,-86.962395,-1.1467493,STD
14922413142000,2.935016,-0.182317632687818,9.90892210445974,0.270506805618078,-0.03634648,0.17165314,0.044898596,38.799847,-86.99044,-1.1346743,STD
14922418152000,2.940026,-0.167956727360072,9.90413503771326,0.304015598045495,-0.028405234,0.17989981,0.04550946,38.733635,-87.01845,-1.1191053,STD
14922423179000,2.945053,-0.157095872967236,9.89385335763729,0.347438769736964,-0.036651913,0.18509217,0.047036625,38.66908,-87.035385,-1.1122601,STD
14922428147000,2.950021,-0.148313668614675,9.8806802482695,0.395740879920628,-0.044593163,0.17440203,0.04642576,38.60817,-87.05427,-1.1053963,STD
14922433129000,2.955003,-0.146053984433155,9.87608993208556,0.428585153299465,-0.047036625,0.16615535,0.043982297,38.544468,-87.06692,-1.0969338,STD
14922438145000,2.960019,-0.151191661327273,9.88122771090909,0.443998183981818,-0.056199603,0.15607607,0.042455133,38.485764,-87.075874,-1.0880206,STD
14922443145000,2.965019,-0.150360249543374,9.88900213519698,0.481665183041186,-0.06780604,0.13988814,0.041233405,38.43034,-87.07407,-1.0795462,STD
14922448151000,2.970025,-0.145590899079785,9.89854052735774,0.534128018220255,-0.083383106,0.13836098,0.035124753,38.375034,-87.068535,-1.0728635,STD
14922453097000,2.974971,-0.146169991429733,9.88479293614523,0.595741047100795,-0.09285152,0.124311075,0.044593163,38.329758,-87.060905,-1.0629374,STD
14922458161000,2.980035,-0.15055013646586,9.8541322273302,0.665823340236633,-0.09560041,0.11728613,0.039095376,38.28439,-87.04934,-1.0590434,STD
14922463187000,2.985061,-0.146539017250388,9.83060250874289,0.707728001748577,-0.09162979,0.089186326,0.031154128,38.251923,-87.03096,-1.0538824,STD
14922468173000,2.990047,-0.129247257141749,9.81825126073461,0.705257752146922,-0.089491755,0.07391469,0.026267206,38.218826,-87.01189,-1.0495464,STD
14922473123000,2.994997,-0.112080347286601,9.80598919141231,0.702805338282463,-0.08124508,0.059253927,0.029321533,38.18708,-86.97689,-1.046865,STD
14922478126000,3,-0.0947296301138127,9.79359583124677,0.700326666249353,-0.08735373,0.040011674,0.026572637,38.162106,-86.938705,-1.0470102,STD
14922483110000,3.004984,-0.074262819539115,9.79465395969972,0.651393131181351,-0.096516706,0.02565634,0.025045475,38.134533,-86.90094,-1.0465574,STD
14922488093000,3.009967,-0.0506944536324575,9.80879477261952,0.557119653773212,-0.09987647,0.03145956,0.026267206,38.107506,-86.8642,-1.0461903,STD
14922493107000,3.014981,-0.0315139250057261,9.82075595942344,0.464546500341594,-0.0983493,0.043982297,0.03176499,38.081596,-86.831215,-1.0394769,STD
14922498654000,3.020528,-0.0157801270256689,9.8312453698292,0.364899127738178,-0.09621128,0.061391957,0.036957346,38.053326,-86.79859,-1.032876,STD
14922503138000,3.025012,-0.00738969965470272,9.84194222588984,0.294991934425333,-0.09743301,0.089491755,0.036957346,38.015404,-86.78542,-1.0207745,STD
14922508129000,3.030003,-0.00263747816563929,9.8561986814476,0.228460827623782,-0.092240654,0.11789699,0.04428773,37.97306,-86.77625,-1.0055971,STD
14922513057000,3.034931,-0.00608501779958779,9.86005423957209,0.197621147799588,-0.09468412,0.1328632,0.043676864,37.923267,-86.77962,-0.987228,STD
14922518166000,3.04004,-0.0204911141564432,9.85044998145058,0.212027244156443,-0.0729984,0.12950343,0.04642576,37.87161,-86.792114,-0.96614534,STD
14922523121000,3.044995,-0.0401842770173546,9.84591150735366,0.225038992085008,-0.070554934,0.09743301,0.042455133,37.814453,-86.80562,-0.94431984,STD
14922528100000,3.049974,-0.0682358038690068,9.84824918178253,0.236727132341406,-0.06169739,0.06566802,0.043676864,37.759464,-86.8274,-0.92030853,STD
14922533120000,3.054994,-0.0965183234101382,9.85060610599078,0.248511519585253,-0.046120327,0.03634648,0.03634648,37.718235,-86.8451,-0.89921236,STD
14922538108000,3.059982,-0.124620555974115,9.85294800598098,0.26022078722914,-0.035430185,0.02107485,0.023518313,37.682938,-86.86342,-0.87938714,STD
14922543064000,3.064938,-0.135651993662159,9.85744311237307,0.273241576270273,-0.020463986,0.015577064,0.016187929,37.654884,-86.88718,-0.8599615,STD
14922548115000,3.069989,-0.110044555694836,9.86675485292844,0.289537217044131,-0.0067195175,0.012217305,0.01985312,37.631035,-86.91302,-0.8410791,STD
14922553088000,3.074962,-0.0848325602461139,9.87592279705472,0.305581212603109,-0.004886922,0.016187929,0.009162978,37.61104,-86.92927,-0.8389394,STD
14922558093000,3.079967,-0.0594583319692478,9.88514973458781,0.321728447224602,-0.006414085,0.034513887,0.015577064,37.587902,-86.949585,-0.83096945,STD
14922563063000,3.084937,-0.039119458947072,9.89365324848549,0.340061632530556,-0.015577064,0.042455133,0.027488936,37.561512,-86.96555,-0.825129,STD
14922568742000,3.090616,-0.0448997411869487,9.89943364842173,0.374743332005527,-0.02076942,0.042455133,0.033292156,37.53276,-86.98194,-0.8191981,STD
14922573129000,3.095003,-0.0543374653605039,9.90370871276399,0.405555947529641,-0.03573562,0.02321288,0.040011674,37.506447,-86.993324,-0.80185616,STD
14922578083000,3.099957,-0.0763101862319377,9.90810334577621,0.44950139202575,-0.04520403,0.020158553,0.04428773,37.476074,-87.0049,-0.78397304,STD
14922583096000,3.10497,-0.104643477389881,9.90990667970043,0.489983397856832,-0.046120327,0.021380283,0.036957346,37.45124,-87.00909,-0.76924753,STD
14922588097000,3.109971,-0.175547538672298,9.89322346912828,0.502495866757816,-0.05222898,0.014966198,0.03268129,37.429836,-87.00988,-0.7526162,STD
14922593117000,3.114991,-0.246720981511278,9.87647687503266,0.515055873533049,-0.043066,-0.00061086525,0.03023783,37.417877,-87.00229,-0.73874635,STD
14922598111000,3.119985,-0.274556265033113,9.86969229801324,0.48917820602649,-0.037873644,-0.009773844,0.027488936,37.406322,-86.99202,-0.7265414,STD
14922603087000,3.124961,-0.293682983475818,9.86491052478427,0.455706487447321,-0.029932396,-0.008246681,0.01863139,37.396492,-86.98482,-0.7170621,STD
14922608107000,3.129981,-0.304318000975338,9.86039243185611,0.424080469406638,-0.022296581,-0.003970624,0.016798794,37.39308,-86.971016,-0.7206944,STD
14922613093000,3.134967,-0.313172057122195,9.8559653113295,0.393091240534026,-0.027183503,-0.0009162979,0.004886922,37.390026,-86.95504,-0.7296889,STD
14922618182000,3.140056,-0.269163537823246,9.8612300042228,0.376376395612306,-0.01863139,0.010079277,0.008246681,37.372597,-86.94838,-0.740799,STD
14922623127000,3.145001,-0.202503341860044,9.87075308184195,0.366853516867082,-0.027488936,0.023823744,0.01038471,37.35421,-86.9349,-0.75535196,STD
14922628090000,3.149964,-0.158783408923247,9.87534345629555,0.378817467616487,-0.029626964,0.04062254,0.0076358155,37.331547,-86.92999,-0.77048385,STD
14922633080000,3.154954,-0.125155073310279,9.87774552867555,0.400435685123398,-0.027794369,0.038789943,0.016493361,37.31073,-86.92493,-0.7811844,STD
14922638437000,3.160311,-0.0890534713305856,9.88032426649912,0.423643859709475,-0.041233405,0.034513887,0.020158553,37.283047,-86.92155,-0.7823746,STD
14922643108000,3.164982,-0.0575749231044986,9.8825727795426,0.443880070926866,-0.041233405,0.011301007,0.015577064,37.26199,-86.922615,-0.7829348,STD
14922648112000,3.169986,-0.0693796579076393,9.87647688875638,0.445584532348771,-0.040927973,0.00030543262,0.027183503,37.239017,-86.921715,-0.77784914,STD
14922653144000,3.175018,-0.0997122405120255,9.86689815185848,0.439198721641821,-0.04917465,-0.007941248,0.029626964,37.222588,-86.917656,-0.7763327,STD
14922658128000,3.180002,-0.129755482105877,9.85741078605976,0.432873824868482,-0.05131268,-0.02107485,0.026572637,37.20181,-86.909904,-0.76238257,STD
14922663115000,3.184989,-0.159816807512887,9.84791770956735,0.426545120974293,-0.048563786,-0.016798794,0.024740042,37.17883,-86.90188,-0.7478757,STD
14922668179000,3.190053,-0.190342284124296,9.83827805860333,0.420118700978268,-0.049785517,-0.030848695,0.025045475,37.165264,-86.89247,-0.7335054,STD
14922673135000,3.195009,-0.220216743462002,9.82884399261247,0.41382933733287,-0.029932396,-0.040317107,0.022296581,37.14964,-86.88974,-0.72097623,STD
14922678119000,3.199993,-0.233024982220206,9.82103146949485,0.405439435559588,-0.02443461,-0.02687807,0.020463986,37.127045,-86.87875,-0.706787,STD
14922683115000,3.204989,-0.237718039383521,9.81399174041197,0.396053321232957,-0.02687807,-0.017104227,0.016493361,37.1086,-86.87108,-0.69414175,STD
14922688088000,3.209962,-0.242389491199608,9.80698442000981,0.386710417600785,-0.028405234,-0.008552114,0.015577064,37.090782,-86.861465,-0.6961875,STD
14922693095000,3.214969,-0.247092881355076,9.7999291911231,0.377303637289848,-0.02687807,0.005192355,0.016798794,37.069195,-86.852295,-0.6989027,STD
14922698114000,3.219988,-0.237663517786018,9.81123980787106,0.350828555572036,-0.01985312,0.011911872,0.014049901,37.0478,-86.84431,-0.7029277,STD
14922703115000,3.224989,-0.218720137263918,9.83491902116088,0.312941794527835,-0.042455133,0.027488936,0.02076942,37.02039,-86.82956,-0.7041231,STD
14922708137000,3.230011,-0.202494774686456,9.85861528268135,0.26956443181836,-0.05497787,0.03573562,0.028710667,36.995167,-86.821365,-0.7053185,STD
14922713128000,3.235002,-0.188400659665815,9.88210545803027,0.222584041875369,-0.06566802,0.039095376,0.02076942,36.967747,-86.80729,-0.70921373,STD
14922718194000,3.240068,-0.184563194883335,9.89544491926194,0.182885874940935,-0.062308256,0.029321533,0.027183503,36.93148,-86.80321,-0.70614666,STD
14922723128000,3.245002,-0.189176289796934,9.9000581105145,0.150594191277946,-0.08246681,0.021991149,0.028710667,36.894756,-86.78926,-0.7066743,STD
14922728114000,3.249988,-0.20081063095978,9.90009932815419,0.141031175114564,-0.0693332,0.00061086525,0.024129177,36.863216,-86.79443,-0.702359,STD
14922733115000,3.254989,-0.219649696475563,9.89538946710591,0.155160473021929,-0.059864793,-0.0125227375,0.02443461,36.832157,-86.79373,-0.69624734,STD
14922738089000,3.259963,-0.232000498520211,9.88852686711689,0.199477025289502,-0.038789943,-0.029321533,0.019242255,36.817722,-86.810104,-0.69287634,STD
14922743125000,3.264999,-0.236790335199126,9.8789475138544,0.280904138798292,-0.02687807,-0.044593163,0.015882496,36.806858,-86.82646,-0.6887216,STD
14922748114000,3.269988,-0.247154305303436,9.87272121465208,0.324644672822841,-0.013133603,-0.058948494,0.0143553335,36.80131,-86.84608,-0.6904088,STD
14922753145000,3.275019,-0.264649981742999,9.87053421056693,0.322457709842495,-0.025045475,-0.07696902,0.0125227375,36.801292,-86.861115,-0.69269013,STD
14922758071000,3.279945,-0.281780512878217,9.86839285057419,0.320316390096682,-0.015271631,-0.070554934,0.0070249503,36.80164,-86.87251,-0.70030135,STD
14922763116000,3.28499,-0.299324875358359,9.86619976061005,0.318123341351732,-0.025045475,-0.055588737,0.0067195175,36.80447,-86.875114,-0.70667785,STD
14922768345000,3.290219,-0.314818638957876,9.86370566480335,0.315629293268117,-0.022907447,-0.031154128,0.008246681,36.804256,-86.887146,-0.71705014,STD
14922773142000,3.295016,-0.301061419478938,9.85911983240168,0.311043556634059,-0.034513887,-0.018936822,0.008246681,36.80324,-86.89216,-0.7276805,STD
14922778299000,3.300173,-0.285428030300392,9.85378355594253,0.305707351649978,-0.03268129,-0.0070249503,0.013439035,36.796997,-86.89938,-0.74267066,STD
14922783110000,3.304984,-0.260355106898128,9.84375470494123,0.29567817600566,-0.027183503,-0.0070249503,0.008246681,36.7941031289673,-86.9017673224181,-0.749955090835265,STD
14922788224000,3.310098,-0.233430579805207,9.83937404247435,0.286305934169517,-0.026267206,-0.007330383,0.016798794,36.791027,-86.904305,-0.7576983,STD
14922793127000,3.315001,-0.206660288323831,9.85722079475484,0.281844222805017,-0.03573562,-0.017104227,0.007330383,36.79239,-86.909035,-0.7701901,STD
14922798085000,3.319959,-0.180378223217309,9.87408328464099,0.28049433635378,-0.03573562,-0.035124753,0.01160644,36.793354,-86.91913,-0.77062047,STD
14922803109000,3.324983,-0.162075272811222,9.87865911421778,0.312524493592011,-0.03390302,-0.04917465,0.0076358155,36.796272,-86.92565,-0.7758904,STD
14922808390000,3.330264,-0.144317279749871,9.88282153788114,0.34498676689199,-0.03940081,-0.070249505,0.010079277,36.804485,-86.93385,-0.7725912,STD
14922813197000,3.335071,-0.1585919184,9.87330492,0.3497449864,-0.04337143,-0.07849618,0.015577064,36.81286,-86.94264,-0.7695805,STD
14922818242000,3.340116,-0.17504464137651,9.86182917577738,0.355863071647851,-0.03268129,-0.08979719,0.00580322,36.830807,-86.95355,-0.7707929,STD
14922823827000,3.345701,-0.21212181815409,9.8300486563676,0.377050021905328,-0.021991149,-0.09254608,0.008552114,36.847923,-86.96438,-0.76700884,STD
14922828304000,3.350178,-0.239976527837021,9.80709507575999,0.391758923135445,-0.012217305,-0.07941248,0.008552114,36.867565,-86.97181,-0.76512,STD
14922833115000,3.354989,-0.247309649601146,9.81296154009231,0.380025924024829,-0.006414085,-0.069027774,0.004276057,36.88814,-86.98066,-0.7637898,STD
14922838470000,3.360344,-0.255471958278529,9.81949135021486,0.366966225368136,-0.008857546,-0.057421334,0.0030543262,36.9064,-86.98404,-0.76838344,STD
14922843127000,3.365001,-0.262570346982652,9.82517002915804,0.355608799290785,-0.02076942,-0.040927973,0.005497787,36.919827,-86.98606,-0.77332896,STD
14922848085000,3.369959,-0.270127532122235,9.83121574318001,0.343517298648416,-0.036957346,-0.03359759,0.008246681,36.940647,-86.98856,-0.776775,STD
14922853113000,3.374987,-0.277791414107274,9.83734681419704,0.331255082990928,-0.039095376,-0.021685716,0.013744468,36.9549,-86.99182,-0.77905315,STD
14922858218000,3.380092,-0.285572662622314,9.84357177790864,0.318805080816807,-0.05222898,-0.025350908,0.005192355,36.971306,-86.98663,-0.7844837,STD
14922863258000,3.385132,-0.264509045101108,9.83355958916777,0.285641085424245,-0.061391957,-0.03145956,0.010079277,36.984463,-86.98334,-0.7846971,STD
14922868045000,3.389919,-0.236558121304745,9.819584331572,0.248373193514887,-0.064446285,-0.0290161,0.01038471,36.996143,-86.97718,-0.78875124,STD
14922873101000,3.394975,-0.222640702768846,9.83063223173197,0.246622829710215,-0.07086037,-0.02321288,0.013133603,37.007885,-86.97218,-0.7932441,STD
14922878121000,3.399995,-0.213383831468181,9.84914586800809,0.25587969134495,-0.056505036,-0.03023783,0.0070249503,37.022453,-86.97147,-0.8000238,STD
14922883113000,3.404987,-0.214010547486006,9.86449660051065,0.305064972947069,-0.029932396,-0.03848451,0.00580322,37.034927,-86.98241,-0.7987772,STD
14922888110000,3.409984,-0.21871007312678,9.87859547186487,0.370858385897083,-0.02687807,-0.046120327,0.006414085,37.048965,-86.99023,-0.7987105,STD
14922893794000,3.415668,-0.251029918466713,9.88134225069763,0.396494498297787,-0.032375857,-0.07513642,0.004886922,37.07198,-86.99892,-0.7944397,STD
14922898118000,3.419992,-0.28404575496462,9.87927871930436,0.400621474897349,-0.022296581,-0.076358154,0.0076358155,37.08865,-87.01277,-0.78926355,STD
14922903095000,3.424969,-0.32204756307056,9.87690355840143,0.405371697500498,-0.0106901415,-0.089186326,-0.0015271631,37.122,-87.014565,-0.79001844,STD
14922908163000,3.430037,-0.360744200297987,9.87448496980267,0.410208773681483,-0.01985312,-0.09254608,-0.0009162979,37.152042,-87.01414,-0.7875745,STD
14922913114000,3.434988,-0.386390298290756,9.86724044957423,0.39246042593003,-0.024129177,-0.08735373,-0.0015271631,37.182606,-87.01718,-0.78823555,STD
14922918164000,3.440038,-0.406237580634041,9.85731660634041,0.362689507596183,-0.022296581,-0.08093964,0.0033597588,37.212864,-87.01961,-0.7873288,STD
14922923116000,3.44499,-0.408392795315678,9.84771444426543,0.316833096427349,-0.03268129,-0.07849618,0.0018325958,37.23792,-87.00772,-0.80476105,STD
14922928127000,3.450001,-0.403560518123049,9.83805019262914,0.263678001896083,-0.03573562,-0.0711658,-0.0018325958,37.259243,-86.9985,-0.82135826,STD
14922933112000,3.454986,-0.392732556232336,9.84170967984951,0.217352559643971,-0.035430185,-0.071776666,0.0012217305,37.281517,-86.99038,-0.8383331,STD
14922938086000,3.45996,-0.379619589717379,9.85045137759222,0.173642674303542,-0.036957346,-0.06872234,-0.0030543262,37.300465,-86.97999,-0.8582999,STD
14922943091000,3.464965,-0.369606740018168,9.84805280454201,0.151932669554883,-0.039095376,-0.057421334,-0.0018325958,37.314575,-86.97834,-0.8729115,STD
14922948113000,3.469987,-0.362325177099167,9.83591687479182,0.149505481070401,-0.036957346,-0.03756821,-0.007330383,37.325214,-86.976326,-0.89054716,STD
14922953100000,3.474974,-0.355094361830936,9.82386552440071,0.147095208475397,-0.03023783,-0.03359759,-0.009162978,37.3422,-86.988335,-0.90281934,STD
14922958102000,3.479976,-0.347841797569518,9.81177792571284,0.144677686213475,-0.02107485,-0.028405234,-0.01038471,37.352936,-87.00067,-0.91647106,STD
14922963583000,3.485457,-0.324701530482329,9.79661839189189,0.197154796702703,-0.009773844,-0.020158553,-0.015271631,37.36146,-87.01437,-0.9314431,STD
14922968142000,3.490016,-0.297470348615385,9.783003,0.269771288,0.004886922,-0.029626964,-0.005192355,37.37313,-87.03213,-0.9419306,STD
14922973134000,3.495008,-0.281114082775049,9.78720520088409,0.313903838732809,0.0125227375,-0.04337143,-0.013133603,37.382366,-87.04658,-0.9526417,STD
14922978130000,3.500004,-0.271714135767191,9.80130515943025,0.339753687483301,0.0009162979,-0.04642576,-0.013439035,37.390728,-87.06082,-0.9581202,STD
14922983110000,3.504984,-0.262344292672888,9.81535996198428,0.365520750489195,-0.0012217305,-0.047036625,-0.011911872,37.40361,-87.0696,-0.9631788,STD
14922988099000,3.509973,-0.25295751612721,9.82944016478389,0.391334380476424,-0.005497787,-0.041233405,-0.014966198,37.415257,-87.0739,-0.9695933,STD
14922993087000,3.514961,-0.250342613552003,9.84076354610586,0.398188946533775,-0.0076358155,-0.034513887,-0.01282817,37.42253,-87.07926,-0.97702056,STD
14922998113000,3.519987,-0.252688504808461,9.85014706214056,0.391151267865289,-0.008857546,-0.028405234,-0.013133603,37.428226,-87.082954,-0.9858822,STD
14923003093000,3.524967,-0.255012925512233,9.85944469641291,0.384178000899698,-0.011301007,-0.021685716,-0.004276057,37.432552,-87.08085,-0.99009883,STD
14923008123000,3.529997,-0.257360683773272,9.86883568042694,0.377134721213569,-0.014966198,-0.025961773,0.005192355,37.438213,-87.078125,-0.9940319,STD
14923013134000,3.535008,-0.27275669777323,9.87841549038068,0.375859279238641,-0.03176499,-0.0290161,0.005497787,37.43483,-87.074745,-1.0060362,STD
14923018113000,3.539987,-0.302033976953541,9.88817426923864,0.380738821522718,-0.03390302,-0.035430185,0.003970624,37.433643,-87.074974,-1.0154666,STD
14923023111000,3.544985,-0.320921052398128,9.88062493176058,0.387958692398128,-0.04428773,-0.043982297,-0.00030543262,37.43372,-87.07014,-1.0254453,STD
14923028124000,3.549998,-0.330281268527978,9.85722441587054,0.397318908527978,-0.043982297,-0.054061573,0.00030543262,37.43609,-87.067924,-1.0341158,STD
14923033114000,3.554988,-0.347832408444196,9.84074241214831,0.395903795777902,-0.038179077,-0.06291912,-0.0009162979,37.442184,-87.06048,-1.0491211,STD
14923038101000,3.559975,-0.374528626916341,9.83184395761133,0.38255568654183,-0.025961773,-0.057421334,-0.0036651916,37.447044,-87.0548,-1.06415,STD
14923043099000,3.564973,-0.382690518173418,9.82248441237778,0.363536898173418,-0.013439035,-0.06352998,-0.0070249503,37.45855,-87.048004,-1.0812097,STD
14923048207000,3.570081,-0.351154043399592,9.81197204190394,0.332000423399592,-0.013744468,-0.052839845,-0.013744468,37.463684,-87.040344,-1.0999517,STD
14923053093000,3.574967,-0.329261785650224,9.81850294170403,0.312083653183857,-0.011301007,-0.052534413,-0.010079277,37.47416,-87.03655,-1.1203488,STD
14923058140000,3.580014,-0.31625708343139,9.84451241856502,0.30341385773991,-0.00580322,-0.02443461,-0.008246681,37.473694,-87.03237,-1.1431575,STD
14923063117000,3.584991,-0.305344745730126,9.8652240975151,0.300220245134145,-0.022602014,-0.0027488936,-0.0067195175,37.48705,-87.03697,-1.1579376,STD
14923068110000,3.589984,-0.300610861718642,9.86995808038808,0.314421907054747,-0.026267206,0.010995574,0.0061086523,37.494183,-87.04743,-1.1688426,STD
14923073101000,3.594975,-0.27985800624592,9.87268662607577,0.333622268279751,-0.034513887,0.028099801,0.0009162979,37.49314,-87.05319,-1.181505,STD
14923078125000,3.599999,-0.198946349575626,9.86792702097141,0.371698333821347,-0.03573562,0.038789943,0.0067195175,37.48967,-87.06225,-1.1871939,STD
14923083108000,3.604982,-0.136081584765059,9.86290724665468,0.408645992253762,-0.034513887,0.04337143,0.01160644,37.483566,-87.067314,-1.194193,STD
14923088103000,3.609977,-0.146575189373931,9.85661117549248,0.442225532261659,-0.03390302,0.03634648,0.018020526,37.47782,-87.07264,-1.1988232,STD
14923093115000,3.614989,-0.157104507952442,9.85029367626025,0.475919356990304,-0.047036625,0.029932396,0.024129177,37.479694,-87.08022,-1.1858072,STD
14923098116000,3.61999,-0.167610717491774,9.84399004224981,0.509539232781995,-0.03756821,0.01863139,0.024740042,37.484806,-87.093735,-1.1726938,STD
14923103096000,3.62497,-0.178072809774492,9.83771287820822,0.543017933330408,-0.05497787,0.006414085,0.026572637,37.494267,-87.09492,-1.1531262,STD
14923108141000,3.630015,-0.225497347232442,9.81983171856896,0.508806916739506,-0.06505715,-0.0125227375,0.036651913,37.508423,-87.10123,-1.131356,STD
14923113119000,3.634993,-0.293332167195853,9.795605013416,0.436126740567131,-0.064446285,-0.023518313,0.026267206,37.523647,-87.1035,-1.1154779,STD
14923118113000,3.639987,-0.341502480541596,9.79315634333659,0.369356251673622,-0.069027774,-0.03573562,0.029932396,37.547943,-87.090355,-1.1001155,STD
14923123160000,3.645034,-0.380125164481932,9.80173888715262,0.30498512073515,-0.061391957,-0.027488936,0.023823744,37.569233,-87.07857,-1.091209,STD
14923128116000,3.64999,-0.386938864949313,9.8107265129419,0.245729644734215,-0.053450707,-0.026572637,0.015577064,37.593884,-87.07081,-1.0930245,STD
14923133110000,3.654984,-0.350022349880101,9.82057085802501,0.191585422975351,-0.048563786,-0.02076942,0.016493361,37.61423,-87.064644,-1.0943105,STD
14923138093000,3.659967,-0.313187148720733,9.83039351952864,0.137560461616837,-0.042455133,-0.024740042,0.006414085,37.636158,-87.065414,-1.1054475,STD
14923143120000,3.664994,-0.276026691921988,9.84030291535018,0.0830584586569238,-0.046120327,-0.004276057,0.013744468,37.648746,-87.06663,-1.1116384,STD
14923148784000,3.670658,-0.236510664687126,9.8544128083898,0.063764585221403,-0.03604105,0.014966198,0.002443461,37.662766,-87.0697,-1.1257864,STD
14923153112000,3.674986,-0.207600849430052,9.86680298056995,0.0720245335466321,-0.029321533,0.03634648,0.008857546,37.669666,-87.07346,-1.1329272,STD
14923159195000,3.681069,-0.180046775424448,9.8621987114083,0.111082522525483,-0.028405234,0.04550946,0.015271631,37.668156,-87.101456,-1.1282408,STD
14923163110000,3.684984,-0.167817079077713,9.84996908529724,0.147771616673734,-0.032070424,0.046120327,0.028405234,37.66274,-87.13078,-1.1199046,STD
14923168129000,3.690003,-0.156482012103888,9.83503856129297,0.196158959578403,-0.044898596,0.045814894,0.02565634,37.654186,-87.155495,-1.1054373,STD
14923173159000,3.695033,-0.203367695721531,9.83010312663286,0.262785987599508,-0.03359759,0.050396383,0.02565634,37.64384,-87.18678,-1.0868235,STD
14923178106000,3.69998,-0.249479718953435,9.82524913155064,0.328313603428615,-0.044593163,0.03970624,0.032375857,37.645405,-87.204384,-1.0655965,STD
14923183102000,3.704976,-0.296048481449209,9.82034705768147,0.394490269828902,-0.041233405,0.030543262,0.03023783,37.6452,-87.2273,-1.0473841,STD
14923188096000,3.70997,-0.342471156366941,9.8154986936101,0.451566511600344,-0.04642576,0.023823744,0.03176499,37.647026,-87.24572,-1.0265862,STD
14923193094000,3.714968,-0.388257340017218,9.81091998249474,0.460723737812321,-0.03756821,0.020463986,0.02443461,37.6504,-87.267105,-1.009327,STD
14923198127000,3.720001,-0.434232729724096,9.80628594481913,0.467443281348866,-0.027794369,0.010995574,0.02443461,37.668064,-87.26166,-1.0112637,STD
14923203091000,3.724965,-0.477953689805845,9.80142796116902,0.443153860208461,-0.032070424,0.007330383,0.018020526,37.68488,-87.25342,-1.0172051,STD
14923208118000,3.729992,-0.513057170371101,9.79734569685156,0.416471055477201,-0.03756821,0.004886922,0.014049901,37.706264,-87.241516,-1.0307122,STD
14923213114000,3.734988,-0.477640382388472,9.79970686404461,0.373970901515495,-0.032986723,0.005497787,0.0070249503,37.72755,-87.23019,-1.046737,STD
14923218857000,3.740731,-0.436928089877615,9.80242107204895,0.325116140866561,-0.035124753,0.023518313,0.003970624,37.749065,-87.215,-1.0667989,STD
14923223134000,3.745008,-0.406608313616265,9.80444243155349,0.288732402176767,-0.047036625,0.03481932,-0.00061086525,37.77197,-87.197495,-1.0889137,STD
14923228234000,3.750108,-0.367802833800475,9.80746324881235,0.244524191968527,-0.057421334,0.041233405,0.006414085,37.781975,-87.1792,-1.1116693,STD
14923233136000,3.75501,-0.302755622541568,9.81675589608076,0.19341566537114,-0.0571159,0.06352998,0.009162978,37.784325,-87.1598,-1.1367804,STD
14923238363000,3.760237,-0.235961253504376,9.82753345286396,0.144516831849642,-0.054367006,0.076358154,0.015271631,37.780735,-87.16007,-1.1432002,STD
14923243106000,3.76498,-0.199825376040175,9.84560128311456,0.153550803573986,-0.0571159,0.087659165,0.01282817,37.771458,-87.15833,-1.1513298,STD
14923248407000,3.770281,-0.16323554794476,9.8645408369212,0.167533830982941,-0.048258353,0.090713486,0.021685716,37.75566,-87.177216,-1.1411661,STD
14923253014000,3.774888,-0.167715677676686,9.86902106021527,0.216815295458976,-0.043066,0.07788532,0.024740042,37.741615,-87.19325,-1.1333097,STD
14923273024000,3.794898,-0.287334438628921,9.86650336067272,0.433393966149635,-0.043066,0.034513887,0.02443461,37.693176,-87.26722,-1.0854859,STD
14923278321000,3.800195,-0.326223455190524,9.86390699081811,0.487397124327426,-0.042455133,0.029321533,0.02076942,37.68987,-87.27077,-1.0841762,STD
14923283027000,3.804901,-0.338637866770728,9.85976877008539,0.466706431158755,-0.05131268,0.034513887,0.02321288,37.686684,-87.2706,-1.0810747,STD
14923288168000,3.810042,-0.352199806833165,9.85524803213663,0.444103189854008,-0.04428773,0.03359759,0.017715093,37.696682,-87.26181,-1.0896429,STD
14923293043000,3.814917,-0.332784756596827,9.85649377592546,0.39937864047041,-0.042455133,0.03390302,0.02076942,37.704605,-87.25081,-1.095098,STD
14923298005000,3.819879,-0.306457819090909,9.85888718181818,0.349118136363636,-0.05375614,0.03848451,0.009468411,37.711723,-87.236115,-1.1061835,STD
14923303030000,3.824904,-0.279796621798036,9.8613109755729,0.29821950010073,-0.050396383,0.04642576,0.008857546,37.72666,-87.23105,-1.1109178,STD
14923308035000,3.829909,-0.253241538723244,9.86372512238731,0.247523445474692,-0.054061573,0.071776666,0.017715093,37.73502,-87.22107,-1.1164155,STD
14923313060000,3.834934,-0.221028763324775,9.87609720025674,0.195470133786906,-0.051618114,0.082161374,0.01985312,37.74524,-87.21284,-1.1238532,STD
14923317999000,3.839873,-0.188334095213785,9.89010899743261,0.144092789823245,-0.05497787,0.10048734,0.024129177,37.74572,-87.203575,-1.1285192,STD
14923323125000,3.844999,-0.174090339727623,9.88103768508832,0.165551265197868,-0.051923547,0.10567969,0.029626964,37.743065,-87.21512,-1.1149158,STD
14923328059000,3.849933,-0.16476398901806,9.8670483610974,0.202856672905359,-0.050396383,0.112399206,0.028710667,37.734787,-87.225,-1.1024776,STD
14923333053000,3.854927,-0.172300960017034,9.86221191352705,0.260065002847695,-0.053450707,0.115453534,0.032070424,37.722343,-87.24677,-1.0799612,STD
14923338018000,3.859892,-0.184211992529559,9.85982965876753,0.322002377882766,-0.041233405,0.09560041,0.030543262,37.71472,-87.27189,-1.0592911,STD
14923343055000,3.864929,-0.196295753006012,9.85741285771543,0.384837938416834,-0.04062254,0.086437434,0.03268129,37.692574,-87.28301,-1.037424,STD
14923348020000,3.869894,-0.208206785518537,9.85503060295591,0.446775313451904,-0.055283304,0.058643065,0.025961773,37.68187,-87.291985,-1.0184637,STD
14923353150000,3.875024,-0.238847726373183,9.84045509450727,0.477285457423263,-0.051923547,0.051923547,0.034513887,37.66776,-87.30755,-0.9951198,STD
14923359207000,3.881081,-0.280496777140549,9.8196306914378,0.503316102600969,-0.04917465,0.043982297,0.029932396,37.662273,-87.31678,-0.97756016,STD
14923363159000,3.885033,-0.300655656884119,9.82423775590699,0.478197542662148,-0.04917465,0.03481932,0.031154128,37.659298,-87.30447,-0.9659114,STD
14923368123000,3.889997,-0.323031292256425,9.83766293900028,0.428971157927139,-0.063224554,0.02565634,0.022296581,37.658882,-87.287964,-0.95872146,STD
14923373117000,3.894991,-0.331739027919302,9.84380735948361,0.389578770638164,-0.05131268,0.04550946,0.025045475,37.655415,-87.27268,-0.9558217,STD
14923378119000,3.899993,-0.324227944407045,9.84130387586892,0.362038134579,-0.050396383,0.048258353,0.017715093,37.65971,-87.249374,-0.9582074,STD
14923383110000,3.904984,-0.316733378671405,9.83880589771599,0.334558063693096,-0.061391957,0.04642576,0.020463986,37.65721,-87.23625,-0.96287316,STD
14923388103000,3.909977,-0.309235809703653,9.83630691857001,0.307066980957508,-0.051923547,0.0571159,0.014660766,37.65074,-87.227585,-0.9721396,STD
14923393129000,3.915003,-0.315282560224371,9.84714725067698,0.279231539551257,-0.054367006,0.049785517,0.01985312,37.65907,-87.2141,-0.97152144,STD
14923398116000,3.91999,-0.329139291804642,9.86562278346228,0.251518076390716,-0.052839845,0.048258353,0.020463986,37.662804,-87.20348,-0.9741292,STD
14923403113000,3.924987,-0.311995550935115,9.86595694847328,0.241997140667939,-0.062002823,0.032375857,0.009468411,37.67005,-87.1982,-0.97403,STD
14923408220000,3.930094,-0.269993755525763,9.85195606898855,0.24666399816126,-0.062308256,0.028710667,0.018936822,37.673874,-87.19784,-0.96818256,STD
14923413134000,3.935008,-0.237424219991811,9.83801345101853,0.260569724841847,-0.047647487,0.028405234,0.016798794,37.67315,-87.19668,-0.9705479,STD
14923418113000,3.939987,-0.213019000893643,9.82337053260313,0.284974954133483,-0.040927973,0.02321288,0.0125227375,37.674797,-87.19418,-0.97080404,STD
14923423111000,3.944985,-0.196326866263009,9.82819217809551,0.327990503038615,-0.018020526,0.024740042,0.007330383,37.672825,-87.202896,-0.9651958,STD
14923428126000,3.95,-0.186983869069157,9.85154965888532,0.388719992115553,-0.029626964,0.027488936,0.01038471,37.67189,-87.204475,-0.9585694,STD
14923433107000,3.954981,-0.18195933,9.86516750444358,0.423492464760433,-0.029932396,0.028099801,0.015577064,37.670933,-87.21325,-0.94991624,STD
14923438099000,3.959973,-0.18195933,9.86747664200155,0.428110643431221,-0.036957346,0.025350908,0.02443461,37.67004,-87.21766,-0.9395362,STD
14923443115000,3.964989,-0.18195933,9.86979688118238,0.43275102488408,-0.05467244,0.027794369,0.02321288,37.667206,-87.21007,-0.93256176,STD
14923448102000,3.969976,-0.18195933,9.87210370590224,0.437364577975271,-0.05681047,0.029321533,0.025045475,37.665276,-87.20608,-0.9224431,STD
14923453076000,3.97495,-0.195999741949732,9.87056784583027,0.438973055494794,-0.058948494,0.03268129,0.03145956,37.662125,-87.19786,-0.9117354,STD
14923458204000,3.980078,-0.242480847487643,9.86023850394363,0.433808492407193,-0.064446285,0.03268129,0.029626964,37.65963,-87.18783,-0.90316087,STD
14923463145000,3.985019,-0.285841827964963,9.85060274189781,0.407367996046715,-0.05681047,0.0290161,0.028405234,37.656673,-87.184204,-0.8979556,STD
14923468116000,3.98999,-0.327540782072993,9.84133660437956,0.351769390569343,-0.05955936,0.027488936,0.026572637,37.653248,-87.17629,-0.89364696,STD
14923473086000,3.99496,-0.353496061636979,9.83707254020301,0.299118676585232,-0.062002823,0.038179077,0.015271631,37.649464,-87.166534,-0.89964795,STD
14923478162000,4.000036,-0.351077316571798,9.8419098686934,0.25074384347348,-0.063224554,0.034208454,0.015271631,37.65026,-87.15748,-0.9027048,STD
14923483039000,4.004913,-0.3487533962245,9.84655755408498,0.204265502045975,-0.05375614,0.040927973,0.013133603,37.63682,-87.15174,-0.91642666,STD
14923488135000,4.010009,-0.346325121036919,9.8514139421833,0.155700066754901,-0.049480084,0.04795292,0.007330383,37.62484,-87.14411,-0.93081117,STD
14923493053000,4.014927,-0.325935934765796,9.86081033127367,0.138620318925653,-0.04062254,0.043982297,0.004886922,37.61446,-87.140526,-0.944412,STD
14923498149000,4.020023,-0.267570289830576,9.88026543113414,0.182394552627068,-0.03359759,0.05375614,0.010079277,37.59854,-87.13788,-0.9573416,STD
14923503061000,4.024935,-0.224494893455621,9.89207699763314,0.225207018044379,-0.03268129,0.037873644,0.0070249503,37.591454,-87.14976,-0.96579516,STD
14923508214000,4.030088,-0.207461118360947,9.88964380591716,0.271441555889053,-0.028710667,0.032070424,0.009468411,37.578857,-87.165054,-0.9711423,STD
14923513070000,4.034944,-0.19140910752071,9.88735085443787,0.31501130472929,-0.032070424,0.03481932,0.016187929,37.567432,-87.177444,-0.9677796,STD
14923518141000,4.040015,-0.17464639191716,9.88495638224852,0.36051010958284,-0.030848695,0.035430185,0.01863139,37.55844,-87.19168,-0.9647859,STD
14923523123000,4.044997,-0.165305025993103,9.87951596467518,0.39889734433032,-0.040011674,0.027794369,0.024740042,37.551033,-87.20299,-0.9587488,STD
