timestamp,rel_time,acc_x,acc_y,acc_z,gyro_x,gyro_y,gyro_z,azimuth,pitch,roll,label
16167403750000,0,5.57574993139949,4.1638621472095,6.445706072095,-0.03390302,0.010995574,0.011301007,161.39665,-19.144045,11.288309,SIT
16167408786000,0.005036,5.57550930994761,4.16410277117398,6.43439661762211,-0.025045475,0.0018325958,0.0033597588,161.72264,-19.090395,11.559354,SIT
16167413791000,0.010041,5.57527016968418,4.16434191393454,6.42315678052188,-0.018936822,0.002443461,0.010995574,162.04224,-19.035791,11.825178,SIT
16167418838000,0.015088,5.5750290226493,4.1645830634875,6.41182262311031,-0.022296581,0.0018325958,0.010995574,162.36678,-18.982635,12.089462,SIT
16167423891000,0.020141,5.57478758893279,4.16482449972509,6.40047499136856,-0.028405234,0.0067195175,0.0070249503,162.6893,-18.930855,12.349604,SIT
16167428825000,0.025075,5.5745518410687,4.16506025005089,6.38939460050891,-0.02687807,0.002443461,0.004581489,163.01193,-18.880857,12.609748,SIT
16167433817000,0.030067,5.57431332194881,4.16529877166143,6.37818395779075,-0.021380283,0.0027488936,0.011911872,163.33156,-18.830612,12.865218,SIT
16167438787000,0.035037,5.57407585399491,4.165536242095,6.36702272094996,-0.019547688,0.0018325958,0.0067195175,163.65538,-18.7815,13.118116,SIT
16167443818000,0.040068,5.57383547144439,4.16577662715562,6.35572449508557,-0.017715093,-0.0027488936,0.014049901,163.97346,-18.733274,13.371173,SIT
16167448819000,0.045069,5.57328049645496,4.16559502398935,6.35794625997888,-0.01160644,0.004886922,0.004886922,164.29591,-18.688948,13.61655,SIT
16167453857000,0.050107,5.57231443173518,4.16487047923233,6.37750898607162,-0.021991149,0.0027488936,0.009773844,164.61325,-18.639748,13.865245,SIT
16167459560000,0.05581,5.57122084954048,4.16405029686843,6.39965392988006,-0.027794369,0.0009162979,0.005497787,164.92334,-18.573784,14.111848,SIT
16167463820000,0.06007,5.57040397067857,4.16343764092065,6.41619565539715,-0.015577064,0.009468411,0.01160644,165.22862,-18.509977,14.355463,SIT
16167468845000,0.065095,5.56944039878161,4.16271496577098,6.43570790204583,-0.027488936,0.004886922,0.00061086525,165.54155,-18.440691,14.598972,SIT
16167473828000,0.070078,5.56848488061991,4.16199833089122,6.45505706125984,-0.016798794,0.007330383,0.0076358155,165.84642,-18.380304,14.838397,SIT
16167478823000,0.075073,5.56752706139099,4.16127997022005,6.47445281688375,-0.01863139,0.0067195175,0.0036651916,166.15837,-18.316023,15.075779,SIT
16167483797000,0.080047,5.56657326902969,4.16056462968384,6.49376702879032,-0.021991149,0.007941248,0.005497787,166.46648,-18.254395,15.311119,SIT
16167488838000,0.085088,5.56560662904311,4.15983965347897,6.51334140398554,-0.025350908,0.004276057,0.004886922,166.77708,-18.193886,15.545319,SIT
16167493809000,0.090059,5.56465341194862,4.15912474439061,6.53264396678964,-0.025045475,0.007330383,0.010995574,167.08464,-18.133905,15.776159,SIT
16167498818000,0.095068,5.56369290814128,4.15840437029614,6.55209408489178,-0.02687807,0.010995574,0.009162978,167.39502,-18.074266,16.005054,SIT
16167503779000,0.100029,5.56274160860281,4.15769089936728,6.57135781735428,-0.028099801,0.008857546,0.009468411,167.70346,-18.015364,16.233494,SIT
16167508791000,0.105041,5.56178052952866,4.15697009382496,6.5908195845589,-0.02443461,0.008857546,0.006414085,168.0129,-17.958887,16.45798,SIT
16167513821000,0.110071,5.56081599885369,4.15624669959554,6.61035124637837,-0.033292156,0.01038471,0.010995574,168.3202,-17.899137,16.68147,SIT
16167518786000,0.115036,5.55986393229281,4.15553265340288,6.62963051097751,-0.034513887,0.015882496,0.015577064,168.62802,-17.843847,16.901747,SIT
16167523805000,0.120055,5.55890151092946,4.15481084114891,6.64911945942124,-0.044898596,0.009468411,0.0125227375,168.93773,-17.785097,17.122755,SIT
16167529521000,0.125771,5.55780543591194,4.15398878917766,6.67131488267375,-0.038179077,0.0067195175,0.011301007,169.24474,-17.731304,17.340069,SIT
16167533782000,0.130032,5.55698836529444,4.15337598941393,6.687860491225,-0.026267206,0.0061086523,0.019242255,169.55042,-17.676794,17.557358,SIT
16167538764000,0.135014,5.55603303888833,4.15265949835012,6.70720576740484,-0.031154128,0.005192355,0.013133603,169.8607,-17.622118,17.772322,SIT
16167543784000,0.140034,5.55507042576938,4.1519375422802,6.72669859888273,-0.025350908,0.008552114,0.016493361,170.1656,-17.573107,17.98608,SIT
16167548821000,0.145071,5.5541045528052,4.15121314133913,6.74625744194131,-0.032986723,0.007941248,0.022296581,170.47191,-17.520575,18.19909,SIT
16167553880000,0.15013,5.55313446121779,4.15048557644715,6.7659017117514,-0.03940081,0.0061086523,0.015882496,170.78041,-17.471859,18.408985,SIT
16167558694000,0.154944,5.55221134975272,4.14979324646297,6.78459463819254,-0.030848695,0.011911872,0.015577064,171.0847,-17.425148,18.616344,SIT
16167563732000,0.159982,5.55124528503294,4.14906870170594,6.80415736428528,-0.026572637,0.011911872,0.016493361,171.39104,-17.377203,18.823639,SIT
16167568742000,0.164992,5.55028458947,4.14834818379553,6.82361136542158,-0.034208454,0.017104227,0.01282817,171.69751,-17.329914,19.025883,SIT
16167573685000,0.169935,5.54933674153235,4.14763730155377,6.84280520326923,-0.04184427,0.013133603,0.011301007,172.00372,-17.284536,19.22927,SIT
16167578724000,0.174974,5.54837048505697,4.1469126129808,6.86237181239613,-0.040927973,0.01282817,0.016798794,172.30783,-17.240147,19.429024,SIT
16167583777000,0.180027,5.54740154400316,4.14618591098452,6.88199278400126,-0.03145956,0.0070249503,0.017715093,172.61429,-17.197727,19.629276,SIT
16167588701000,0.184951,5.54645733942194,4.14547776124582,6.90111284419989,-0.028710667,0.0067195175,0.015271631,172.91931,-17.154667,19.82678,SIT
16167593690000,0.18994,5.54550067072663,4.14476026347036,6.92048530161885,-0.027794369,0.00580322,0.012217305,173.2245,-17.114674,20.02449,SIT
16167598856000,0.195106,5.54451006128987,4.14401731027171,6.94054505608394,-0.03268129,0.0076358155,0.013744468,173.52846,-17.074657,20.220179,SIT
16167603684000,0.199934,5.54358426524638,4.14332296686423,6.9592923450033,-0.027794369,0.020463986,0.017104227,173.83136,-17.038597,20.41148,SIT
16167608688000,0.204938,5.54262472021705,4.14260331184951,6.97872304793465,-0.03634648,0.010995574,0.017104227,174.1363,-16.998856,20.606695,SIT
16167613718000,0.209968,5.54166018954208,4.14187991762009,6.99825470975412,-0.038789943,0.0076358155,0.016187929,174.43823,-16.962763,20.795546,SIT
16167618734000,0.214984,5.54069834344553,4.14115853681397,7.01773200909537,-0.025961773,0.0061086523,0.014049901,174.74077,-16.929623,20.984913,SIT
16167623732000,0.219982,5.5397399489498,4.14043974469495,7.03713941382176,-0.041233405,0.0027488936,0.01863139,175.04158,-16.888779,21.174763,SIT
16167628717000,0.224967,5.5387840472769,4.13972282218329,7.05649633910408,-0.032986723,-0.0027488936,0.01740966,175.3445,-16.859362,21.363436,SIT
16167633726000,0.229976,5.53782354346956,4.13900244808882,7.07594645720622,-0.03268129,0.0143553335,0.019242255,175.64279,-16.82401,21.546097,SIT
16167638705000,0.234955,5.53686879233026,4.13828638847286,7.09528008428358,-0.036651913,0.00580322,0.022602014,175.9434,-16.790646,21.735783,SIT
16167643707000,0.239957,5.53590963081213,4.13756702109004,7.11470302114661,-0.04428773,0.004886922,0.012217305,176.2445,-16.758677,21.916288,SIT
16167648691000,0.244941,5.53583264967095,4.13761895310618,7.12558314738079,-0.036651913,0.005497787,0.016798794,176.54028,-16.728642,22.098911,SIT
16167653708000,0.249958,5.53679156269889,4.13857787364374,7.12654205540232,-0.035430185,0.0106901415,0.016798794,176.83942,-16.697578,22.277842,SIT
16167658706000,0.254956,5.53774684420451,4.13953316263054,7.12749733192049,-0.036957346,0.0070249503,0.02321288,177.10406,-16.632332,22.42381,SIT
16167663715000,0.259965,5.53870422817042,4.14049055409409,7.12845471088797,-0.029932396,0.007941248,0.01740966,177.37108,-16.57283,22.564676,SIT
16167668746000,0.264996,5.53966581705692,4.14145215051117,7.12941629475409,-0.028710667,0.00030543262,0.021380283,177.6342,-16.511328,22.708937,SIT
16167673708000,0.269958,5.54061421778339,4.14240055866492,7.13036469052903,-0.03359759,0.016187929,0.014966198,177.89944,-16.45361,22.843805,SIT
16167678700000,0.27495,5.54156835249248,4.14335470084621,7.13131882025666,-0.033292156,0.0033597588,0.018020526,178.16386,-16.397678,22.988428,SIT
16167683715000,0.279965,5.54252688325492,4.14431323911527,7.13227734601468,-0.03268129,0.004581489,0.014966198,178.42877,-16.343666,23.122591,SIT
16167688708000,0.284958,5.54348120909676,4.14526757243081,7.13323166687406,-0.028099801,0.007330383,0.015271631,178.69247,-16.291668,23.259146,SIT
16167693711000,0.289961,5.54443744626615,4.14622381708886,7.13418789905101,-0.034208454,0.002443461,0.017715093,178.95668,-16.238737,23.396164,SIT
16167698687000,0.294937,5.54538852285117,4.14717490112213,7.13513897067053,-0.02107485,0.007330383,0.009468411,179.22235,-16.194794,23.527697,SIT
16167703844000,0.300094,5.54637419446471,4.14816058045484,7.13612463713795,-0.027488936,0.004581489,0.016798794,179.48341,-16.143583,23.66305,SIT
16167708788000,0.305038,5.5473191548016,4.14910554819207,7.13706959254128,-0.035124753,0.00061086525,0.016798794,179.74826,-16.098736,23.794939,SIT
16167713790000,0.31004,5.54827520083823,4.15006160171587,7.13802563358646,-0.033292156,0.004886922,0.014966198,180.01047,-16.055485,23.924698,SIT
16167718767000,0.315017,5.549226468556,4.15101287688339,7.13897689633774,-0.015577064,0.004581489,0.008246681,180.27444,-16.01644,24.055265,SIT
16167723785000,0.320035,5.5501855727167,4.15197198855521,7.13993599549104,-0.027794369,0.013744468,0.013133603,180.53365,-15.970302,24.181868,SIT
16167728778000,0.325028,5.55113989855855,4.15292632187074,7.14089031635042,-0.032070424,0.008552114,0.014660766,180.79665,-15.933337,24.310577,SIT
16167733777000,0.330027,5.55209537119692,4.15388180199179,7.14184578400034,-0.02443461,0.0021380284,0.013744468,181.05757,-15.897268,24.436369,SIT
16167738755000,0.335005,5.55304683004745,4.15483326829356,7.14279723788338,-0.032070424,0.004276057,0.013439035,181.31691,-15.857224,24.560457,SIT
16167743783000,0.340033,5.55400784553569,4.15579429130788,7.14375824835423,-0.036651913,0.012217305,0.019547688,181.57402,-15.8205185,24.684181,SIT
16167748759000,0.345009,5.55495892212072,4.15674537534115,7.14470931997376,-0.03390302,0.009468411,0.014966198,181.8346,-15.786382,24.808348,SIT
16167753813000,0.350063,5.55592490706057,4.15771136784601,7.14567529987028,-0.031154128,0.009468411,0.0143553335,181.963228938548,-15.7689249273743,24.8707168002793,SIT
16167758783000,0.355033,5.55687483684906,4.15866130507377,7.14662522469926,-0.026267206,0.0018325958,0.019242255,182.08972,-15.751758,24.932049,SIT
16167763803000,0.360053,5.55783432327527,4.15962079901408,7.14758470611606,-0.03481932,0.005497787,0.014966198,182.34729,-15.716566,25.051392,SIT
16167768810000,0.36506,5.55879132497568,4.16057780820914,7.14854170282004,-0.039095376,0.009773844,0.014049901,182.60252,-15.684667,25.172344,SIT
16167773787000,0.370037,5.55974259269345,4.16152908337666,7.14949296557132,-0.032986723,0.008552114,0.005497787,182.86081,-15.655952,25.291885,SIT
16167778782000,0.375032,5.56069730080081,4.1624837989607,7.15044766869421,-0.026267206,0.0015271631,0.009773844,183.11487,-15.625983,25.412014,SIT
16167783773000,0.380023,5.56165124437714,4.16343775000773,7.15140160729008,-0.030543262,0.0021380284,0.012217305,183.37065,-15.597185,25.528677,SIT
16167788795000,0.385045,5.56261111306886,4.16439762621655,7.1523614709704,-0.030848695,0.0030543262,0.013133603,183.62541,-15.571828,25.64653,SIT
16167793778000,0.390028,5.56356352758316,4.16535004818958,7.15331388051222,-0.02443461,0.0070249503,0.013744468,183.87836,-15.547887,25.762693,SIT
16167798757000,0.395007,5.56451517756645,4.1663017056256,7.15426552552701,-0.027794369,0.004581489,0.015882496,184.13025,-15.522103,25.879707,SIT
16167803828000,0.400078,5.56548441176312,4.16727094741272,7.15523475466339,-0.027488936,0.0076358155,0.016798794,184.38054,-15.499946,25.993229,SIT
16167808755000,0.405005,5.56642612284319,4.16821266586769,7.15617646082685,-0.02565634,-0.0070249503,0.011911872,184.633,-15.47879,26.11111,SIT
16167813825000,0.410075,5.56739516590711,4.16918171652056,7.15714549883147,-0.02076942,-0.00061086525,0.0143553335,184.87975,-15.4583645,26.222221,SIT
16167818796000,0.415046,5.56834528682836,4.17013184488257,7.15809561479221,-0.029626964,0.0030543262,0.015577064,185.1291,-15.43662,26.336697,SIT
16167823868000,0.420118,5.56931471215779,4.17110127780394,7.15906503506035,-0.02687807,-0.0021380284,0.015882496,185.37727,-15.419754,26.451082,SIT
16167828783000,0.425033,5.5702541296448,4.1720407026479,7.16000444764274,-0.025961773,-0.0021380284,0.016798794,185.62311,-15.400822,26.562344,SIT
16167833766000,0.430016,5.5712065441591,4.17299312462093,7.16095685718456,-0.018936822,0.004581489,0.008857546,185.87045,-15.386163,26.6716,SIT
16167838716000,0.434966,5.57215265129252,4.17393923916367,7.16190295937842,-0.018325957,0.0067195175,0.017104227,186.11203,-15.368658,26.782715,SIT
16167843815000,0.440065,5.57312723720631,4.17491383270982,7.16287754020397,-0.028405234,0.004886922,0.008857546,186.3598,-15.354284,26.890198,SIT
16167848809000,0.445059,5.57389166058482,4.17472695170066,7.16231013152435,-0.035124753,0.0030543262,0.013744468,186.5998,-15.338784,26.998114,SIT
16167854684000,0.450934,5.57445335954756,4.17248013825412,7.15893992308495,-0.02107485,0.005497787,0.015271631,186.84207,-15.3283415,27.103622,SIT
16167858834000,0.455084,5.574850134134,4.17089302747911,7.1565592652086,-0.03756821,0.009468411,0.006414085,187.1006,-15.289431,27.203596,SIT
16167863838000,0.460088,5.57532855823774,4.16897931607715,7.15368870809698,-0.025045475,0.003970624,0.0076358155,187.35583,-15.261033,27.30581,SIT
16167868848000,0.465098,5.57580755599149,4.1670633100572,7.15081470907035,-0.030543262,0.008246681,0.016493361,187.60966,-15.225364,27.403585,SIT
16167873817000,0.470067,5.57628263380355,4.16516298392684,7.14796422979624,-0.037873644,0.003970624,0.022296581,187.86494,-15.1938095,27.50442,SIT
16167878819000,0.475069,5.57676086669063,4.16325003739755,7.14509481998962,-0.0290161,0.005497787,0.014966198,188.1201,-15.166759,27.601526,SIT
16167883820000,0.48007,5.57723900396937,4.16133747330458,7.14222598383549,-0.025045475,0.014049901,0.015882496,188.37021,-15.135982,27.69843,SIT
16167888827000,0.485077,5.57771771489812,4.15942261459363,7.13935370576637,-0.034513887,0.008246681,0.019242255,188.62254,-15.105893,27.797829,SIT
16167893820000,0.49007,5.57819508731019,4.15751310999131,7.13648945883225,-0.035430185,0.01160644,0.016798794,188.87415,-15.080737,27.89141,SIT
16167898796000,0.495046,5.57867083438058,4.15561010680663,7.13363496399064,-0.027183503,0.009162978,0.018325957,189.12404,-15.055661,27.988216,SIT
16167903878000,0.500128,5.57915671593439,4.15366656537083,7.13071966198399,-0.035124753,0.003970624,0.01863139,189.37444,-15.027959,28.083998,SIT
16167908803000,0.505053,5.57962758697974,4.15178306643905,7.12789442341989,-0.03756821,0.015271631,0.014966198,189.62366,-15.005119,28.175163,SIT
16167913809000,0.510059,5.58010620230016,4.14986859016443,7.12502271900327,-0.029626964,0.008857546,0.01282817,189.87389,-14.983749,28.272173,SIT
16167918837000,0.515087,5.58058692100392,4.14794570029052,7.12213839423163,-0.03573562,0.0061086523,0.009468411,190.12357,-14.960038,28.364178,SIT
16167924127000,0.520377,5.58109268909122,4.1459226120978,7.11910377250492,-0.030543262,0.0106901415,0.0125227375,190.37114,-14.941535,28.455765,SIT
16167928828000,0.525078,5.58154214386974,4.14412477890423,7.11640703210089,-0.0290161,0.0036651916,0.013744468,190.621,-14.92235,28.550327,SIT
16167933763000,0.530013,5.58201397099843,4.14223745560913,7.11357605701179,-0.029932396,0.0021380284,0.014660766,190.86832,-14.904433,28.641846,SIT
16167938796000,0.535046,5.58249516774387,4.14031265355357,7.11068886397766,-0.029932396,-0.0067195175,0.015882496,191.1158,-14.887865,28.736856,SIT
16167943784000,0.540034,5.58297206211427,4.13840506113291,7.10782748530604,-0.027488936,-0.0033597588,0.017104227,191.36122,-14.872495,28.828468,SIT
16167948763000,0.545013,5.58344809600966,4.13650091063923,7.10497126950692,-0.038179077,-0.0036651916,0.013744468,191.60815,-14.855284,28.922598,SIT
16167953853000,0.550103,5.58393474243014,4.13455430971278,7.10205137828027,-0.033292156,0.0021380284,0.0125227375,191.85236,-14.842971,29.01382,SIT
16167958862000,0.555112,5.58441364457556,4.13263868612916,7.09917795290615,-0.029932396,0.0033597588,0.0106901415,192.09747,-14.829145,29.105476,SIT
16167963804000,0.560054,5.58488614096259,4.13074868577975,7.09634296224954,-0.034513887,-0.0076358155,0.015271631,192.34077,-14.814701,29.198793,SIT
16167968802000,0.565052,5.58536399141633,4.12883726899578,7.09347584705292,-0.035124753,0.0036651916,0.014049901,192.58334,-14.804008,29.284494,SIT
16167973797000,0.570047,5.58584155504508,4.1269269995208,7.0906104528138,-0.027488936,0.006414085,0.014660766,192.82495,-14.794167,29.375496,SIT
16167978782000,0.575032,5.58631816259047,4.12502055440914,7.08775079509968,-0.030848695,0.019242255,0.021380283,193.0621,-14.781589,29.460531,SIT
16167983817000,0.580067,5.58679955055258,4.12309498748091,7.08486245476055,-0.036651913,0.014049901,0.016798794,193.30319,-14.772619,29.54833,SIT
16167988819000,0.585069,5.58727778343966,4.12118204095161,7.08199304495393,-0.04184427,0.01038471,0.023518313,193.53633,-14.761136,29.633265,SIT
16167993735000,0.589985,5.58774779401,4.11930198394681,7.07917296926233,-0.038789943,0.015882496,0.020463986,193.7727,-14.753158,29.715433,SIT
16167998757000,0.595007,5.58822793906376,4.11738138869089,7.0762920864057,-0.038789943,0.01160644,0.019547688,194.00668,-14.742692,29.801527,SIT
16168003919000,0.600169,5.5887214692843,4.11540725234858,7.07333089219903,-0.048563786,0.016187929,0.020463986,194.23875,-14.731547,29.883121,SIT
16168008778000,0.605028,5.5891860301796,4.11354899421466,7.07054351469995,-0.04428773,0.008552114,0.014660766,194.4739,-14.725756,29.968098,SIT
16168013832000,0.610082,5.58966923470005,4.11161616099614,7.06764427496331,-0.03390302,0.009468411,0.01038471,194.70607,-14.719518,30.049229,SIT
16168018808000,0.615058,5.59014498177044,4.10971315781145,7.0647897801217,-0.0421497,0.009162978,0.015577064,194.93698,-14.709976,30.132618,SIT
16168023835000,0.620085,5.59062560486587,4.10779065037388,7.06190602900257,-0.03390302,0.003970624,0.016798794,195.16986,-14.708895,30.215921,SIT
16168028816000,0.625066,5.59110182997794,4.10588573500754,7.05904866589845,-0.03481932,0.003970624,0.01863139,195.284090068143,-14.7058152555366,30.2558274003407,SIT
16168033814000,0.630064,5.59157968043168,4.10397431822357,7.05618155070183,-0.03756821,0.011301007,0.01863139,195.39871,-14.702725,30.29587,SIT
16168038720000,0.63497,5.59204873491869,4.10209808558208,7.05336721153524,-0.03481932,0.01740966,0.014966198,195.62856,-14.701432,30.376678,SIT
16168043821000,0.640071,5.59253643303084,4.10014727785598,7.05044101013108,-0.03359759,0.005497787,0.02107485,195.85475,-14.697787,30.460897,SIT
16168048801000,0.645051,5.59230188559613,4.09934709971062,7.04600107701089,-0.03604105,0.006414085,0.013133603,196.08368,-14.697183,30.537992,SIT
16168053844000,0.650094,5.59060931524497,4.10079787934694,7.03826361254844,-0.026572637,0.00061086525,0.016187929,196.30797,-14.697822,30.621077,SIT
16168058816000,0.655066,5.58894057445854,4.10222823357098,7.03063508323904,-0.04184427,0.0021380284,0.016187929,196.5697,-14.664023,30.701555,SIT
16168063846000,0.660096,5.58725236726712,4.10367527334308,7.02291756464969,-0.03573562,0.007330383,0.019547688,196.82907,-14.638203,30.782667,SIT
16168068842000,0.665092,5.58557557141656,4.10511253193183,7.01525221218997,-0.0290161,0.014966198,0.017104227,197.08937,-14.611175,30.861786,SIT
16168073829000,0.670079,5.58390179621504,4.10654720138381,7.00760066841162,-0.03604105,0.0076358155,0.020158553,197.34724,-14.582378,30.94392,SIT
16168078819000,0.675069,5.58222701413051,4.10798273388138,6.99994452173948,-0.028710667,-0.002443461,0.015271631,197.60738,-14.561649,31.023457,SIT
16168083815000,0.680065,5.58055021827995,4.10941999247014,6.99227916927976,-0.026572637,0.011911872,0.014049901,197.86308,-14.538336,31.09843,SIT
16168088819000,0.685069,5.57887073740801,4.11085955251379,6.98460154243659,-0.028710667,0.0030543262,0.0125227375,198.12312,-14.517888,31.181602,SIT
16168093812000,0.690062,5.57719494844046,4.11229594805695,6.97694079287066,-0.0290161,0.00580322,0.013133603,198.37964,-14.499529,31.257345,SIT
16168098820000,0.69507,5.57551412505783,4.11373665882807,6.96925702883577,-0.024740042,0.007330383,0.016187929,198.63618,-14.482877,31.335487,SIT
16168103854000,0.700104,5.57382457535572,4.11518484932762,6.9615333730547,-0.02565634,0.00030543262,0.015271631,198.89366,-14.466648,31.414503,SIT
16168108785000,0.705035,5.57216959530385,4.11660340859526,6.95396774996045,-0.022296581,0.004581489,0.0067195175,199.15063,-14.454387,31.489193,SIT
16168113838000,0.710088,5.57047366867597,4.11805706505022,6.9462149425187,-0.02076942,-0.004276057,0.006414085,199.40652,-14.441515,31.569563,SIT
16168118780000,0.71503,5.5688149967197,4.11947878881835,6.93863244214721,-0.025350908,0.0067195175,0.007330383,199.66158,-14.430205,31.642284,SIT
16168123769000,0.720019,5.56714055026284,4.12091403363406,6.930977829773,-0.026267206,-0.0012217305,0.011301007,199.9177,-14.420794,31.722376,SIT
16168128770000,0.72502,5.56546207627392,4.12235273063213,6.92330480582363,-0.017104227,0.006414085,0.010079277,200.17172,-14.414433,31.794428,SIT
16168133752000,0.730002,5.56378997921077,4.12378596167479,6.91566093353493,-0.021991149,0.004886922,0.008246681,200.42555,-14.405027,31.870983,SIT
16168138756000,0.735006,5.56211049833882,4.12522552171845,6.90798330669177,-0.02687807,0.005192355,0.00580322,200.67816,-14.399092,31.944372,SIT
16168143748000,0.739998,5.56043504499895,4.12666162957975,6.90032409142377,-0.028710667,0.0030543262,0.015882496,200.92683,-14.392021,32.01933,SIT
16168148755000,0.745005,5.55875455724399,4.128102052669,6.89264186168681,-0.026267206,0.004886922,0.004581489,201.18187,-14.389521,32.0907,SIT
16168153668000,0.749918,5.55710561849022,4.1295154336631,6.8851038559553,-0.018020526,0.008552114,0.0021380284,201.42996,-14.386016,32.163292,SIT
16168158716000,0.754966,5.5554113700007,4.13096765170874,6.8773587200032,-0.01863139,0.008246681,0.008552114,201.6781,-14.382279,32.23586,SIT
16168163674000,0.759924,5.55374732800168,4.13239397838669,6.86975167086483,-0.03145956,0.01038471,0.004886922,201.9287,-14.380407,32.305317,SIT
16168168681000,0.764931,5.55206684024672,4.13383440147593,6.86206944112788,-0.036651913,0.005497787,0.003970624,202.1761,-14.37962,32.37714,SIT
16168173675000,0.769925,5.5503907156515,4.13527108470096,6.85440715726402,-0.03390302,0.0030543262,0.009468411,202.42117,-14.378117,32.44756,SIT
16168179005000,0.775255,5.54860182015841,4.13680442903203,6.84622934929558,-0.020463986,0.012217305,0.004276057,202.66835,-14.380677,32.51478,SIT
16168183697000,0.779947,5.54702705512021,4.13815423233436,6.83903042340666,-0.029626964,0.004276057,0.0106901415,202.91095,-14.376673,32.58834,SIT
16168188741000,0.784991,5.54533414914138,4.13960529965255,6.83129142464629,-0.028099801,0.0036651916,0.011911872,203.15424,-14.38082,32.65613,SIT
16168193697000,0.789947,5.5436707783977,4.14103105096677,6.82368744410378,-0.018325957,0.00580322,0.004581489,203.39772,-14.385917,32.72473,SIT
16168198683000,0.794933,5.54199733882386,4.14246543273689,6.81603743462336,-0.014966198,0.009773844,0.007330383,203.63638,-14.388845,32.793495,SIT
16168203717000,0.799967,5.54030778912175,4.14391362323644,6.80831377884228,-0.021991149,0.002443461,0.011301007,203.8769,-14.39329,32.86382,SIT
16168208717000,0.804967,5.5386296507605,4.14535203255264,6.80064228919084,-0.02443461,0.0009162979,0.01740966,204.11374,-14.399481,32.931465,SIT
16168213766000,0.810016,5.5369350666433,4.14680453828015,6.79289561894081,-0.02687807,0.0027488936,0.018936822,204.35013,-14.404807,32.99967,SIT
16168218747000,0.814997,5.53526330520782,4.14823748164095,6.78525328095004,-0.027794369,0.010079277,0.014966198,204.58487,-14.410546,33.066338,SIT
16168223713000,0.819963,5.53359657818743,4.1496661097738,6.77763395742823,-0.038789943,0.00580322,0.015271631,204.81767,-14.413112,33.135685,SIT
16168228721000,0.824971,5.53191575480479,4.15110682054491,6.76995019339335,-0.034513887,0.0021380284,0.01038471,205.05159,-14.421245,33.201656,SIT
16168233711000,0.829961,5.53024097272026,4.15254235304249,6.76229404672121,-0.03023783,0.0027488936,0.0125227375,205.28203,-14.426338,33.267807,SIT
16168238681000,0.834931,5.52857290318918,4.15397213190279,6.75466858600767,-0.029321533,0.012217305,0.016493361,205.51186,-14.432822,33.331814,SIT
16168243710000,0.83996,5.52688503162543,4.15541888399303,6.74695260171625,-0.032986723,0.008552114,0.018325957,205.74185,-14.439879,33.39878,SIT
16168249049000,0.845299,5.52980230901904,4.15334530783321,6.7470531362738,-0.03145956,0.01160644,0.013439035,205.96999,-14.449452,33.460655,SIT
16168253800000,0.85005,5.5385753872162,4.14676547628344,6.75801948402025,-0.032986723,0.0076358155,0.015882496,206.19511,-14.456591,33.525787,SIT
16168258777000,0.855027,5.54776579138106,4.13987264916847,6.76950748922632,-0.032986723,0.0015271631,0.008857546,206.477,-14.451423,33.59647,SIT
16168263848000,0.860098,5.55712977360328,4.13284963805736,6.7812124670041,-0.030848695,0.003970624,0.0143553335,206.75287,-14.445028,33.66694,SIT
16168268863000,0.865113,5.56130261786744,4.12816789642651,6.79052040821326,-0.03023783,0.0067195175,0.014966198,207.07439,-14.416869,33.731358,SIT
16168273833000,0.870083,5.54987209529299,4.1304540009414,6.7928065604707,-0.030543262,0.01038471,0.015271631,207.39351,-14.389885,33.795322,SIT
16168278797000,0.875047,5.53845537214217,4.13273734557157,6.79508995278578,-0.037873644,0.007941248,0.01282817,207.7631,-14.326317,33.853794,SIT
16168283815000,0.880065,5.52691445417867,4.13504552916427,6.79739818458213,-0.030543262,0.009468411,0.013133603,208.13063,-14.268453,33.910797,SIT
16168288835000,0.885085,5.51775325936653,4.13680213713274,6.80142381433632,-0.034513887,0.01282817,0.016187929,208.5545,-14.168445,33.96249,SIT
16168293816000,0.890066,5.53763335515732,4.13183213913315,6.82627380433424,-0.04153884,0.015271631,0.015577064,208.97893,-14.074175,34.01447,SIT
16168298774000,0.895024,5.554548,4.12824984983127,6.84483158380203,-0.0421497,-0.00030543262,0.010995574,209.47768,-13.934776,34.058376,SIT
16168303899000,0.900149,5.554548,4.13285060383858,6.8264284476706,-0.04062254,0.0125227375,0.008552114,209.97136,-13.800119,34.09541,SIT
16168308778000,0.905028,5.554548,4.13723052165354,6.80890866207349,-0.043982297,0.005497787,0.010995574,210.56575,-13.594254,34.13556,SIT
16168313856000,0.910106,5.554548,4.1417890833802,6.7906742961661,-0.021991149,0.009468411,0.01282817,211.15504,-13.404607,34.17097,SIT
16168319781000,0.916031,5.55473979688572,4.14637340022025,6.77156970356503,-0.029321533,0.014049901,0.0125227375,211.89447,-13.10643,34.197132,SIT
16168323830000,0.92008,5.55672594929058,4.14240103319162,6.77951447910157,-0.03573562,0.004581489,0.009162978,212.62526,-12.829308,34.229023,SIT
16168328710000,0.92496,5.55911973139374,4.13761339399682,6.78908980748348,-0.029626964,0.011301007,0.005497787,213.56494,-12.409948,34.247723,SIT
16168333818000,0.930068,5.56162535413615,4.13260207001998,6.7991125077652,-0.035430185,0.014660766,0.014966198,214.4791,-12.011279,34.274845,SIT
16168339150000,0.9354,5.56423416273412,4.12771306273412,6.80976707640471,-0.03145956,0.00030543262,0.015882496,215.37651,-11.643426,34.308006,SIT
16168343825000,0.940075,5.56639536856536,4.12987426856536,6.82273431139216,-0.026572637,0.0106901415,0.017715093,216.38467,-11.2093315,34.32171,SIT
16168348776000,0.945026,5.5686841664414,4.1321630664414,6.83646709864839,-0.04062254,0.0015271631,0.010995574,217.4524,-10.7481365,34.334198,SIT
16168353816000,0.950066,5.57101410812898,4.13449300812898,6.85044674877389,-0.023518313,0.004886922,0.011301007,218.48044,-10.3238325,34.343044,SIT
16168358716000,0.954966,5.57327932921413,4.13675822921413,6.8640380752848,-0.016493361,0.0030543262,0.015271631,219.47874,-9.922648,34.35776,SIT
16168363870000,0.96012,5.57235874846942,4.15463481195702,6.85448663622479,-0.029626964,0.0067195175,0.014049901,220.53392,-9.490119,34.36151,SIT
16168368761000,0.965011,5.5708103144595,4.17476450259174,6.84055073013554,-0.029321533,-0.0033597588,0.007941248,221.5559,-9.090534,34.37056,SIT
16168373826000,0.970076,5.56920679406281,4.19561031798017,6.82611904656529,-0.025350908,0.004276057,0.007330383,222.54214,-8.714253,34.373127,SIT
16168378711000,0.974961,5.56766025958347,4.21571531465785,6.81220023625124,-0.024129177,0.005192355,0.013439035,223.5008,-8.362345,34.381893,SIT
16168383818000,0.980068,5.56604344247273,4.23673398774545,6.79764888225455,-0.02443461,0.0061086523,0.01160644,224.4297,-8.040083,34.390694,SIT
16168388949000,0.985199,5.56441902723967,4.25785143666116,6.78302914515702,-0.025961773,-0.002443461,0.00580322,225.3349,-7.739534,34.403675,SIT
16168393817000,0.990067,5.57880487843519,4.2286486226158,6.78404931212534,-0.022907447,0.00030543262,0.01282817,226.22049,-7.4540524,34.41442,SIT
16168398780000,0.99503,5.59730620445699,4.18702095299727,6.78867457118529,-0.020158553,-0.0009162979,0.010079277,227.09142,-7.190832,34.42952,SIT
16168403845000,1.000095,5.58835288585657,4.17900783366534,6.78643627659363,-0.034513887,0.002443461,0.013133603,227.93091,-6.965105,34.453186,SIT
16168408717000,1.004967,5.56976387661355,4.18365515876494,6.78178909707171,-0.03268129,-0.005497787,0.005497787,228.7599,-6.762142,34.48098,SIT
16168413882000,1.010132,5.56931643378915,4.18679557512131,6.7803793,-0.029321533,0.0030543262,0.0125227375,229.55872,-6.554772,34.511345,SIT
16168418851000,1.015101,5.57631351057197,4.18912788534039,6.7803793,-0.030848695,-0.0015271631,0.011301007,230.3499,-6.3649096,34.54791,SIT
16168423821000,1.020071,5.58331199550066,4.19146066493163,6.7803793,-0.026572637,-0.0027488936,0.0143553335,231.12651,-6.188035,34.580498,SIT
16168428839000,1.025089,5.59037807143067,4.19381597438612,6.7803793,-0.032986723,0.004581489,0.016187929,231.89093,-6.0231857,34.612724,SIT
16168433813000,1.030063,5.58363108987418,4.17311898251448,6.77423002658278,-0.03573562,-0.004276057,0.011301007,232.64532,-5.8745546,34.650593,SIT
16168438813000,1.035063,5.56928597303775,4.13964679357899,6.7646666153585,-0.026267206,-0.0021380284,0.011301007,233.38516,-5.7393117,34.684383,SIT
16168443811000,1.040061,5.56259664272319,4.13218748351621,6.76886564593516,-0.018936822,-0.006414085,0.0067195175,234.10797,-5.632798,34.72336,SIT
16168448827000,1.045077,5.56020082099751,4.13937512381546,6.78084500473815,-0.018936822,0.00061086525,0.0070249503,234.81912,-5.5365577,34.75923,SIT
16168453787000,1.050037,5.55783174688279,4.14648251932668,6.79269062269327,-0.02565634,0.0012217305,0.0143553335,235.51315,-5.4425054,34.800133,SIT
16168458831000,1.055081,5.55542255135162,4.15371028201995,6.8047368519202,-0.03023783,0.003970624,0.01863139,236.1992,-5.359313,34.838623,SIT
16168463881000,1.060131,5.54857756076305,4.1503636542752,6.80612457389368,-0.023518313,-0.006414085,0.013133603,236.87833,-5.2871723,34.880848,SIT
16168468842000,1.065092,5.53937614757432,4.14116238520383,6.80152401141667,-0.02443461,0.0036651916,0.013744468,237.54501,-5.219697,34.91705,SIT
16168473821000,1.070071,5.54576754721744,4.13199355347103,6.80471971944923,-0.03573562,0.007941248,0.015882496,238.2117,-5.1579714,34.9554,SIT
16168478816000,1.075066,5.56406411090075,4.12284531939185,6.81386790576592,-0.03176499,0.00580322,0.01985312,238.86996,-5.107905,34.993202,SIT
16168483804000,1.080054,5.5691129996646,4.11917379409493,6.81983359409493,-0.03634648,0.01038471,0.017715093,239.5234,-5.054159,35.029427,SIT
16168488820000,1.08507,5.5593482919504,4.12161495827828,6.82227475827828,-0.030848695,0.0027488936,0.019547688,240.16719,-5.0113297,35.070286,SIT
16168493814000,1.090064,5.54962641190162,4.12404541560118,6.82470521560118,-0.03481932,0.004886922,0.015882496,240.80429,-4.9733653,35.108364,SIT
16168498809000,1.095059,5.53990258514077,4.12647635959955,6.82713615959955,-0.03481932,0.008857546,0.018936822,241.43169,-4.9443784,35.148476,SIT
16168504622000,1.100872,5.53871123147781,4.12428633779715,6.82494613779715,-0.04550946,0.0076358155,0.018325957,242.05789,-4.916729,35.190094,SIT
16168508787000,1.105037,5.54266212341521,4.12033552836767,6.82099532836767,-0.03726278,0.008552114,0.015271631,242.67708,-4.901104,35.230045,SIT
16168513853000,1.110103,5.55236282920821,4.12295458613881,6.82854227227762,-0.030848695,0.002443461,0.01160644,243.29047,-4.8877873,35.272625,SIT
16168518829000,1.115079,5.56633765524927,4.13227113683284,6.84717537366569,-0.027794369,0.0027488936,0.013133603,243.89676,-4.8824415,35.31311,SIT
16168523815000,1.120065,5.5737014,4.13605764031538,6.85250306126153,-0.035430185,0.005497787,0.01282817,244.49857,-4.8831863,35.355095,SIT
16168528829000,1.125079,5.5737014,4.13367650001983,6.84297850007934,-0.03970624,0.0030543262,0.015882496,245.09308,-4.8911195,35.398357,SIT
16168533796000,1.130046,5.5737014,4.13131767994644,6.83354321978578,-0.031154128,0.012217305,0.018020526,245.68977,-4.9074845,35.431095,SIT
16168538825000,1.135075,5.5737014,4.12892941617574,6.82399016470297,-0.038179077,0.0106901415,0.017715093,246.28084,-4.925064,35.46746,SIT
16168543807000,1.140057,5.57758748337966,4.13343264535853,6.81480043690939,-0.03359759,0.004581489,0.0125227375,246.87006,-4.9515877,35.50063,SIT
16168548843000,1.145093,5.58652370068557,4.14683701797295,6.80586426625903,-0.035430185,0.0061086523,0.015577064,247.45049,-4.979148,35.532185,SIT
16168553859000,1.150109,5.59577872051444,4.15341026422096,6.79807110921358,-0.03359759,0.005192355,0.011911872,248.02963,-5.0154386,35.56691,SIT
16168558831000,1.155081,5.60581790449083,4.14337102783049,6.79305141239722,-0.04062254,-0.0030543262,0.0125227375,248.60089,-5.053009,35.60321,SIT
16168563757000,1.160007,5.60810689412538,4.1371803,6.79073635747142,-0.030848695,0.00030543262,0.0143553335,249.16696,-5.1074443,35.63741,SIT
16168568822000,1.165072,5.59748208753669,4.1371803,6.79286136316643,-0.031154128,0.003970624,0.013744468,249.72896,-5.1621284,35.673256,SIT
16168574501000,1.170751,5.58556929847111,4.1371803,6.79524397073641,-0.040317107,0.004886922,0.010079277,250.28378,-5.2207627,35.709595,SIT
16168578761000,1.175011,5.57663313340343,4.1371803,6.79703124107417,-0.032986723,0.008246681,0.013744468,250.83122,-5.2854633,35.743816,SIT
16168583779000,1.180029,5.56610691830727,4.1371803,6.79913652805888,-0.029321533,0.005497787,0.01740966,251.3754,-5.3511486,35.77882,SIT
16168588761000,1.185011,5.56796845977332,4.12949258045337,6.81490835881885,-0.03176499,0.0027488936,0.014966198,251.91562,-5.4206724,35.812183,SIT
16168593747000,1.189997,5.57271591700139,4.11999766599722,6.8338980885862,-0.029932396,0.00030543262,0.0076358155,252.45174,-5.4952474,35.845547,SIT
16168598769000,1.195019,5.58448958065549,4.12162273518553,6.82705193199284,-0.028099801,0.011301007,0.01740966,252.9797,-5.5701966,35.868458,SIT
16168603770000,1.20002,5.59802148220004,4.12613333763421,6.81352017174609,-0.02321288,0.004886922,0.009162978,253.5127,-5.6533413,35.895687,SIT
16168608830000,1.20508,5.59937541583698,4.13371650874663,6.8213358132409,-0.022296581,0.0009162979,0.0125227375,254.03152,-5.7313614,35.918507,SIT
16168613733000,1.209983,5.59500619363543,4.14245472503955,6.83881238269284,-0.036957346,0.0033597588,0.016187929,254.54837,-5.8110194,35.940582,SIT
16168618804000,1.215054,5.592855,4.14419954236394,6.8371871026936,-0.025350908,0.009162978,0.0106901415,255.05725,-5.9072843,35.96836,SIT
16168623799000,1.220049,5.592855,4.13939167601387,6.81795551178451,-0.032070424,0.0021380284,0.015271631,255.55757,-5.995543,35.99886,SIT
16168628774000,1.225024,5.592855,4.13460306037992,6.79880092424242,-0.031154128,0.01160644,0.014660766,256.0608,-6.092619,36.01563,SIT
16168633770000,1.23002,5.592855,4.12979423149404,6.77956548316498,-0.03390302,0.0061086523,0.01282817,256.55927,-6.18879,36.03826,SIT
16168638788000,1.235038,5.5901641367968,4.12491269299109,6.76542091407931,-0.029321533,0.0018325958,0.014049901,257.05188,-6.288388,36.057434,SIT
16168643945000,1.240195,5.58510331201967,4.11985197390101,6.7552995287427,-0.03268129,-0.00061086525,0.011301007,257.54227,-6.388346,36.076874,SIT
16168648756000,1.245006,5.59186633069287,4.11516397292342,6.75737448404579,-0.030543262,0.0076358155,0.011301007,258.02615,-6.4920793,36.094696,SIT
16168653809000,1.250059,5.60657213719611,4.11026212273096,6.76717823561588,-0.02321288,0.011301007,0.009468411,258.50772,-6.5984063,36.113644,SIT
16168658780000,1.25503,5.60518924277472,4.11137257149554,6.77275087760622,-0.03481932,0.01160644,0.0106901415,258.9828,-6.701385,36.13091,SIT
16168663780000,1.26003,5.5942009133753,4.11608183913257,6.77589038390047,-0.02687807,0.008857546,0.012217305,259.45416,-6.8119683,36.147335,SIT
16168668786000,1.265036,5.58319939798059,4.12079675789077,6.77903365760228,-0.037873644,0.009162978,0.015271631,259.91888,-6.9152794,36.16303,SIT
16168673787000,1.270037,5.57220887091529,4.12550696738133,6.7821737917978,-0.030543262,0.005497787,0.01282817,260.3812,-7.0263405,36.1798,SIT
16168678773000,1.275023,5.56125130883819,4.13020304906897,6.78530450747443,-0.015882496,0.002443461,0.009468411,260.83868,-7.1372433,36.19572,SIT
16168683773000,1.280023,5.55026297943876,4.13491231670601,6.78844401376869,-0.027488936,0.010079277,0.007941248,261.29193,-7.2448153,36.20892,SIT
16168688782000,1.285032,5.54997486838088,4.14468610257131,6.79245798644034,-0.03390302,0.010079277,0.010079277,261.73804,-7.3586287,36.23107,SIT
16168693786000,1.290036,5.55960168782644,4.15912633173966,6.79727149668542,-0.028405234,0.00580322,0.008246681,262.182,-7.474363,36.25113,SIT
16168698732000,1.294982,5.56183984528822,4.15905629271858,6.8086721619932,-0.030848695,0.009162978,0.007330383,262.62302,-7.58964,36.264442,SIT
16168703815000,1.300065,5.55736454347706,4.14563010689528,6.82657364962765,-0.026572637,0.002443461,0.0061086523,263.0618,-7.708847,36.280903,SIT
16168708780000,1.30503,5.55628921818182,4.13456845454545,6.83174568181818,-0.03268129,0.00580322,0.01038471,263.49728,-7.827242,36.293407,SIT
16168713981000,1.310231,5.56141723390302,4.12687637741686,6.81379746615361,-0.03268129,0.0030543262,0.007330383,263.93274,-7.9500203,36.308258,SIT
16168718773000,1.315023,5.56614198901472,4.11978919541336,6.79726067525481,-0.019547688,0.0106901415,0.010995574,264.34875,-8.076861,36.322098,SIT
16168723795000,1.320045,5.57109351659631,4.11236185233707,6.77993017360754,-0.028405234,0.009162978,0.014049901,264.7632,-8.19957,36.33818,SIT
16168728775000,1.325025,5.57810095299789,4.11174965326349,6.77410217623334,-0.02321288,0.002443461,0.014049901,265.17383,-8.328536,36.352737,SIT
16168733769000,1.330019,5.58751053230043,4.11880681317692,6.78115938527372,-0.029626964,0.00580322,0.0143553335,265.5792,-8.452387,36.364185,SIT
16168738714000,1.334964,5.59682778693621,4.12579472983129,6.78814735057302,-0.026267206,0.019242255,0.011911872,265.9794,-8.578758,36.378796,SIT
16168743784000,1.340034,5.60638056368108,4.13295928745266,6.79531195806896,-0.030848695,0.008552114,0.014049901,266.37585,-8.7010975,36.398468,SIT
16168748737000,1.344987,5.608335562778,4.13350726277799,6.80320601804526,-0.027488936,0.002443461,0.013133603,266.76932,-8.828083,36.409893,SIT
16168753853000,1.350103,5.5987774455716,4.1239491455716,6.8127640853492,-0.023823744,0.00580322,0.015271631,267.1576,-8.953178,36.42104,SIT
16168758712000,1.354962,5.59125190632309,4.11962979367691,6.82109114888504,-0.04062254,0.005192355,0.016493361,267.5463,-9.076405,36.434513,SIT
16168763782000,1.360032,5.58643977787909,4.12444192212091,6.82830936667493,-0.023518313,0.0036651916,0.008857546,267.93372,-9.209185,36.44596,SIT
16168768801000,1.365051,5.58167605546085,4.12920564453915,6.83545497517344,-0.025350908,0.01038471,0.015271631,268.30978,-9.32816,36.45584,SIT
16168773793000,1.370043,5.57693795976214,4.13394374023786,6.84256214345887,-0.032986723,-0.0021380284,0.010995574,268.6904,-9.452664,36.46954,SIT
16168778749000,1.374999,5.57087640284297,4.13647405439802,6.84459201021752,-0.028405234,0.00061086525,0.005192355,269.0644,-9.57846,36.476463,SIT
16168783768000,1.380018,5.56170521220187,4.13418126870826,6.83542084351746,-0.019242255,0.0027488936,0.011911872,269.43317,-9.701933,36.486584,SIT
16168788779000,1.385029,5.55254863991605,4.13189213758825,6.82626429513452,-0.029932396,0.00580322,0.01160644,269.8025,-9.825371,36.501038,SIT
16168793780000,1.39003,5.54341034057432,4.1296075746804,6.81712601964797,-0.026267206,0.0015271631,0.015577064,270.16528,-9.951899,36.51644,SIT
16168798767000,1.395017,5.535394,4.12848978791774,6.80940512827763,-0.021991149,0.008552114,0.016493361,270.52505,-10.076373,36.526524,SIT
16168803839000,1.400089,5.535394,4.13598187511568,6.81190248198458,-0.016493361,0.0061086523,0.010995574,270.88367,-10.202009,36.539173,SIT
16168808783000,1.405033,5.535394,4.14328488755784,6.81433681099229,-0.028405234,0.0021380284,-0.00030543262,271.23926,-10.325696,36.55311,SIT
16168813775000,1.410025,5.535394,4.15065880303342,6.81679477426221,-0.02076942,0.0021380284,0.0061086523,271.58752,-10.452486,36.56622,SIT
16168818800000,1.41505,5.53426963340611,4.15858282711393,6.81643773158992,-0.018936822,-0.0027488936,0.009468411,271.93854,-10.577278,36.57971,SIT
16168823790000,1.42004,5.52952695436681,4.1680685813815,6.80695222494045,-0.028405234,0.0070249503,0.009773844,272.28424,-10.700142,36.588165,SIT
16168829155000,1.425405,5.52490357724113,4.175488,6.799533,-0.03481932,0.004276057,0.014049901,272.62872,-10.82461,36.600155,SIT
16168833774000,1.430024,5.52201647236889,4.175488,6.799533,-0.027488936,0.008552114,0.004886922,272.97342,-10.951789,36.605537,SIT
16168838778000,1.435028,5.51888872333649,4.175488,6.799533,-0.028405234,0.014660766,0.018020526,273.30707,-11.074859,36.607132,SIT
16168843778000,1.440028,5.51576347450315,4.175488,6.799533,-0.026572637,0.014660766,0.004276057,273.478095975328,-11.1396170483402,36.6091694084846,SIT
16168848749000,1.444999,5.51265635211304,4.175488,6.799533,-0.026267206,-0.0015271631,0.014660766,273.64813,-11.2039995,36.611195,SIT
16168853838000,1.450088,5.50947547385047,4.175488,6.799533,-0.025350908,0.009162978,0.0106901415,273.97897,-11.32973,36.60621,SIT
16168858756000,1.455006,5.50743646283849,4.17471551296332,6.79760182273862,-0.03756821,0.009162978,0.0125227375,274.3083,-11.451789,36.607994,SIT
16168863778000,1.460028,5.51667291135011,4.16547877511043,6.77451046034185,-0.03176499,0.008246681,0.01038471,274.63647,-11.578733,36.60575,SIT
16168869194000,1.465444,5.52756077810578,4.1567698399754,6.75295652902829,-0.034208454,0.007330383,0.011911872,274.9599,-11.699566,36.60233,SIT
16168873780000,1.47003,5.54556783214432,4.16127155647806,6.76646177255023,-0.04153884,0.008552114,0.01038471,275.28204,-11.820754,36.597504,SIT
16168878868000,1.475118,5.56515088821788,4.16625281393329,6.77935301535425,-0.03023783,0.004276057,0.0143553335,275.60638,-11.932211,36.603447,SIT
16168883767000,1.480017,5.57903979976317,4.17088269282613,6.76546415215117,-0.034513887,0.002443461,0.019242255,275.92767,-12.038316,36.607357,SIT
16168889008000,1.485258,5.59167038016807,4.17459951193277,6.75224130991597,-0.031154128,0.00030543262,0.016493361,276.24783,-12.148973,36.61197,SIT
16168893778000,1.490028,5.57631538941176,4.16308296823529,6.75991880529412,-0.027183503,0.011911872,0.01282817,276.56256,-12.25775,36.61257,SIT
16168899551000,1.495801,5.55773166579832,4.14914481168067,6.76921066710084,-0.031154128,0.0018325958,0.017104227,276.87808,-12.362837,36.62166,SIT
16168903799000,1.500049,5.55797467318841,4.14333029102986,6.77422924475187,-0.023518313,0.0021380284,0.014966198,277.19202,-12.4728155,36.622944,SIT
16168908744000,1.504994,5.56317408985507,4.13813082007027,6.77942877000439,-0.027488936,0.0070249503,0.015271631,277.50116,-12.577722,36.625237,SIT
16168913774000,1.510024,5.56025710936022,4.13975862260611,6.78424676371733,-0.037873644,0.0009162979,0.01740966,277.80338,-12.682504,36.622852,SIT
16168918802000,1.515052,5.55554413240025,4.14290060177808,6.78895970786924,-0.03145956,-0.0033597588,0.016493361,278.10297,-12.790186,36.61774,SIT
16168923787000,1.520037,5.55087146132916,4.14601571040423,6.79363234641284,-0.034513887,0.0012217305,0.011911872,278.3986,-12.892158,36.611332,SIT
16168928750000,1.525,5.54621941187563,4.14911707130926,6.79828436348243,-0.025350908,0.01038471,0.014049901,278.68936,-12.996882,36.604584,SIT
16168933765000,1.530015,5.54151862041695,4.15225092682784,6.80298512221787,-0.030543262,0.0070249503,0.011301007,278.98346,-13.095832,36.5944,SIT
16168938788000,1.535038,5.53681033018825,4.15538978151773,6.80769337967114,-0.036651913,0.00030543262,0.0125227375,279.27197,-13.195142,36.582703,SIT
16168943780000,1.54003,5.54191606534285,4.15307296732857,6.83193645199061,-0.029932396,0.0027488936,0.011911872,279.55936,-13.295189,36.564316,SIT
16168948764000,1.545014,5.55125417900812,4.14840391049594,6.86461916727966,-0.029932396,0.008246681,0.018020526,279.84146,-13.390622,36.54726,SIT
16168953825000,1.550075,5.55921344690266,4.14209150438053,6.86681627628319,-0.02321288,0.0033597588,0.00580322,280.1296,-13.493577,36.528027,SIT
16168958783000,1.555033,5.56621656096362,4.13508831719272,6.85280985315634,-0.026572637,0.011301007,0.015271631,280.40353,-13.588938,36.505917,SIT
16168963771000,1.560021,5.57326204965585,4.12804275493117,6.83871867958702,-0.03726278,0.005497787,0.01282817,280.68182,-13.684827,36.478172,SIT
16168969507000,1.565757,5.58136407915438,4.11994064083087,6.82251439498525,-0.03176499,0.013744468,0.017715093,280.94928,-13.780197,36.44603,SIT
16168973782000,1.570032,5.58606945937313,4.11663101403474,6.81310369784388,-0.03023783,0.0143553335,0.01863139,281.2146,-13.875631,36.410133,SIT
16168978778000,1.575028,5.59084553164304,4.11424305270513,6.80355175278499,-0.03940081,0.0070249503,0.0125227375,281.4778,-13.96967,36.374474,SIT
16168983754000,1.580004,5.59560248432821,4.11186465086844,6.79403804609703,-0.03940081,0.013744468,0.019242255,281.73184,-14.05928,36.342377,SIT
16168988809000,1.585059,5.60043495937313,4.10944848903474,6.78437329784388,-0.043066,0.011301007,0.014660766,281.99078,-14.148608,36.313503,SIT
16168993781000,1.590031,5.60107241308844,4.10709041308844,6.7803793,-0.037873644,0.01038471,0.011911872,282.24463,-14.236631,36.285435,SIT
16168998761000,1.595011,5.59872390708095,4.10474190708095,6.7803793,-0.028099801,0.013133603,0.01038471,282.4968,-14.3250885,36.256912,SIT
16169003840000,1.60009,5.59632871390585,4.10234671390585,6.7803793,-0.032986723,0.010079277,0.014049901,282.7497,-14.405914,36.236805,SIT
16169008779000,1.605029,5.59399954298799,4.10001754298799,6.7803793,-0.037873644,0.002443461,0.013133603,283.0022,-14.489682,36.216614,SIT
16169013776000,1.610026,5.59528710375494,4.09644097243083,6.77794724703557,-0.03604105,0.0012217305,0.0143553335,283.2498,-14.572542,36.195946,SIT
16169018797000,1.615047,5.60003869634387,4.09168952868577,6.77319575367589,-0.026267206,0.00580322,0.018325957,283.4944,-14.655501,36.175808,SIT
16169023781000,1.620031,5.60126961630494,4.09278337826173,6.77661429710288,-0.029626964,0.007941248,0.008246681,283.73532,-14.741525,36.146137,SIT
16169028776000,1.625026,5.59890460345083,4.09987826865576,6.78843911442626,-0.036651913,0.00030543262,0.010995574,283.9687,-14.8253765,36.11963,SIT
16169033744000,1.629994,5.59655237444999,4.1069348082909,6.80020001381816,-0.035124753,0.0061086523,0.012217305,284.20065,-14.911304,36.089077,SIT
16169039081000,1.635331,5.59402543278786,4.11451547496416,6.81283445827359,-0.028405234,0.006414085,0.0143553335,284.43042,-14.99562,36.062595,SIT
16169043777000,1.640027,5.59183929909394,4.11599533000477,6.81665515121602,-0.029932396,0.012217305,0.009773844,284.65048,-15.08574,36.019936,SIT
16169048770000,1.64502,5.58955899575584,4.11143479475918,6.81209466359084,-0.03634648,-0.00061086525,0.008552114,284.8684,-15.174394,35.983433,SIT
16169053771000,1.650021,5.58727503881736,4.10686695242728,6.80752686895565,-0.02687807,0.0015271631,0.0067195175,285.08762,-15.265591,35.94114,SIT
16169058782000,1.655032,5.5849865148784,4.10228997623748,6.80294994055794,-0.021685716,0.004276057,0.013439035,285.30334,-15.3523445,35.903454,SIT
16169063712000,1.659962,5.58213153440395,4.10059272233689,6.799533,-0.019547688,0.0070249503,0.009773844,285.52054,-15.441884,35.864647,SIT
16169068789000,1.665039,5.5772361552356,4.10793589332461,6.799533,-0.034513887,0.004886922,0.0061086523,285.73334,-15.526714,35.827633,SIT
16169073710000,1.66996,5.57249119543899,4.11505343211337,6.799533,-0.032986723,0.004581489,0.005192355,285.94034,-15.615835,35.788094,SIT
16169078777000,1.675027,5.56760545853806,4.12238213949859,6.799533,-0.027794369,0.008246681,0.006414085,286.1454,-15.701866,35.748573,SIT
16169083727000,1.679977,5.56543381362987,4.13153115456029,6.79822375902877,-0.029321533,0.004886922,0.002443461,286.35104,-15.786977,35.7111,SIT
16169088815000,1.685065,5.570404917323,4.14644451754744,6.7932525515201,-0.0290161,0.00580322,0.007941248,286.55002,-15.871011,35.67317,SIT
16169093713000,1.689963,5.5737014,4.15775981429199,6.79209468421824,-0.03573562,0.005192355,0.0106901415,286.75128,-15.958238,35.634872,SIT
16169098761000,1.695011,5.5737014,4.1624825902408,6.79917872485713,-0.025961773,0.003970624,0.013744468,286.94846,-16.047304,35.59767,SIT
16169103835000,1.700085,5.5737014,4.16722969110536,6.80629925223465,-0.02687807,0.0036651916,0.007941248,287.14822,-16.135382,35.56072,SIT
16169108804000,1.705054,5.5737014,4.17187855673326,6.81327242932155,-0.027183503,0.008857546,0.008857546,287.3421,-16.223091,35.5241,SIT
16169113749000,1.709999,5.57263774601001,4.17229697139062,6.81549552692347,-0.032375857,0.004886922,0.0125227375,287.53876,-16.307732,35.49694,SIT
16169118783000,1.715033,5.56771186359456,4.15751901553081,6.80071782824155,-0.025961773,-0.0012217305,0.009773844,287.73474,-16.394997,35.468735,SIT
16169123767000,1.720017,5.56047336764054,4.14432287474689,6.79604134490406,-0.028710667,0.008857546,0.014049901,287.9233,-16.478773,35.4354,SIT
16169128780000,1.72503,5.54658594137499,4.13506470335551,6.81918689422428,-0.019242255,0.00580322,0.010995574,288.11542,-16.56757,35.406544,SIT
16169133757000,1.730007,5.53630107055494,4.12714997419388,6.83693295312342,-0.03145956,0.005497787,0.013133603,288.2988,-16.646498,35.376595,SIT
16169138746000,1.734996,5.54113071302942,4.12473520338623,6.83210343672294,-0.028099801,0.004276057,0.0061086523,288.48468,-16.73231,35.34682,SIT
16169143735000,1.739985,5.54596035550389,4.12232043257859,6.82727392032245,-0.023823744,0.0021380284,0.008246681,288.66284,-16.812435,35.32183,SIT
16169148745000,1.744995,5.55081032720105,4.11989549737188,6.82242407522996,-0.02321288,0.003970624,0.011301007,288.84073,-16.89266,35.295692,SIT
16169153746000,1.749996,5.55561414492187,4.1190928671875,6.81655417675781,-0.027488936,0.011301007,0.013133603,289.01602,-16.971685,35.26894,SIT
16169158752000,1.755002,5.56029583042969,4.12377465046875,6.80719065908203,-0.027794369,0.013439035,0.015882496,289.18857,-17.050182,35.243702,SIT
16169163737000,1.759987,5.56495976969756,4.12593316932563,6.79869781286092,-0.03145956,0.0027488936,0.0106901415,289.35852,-17.129131,35.219418,SIT
16169168761000,1.765011,5.56966896449056,4.1165148289126,6.79398851972203,-0.027794369,0.00061086525,0.0067195175,289.52408,-17.208065,35.192993,SIT
16169173768000,1.770018,5.57236589530215,4.10934033181683,6.78906566818317,-0.032070424,0.008857546,0.008552114,289.68906,-17.286402,35.17269,SIT
16169178762000,1.775012,5.56290559677579,4.11564716457324,6.78275883542676,-0.0290161,0.004886922,0.013439035,289.85434,-17.366407,35.15611,SIT
16169183757000,1.780007,5.55344340391653,4.12195526021165,6.77645073978835,-0.032375857,0.004886922,0.009773844,290.01663,-17.44258,35.136795,SIT
16169189465000,1.785715,5.54263055169617,4.12916379072298,6.76924220927702,-0.028710667,0.005192355,0.018936822,290.197158115073,-17.531502440915,35.1168349604435,SIT
16169193768000,1.790018,5.534479237207,4.13459797201068,6.76380802798932,-0.023823744,0.009468411,0.0018325958,290.33325,-17.598537,35.101788,SIT
16169198758000,1.795008,5.52502651601226,4.14089975323905,6.75750624676095,-0.024129177,0.0067195175,0.010995574,290.48224,-17.672523,35.088715,SIT
16169203745000,1.799995,5.51741752301424,4.14726140761608,6.75282592476986,-0.032070424,0.003970624,0.006414085,290.64447,-17.745615,35.0773,SIT
16169208699000,1.804949,5.53412375972634,4.15442139423512,6.76953218640274,-0.032986723,0.00061086525,0.008246681,290.8004,-17.81672,35.068157,SIT
16169213716000,1.809966,5.55104244959002,4.16167243437799,6.7864509015041,-0.02443461,0.0027488936,0.009468411,290.96185,-17.893301,35.054806,SIT
16169218730000,1.81498,5.56795102263695,4.16891913863876,6.80335949977363,-0.025961773,0.0070249503,0.0106901415,291.1212,-17.966208,35.041725,SIT
16169223689000,1.819939,5.58485055960337,4.17509484162618,6.81711394860684,-0.03176499,0.009773844,0.019242255,291.27597,-18.037725,35.0292,SIT
16169228698000,1.824948,5.60387701142291,4.17033800516609,6.79808759612296,-0.024740042,0.0015271631,0.0125227375,291.43454,-18.1134,35.01676,SIT
16169233757000,1.830007,5.62122835911161,4.16537513307508,6.78091486692492,-0.026572637,-0.00061086525,0.0067195175,291.58902,-18.180178,35.003365,SIT
16169238723000,1.834973,5.61676220029112,4.15867582489083,6.78761417510917,-0.035430185,0.0061086523,0.009468411,291.74115,-18.245886,34.98979,SIT
16169243850000,1.8401,5.61215124655116,4.15175932205945,6.79453067794055,-0.032375857,0.0106901415,0.0067195175,291.89505,-18.31425,34.979076,SIT
16169248690000,1.84494,5.60779840549373,4.14522999229469,6.80106000770531,-0.021991149,0.0061086523,0.014966198,292.04315,-18.379236,34.970303,SIT
16169253744000,1.849994,5.60325310410856,4.13841196902381,6.80787803097619,-0.018325957,0.009162978,0.013133603,292.19214,-18.44492,34.956722,SIT
16169259399000,1.855649,5.5859390191756,4.12068736222989,6.8008632095878,-0.028099801,0.009162978,0.0125227375,292.33746,-18.507542,34.945988,SIT
16169263711000,1.859961,5.57094160599237,4.10568998819684,6.79336450299619,-0.028710667,0.009162978,0.0106901415,292.48178,-18.572874,34.933945,SIT
16169268849000,1.865099,5.55798602186365,4.1019423531666,6.7930253531666,-0.03145956,0.012217305,0.01282817,292.61987,-18.63174,34.920284,SIT
16169273762000,1.870012,5.5484961432029,4.10668739158935,6.79777039158935,-0.034208454,-0.0036651916,0.007941248,292.76187,-18.691408,34.910534,SIT
16169278780000,1.87503,5.55093408939158,4.11143151356279,6.80847760295437,-0.02076942,-0.0036651916,0.008857546,292.826845061383,-18.7201787348039,34.9025705106298,SIT
16169283781000,1.880031,5.56027371045242,4.11610127533151,6.82248698578393,-0.021991149,0.004886922,0.015271631,292.8916,-18.748852,34.894634,SIT
16169288795000,1.885045,5.57293259052861,4.12389869368574,6.82532730315713,-0.020158553,0.0015271631,0.010079277,293.0293,-18.805828,34.88394,SIT
16169293792000,1.890042,5.58784232246339,4.13383851497559,6.8203573925122,-0.025961773,0.0067195175,0.016798794,293.15814,-18.860964,34.869347,SIT
16169298755000,1.895005,5.57551794798272,4.1400697684404,6.82735502600864,-0.03634648,0.0021380284,0.009162978,293.2935,-18.918081,34.855865,SIT
16169303853000,1.900103,5.5485961413473,4.14455667374322,6.84081592932635,-0.035124753,0.004886922,0.0125227375,293.42,-18.972914,34.841057,SIT
16169308770000,1.90502,5.53939116957348,4.14875558478674,6.84341989303229,-0.025045475,0.0009162979,0.011911872,293.5591,-19.020115,34.82901,SIT
16169313778000,1.910028,5.54767326523916,4.15289663261958,6.83513792708513,-0.022907447,0.009468411,0.0125227375,293.69315,-19.064857,34.8134,SIT
16169318761000,1.915011,5.55310905466121,4.15417561955434,6.82610493457935,-0.035124753,0.002443461,0.015882496,293.82928,-19.109524,34.799168,SIT
16169323786000,1.920036,5.54435518017281,4.1410450363347,6.81297444276489,-0.027183503,0.0036651916,0.014049901,293.96313,-19.159813,34.780083,SIT
16169329289000,1.925539,5.53443828558191,4.12792207590808,6.7988958448573,-0.029932396,0.002443461,0.0143553335,294.0973,-19.20152,34.763035,SIT
16169333762000,1.930012,5.52253045663454,4.13189140748703,6.79095714025204,-0.024740042,0.0033597588,0.013744468,294.23047,-19.247192,34.74485,SIT
16169338755000,1.935005,5.50923830596738,4.13632218606375,6.78209553683284,-0.0290161,0.0012217305,0.010995574,294.36032,-19.288103,34.72344,SIT
16169343818000,1.940068,5.51844240856771,4.14503272270043,6.7921578725553,-0.027183503,0.006414085,0.014660766,294.48584,-19.33048,34.700764,SIT
16169348733000,1.944983,5.53257592373136,4.15445524652187,6.80629158449605,-0.03359759,0.004886922,0.014049901,294.61353,-19.371107,34.679817,SIT
16169353888000,1.950138,5.53939519833884,4.1603350730011,6.8051086269989,-0.03390302,0.0033597588,0.011911872,294.7406,-19.41484,34.656822,SIT
16169358713000,1.954963,5.54401933773642,4.16495906754728,6.80048463245272,-0.026572637,0.0061086523,0.011911872,294.86548,-19.458483,34.63354,SIT
16169363811000,1.960061,5.54137579332419,4.16231560594422,6.80312809405578,-0.022907447,-0.0030543262,0.0076358155,294.9935,-19.50256,34.61348,SIT
16169368758000,1.965008,5.53704315326932,4.15798310160951,6.80746059839049,-0.030543262,-0.004276057,0.009162978,295.11685,-19.544512,34.591537,SIT
16169373803000,1.970053,5.54150232066566,4.15480689591528,6.81216384438729,-0.024740042,-0.00030543262,0.004886922,295.2436,-19.592634,34.57016,SIT
16169378821000,1.975071,5.55119604397378,4.15238342713061,6.81701068073626,-0.02076942,0.0061086523,0.017104227,295.3631,-19.635254,34.550697,SIT
16169383808000,1.980058,5.56082988178517,4.14997492995461,6.82182757449319,-0.034208454,0.00061086525,0.007941248,295.48962,-19.678648,34.530018,SIT
16169388840000,1.98509,5.57055065015633,4.14754469979829,6.82668793330308,-0.030543262,-0.00030543262,0.0143553335,295.60452,-19.721811,34.50996,SIT
16169393819000,1.990069,5.56439695240859,4.14985854730122,6.80965440481718,-0.03268129,0.0012217305,0.01160644,295.72446,-19.763567,34.48877,SIT
16169399050000,1.9953,5.54985944782356,4.15470448336235,6.78057939564713,-0.025045475,0.008857546,0.014049901,295.8387,-19.806208,34.467777,SIT
16169403898000,2.000148,5.54921326604206,4.15209171919216,6.78070110599904,-0.028710667,0.003970624,0.0125227375,295.95807,-19.841871,34.456688,SIT
16169408783000,2.005033,5.55592206164436,4.14538290023901,6.79635493905354,-0.026267206,0.002443461,0.010079277,296.0741,-19.880322,34.442913,SIT
16169413810000,2.01006,5.56282587239006,4.13847906546367,6.81246380676386,-0.034208454,0.0021380284,0.018325957,296.18958,-19.916462,34.430946,SIT
16169418839000,2.015089,5.56973242982792,4.13157248398662,6.828579083413,-0.035124753,0.013744468,0.01863139,296.3056,-19.956402,34.41501,SIT
16169423821000,2.020071,5.57234400602324,4.13099705581151,6.83648259893628,-0.03848451,0.010079277,0.015882496,296.41644,-19.997025,34.400234,SIT
16169428824000,2.025074,5.56909781000711,4.13911271533589,6.83323638597175,-0.028099801,0.005497787,0.013439035,296.52448,-20.040237,34.38294,SIT
16169433806000,2.030056,5.56586523983875,4.14719430952946,6.83000379892612,-0.022296581,0.0076358155,0.0106901415,296.62622,-20.080294,34.367725,SIT
16169438826000,2.035076,5.56260801337444,4.15533754575019,6.82674655545581,-0.03604105,0.002443461,0.014966198,296.72714,-20.117132,34.356194,SIT
16169443795000,2.040045,5.55938387825468,4.16339805188184,6.82352240350283,-0.03604105,0.0027488936,0.019242255,296.82483,-20.159916,34.34056,SIT
16169448811000,2.045061,5.55612924718994,4.17153479946814,6.82026775544565,-0.02076942,0.008552114,0.0143553335,296.92297,-20.203585,34.32436,SIT
16169453856000,2.050106,5.56179721052631,4.17307143668731,6.80902075139319,-0.022296581,0.0036651916,0.012217305,297.01938,-20.241886,34.31178,SIT
16169458817000,2.055067,5.57558683223684,4.16847459213429,6.79063433312693,-0.027794369,-0.004276057,0.013439035,297.11487,-20.282608,34.29845,SIT
16169463786000,2.060036,5.58118534611492,4.16172528297112,6.77410122908604,-0.02443461,-0.0009162979,0.014966198,297.21155,-20.33243,34.27986,SIT
16169468827000,2.065077,5.57639467025901,4.15214368113526,6.75972895139426,-0.028405234,0.0015271631,0.014660766,297.30865,-20.378836,34.263638,SIT
16169473803000,2.070053,5.57780944157405,4.15908125340943,6.75781104091319,-0.03390302,-0.0012217305,0.0067195175,297.40625,-20.425415,34.250065,SIT
16169478816000,2.075066,5.58742363971163,4.18792414899369,6.7722322879243,-0.02565634,-0.004276057,0.015882496,297.49725,-20.470783,34.238075,SIT
16169483768000,2.080018,5.58913755680674,4.19678341657054,6.77108569201685,-0.02565634,-0.0012217305,0.0143553335,297.5917,-20.514946,34.223835,SIT
16169488809000,2.085059,5.5802981081571,4.17910428851964,6.74898707039275,-0.02076942,0.006414085,0.011911872,297.68234,-20.560165,34.21022,SIT
16169493710000,2.08996,5.57140064882936,4.16360991279266,6.73134491240245,-0.021991149,0.006414085,0.0061086523,297.728712206883,-20.5828583558423,34.2033578155262,SIT
16169498805000,2.095055,5.5611088777895,4.15331798055263,6.72619897314913,-0.02443461,-0.00030543262,0.0106901415,297.77692,-20.60645,34.196224,SIT
16169503759000,2.100009,5.55616447171267,4.15322315692095,6.73100102735728,-0.02565634,0.002443461,0.014660766,297.8671,-20.65327,34.178368,SIT
16169508784000,2.105034,5.56092576734936,4.17226913495597,6.75480800272089,-0.028405234,0.01038471,0.01985312,297.95267,-20.697996,34.16055,SIT
16169513711000,2.109961,5.55832919742489,4.18361611909871,6.77949560386266,-0.040011674,0.0076358155,0.013439035,298.0398,-20.740238,34.143864,SIT
16169518851000,2.115101,5.53912328560281,4.17881454087007,6.80830447159579,-0.022296581,0.005192355,0.012217305,298.12158,-20.786251,34.126606,SIT
16169523752000,2.120002,5.52711533102053,4.17418997410741,6.82696534187317,-0.029626964,0.007330383,0.015271631,298.20242,-20.829912,34.107727,SIT
16169528820000,2.12507,5.53202422237281,4.16928072394053,6.82205634800243,-0.03726278,0.0009162979,0.018325957,298.28436,-20.876963,34.091824,SIT
16169533770000,2.13002,5.53670963008965,4.16459511112253,6.82000210261487,-0.024129177,0.005497787,0.012217305,298.3664,-20.9247,34.070934,SIT
16169538824000,2.135074,5.54122981667912,4.16007506612813,6.82452219480762,-0.038789943,0.0018325958,0.014049901,298.44632,-20.961895,34.055435,SIT
16169543781000,2.140031,5.54717511632471,4.15706869776985,6.82679388911686,-0.039095376,0.005497787,0.014049901,298.52325,-21.006676,34.03536,SIT
16169548830000,2.14508,5.56155313095451,4.16186131926851,6.81720854603033,-0.02687807,0.006414085,0.020158553,298.59787,-21.04905,34.018223,SIT
16169553816000,2.150066,5.57348061629151,4.16568991859691,6.80800578145753,-0.03634648,-0.0036651916,0.014049901,298.6807,-21.08198,34.006157,SIT
16169558821000,2.155071,5.57194586287343,4.16415518120457,6.80033201436713,-0.031154128,0.008552114,0.016493361,298.75464,-21.11817,33.990063,SIT
16169563797000,2.160047,5.5704200021325,4.16262933639653,6.79270271066248,-0.035124753,0.005192355,0.012217305,298.83624,-21.152422,33.980785,SIT
16169568833000,2.165083,5.56887574274919,4.16108509313823,6.78498141374596,-0.03023783,-0.007330383,0.013133603,298.91412,-21.188217,33.97179,SIT
16169573771000,2.170021,5.56736153448177,4.15957090068201,6.77741037240882,-0.026267206,0.005192355,0.015271631,298.9905,-21.222626,33.959274,SIT
16169578810000,2.17506,5.56581635516634,4.1580257375012,6.7696844758317,-0.032375857,0.005192355,0.011911872,299.0712,-21.256294,33.95253,SIT
16169584708000,2.180958,5.56430007180918,4.15615852452631,6.76140117180918,-0.037873644,0.005192355,0.016798794,299.1459,-21.288845,33.943867,SIT
16169588805000,2.185055,5.56618696945273,4.15427158747716,6.76328806945273,-0.029321533,0.0076358155,0.014966198,299.22253,-21.324635,33.93332,SIT
16169593715000,2.189965,5.56844829906704,4.15201021063768,6.76554939906704,-0.025961773,0.005192355,0.0143553335,299.3019,-21.35417,33.929558,SIT
16169598801000,2.195051,5.57079068652496,4.14966777426181,6.76789178652496,-0.038179077,0.007941248,0.014660766,299.37952,-21.382044,33.92355,SIT
16169603784000,2.200034,5.57308563672213,4.14737277613735,6.77018673672213,-0.03634648,0.0033597588,0.018936822,299.45673,-21.413082,33.92033,SIT
16169608783000,2.205033,5.56667548085746,4.13621804792147,6.7637765441751,-0.027794369,0.0070249503,0.008246681,299.5359,-21.445204,33.912323,SIT
16169613711000,2.209961,5.5572206120605,4.1220356459982,6.75432162601422,-0.0421497,-0.00030543262,0.019547688,299.60852,-21.46783,33.911472,SIT
16169618921000,2.215171,5.56166387773019,4.12870059089936,6.76588082976445,-0.034513887,0.0015271631,0.01863139,299.68503,-21.500038,33.90685,SIT
16169623782000,2.220032,5.57072604216469,4.14229393217831,6.78400525326066,-0.03176499,0.0061086523,0.014049901,299.7591,-21.52644,33.90411,SIT
16169628798000,2.225048,5.5705162734805,4.14357190673928,6.78040065370028,-0.03573562,0.004276057,0.014049901,299.83023,-21.550844,33.903076,SIT
16169633772000,2.230022,5.56588387017407,4.13893955180395,6.7665034921521,-0.029626964,0.007941248,0.017104227,299.8995,-21.578287,33.899094,SIT
16169638792000,2.235042,5.56705178774833,4.13425308168595,6.77000735494216,-0.028710667,0.003970624,0.0106901415,299.9793,-21.604591,33.90346,SIT
16169643780000,2.24003,5.57171509419632,4.12958972654366,6.78399742036902,-0.03481932,0.0030543262,0.022296581,300.0507,-21.626944,33.908356,SIT
16169648760000,2.24501,5.57637092140382,4.12493385071997,6.79796504784009,-0.034513887,0.0070249503,0.012217305,300.12982,-21.655718,33.909508,SIT
16169654413000,2.250663,5.58165593971787,4.1196487772197,6.8138202683409,-0.03359759,0.011911872,0.014966198,300.20056,-21.67896,33.91331,SIT
16169658782000,2.255032,5.58585891037446,4.12060755647637,6.81997692823818,-0.03573562,0.0061086523,0.013744468,300.2758,-21.703882,33.916668,SIT
16169663775000,2.260025,5.59075127388991,4.12549981782279,6.8224230589114,-0.034208454,0.0076358155,0.013133603,300.3473,-21.729158,33.91699,SIT
16169668800000,2.26505,5.59567499242889,4.13042343353796,6.82488486676898,-0.030848695,0.0067195175,0.00580322,300.42014,-21.752686,33.922108,SIT
16169673787000,2.270037,5.60056147687743,4.13530981594025,6.82732805797012,-0.019242255,0.011301007,0.002443461,300.49005,-21.777817,33.925396,SIT
16169678783000,2.275033,5.602432,4.13429815702169,6.82394010058006,-0.03390302,-0.00061086525,0.013744468,300.55826,-21.800531,33.93637,SIT
16169683764000,2.280014,5.602432,4.12964770215452,6.8169644425591,-0.026572637,-0.0036651916,0.013744468,300.62808,-21.833092,33.941574,SIT
16169688787000,2.285037,5.602432,4.12495803445771,6.80992996549842,-0.027794369,-0.008552114,0.013744468,300.69946,-21.856352,33.952892,SIT
16169693785000,2.290035,5.602432,4.12029170773093,6.8029304997709,-0.024129177,-0.0018325958,0.005497787,300.7712,-21.883648,33.960316,SIT
16169698755000,2.295005,5.60023011224582,4.13123786558518,6.78852379114324,-0.028710667,0.0033597588,0.01282817,300.83823,-21.905922,33.970715,SIT
16169703838000,2.300088,5.59583066434704,4.15763423141437,6.76652701102576,-0.03268129,0.00061086525,0.0125227375,300.9095,-21.93169,33.978817,SIT
16169708746000,2.304996,5.59419043824701,4.17415251992032,6.75431980677291,-0.0290161,0.0009162979,0.01160644,300.9692,-21.957767,33.9782,SIT
16169713775000,2.310025,5.59875909059002,4.16958372446405,6.76345687293682,-0.028710667,-0.00030543262,0.0106901415,301.029,-21.98201,33.978405,SIT
16169718730000,2.31498,5.60287860764983,4.16457084906934,6.7708025,-0.026572637,0.00580322,0.0067195175,301.0913,-22.012938,33.968224,SIT
16169723992000,2.320242,5.60545541626099,4.15684026179178,6.7708025,-0.025961773,0.0070249503,0.010995574,301.1516,-22.041965,33.96058,SIT
16169728704000,2.324954,5.60776288911843,4.14991769865003,6.7708025,-0.030848695,-0.004581489,0.00580322,301.2148,-22.07077,33.953316,SIT
16169733766000,2.330016,5.61024175745551,4.14248093833095,6.7708025,-0.034208454,0.0015271631,0.003970624,301.27206,-22.098402,33.942303,SIT
16169738715000,2.334965,5.60643943746748,4.13495263498699,6.7719163325065,-0.03573562,0.0061086523,0.011911872,301.33206,-22.12157,33.93676,SIT
16169743772000,2.340022,5.58543775594102,4.12655196237641,6.7761166688118,-0.027488936,0.015577064,0.009773844,301.39334,-22.148094,33.926876,SIT
16169749119000,2.345369,5.56398970665618,4.11809414667191,6.78051419404809,-0.026267206,0.007941248,0.008857546,301.45023,-22.168407,33.922764,SIT
16169753795000,2.350045,5.56105593328092,4.11956103335954,6.78344798274043,-0.034208454,0.004581489,0.009773844,301.50452,-22.18839,33.915207,SIT
16169758775000,2.355025,5.55793142699162,4.12112328650419,6.78657250534264,-0.022602014,0.007330383,0.009773844,301.54974,-22.218616,33.898193,SIT
16169763772000,2.360022,5.55479625471698,4.12269087264151,6.78970769398585,-0.02443461,0.0018325958,0.013744468,301.59488,-22.24278,33.88513,SIT
16169768781000,2.365031,5.55165355351153,4.12426222324423,6.79285041159919,-0.03726278,0.003970624,0.009162978,301.64264,-22.266777,33.87047,SIT
16169773795000,2.370045,5.54850771525157,4.12583514237421,6.79599626628341,-0.025961773,0.0012217305,0.011301007,301.6883,-22.293707,33.860077,SIT
16169778713000,2.374963,5.54542210843816,4.12737794578092,6.79908188920663,-0.022602014,0.0033597588,0.011911872,301.73428,-22.316706,33.84735,SIT
16169783768000,2.380018,5.55776892627902,4.11907159369221,6.79100100460242,-0.021991149,0.007941248,0.011911872,301.7794,-22.341091,33.835117,SIT
16169788725000,2.384975,5.57239976589275,4.10931775154099,6.78124706060201,-0.025961773,0.0070249503,0.013439035,301.82388,-22.364492,33.824253,SIT
16169793784000,2.390034,5.58248243095404,4.11284049255435,6.77598878452298,-0.02321288,0.005192355,0.005192355,301.8673,-22.392563,33.804108,SIT
16169798752000,2.395002,5.59192897962871,4.11756374223171,6.77126551018564,-0.03268129,0.0018325958,0.0143553335,301.90497,-22.413322,33.78758,SIT
16169803788000,2.400038,5.60150482888911,4.12235164186439,6.76647758555545,-0.022296581,0.005192355,0.012217305,301.94727,-22.439167,33.772007,SIT
16169808717000,2.404967,5.61087721987491,4.1270378128909,6.76179139006254,-0.03481932,0.003970624,0.010995574,301.98743,-22.455677,33.76009,SIT
16169813775000,2.410025,5.60570050397993,4.131808846116,6.75912303792001,-0.01985312,0.013744468,0.0106901415,302.02267,-22.4833,33.74328,SIT
16169818784000,2.415034,5.59862068032666,4.13652867105328,6.75676313777242,-0.021991149,0.0030543262,0.01160644,302.06104,-22.503862,33.73236,SIT
16169823790000,2.42004,5.59154509693511,4.14124566918384,6.75440465102081,-0.02565634,0.004276057,0.019547688,302.09473,-22.526844,33.719227,SIT
16169828736000,2.424986,5.58455431877798,4.1459061311802,6.75207443218871,-0.03390302,0.0009162979,0.0143553335,302.13422,-22.55,33.708637,SIT
16169833769000,2.430019,5.56917495935104,4.13970547967552,6.76222629889463,-0.021991149,0.002443461,0.010079277,302.16925,-22.573626,33.69566,SIT
16169838791000,2.435041,5.5520259351043,4.13113096755215,6.77508808946336,-0.035124753,0.0067195175,0.012217305,302.20364,-22.589193,33.68331,SIT
16169843780000,2.44003,5.53272030404814,4.13066618997812,6.77119126204595,-0.033292156,0.009468411,0.013133603,302.24216,-22.61403,33.668682,SIT
16169848779000,2.445029,5.5117688059081,4.13590409185996,6.75547761109409,-0.03634648,0.009773844,0.005497787,302.282,-22.635582,33.653126,SIT
16169853800000,2.45005,5.50307250695198,4.13358888195444,6.75524039929494,-0.02565634,0.0070249503,0.015882496,302.31058,-22.656044,33.632256,SIT
16169858783000,2.455033,5.49836664056799,4.12888311384479,6.75994614283601,-0.03145956,0.01160644,0.015271631,302.3434,-22.674997,33.607693,SIT
16169863778000,2.460028,5.49364944157381,4.1241660133616,6.76466321869145,-0.032986723,0.0106901415,0.0106901415,302.37726,-22.70166,33.587296,SIT
16169868836000,2.465086,5.4888727463761,4.11938941791736,6.76943978919732,-0.032986723,0.0106901415,0.011911872,302.40848,-22.726034,33.566807,SIT
16169873796000,2.470046,5.49092017606561,4.1248469096993,6.78103285015693,-0.031154128,0.0033597588,0.014966198,302.44156,-22.75054,33.548653,SIT
16169878784000,2.475034,5.49575667257264,4.13451970070872,6.79554208717222,-0.02687807,0.008857546,0.0125227375,302.4737,-22.77595,33.52726,SIT
16169883759000,2.480009,5.50366129939983,4.14704174909974,6.7962457816519,-0.03573562,0.0061086523,0.01740966,302.50137,-22.800777,33.51379,SIT
16169888787000,2.485037,5.51283575884538,4.16080343826808,6.79165845613032,-0.03634648,0.0018325958,0.013744468,302.5316,-22.829754,33.498325,SIT
16169893773000,2.490023,5.5251439420739,4.16294295029797,6.78402046960667,-0.027794369,0.006414085,0.017104227,302.55768,-22.85689,33.482548,SIT
16169898791000,2.495041,5.53946348390942,4.15816981952722,6.77447415822408,-0.03145956,0.0033597588,0.01740966,302.58743,-22.881721,33.4693,SIT
16169903796000,2.500046,5.54780565925498,4.15349934074502,6.78497550028877,-0.03604105,0.005192355,0.013744468,302.6186,-22.91107,33.45676,SIT
16169909261000,2.505511,5.55284351708538,4.14846148291462,6.8101642634036,-0.02687807,0.007330383,0.01038471,302.6497,-22.942028,33.445263,SIT
16169913779000,2.510029,5.55579264089404,4.15422507930464,6.8112184986755,-0.025045475,-0.0067195175,0.01160644,302.6813,-22.96838,33.440144,SIT
16169918772000,2.515022,5.55812103804051,4.1681958998247,6.79724782403584,-0.028405234,0.004581489,0.01985312,302.70712,-22.994417,33.428802,SIT
16169923778000,2.520028,5.56045549750682,4.18220309540319,6.78324077471757,-0.03176499,0.0027488936,0.008552114,302.7401,-23.021366,33.421627,SIT
16169928781000,2.525031,5.56278855797624,4.19620189673744,6.7692421195559,-0.028099801,-0.004276057,0.012217305,302.76483,-23.044672,33.416237,SIT
16169933750000,2.53,5.56211910916692,4.20020737645068,6.7732588962974,-0.03359759,-0.005497787,0.009773844,302.7939,-23.067606,33.407726,SIT
16169938797000,2.535047,5.55730840943565,4.19058587652035,6.80212369749179,-0.028710667,0.004581489,0.015882496,302.8183,-23.091175,33.399918,SIT
16169943897000,2.540147,5.55329506182552,4.18381204438157,6.81659828424583,-0.026572637,-0.004886922,0.015577064,302.85922,-23.11835,33.402122,SIT
16169948785000,2.545035,5.55051631327885,4.18103325714794,6.81196706890718,-0.028405234,0.0067195175,0.016798794,302.89233,-23.143902,33.397446,SIT
16169953767000,2.550017,5.54768412726014,4.17820103169829,6.8072467917351,-0.02687807,0.0009162979,0.010995574,302.93124,-23.166473,33.39844,SIT
16169958786000,2.555036,5.54483090734284,4.17534777205722,6.80249145830942,-0.028099801,0.0012217305,0.016493361,302.9631,-23.18551,33.396633,SIT
16169963712000,2.559962,5.54203055641386,4.17254738214053,6.79782423925088,-0.03145956,0.006414085,0.015577064,302.9923,-23.210035,33.38822,SIT
16169968839000,2.565089,5.53911594025208,4.16963272540019,6.79296657946339,-0.032375857,0.0018325958,0.01160644,303.022,-23.233929,33.38268,SIT
16169973710000,2.56996,5.53634685592908,4.16686360252478,6.78835147105206,-0.029932396,0.0009162979,0.0106901415,303.04938,-23.254429,33.37272,SIT
16169979398000,2.575648,5.53311332038624,4.16363002196324,6.78296228266289,-0.029932396,-0.0036651916,0.013133603,303.07797,-23.273912,33.365005,SIT
16169983725000,2.579975,5.53065349122064,4.16117015855082,6.77886259592592,-0.027794369,0.0021380284,0.016187929,303.10745,-23.296833,33.361732,SIT
16169988791000,2.585041,5.52777355256732,4.15829017980174,6.77406273158353,-0.03268129,-0.00030543262,0.016187929,303.13882,-23.317812,33.36155,SIT
16169993714000,2.589964,5.52711257441139,4.15762918793576,6.7772785073006,-0.02321288,0.006414085,0.010079277,303.1664,-23.34761,33.359474,SIT
16169998785000,2.595035,5.53154430817667,4.16206096797773,6.79943763889396,-0.021991149,0.00061086525,0.019242255,303.1915,-23.37118,33.363144,SIT
16170003811000,2.600061,5.53628563931034,4.16501906689655,6.81809208103448,-0.0290161,0.010079277,0.012217305,303.2189,-23.397778,33.358673,SIT
16170008787000,2.605037,5.54343024028986,4.15787451565217,6.81332907173913,-0.036957346,0.007941248,0.016493361,303.24265,-23.42031,33.361298,SIT
16170013767000,2.610017,5.55058058451774,4.1507242211994,6.80856223365817,-0.042455133,0.009162978,0.0143553335,303.26736,-23.443,33.3579,SIT
16170018798000,2.615048,5.55780415516242,4.14350070083958,6.80374657856072,-0.025045475,0.012217305,0.011911872,303.29065,-23.467962,33.355137,SIT
16170023772000,2.620022,5.56642838063756,4.1390233485659,6.80137601488771,-0.029626964,0.0033597588,0.016187929,303.31943,-23.479105,33.35718,SIT
16170028783000,2.625033,5.58661062674741,4.1551693561948,6.81752172747918,-0.028405234,0.0033597588,0.01863139,303.34723,-23.496027,33.35563,SIT
16170033731000,2.629981,5.60653913478005,4.17111237071242,6.83346445066869,-0.036651913,0.009468411,0.014049901,303.37305,-23.507347,33.3572,SIT
16170038790000,2.63504,5.60838579253846,4.175488,6.83240580772219,-0.032070424,0.005497787,0.010995574,303.39902,-23.52104,33.361664,SIT
16170043715000,2.639965,5.60356484502479,4.175488,6.82517441162161,-0.029626964,0.0036651916,0.0061086523,303.4253,-23.533344,33.36307,SIT
16170048776000,2.645026,5.59861077083866,4.175488,6.81774332620739,-0.031154128,0.0067195175,0.010079277,303.4523,-23.539751,33.362488,SIT
16170053777000,2.650027,5.59371542900802,4.175488,6.81040033901978,-0.028099801,0.012217305,0.020463986,303.47845,-23.547533,33.3619,SIT
16170058780000,2.65503,5.58302750841047,4.1617294296805,6.80321320504628,-0.03268129,0.0106901415,0.01863139,303.50742,-23.554667,33.361153,SIT
16170063710000,2.65996,5.57127931890116,4.14528186622873,6.7961642913407,-0.03176499,-0.00061086525,0.0070249503,303.53665,-23.563692,33.361557,SIT
16170068841000,2.665091,5.55905214641187,4.12816372260376,6.78882798784712,-0.03268129,0.0061086523,0.010079277,303.5552,-23.56928,33.350628,SIT
16170073768000,2.670018,5.54731110590226,4.11172616781129,6.78178336354136,-0.038789943,0.008552114,0.018936822,303.57788,-23.574907,33.343052,SIT
16170078778000,2.675028,5.55255017702535,4.10971317858406,6.78416887532255,-0.04062254,0.0061086523,0.01160644,303.604,-23.583601,33.333492,SIT
16170083775000,2.680025,5.56195264663698,4.11128023503504,6.78887009376514,-0.022296581,0.009468411,0.0106901415,303.62405,-23.592983,33.32423,SIT
16170088789000,2.685039,5.57138710383784,4.11285262267667,6.79358730594669,-0.03481932,0.005192355,0.01282817,303.6428,-23.590767,33.315178,SIT
16170093781000,2.690031,5.58078016533499,4.1144181111304,6.79828382034842,-0.04184427,0.006414085,0.01282817,303.6609,-23.594616,33.30384,SIT
16170098788000,2.695038,5.59020145117558,4.11598830357587,6.80299444687275,-0.021991149,0.009468411,0.017104227,303.6781,-23.602114,33.296665,SIT
16170103827000,2.700077,5.59968294894885,4.11756853120375,6.80773517925863,-0.030543262,0.0033597588,0.02107485,303.69656,-23.60171,33.291676,SIT
16170108782000,2.705032,5.59576469959651,4.11135943440598,6.80577604979826,-0.025350908,0.0061086523,0.01740966,303.71243,-23.607841,33.279396,SIT
16170113774000,2.710024,5.58623889432628,4.10183367886924,6.80101314716314,-0.024129177,0.008857546,0.013744468,303.7281,-23.61059,33.269524,SIT
16170118759000,2.715009,5.57672644655542,4.09232128076214,6.79625692327771,-0.025961773,-0.004581489,0.009162978,303.7456,-23.613235,33.264896,SIT
16170123795000,2.720045,5.56711667986052,4.0827115642391,6.79145203993026,-0.0290161,-0.002443461,0.010079277,303.75955,-23.615673,33.256214,SIT
16170128777000,2.725027,5.57050221704867,4.08928605876329,6.78676719147567,-0.021685716,0.005192355,0.008857546,303.77707,-23.623592,33.25168,SIT
16170133797000,2.730047,5.57987996678045,4.10335287920609,6.78207831660977,-0.026572637,0.004581489,0.010995574,303.79416,-23.62732,33.249367,SIT
16170138755000,2.735005,5.58017156748992,4.11466296233337,6.77727280261445,-0.029321533,0.00061086525,0.007330383,303.81802,-23.629936,33.252373,SIT
16170143751000,2.740001,5.57522740157073,4.12455144905446,6.77232853344012,-0.024740042,0.0009162979,0.006414085,303.8396,-23.63247,33.255013,SIT
16170148751000,2.745001,5.57048029032195,4.12921407165645,6.76436021337419,-0.022907447,0.0021380284,0.015882496,303.86093,-23.633432,33.257248,SIT
16170153753000,2.750003,5.56582095237817,4.13154376495477,6.75504144018092,-0.032375857,0.0061086523,0.015882496,303.88455,-23.634787,33.25722,SIT
16170158754000,2.755004,5.56116254592938,4.13387299250073,6.74572452999708,-0.031154128,0.0027488936,0.011301007,303.90973,-23.64031,33.258446,SIT
16170163734000,2.759984,5.5565237008754,4.13619243924715,6.73644674301138,-0.023823744,0.007330383,0.014660766,303.93033,-23.643875,33.25774,SIT
16170168753000,2.765003,5.56017233409667,4.12874374012565,6.73530746704833,-0.026267206,0.007330383,0.01038471,303.95572,-23.645754,33.2554,SIT
16170173747000,2.769997,5.56986450955517,4.11420537573209,6.74015355477759,-0.02687807,0.0070249503,0.013439035,303.97696,-23.648071,33.25352,SIT
16170178769000,2.775019,5.5710079116612,4.11383700480303,6.74476553052695,-0.03176499,0.0076358155,0.01160644,304.003,-23.652706,33.249798,SIT
16170183769000,2.780019,5.56658510650718,4.12268266129405,6.74918840495543,-0.029626964,0.011911872,0.011301007,304.02686,-23.658157,33.24592,SIT
16170188765000,2.785015,5.56216583959728,4.13152124125987,6.75360774108438,-0.030848695,0.0067195175,0.014966198,304.04740609133,-23.6595447043018,33.2457870819325,SIT
16170198879000,2.795129,5.553115122821,4.15248850871601,6.76552422680546,-0.032375857,0.008246681,0.015882496,304.089,-23.662354,33.245518,SIT
16170203756000,2.800006,5.5484625648969,4.17109874041239,6.77948156051399,-0.028405234,0.007330383,0.013133603,304.1101,-23.66637,33.248013,SIT
16170208766000,2.805016,5.54594817103771,4.18604213022447,6.79288746209659,-0.03634648,0.009468411,0.0125227375,304.13345,-23.669947,33.24611,SIT
16170213775000,2.810025,5.54957383750283,4.18966764525735,6.80376427220165,-0.033292156,0.002443461,0.014660766,304.1582,-23.67703,33.24676,SIT
16170220977000,2.817227,5.55518145911004,4.19432486879134,6.81836977044498,-0.029321533,0.006414085,0.017715093,304.18323,-23.687963,33.24429,SIT
16170223820000,2.82007,5.56063880532171,4.19159618143917,6.81564109733915,-0.03634648,0.004581489,0.018020526,304.21027,-23.697111,33.244892,SIT
16170228860000,2.82511,5.57031345354781,4.18675883207055,6.8108037732261,-0.034513887,0.0061086523,0.02107485,304.23386,-23.707973,33.24394,SIT
16170234386000,2.830636,5.58092101428142,4.18145502401283,6.80549999285929,-0.03176499,0.004581489,0.013133603,304.26123,-23.719229,33.2427,SIT
16170238788000,2.835038,5.58937097489477,4.17723002164762,6.80127501255262,-0.027794369,0.007330383,0.020158553,304.28195,-23.728043,33.242455,SIT
16170243779000,2.840029,5.58986065544399,4.16949931088797,6.80252725075802,-0.034208454,0.0143553335,0.02076942,304.31052,-23.734797,33.242935,SIT
16170248773000,2.845023,5.58515229375861,4.16008258751723,6.80723546495373,-0.030543262,0.003970624,0.0106901415,304.34225,-23.745422,33.246456,SIT
16170253875000,2.850125,5.58624839621514,4.15336360378486,6.80613939683267,-0.027488936,0.007941248,0.0106901415,304.3623,-23.747427,33.242798,SIT
16170258806000,2.855056,5.59095200049801,4.14865999950199,6.80143593989044,-0.034208454,0.01038471,0.018325957,304.3848,-23.748615,33.241817,SIT
16170263778000,2.860028,5.59022879019897,4.14281769900976,6.80609852450258,-0.03359759,0.004276057,0.011301007,304.41055,-23.753397,33.239834,SIT
16170268896000,2.865146,5.58571386182756,4.13604533002487,6.8173858454311,-0.04062254,0.00580322,0.015271631,304.42886,-23.75189,33.23795,SIT
16170273783000,2.870033,5.58140271392778,4.12957863068349,6.82816371518055,-0.037873644,0.0061086523,0.01863139,304.45065,-23.753775,33.239735,SIT
16170278780000,2.87503,5.57699452770818,4.12296637436901,6.83918418072955,-0.026572637,0.01038471,0.018020526,304.4713,-23.756245,33.240067,SIT
16170283749000,2.879999,5.57125105862444,4.11925186429126,6.84619182931222,-0.03176499,0.005497787,0.007330383,304.49524,-23.756956,33.241627,SIT
16170288790000,2.88504,5.5612573928686,4.12424867108109,6.8411949964343,-0.0290161,0.0061086523,0.008857546,304.51385,-23.760212,33.242302,SIT
16170293765000,2.890015,5.55139457058428,4.12918005647674,6.83626358529214,-0.02443461,0.0076358155,0.011911872,304.52972,-23.76088,33.2367,SIT
16170298785000,2.895035,5.54144253684211,4.13415604736842,6.83128756842105,-0.03573562,0.012217305,0.010995574,304.54565,-23.759155,33.230022,SIT
16170304487000,2.900737,5.54213962223009,4.128186176158,6.83500887527234,-0.04642576,0.008552114,0.015882496,304.55994,-23.757257,33.226437,SIT
16170308792000,2.905042,5.55309394275086,4.11358047900983,6.84596311953768,-0.029932396,0.015882496,0.01160644,304.57462,-23.760973,33.217762,SIT
16170313712000,2.909962,5.5658693611336,4.09945459919028,6.8552489388664,-0.037873644,0.015882496,0.016493361,304.58352013043,-23.7594215241296,33.2145721695595,SIT
16170318759000,2.915009,5.58092202684522,4.10447225921312,6.84019627315478,-0.024740042,-0.0009162979,0.0143553335,304.59265,-23.75783,33.2113,SIT
16170323736000,2.919986,5.59237909999491,4.1094017751642,6.8268356347691,-0.034208454,-0.0021380284,0.011301007,304.6099,-23.75706,33.19813,SIT
16170328785000,2.925035,5.589917195153,4.11432545631587,6.81945010018838,-0.032986723,-0.002443461,0.01740966,304.62112,-23.753653,33.19296,SIT
16170333743000,2.929993,5.58749966213533,4.11916039613564,6.81219767783718,-0.032070424,0.0009162979,0.013133603,304.63696,-23.754768,33.19152,SIT
16170338791000,2.935041,5.58503824489588,4.12408310210784,6.80481360602821,-0.022907447,0.0018325958,0.011911872,304.65042,-23.756662,33.19204,SIT
16170343749000,2.939999,5.58696295231208,4.12637519111323,6.79461975162702,-0.03268129,0.004581489,0.013439035,304.66336,-23.754831,33.191082,SIT
16170348809000,2.945059,5.60079519170314,4.12176447674596,6.77617684601332,-0.038789943,0.0030543262,0.0125227375,304.67783,-23.756643,33.190514,SIT
16170353826000,2.950076,5.61110309323137,4.11440459728222,6.76394226758293,-0.02321288,0.0021380284,0.015882496,304.69684,-23.760029,33.192955,SIT
16170358766000,2.955016,5.60621434630567,4.09484920118839,6.77860876360442,-0.03756821,-0.0018325958,0.0067195175,304.7205,-23.757687,33.194614,SIT
16170363774000,2.960024,5.60158252561514,4.08056895664498,6.79080547438486,-0.023823744,-0.0061086523,0.010079277,304.73862,-23.762037,33.201496,SIT
16170368838000,2.965088,5.59795542756712,4.08419597894697,6.79443257243288,-0.026572637,0.0027488936,0.005497787,304.76007,-23.762459,33.20356,SIT
16170374177000,2.970427,5.59413136033206,4.08801996632264,6.79825663966794,-0.02107485,0.0061086523,0.007330383,304.77618,-23.763016,33.20918,SIT
16170378748000,2.974998,5.58847707913457,4.09367424372234,6.79515505627766,-0.02687807,0.0009162979,0.0061086523,304.7943,-23.761847,33.21357,SIT
16170383770000,2.98002,5.580593996099,4.1015573679151,6.7872719320849,-0.018325957,-0.005192355,0.014660766,304.80844,-23.763391,33.21888,SIT
16170388772000,2.985022,5.5742320341344,4.11004193010792,6.78197123564886,-0.028405234,0.008857546,0.01282817,304.82333,-23.761147,33.215214,SIT
16170393771000,2.990021,5.57857350719144,4.12306657594994,6.79499592682506,-0.03390302,0.00030543262,0.005497787,304.8419,-23.761553,33.2191,SIT
16170398799000,2.995049,5.58294016582933,4.13616677984946,6.80809617632176,-0.019242255,0.00030543262,0.008552114,304.85678,-23.765476,33.217365,SIT
16170403806000,3.000056,5.59266494386077,4.12779355217022,6.82318977273692,-0.024740042,-0.0018325958,0.0061086523,304.87714,-23.7659,33.216568,SIT
16170408981000,3.005231,5.60101900647991,4.11908643591865,6.83819325391287,-0.016798794,0.006414085,0.002443461,304.89505,-23.772528,33.213432,SIT
16170413777000,3.010027,5.58270355533845,4.13282290474529,6.84277218841591,-0.022907447,0.0021380284,0.0030543262,304.91922,-23.77367,33.21542,SIT
16170419006000,3.015256,5.56512789693481,4.14725865894373,6.84624648516333,-0.01985312,0.00580322,0.009162978,304.93695,-23.775852,33.21458,SIT
16170423792000,3.020042,5.57831959784142,4.15385464714347,6.83085614448122,-0.024740042,0.0076358155,0.007941248,304.95752,-23.776161,33.214325,SIT
16170428712000,3.024962,5.59188064432292,4.16063531198734,6.81503489998561,-0.026267206,0.010079277,0.008246681,304.97873,-23.781574,33.212894,SIT
16170433774000,3.030024,5.60583308686142,4.16761167894661,6.79875702607569,-0.026267206,0.0033597588,0.007330383,305.00168,-23.786724,33.21297,SIT
16170438727000,3.034977,5.61948509158152,4.17443782385955,6.78282966347676,-0.025350908,0.0012217305,0.007941248,305.0227,-23.791492,33.21157,SIT
16170443789000,3.040039,5.61762271331794,4.15567435969977,6.76452851189376,-0.020463986,0.0018325958,0.0061086523,305.0452,-23.797846,33.210686,SIT
16170448757000,3.045007,5.61304442786759,4.13278269341801,6.74621532228637,-0.025045475,0.005192355,0.0067195175,305.0664,-23.801771,33.21002,SIT
16170453794000,3.050044,5.61966330883464,4.1314308943826,6.76120897191298,-0.029321533,0.009162978,0.0061086523,305.0895,-23.813831,33.215275,SIT
16170458764000,3.055014,5.62938574760494,4.13629216452865,6.78551532264324,-0.028710667,0.0012217305,0.0070249503,305.11307,-23.825415,33.22276,SIT
16170463777000,3.060027,5.62737311414528,4.14349528999261,6.78490410823401,-0.021380283,0.013439035,0.013744468,305.12787,-23.833893,33.226654,SIT
16170468812000,3.065062,5.6227258448935,4.15124095981302,6.77870769531275,-0.03481932,0.007330383,0.009773844,305.14966,-23.839342,33.23551,SIT
16170473792000,3.070042,5.61812934025123,4.15890201953609,6.77257896912648,-0.02443461,0.012217305,0.006414085,305.1676,-23.851322,33.245155,SIT
16170478760000,3.07501,5.61354391152376,4.16654461887429,6.76646501095512,-0.043982297,0.0061086523,0.0033597588,305.18915,-23.853935,33.25817,SIT
16170483769000,3.080019,5.60892064008738,4.17425029119414,6.76030059539949,-0.03145956,0.004276057,0.010995574,305.20667,-23.86487,33.269554,SIT
16170488810000,3.08506,5.60426783287821,4.18200519120699,6.75409679847078,-0.026267206,0.009468411,0.014966198,305.2257,-23.870804,33.27939,SIT
16170493776000,3.090026,5.5995626026503,4.1831520118391,6.75930066301328,-0.03268129,0.012217305,0.0106901415,305.24536,-23.876984,33.28981,SIT
16170498774000,3.095024,5.59474525365674,4.17994035082864,6.77214682080314,-0.031154128,0.007330383,0.015882496,305.2611,-23.88375,33.30235,SIT
16170503864000,3.100114,5.58983922997182,4.17666957160829,6.78522944248188,-0.032986723,0.00580322,0.016798794,305.2859,-23.890121,33.307354,SIT
16170508849000,3.105099,5.58503441109769,4.17346626425792,6.79804218689613,-0.03145956,0.0106901415,0.0143553335,305.30957,-23.897324,33.31198,SIT
16170513781000,3.110031,5.58028067655663,4.17029701413714,6.81071870754831,-0.031154128,0.008246681,0.011911872,305.33194,-23.905058,33.316986,SIT
16170518763000,3.115013,5.57547874924852,4.16709563455448,6.82352374118357,-0.034208454,0.0012217305,0.013133603,305.3536,-23.912111,33.321957,SIT
16170523907000,3.120157,5.56432074105076,4.16278384633422,6.82200952736717,-0.027488936,0.003970624,0.006414085,305.37692,-23.923208,33.323505,SIT
16170528781000,3.125031,5.55046579204512,4.15816557822301,6.81277289469674,-0.032070424,0.0018325958,0.007330383,305.39926,-23.929462,33.32908,SIT
16170533760000,3.13001,5.54205879654587,4.15924611222921,6.79746112944994,-0.03726278,0.01282817,0.0067195175,305.41846,-23.938057,33.328434,SIT
16170538797000,3.135047,5.53724304841769,4.16406170950384,6.77819853921334,-0.025961773,0.011301007,0.0076358155,305.43912,-23.948885,33.331673,SIT
16170543781000,3.140031,5.53394659514371,4.1702530808226,6.78093453047572,-0.035124753,0.0067195175,0.009162978,305.4588,-23.954296,33.332066,SIT
16170548785000,3.145035,5.53157190206145,4.17737743283449,6.79755770441031,-0.04184427,0.005497787,0.01160644,305.4774,-23.962408,33.33223,SIT
16170553804000,3.150054,5.52919009059465,4.18452314081764,6.81423070800297,-0.03359759,0.0106901415,0.0030543262,305.50153,-23.976307,33.333176,SIT
16170559404000,3.155654,5.5265325603667,4.19249603675421,6.83283378035183,-0.04153884,0.0125227375,0.01038471,305.52066,-23.981735,33.33764,SIT
16170563775000,3.160025,5.52327235451424,4.18700633066716,6.84547516303238,-0.032986723,0.0070249503,0.013744468,305.5423,-23.999453,33.343315,SIT
16170568803000,3.165053,5.51880430678296,4.17360195419876,6.85887935288114,-0.038179077,0.013439035,0.011301007,305.5609,-24.011684,33.34559,SIT
16170573785000,3.170035,5.51522798754538,4.16793604122126,6.87264630161356,-0.03940081,-0.0015271631,0.015882496,305.58173,-24.025751,33.352726,SIT
16170578779000,3.175029,5.51281645364058,4.17275938602763,6.88711580722065,-0.027794369,0.011301007,0.017104227,305.5983,-24.042278,33.35041,SIT
16170583781000,3.180031,5.51040105664582,4.17759045745764,6.90160849185155,-0.027794369,0.011911872,0.01740966,305.61884,-24.051044,33.3586,SIT
16170588793000,3.185043,5.50798083078862,4.1824311871672,6.9161301502622,-0.025350908,0.01038471,0.0106901415,305.63904,-24.06382,33.36308,SIT
16170593886000,3.190136,5.50448816151335,4.18288916151335,6.91097654171308,-0.0290161,0.002443461,0.015882496,305.6504,-24.07558,33.365093,SIT
16170598765000,3.195015,5.50000129930862,4.17840229930862,6.88405593068946,-0.034208454,0.009162978,0.01985312,305.66174,-24.08856,33.36272,SIT
16170603781000,3.200031,5.50415915736918,4.17283588560148,6.86480246988855,-0.034208454,0.0033597588,0.009773844,305.67953,-24.103643,33.36162,SIT
16170608798000,3.205048,5.52336923507422,4.16563195601979,6.85999997553601,-0.020158553,0.004581489,0.010079277,305.69058,-24.118017,33.359154,SIT
16170613705000,3.209955,5.5421581231146,4.15858597586086,6.85530277804988,-0.029321533,0.0027488936,0.012217305,305.71246,-24.12142,33.36,SIT
16170618833000,3.215083,5.56179321948123,4.15122266095257,6.85039402958669,-0.029626964,-0.0030543262,0.007941248,305.7364,-24.131044,33.360615,SIT
16170623716000,3.219966,5.5737014,4.14592670713447,6.84575638825917,-0.029626964,0.00061086525,0.015577064,305.75458,-24.136227,33.361206,SIT
16170629394000,3.225644,5.5737014,4.14326770945232,6.84043830959902,-0.025350908,-0.00061086525,0.020158553,305.7765,-24.143583,33.36333,SIT
16170633728000,3.229978,5.5737014,4.14123810466993,6.83637903645477,-0.029626964,0.0070249503,0.014049901,305.7925,-24.145472,33.367447,SIT
16170638775000,3.235025,5.5737014,4.13887460320782,6.83165195949144,-0.028710667,0.0106901415,0.0070249503,305.8081,-24.148947,33.37311,SIT
16170643729000,3.239979,5.5731094682489,4.13777222557021,6.8264875109276,-0.04337143,0.009162978,0.008552114,305.81537,-24.146393,33.367924,SIT
16170648780000,3.24503,5.57087155861207,4.140010111839,6.81977380538515,-0.037873644,0.0061086523,0.007330383,305.8252,-24.150408,33.361107,SIT
16170653798000,3.250048,5.56864827004395,4.14223337719177,6.81310396289614,-0.035124753,0.002443461,0.007330383,305.83417,-24.14982,33.356228,SIT
16170658797000,3.255047,5.5664333996669,4.14444822444136,6.80645937489244,-0.032986723,0.0036651916,0.008552114,305.84283,-24.150484,33.35109,SIT
16170664560000,3.26081,5.56503243760948,4.14766485182895,6.80044084234931,-0.03268129,-0.0018325958,0.0076358155,305.8519,-24.150211,33.34428,SIT
16170668824000,3.265074,5.57204515421604,4.1546776782758,6.80745359556929,-0.02443461,0.0036651916,0.004886922,305.8591,-24.15249,33.334644,SIT
16170673744000,3.269994,5.58013675030053,4.16276940109909,6.81554523390005,-0.030543262,0.010079277,0.0106901415,305.86667,-24.152037,33.327328,SIT
16170678791000,3.275041,5.58505312180567,4.16679828870572,6.81957404236757,-0.042455133,0.0012217305,0.01038471,305.8785,-24.153687,33.321507,SIT
16170683814000,3.280064,5.58789546698573,4.16821950581406,6.82099518527874,-0.032070424,0.0018325958,0.0076358155,305.8867,-24.158545,33.31252,SIT
16170688901000,3.285151,5.59077402759313,4.16965883120329,6.82243443552542,-0.02076942,0.013133603,0.0125227375,305.89294,-24.160313,33.304337,SIT
16170693810000,3.29006,5.59355186404325,4.17104779293628,6.82382332474519,-0.025350908,0.01740966,0.006414085,305.9044,-24.163258,33.296066,SIT
16170700376000,3.296626,5.59726734054182,4.1729055893793,6.82568102419865,-0.03390302,0.0125227375,0.008552114,305.9119,-24.164557,33.28892,SIT
16170703759000,3.300009,5.59918166539632,4.17386278178971,6.82663816663712,-0.028405234,0.0067195175,0.009468411,305.92105,-24.169325,33.28028,SIT
16170708714000,3.304964,5.60198553168484,4.1752647588496,6.8280400705043,-0.032986723,0.0015271631,0.009468411,305.93262,-24.168528,33.274796,SIT
16170713787000,3.310037,5.602432,4.17153731458835,6.8282633,-0.028710667,0.0015271631,0.009468411,305.938430817604,-24.1702042167693,33.2722277496523,SIT
16170718780000,3.31503,5.602432,4.16693279258546,6.8282633,-0.025350908,0.0015271631,0.008857546,305.94415,-24.171854,33.2697,SIT
16170724157000,3.320407,5.602432,4.16197414752046,6.8282633,-0.019242255,-0.0036651916,0.009162978,305.95706,-24.173775,33.267464,SIT
16170728790000,3.32504,5.602432,4.1577016158883,6.8282633,-0.027183503,-0.00061086525,0.01038471,305.96844,-24.174236,33.263874,SIT
16170734394000,3.330644,5.59697533106277,4.156334,6.82644442301595,-0.022296581,0.0009162979,0.0076358155,305.9819,-24.1797,33.261528,SIT
16170739280000,3.33553,5.59050571581713,4.156334,6.82428789961287,-0.028099801,-0.0030543262,0.009162978,305.99408,-24.180044,33.26065,SIT
16170743735000,3.339985,5.58460679319753,4.156334,6.8223216057609,-0.023518313,-0.0027488936,0.0018325958,306.01004,-24.181593,33.25891,SIT
16170748714000,3.344964,5.57801403545949,4.156334,6.8201240351461,-0.028099801,-0.007330383,0.0009162979,306.02502,-24.178589,33.260494,SIT
16170753728000,3.349978,5.5780556173688,4.15459230395922,6.81346143915744,-0.022602014,0.0015271631,0.0036651916,306.0378,-24.178404,33.255825,SIT
16170758703000,3.354953,5.59038471891109,4.14966063759445,6.7986665173067,-0.021685716,0.0015271631,0.01160644,306.05148,-24.175644,33.25518,SIT
16170763665000,3.359915,5.60268160370562,4.14474185799607,6.78391025555326,-0.0290161,0.004276057,0.005192355,306.06772,-24.175505,33.248756,SIT
16170768737000,3.364987,5.61525109175034,4.13971403652831,6.7688268698996,-0.022602014,-0.00580322,0.0076358155,306.08102,-24.176016,33.24803,SIT
16170773731000,3.369981,5.61758231477068,4.1411834479297,6.76923197495928,-0.028099801,-0.0018325958,0.007941248,306.09396,-24.17382,33.24209,SIT
16170778716000,3.374966,5.60939717126447,4.14936871963995,6.78560247564509,-0.028710667,-0.00061086525,0.008552114,306.10815,-24.173912,33.239807,SIT
16170783684000,3.379934,5.6031211279215,4.15702313511745,6.79884384329468,-0.02565634,0.004276057,0.0067195175,306.11765,-24.177889,33.242165,SIT
16170788682000,3.384932,5.60786528956289,4.16176734629795,6.79409948349688,-0.02321288,0.010079277,0.00580322,306.12622,-24.181337,33.244125,SIT
16170793694000,3.389944,5.61081011071567,4.16471220445841,6.78875751697292,-0.03145956,0.004886922,0.010079277,306.13605,-24.183674,33.24545,SIT
16170798683000,3.394933,5.60156859133462,4.15547063682785,6.77951604584139,-0.036957346,0.007941248,0.015882496,306.14322,-24.187027,33.243454,SIT
16170803763000,3.400013,5.59249305890039,4.14639507023821,6.77188830440245,-0.03176499,0.0030543262,0.010079277,306.15863,-24.190031,33.245716,SIT
16170808686000,3.404936,5.58775413327973,4.14165629306463,6.78610483385265,-0.019242255,0.01282817,0.011911872,306.167,-24.191324,33.24541,SIT
16170813711000,3.409961,5.58256674956677,4.13735811167995,6.79988862521662,-0.02321288,0.013744468,0.0143553335,306.1823,-24.18628,33.24895,SIT
16170818716000,3.414966,5.57307392711789,4.13973130490172,6.80463503644106,-0.028710667,0.00580322,0.004276057,306.20053,-24.185787,33.25074,SIT
16170823829000,3.420079,5.56337626454424,4.14215570788731,6.80948386772788,-0.010079277,0.00580322,0.007941248,306.205352616897,-24.1850559118001,33.2521493328316,SIT
16170828682000,3.424932,5.5541717356043,4.14445682810813,6.81408613219785,-0.013744468,0.0018325958,0.014049901,306.20993,-24.184362,33.253487,SIT
16170833897000,3.430147,5.54326136037273,4.14709893506621,6.81834457207455,-0.025350908,0.005497787,0.008857546,306.2267,-24.180178,33.25276,SIT
16170838710000,3.43496,5.52065560343306,4.15162018087298,6.81382342068661,-0.024740042,0.0033597588,0.010995574,306.23987,-24.179434,33.25679,SIT
16170843954000,3.440204,5.4964771502395,4.15653728113084,6.8084998502395,-0.028405234,-0.00030543262,0.013439035,306.25723,-24.179525,33.260567,SIT
16170848664000,3.444914,5.48376744947873,4.16077380381328,6.79579014947873,-0.02565634,0.008857546,0.01038471,306.2736,-24.181938,33.26107,SIT
16170853795000,3.450045,5.46992170115526,4.16538900506246,6.78194440115526,-0.024740042,0.0036651916,0.008552114,306.29855,-24.183176,33.267696,SIT
16170858781000,3.455031,5.47888964563155,4.17012407223165,6.77405949461807,-0.026572637,0.005192355,0.011911872,306.31998,-24.184212,33.270504,SIT
16170863714000,3.459964,5.49068254488268,4.17484140432851,6.76698377969546,-0.030848695,0.004886922,0.012217305,306.34378,-24.18589,33.27419,SIT
16170868778000,3.465028,5.50278861457813,4.17968400918123,6.75972016316026,-0.03573562,0.0027488936,0.013744468,306.36844,-24.188602,33.27719,SIT
16170873722000,3.469972,5.51460781058412,4.18441186036445,6.75262867023964,-0.025350908,0.0015271631,0.009773844,306.39426,-24.194872,33.279167,SIT
16170878776000,3.475026,5.51207063508492,4.18714993891518,6.76207391228769,-0.023518313,0.009468411,0.007330383,306.41577,-24.198805,33.27814,SIT
16170883755000,3.480005,5.5073206338696,4.18952488992379,6.773948915326,-0.036651913,0.009468411,0.012217305,306.43756,-24.201153,33.279766,SIT
16170888780000,3.48503,5.50252674832893,4.19192178263685,6.78593362917767,-0.032070424,0.010079277,0.009468411,306.46158,-24.210436,33.28064,SIT
16170893711000,3.489961,5.49782253945311,4.19427383795388,6.79769415136724,-0.038179077,0.004276057,0.0070249503,306.48486,-24.213472,33.283726,SIT
16170898785000,3.495035,5.50082884785254,4.19089975214746,6.79392020868519,-0.026267206,0.006414085,0.013744468,306.50363,-24.222134,33.285698,SIT
16170903804000,3.500054,5.5051933224916,4.1865352775084,6.78737347393989,-0.03176499,0.015271631,0.015271631,306.52426,-24.226765,33.28623,SIT
16170908779000,3.505029,5.50951953514937,4.18220906485063,6.78088413236629,-0.036651913,0.008857546,0.013439035,306.54605,-24.233894,33.28779,SIT
16170913745000,3.509995,5.51383792149278,4.17789067850722,6.77440653030509,-0.03359759,0.007941248,0.014966198,306.5638,-24.240732,33.286476,SIT
16170918773000,3.515023,5.52344546669619,4.17068465522586,6.77560571938663,-0.04153884,0.016493361,0.015577064,306.57727,-24.247046,33.28065,SIT
16170923794000,3.520044,5.53941704977857,4.16003671080602,6.78625338585031,-0.03573562,0.0143553335,0.011301007,306.59354,-24.25767,33.27734,SIT
16170928774000,3.525024,5.55409991664374,4.15024802379642,6.80212792063274,-0.038789943,0.0033597588,0.015882496,306.6054,-24.261328,33.27802,SIT
16170933764000,3.530014,5.56818566001179,4.14085747919041,6.82090896081745,-0.03604105,0.007941248,0.0106901415,306.61908,-24.269993,33.27346,SIT
16170938786000,3.535036,5.57078629774779,4.13572273365413,6.8297208511261,-0.039095376,0.004581489,0.019242255,306.6273,-24.270672,33.27796,SIT
16170943781000,3.540031,5.56604023003274,4.13334967501736,6.83209388498363,-0.03390302,0.0106901415,0.015577064,306.6382,-24.276842,33.276497,SIT
16170948789000,3.545039,5.5612818101895,4.13097044025201,6.83447309490525,-0.035124753,-0.003970624,0.01038471,306.64746,-24.276499,33.283302,SIT
16170954544000,3.550794,5.55581361805735,4.12823631563647,6.83720719097133,-0.024129177,-0.00030543262,0.013133603,306.65128,-24.27944,33.2846,SIT
16170958806000,3.555056,5.55871671688209,4.12899309164067,6.83089204179666,-0.03604105,-0.0012217305,0.017104227,306.65048,-24.286942,33.28705,SIT
16170963813000,3.560063,5.56584052760858,4.13136772827713,6.81901885861437,-0.03023783,0.0009162979,0.014049901,306.64987,-24.301329,33.287266,SIT
16170968846000,3.565096,5.57300133036201,4.13375469576091,6.80708402119546,-0.023518313,0.00061086525,0.018325957,306.646,-24.310545,33.28892,SIT
16170973829000,3.570079,5.58009099460209,4.13611795007676,6.7952677496162,-0.03176499,-0.0067195175,0.013133603,306.64667,-24.319483,33.29011,SIT
16170978816000,3.575066,5.58070012690838,4.14233616731504,6.79253391346889,-0.030543262,-0.0076358155,0.014049901,306.63766,-24.332254,33.286175,SIT
16170983816000,3.580066,5.57600796620284,4.15172070920627,6.79722614766781,-0.025350908,-0.0033597588,0.015882496,306.6304,-24.344368,33.28238,SIT
16170988864000,3.585114,5.57127076075453,4.16119534269966,6.80196342731504,-0.028099801,-0.0021380284,0.0125227375,306.62634,-24.356222,33.281662,SIT
16170993823000,3.590073,5.56661707576678,4.17050293134738,6.80661718519353,-0.029932396,0.0070249503,0.015577064,306.6178,-24.367596,33.27921,SIT
16170998803000,3.595053,5.56855635045799,4.1666242908403,6.81797331660693,-0.026267206,0.008857546,0.016187929,306.60693,-24.38908,33.279,SIT
16171003845000,3.600095,5.57817118944644,4.14739416107129,6.83720324557945,-0.032070424,0.0027488936,0.016798794,306.5951,-24.406685,33.27913,SIT
16171008826000,3.605076,5.58546890404291,4.1262260085527,6.84084440225489,-0.031154128,0.0018325958,0.014660766,306.5855,-24.425941,33.27046,SIT
16171013814000,3.610064,5.59021411870468,4.10250043072415,6.82660900600973,-0.03176499,0.013439035,0.010995574,306.57532,-24.443056,33.26042,SIT
16171018794000,3.615044,5.5991102406994,4.0955515406994,6.82077158023313,-0.028099801,0.010995574,0.015882496,306.56104,-24.452358,33.25422,SIT
16171024350000,3.6206,5.61487889647338,4.11132019647338,6.82602779882446,-0.033292156,0.004886922,0.008552114,306.55048,-24.461847,33.2443,SIT
16171028708000,3.624958,5.6178995667792,4.11986963585415,6.83379210756246,-0.026267206,0.004886922,0.01740966,306.52954,-24.467552,33.239708,SIT
16171033813000,3.630063,5.60846789831195,4.12458551933057,6.8479397579917,-0.031154128,-0.002443461,0.016187929,306.51633,-24.472069,33.23634,SIT
16171038715000,3.634965,5.60096255602477,4.12907291328829,6.8614019245214,-0.029932396,0.0033597588,0.015882496,306.4912,-24.482063,33.224045,SIT
16171043815000,3.640065,5.59637896931306,4.13365640427928,6.87515234963401,-0.027488936,0.0070249503,0.02076942,306.46692,-24.490105,33.215187,SIT
16171048737000,3.644987,5.5918864834512,4.13766455321782,6.88184993886139,-0.03481932,0.009468411,0.018020526,306.4453,-24.497812,33.202522,SIT
16171053888000,3.650138,5.58690263855324,4.14015644964639,6.86191458528996,-0.03176499,0.004581489,0.016798794,306.42285,-24.506918,33.19228,SIT
16171058815000,3.655065,5.58213552463124,4.14253998171853,6.84284615449081,-0.017715093,0.007941248,0.015577064,306.40024,-24.517363,33.178062,SIT
16171063818000,3.660068,5.57729487698525,4.14496028026874,6.82348358917963,-0.024740042,0.003970624,0.014049901,306.38055,-24.523563,33.167255,SIT
16171068795000,3.665045,5.57429032033304,4.14734594493135,6.80852077351738,-0.03359759,-0.0030543262,0.00580322,306.36356,-24.533447,33.155853,SIT
16171073826000,3.670076,5.57663620964067,4.1496919322232,6.8061748597137,-0.023823744,0.0061086523,0.013439035,306.34058,-24.543106,33.143997,SIT
16171078773000,3.675023,5.57894293085013,4.15199874978089,6.80386811441718,-0.038789943,0.00061086525,0.0125227375,306.334,-24.549152,33.13989,SIT
16171083807000,3.680057,5.5812902190184,4.15434613599182,6.80152080173824,-0.029321533,0.00580322,0.011301007,306.3221,-24.561378,33.132244,SIT
16171088796000,3.685046,5.58121305791506,4.15702231642412,6.7967796983665,-0.030543262,0.003970624,0.015882496,306.30847,-24.565424,33.12426,SIT
16171093780000,3.69003,5.5670372020592,4.16174761815662,6.77787824472824,-0.029321533,0.008552114,0.012217305,306.29602,-24.573547,33.112534,SIT
16171098783000,3.695033,5.55590339558762,4.16563962371306,6.76258109558762,-0.025350908,0.0033597588,0.01985312,306.27997,-24.580746,33.105408,SIT
16171103822000,3.700072,5.56706326219879,4.16340767369687,6.77374096219879,-0.03634648,0.012217305,0.013744468,306.26624,-24.58746,33.0917,SIT
16171108800000,3.70505,5.57808803219093,4.16120274272235,6.78476573219093,-0.034513887,0.008246681,0.013133603,306.25424,-24.596241,33.081665,SIT
16171113794000,3.710044,5.58914823736182,4.15899072478609,6.79582593736182,-0.030543262,0.0036651916,0.01282817,306.24292,-24.603748,33.069363,SIT
16171118810000,3.71506,5.60025716590352,4.15676896227742,6.80693486590352,-0.027183503,0.004276057,0.014966198,306.2311,-24.610975,33.057575,SIT
16171123850000,3.7201,5.59866688994381,4.14880389782988,6.81287473142802,-0.029321533,0.006414085,0.014049901,306.2211,-24.61816,33.046562,SIT
16171128717000,3.724967,5.59415117021895,4.1397725998353,6.81739035684945,-0.029626964,0.0070249503,0.020158553,306.2088,-24.624683,33.037563,SIT
16171133808000,3.730058,5.58304086114296,4.14372309339745,6.80887232698354,-0.022296581,0.0012217305,0.012217305,306.19833,-24.631544,33.02985,SIT
16171138769000,3.735019,5.56986058424265,4.15250999054004,6.79569200420751,-0.035430185,0.01282817,0.019547688,306.17877,-24.629807,33.02112,SIT
16171143784000,3.740034,5.56130406069919,4.1478721759307,6.78713543124678,-0.03359759,0.010995574,0.016187929,306.1667,-24.63472,33.014736,SIT
16171148823000,3.745073,5.55632762598742,4.13294250804373,6.78215894457048,-0.020463986,0.005497787,0.017715093,306.14993,-24.637037,33.00858,SIT
16171153873000,3.750123,5.54510200457536,4.130752143223,6.78982522966899,-0.023518313,0.014049901,0.016493361,306.14648,-24.636707,33.0072,SIT
16171158795000,3.755045,5.53078759894726,4.13552357855046,6.80413953565138,-0.028405234,0.005192355,0.017715093,306.14575,-24.638186,33.0121,SIT
16171163794000,3.760044,5.52287742873939,4.13130035747877,6.80028978621816,-0.0290161,0.0061086523,0.01282817,306.1427,-24.636246,33.00977,SIT
16171168805000,3.765055,5.51839955761874,4.12234461523747,6.78685617285621,-0.028710667,0.008857546,0.0106901415,306.1397,-24.632843,33.00985,SIT
16171173787000,3.770037,5.51882734408421,4.11543998292632,6.78296601707368,-0.01863139,0.0036651916,0.014966198,306.13852,-24.637127,33.013805,SIT
16171178811000,3.775061,5.52389195915789,4.11037542073684,6.78803057926316,-0.0290161,0.0009162979,0.020158553,306.13684,-24.636892,33.016327,SIT
16171183800000,3.78005,5.53164601577387,4.11427858534295,6.78704172254398,-0.026572637,0.0061086523,0.01985312,306.1326,-24.642445,33.017303,SIT
16171188874000,3.785124,5.54125121110892,4.12388373052975,6.78223917502471,-0.03176499,0.008246681,0.015577064,306.12903,-24.643547,33.019882,SIT
16171193839000,3.790089,5.55029588184598,4.13292835404504,6.78570420964693,-0.032375857,0.009773844,0.016493361,306.12195,-24.644073,33.022663,SIT
16171198808000,3.795058,5.55911566114355,4.14174808729497,6.79452403499212,-0.030848695,0.011911872,0.014049901,306.11676,-24.64517,33.023716,SIT
16171203734000,3.799984,5.56724340928697,4.14779662480652,6.79537457676194,-0.038179077,0.014049901,0.020463986,306.10977,-24.643522,33.026527,SIT
16171208702000,3.804952,5.57460759395315,4.15025140429264,6.78555563824167,-0.03726278,0.009468411,0.019242255,306.1067,-24.645767,33.029106,SIT
16171213715000,3.809965,5.58203848319059,4.1527284191002,6.77564776006088,-0.032375857,0.009162978,0.020158553,306.10843,-24.644152,33.039597,SIT
16171218754000,3.815004,5.58950791284697,4.15521828098235,6.76568849452069,-0.03726278,0.0070249503,0.015577064,306.11313,-24.641737,33.050415,SIT
16171223721000,3.819971,5.58895625464109,4.15503439107349,6.76642404071532,-0.04153884,0.002443461,0.012217305,306.1176,-24.64026,33.061928,SIT
16171228719000,3.824969,5.58176322056805,4.15263666297651,6.77601477784902,-0.034208454,0.003970624,0.015271631,306.1207,-24.640068,33.072414,SIT
16171233718000,3.829968,5.57456874731253,4.15023845514201,6.78560743389771,-0.031154128,0.008857546,0.014966198,306.1268,-24.639927,33.08414,SIT
16171238751000,3.835001,5.56732534185243,4.14782393623203,6.79526533305615,-0.03573562,0.01160644,0.012217305,306.13263,-24.639624,33.09575,SIT
16171243711000,3.839961,5.56802895476084,4.14545556200268,6.79302574206527,-0.035124753,0.0076358155,0.015271631,306.13452,-24.644537,33.10905,SIT
16171248703000,3.844953,5.57515268976308,4.14308100846372,6.78115285039487,-0.04062254,0.0036651916,0.019547688,306.1363,-24.6471,33.121174,SIT
16171253730000,3.84998,5.58232637082402,4.14068980641236,6.7691967152933,-0.035430185,0.012217305,0.018020526,306.1432,-24.648548,33.134,SIT
16171258723000,3.854973,5.5894515328565,4.13831477720161,6.75732144523916,-0.03481932,0.0021380284,0.014049901,306.15317,-24.64746,33.152187,SIT
16171263718000,3.859968,5.59039766909162,4.13963755393236,6.76393539795517,-0.02687807,0.0106901415,0.020463986,306.15567,-24.64774,33.164474,SIT
16171268750000,3.865,5.58566001042076,4.14437506419583,6.78762319661817,-0.028710667,0.0033597588,0.014660766,306.16724,-24.648735,33.180416,SIT
16171273720000,3.86997,5.5797863827265,4.1514126517408,6.7983690870648,-0.032375857,0.0018325958,0.020463986,306.1703,-24.647455,33.198013,SIT
16171278870000,3.87512,5.57241678069433,4.16123912980027,6.79591246754993,-0.029321533,0.0033597588,0.0143553335,306.1791,-24.65033,33.213623,SIT
16171283705000,3.879955,5.5654979407282,4.17046457085222,6.79360610728695,-0.029932396,0.0067195175,0.013133603,306.18994,-24.645393,33.23136,SIT
16171288723000,3.884973,5.55831722946655,4.18003918578473,6.79121245355382,-0.02565634,0.01038471,0.01740966,306.20035,-24.642561,33.247993,SIT
16171293689000,3.889939,5.55017401566784,4.1806909471602,6.7790212675284,-0.034513887,0.008246681,0.019547688,306.21356,-24.63996,33.268864,SIT
16171298702000,3.894952,5.54077144986291,4.17128823408735,6.75551534390913,-0.031154128,0.0067195175,0.018020526,306.22556,-24.64106,33.28812,SIT
16171303696000,3.899946,5.53930196719424,4.17177263038849,6.73230228604316,-0.03023783,0.007330383,0.016187929,306.24124,-24.643433,33.304356,SIT
16171308701000,3.904951,5.54849772450839,4.18556621835012,6.70931337285372,-0.027183503,0.0009162979,0.015577064,306.25815,-24.647116,33.322105,SIT
16171313762000,3.910012,5.55290728914729,4.18643811426357,6.70075072348837,-0.028099801,0.010995574,0.014049901,306.2678,-24.655693,33.333622,SIT
16171318829000,3.915079,5.54820509350775,4.16292733246124,6.71955916235465,-0.034208454,0.005497787,0.015882496,306.28012,-24.663055,33.350483,SIT
16171323725000,3.919975,5.55038803517739,4.1426942165464,6.74603795864903,-0.034208454,0.005192355,0.020158553,306.29245,-24.673935,33.36455,SIT
16171328816000,3.925066,5.56993312808178,4.12803537135698,6.79490094602125,-0.03359759,0.008246681,0.016798794,306.30658,-24.684324,33.377827,SIT
16171333779000,3.930029,5.5860127093615,4.11939402612578,6.8350999306289,-0.036957346,0.0067195175,0.014049901,306.31497,-24.68842,33.392654,SIT
16171338821000,3.935071,5.59528534191071,4.12403024557849,6.85828102789246,-0.029321533,0.009468411,0.0125227375,306.3225,-24.695396,33.404938,SIT
16171343761000,3.940011,5.60140980678481,4.12964783306329,6.87103644065823,-0.03634648,0.0067195175,0.014660766,306.32657,-24.691317,33.42106,SIT
16171349123000,3.945373,5.59620961701266,4.14004794111392,6.84503603478481,-0.038179077,0.010079277,0.008857546,306.33176,-24.6918,33.433205,SIT
16171353828000,3.950078,5.59166586776283,4.14318969020429,6.83183062221226,-0.03390302,0.005497787,0.014660766,306.33356,-24.688852,33.449158,SIT
16171358820000,3.95507,5.58690170393622,4.12889754694569,6.84612281521674,-0.035124753,0.0061086523,0.015577064,306.33688,-24.686172,33.46107,SIT
16171363796000,3.960046,5.58656476279837,4.12021785994566,6.86137603133126,-0.036651913,0.00061086525,0.0106901415,306.34378,-24.686445,33.472595,SIT
16171368903000,3.965153,5.60080182608189,4.12970916939647,6.88035869978653,-0.038179077,0.004581489,0.009468411,306.3474,-24.68567,33.481968,SIT
16171373809000,3.970059,5.61034990685173,4.13303356712931,6.88783687217281,-0.032986723,0.0061086523,0.01038471,306.35016,-24.683992,33.49231,SIT
16171378816000,3.975066,5.60097623123839,4.10959937809598,6.84565528297332,-0.028710667,0.004886922,0.01160644,306.35287,-24.682024,33.501957,SIT
16171383774000,3.980024,5.59174966468097,4.08901996472751,6.8091097,-0.020463986,0.005192355,0.013133603,306.35605,-24.680916,33.51221,SIT
16171388810000,3.98506,5.5827714894122,4.0867754091916,6.8091097,-0.022296581,0.0018325958,0.010995574,306.3607,-24.678976,33.523014,SIT
16171393904000,3.990154,5.57368991180714,4.08450500293666,6.8091097,-0.03756821,0.003970624,0.014966198,306.357,-24.674435,33.532192,SIT
16171398825000,3.995075,5.56491675841206,4.08231170313678,6.8091097,-0.019547688,0.004581489,0.019547688,306.35455,-24.677294,33.54213,SIT
16171403732000,3.999982,5.55616856420161,4.08012464316564,6.8091097,-0.01985312,0.009773844,0.015882496,306.35477,-24.671045,33.55071,SIT
16171408716000,4.004966,5.55147844871795,4.08892799358974,6.82138768076923,-0.028099801,0.0061086523,0.016493361,306.35376,-24.66562,33.56234,SIT
16171413698000,4.009948,5.5477256868806,4.10018608317603,6.83639845382256,-0.032070424,-0.0009162979,0.016493361,306.35364,-24.661913,33.572693,SIT
16171418706000,4.014956,5.54910198876118,4.11120397812899,6.84190900060664,-0.028405234,-0.0015271631,0.019547688,306.35034,-24.656336,33.576717,SIT
16171423700000,4.01995,5.56437227586207,4.12138411637931,6.82154856465517,-0.022907447,0.0012217305,0.0143553335,306.3501,-24.651926,33.58038,SIT
16171428695000,4.024945,5.57555271381219,4.13007190123305,6.80972680030826,-0.015271631,-0.00030543262,0.013744468,306.34805,-24.6507,33.582153,SIT
16171433696000,4.029946,5.58031527573337,4.13642193959031,6.81131430989758,-0.02076942,-0.0015271631,0.011911872,306.3474,-24.648888,33.582317,SIT
16171438696000,4.034946,5.58507688533263,4.14277070819384,6.81290150204846,-0.02076942,-0.0030543262,0.009773844,306.34918,-24.651697,33.584763,SIT
16171443703000,4.039953,5.58984516118532,4.14912836507342,6.81449091626835,-0.019547688,0.0018325958,0.01740966,306.34766,-24.65212,33.58703,SIT
16171448661000,4.044911,5.59456677326395,4.15542380402068,6.81606477600517,-0.03023783,-0.0076358155,0.01160644,306.3535,-24.65253,33.590973,SIT
16171453768000,4.050018,5.59943028130863,4.16190843627233,6.81768593406808,-0.021991149,-0.0015271631,0.0076358155,306.353,-24.65585,33.591198,SIT
16171458720000,4.05497,5.59702530057501,4.16771301468897,6.82229092237324,-0.021685716,-0.007330383,0.012217305,306.35413,-24.654215,33.59524,SIT
16171463729000,4.059979,5.58197965756404,4.172728455954,6.8323212288552,-0.0125227375,0.01038471,0.013744468,306.3523,-24.657671,33.590992,SIT
16171468757000,4.065007,5.58225090475442,4.17335051222004,6.82074101280943,-0.024129177,0.00061086525,0.01038471,306.35846,-24.658459,33.595078,SIT
16171473788000,4.070038,5.60118248856582,4.16861736916503,6.78287789460707,-0.017715093,-0.0012217305,0.0036651916,306.3608,-24.665627,33.59266,SIT
16171478686000,4.074936,5.61008164772999,4.16205669485265,6.76315269251294,-0.02321288,-0.008552114,0.011911872,306.3597,-24.662487,33.5845,SIT
16171483720000,4.07997,5.60528190615293,4.15245696110116,6.76795253432895,-0.026572637,-0.002443461,0.008552114,306.36215,-24.664516,33.57126,SIT
16171488679000,4.084929,5.59682033214357,4.15049810539362,6.78015521465398,-0.02076942,0.0061086523,0.01282817,306.36078,-24.664503,33.566162,SIT
16171493766000,4.090016,5.58232969539956,4.16015851307753,6.80430610777315,-0.029321533,-0.00061086525,0.007330383,306.36493,-24.662853,33.56171,SIT
