timestamp,rel_time,acc_x,acc_y,acc_z,gyro_x,gyro_y,gyro_z,azimuth,pitch,roll,label
9808328583000,0,3.53347918681043,1.74960498572972,8.74970726783785,-0.025350908,0.004886922,0.019242255,83.529175,-5.5032754,14.169311,SIT
9808333737000,0.005154,3.53199056435698,1.75059739724446,8.74846675344442,-0.035430185,0.008246681,0.007941248,83.49822,-5.591443,14.218357,SIT
9808338635000,0.010052,3.53057588201764,1.75154051552138,8.74728785559828,-0.03145956,0.003970624,0.010079277,83.46068,-5.6827326,14.267347,SIT
9808343550000,0.014967,3.5291562895926,1.75248690717736,8.7461048660283,-0.040011674,0.004581489,0.0125227375,83.4259,-5.766969,14.312542,SIT
9808348644000,0.020061,3.5276849968534,1.75346776558948,8.74487879301314,-0.02565634,-0.0036651916,0.008246681,83.39269,-5.857459,14.360204,SIT
9808353617000,0.025034,3.52624865237126,1.75442532524467,8.74368184344417,-0.02443461,0.0070249503,0.0143553335,83.35496,-5.9395742,14.4015875,SIT
9808358611000,0.030028,3.52480624248913,1.75538692848576,8.7424798393928,-0.032375857,0.0061086523,0.013439035,83.321,-6.0224214,14.447154,SIT
9808363660000,0.035077,3.52334794703561,1.75635912207092,8.74126459741134,-0.035124753,-0.00580322,0.011911872,83.28532,-6.105194,14.491981,SIT
9808368618000,0.040035,3.52191593498203,1.75731379345045,8.74007125818694,-0.032375857,-0.0021380284,0.0125227375,83.248726,-6.1858106,14.531699,SIT
9808373600000,0.045017,3.52047699104275,1.75827308607102,8.73887214241122,-0.026572637,0.007330383,0.008552114,83.214035,-6.2656054,14.571908,SIT
9808378606000,0.050023,3.51903111521777,1.75923699993264,8.73766725008419,-0.030848695,0.009162978,0.01160644,83.177185,-6.3414764,14.612501,SIT
9808383604000,0.055021,3.51758755002136,1.76019937338058,8.73646428327427,-0.037873644,0.0015271631,0.015271631,83.14123,-6.41708,14.652131,SIT
9808388673000,0.06009,3.51612347799643,1.76117541799995,8.73524422750006,-0.032986723,0.00580322,0.018020526,83.10416,-6.493353,14.687111,SIT
9808393595000,0.065012,3.51470186377139,1.76212315751791,8.73405955310262,-0.032070424,0.012217305,0.015882496,83.067635,-6.5654616,14.722741,SIT
9808398684000,0.070101,3.51541263523761,1.75995849428717,8.73428955012358,-0.030543262,0.0033597588,0.013439035,83.030846,-6.637714,14.760782,SIT
9808403640000,0.075057,3.51612505186875,1.75782124439374,8.73452702729329,-0.035124753,0.004886922,0.011911872,82.99387,-6.70743,14.793291,SIT
9808408603000,0.08002,3.51683847473807,1.75568097578578,8.73476483988272,-0.038789943,-0.01282817,0.011911872,82.95713,-6.7809215,14.830831,SIT
9808413597000,0.085014,3.51755635380505,1.75352733858485,8.73500413790239,-0.028099801,0.005497787,0.01160644,82.91959,-6.856037,14.856973,SIT
9808418608000,0.090025,3.51827667659332,1.75136637022005,8.73524425051284,-0.029626964,0.004581489,0.01282817,82.883,-6.92547,14.892868,SIT
9808423599000,0.095016,3.51899412441536,1.74921402675393,8.7354834047812,-0.03390302,0.01038471,0.021380283,82.843475,-6.9953666,14.921298,SIT
9808428616000,0.100033,3.51971530969349,1.74705047091952,8.73572380489428,-0.03604105,-0.00061086525,0.014049901,82.80896,-7.065347,14.953646,SIT
9808433595000,0.105012,3.5204310325358,1.7449033023926,8.73596238415739,-0.029321533,-0.0018325958,0.013744468,82.76946,-7.134348,14.981601,SIT
9808438604000,0.110021,3.52115106782744,1.74274319651767,8.73620240093362,-0.030543262,-0.0070249503,0.011911872,82.73323,-7.2001333,15.012873,SIT
9808443597000,0.115014,3.52186880314611,1.74058999056168,8.73644165103619,-0.027183503,0.00580322,0.020463986,82.6935,-7.2671795,15.039146,SIT
9808449548000,0.120965,3.52272424934706,1.73802365195881,8.73672680572484,-0.036957346,0.011911872,0.018325957,82.657974,-7.330105,15.067704,SIT
9808453612000,0.125029,3.52330844248447,1.73627107254661,8.73692154083736,-0.03176499,0.007330383,0.016798794,82.61985,-7.39636,15.095506,SIT
9808458603000,0.13002,3.52402589030651,1.73411872908048,8.73716069510572,-0.03970624,-0.00030543262,0.016187929,82.58213,-7.455397,15.121967,SIT
9808463593000,0.13501,3.52474319438024,1.7319668168593,8.73739980145698,-0.038179077,0.013439035,0.015271631,82.54447,-7.517625,15.14314,SIT
9808468619000,0.140036,3.52546567339317,1.72979937982048,8.73764063282399,-0.034513887,0.01863139,0.014966198,82.50763,-7.5773115,15.16839,SIT
9808473567000,0.144984,3.52617694003783,1.72766557988652,8.73787772665686,-0.04337143,0.0036651916,0.01038471,82.47275,-7.6334195,15.194889,SIT
9808478591000,0.150008,3.52689913155414,1.72549900533758,8.73811846218967,-0.03970624,0.009468411,0.016798794,82.43387,-7.6922555,15.214142,SIT
9808483611000,0.155028,3.52762074807721,1.72333415576836,8.73835900605406,-0.039095376,0.004886922,0.0143553335,82.40015,-7.7479296,15.2396145,SIT
9808488627000,0.160044,3.52834178960704,1.72117103117889,8.73859935825003,-0.03970624,0.009162978,0.008552114,82.36514,-7.803184,15.260666,SIT
9808493639000,0.165056,3.52906225614362,1.71900963156915,8.73883951877758,-0.042760566,0.0070249503,0.012217305,82.32874,-7.8565345,15.284717,SIT
9808498641000,0.170058,3.52978128519708,1.71685254440875,8.73907920013409,-0.034208454,0.012217305,0.01282817,82.29462,-7.912724,15.304767,SIT
9808503607000,0.175024,3.53049513931134,1.71471098206598,8.73931715647484,-0.04642576,0.023518313,0.01740966,82.25827,-7.9609303,15.323638,SIT
9808508598000,0.180015,3.53121258713338,1.71255863859986,8.7395563107432,-0.04642576,0.0125227375,0.0143553335,82.22492,-8.014558,15.34677,SIT
9808513655000,0.185072,3.53193952234397,1.71037783296809,8.73979862754045,-0.03726278,0.017715093,0.017104227,82.18763,-8.0658045,15.362348,SIT
9808519336000,0.190753,3.53275615650086,1.70792793049743,8.74007084461089,-0.034513887,0.023823744,0.0125227375,82.15406,-8.115329,15.380052,SIT
9808523607000,0.195024,3.53337010553871,1.70608608338387,8.74027549856404,-0.046120327,0.015271631,0.01740966,82.11757,-8.16171,15.40072,SIT
9808528589000,0.200006,3.53408625962595,1.70393762112215,8.74051422157846,-0.03940081,0.015882496,0.019242255,82.08288,-8.213694,15.416583,SIT
9808533612000,0.205029,3.53480830739395,1.70177147781814,8.74075490919416,-0.03023783,0.01038471,0.013133603,82.049995,-8.262691,15.436213,SIT
9808538604000,0.210021,3.53552589896431,1.69961870310708,8.74099411137962,-0.042455133,0.0125227375,0.014049901,82.01446,-8.306251,15.453649,SIT
9808544358000,0.215775,3.53635302674792,1.69713731975624,8.74126982639869,-0.03573562,0.002443461,0.01863139,81.98059,-8.356964,15.475726,SIT
9808548645000,0.220062,3.53696927575876,1.69528857272373,8.74147524702551,-0.033292156,-0.002443461,0.019547688,81.94749,-8.402649,15.495355,SIT
9808553659000,0.225076,3.53769002979196,1.69312631062412,8.74171550338727,-0.026267206,0.0012217305,0.021380283,81.91307,-8.450321,15.515311,SIT
9808558601000,0.230018,3.53840043394674,1.69099509815977,8.74195230971751,-0.035124753,0.0067195175,0.021991149,81.87914,-8.493611,15.535738,SIT
9808563670000,0.235087,3.53912909413707,1.68880911758878,8.74219520152002,-0.03726278,0.004581489,0.014660766,81.847435,-8.540443,15.556682,SIT
9808568623000,0.24004,3.53984107952328,1.68667316143016,8.74243253493841,-0.039095376,0.004886922,0.015882496,81.81296,-8.583551,15.575505,SIT
9808573603000,0.24502,3.5405569461139,1.68452556165831,8.74267116211862,-0.036957346,0.00580322,0.016187929,81.78122,-8.627145,15.594111,SIT
9808578594000,0.250011,3.54127439393594,1.68237321819219,8.74291031638698,-0.03634648,0.009468411,0.022907447,81.74735,-8.668581,15.611924,SIT
9808583634000,0.255051,3.54199888542523,1.6801997437243,8.74315181859346,-0.03726278,0.013439035,0.015577064,81.71773,-8.710624,15.628515,SIT
9808588912000,0.260329,3.54275758901264,1.67792363296208,8.7434047250708,-0.035124753,0.0033597588,0.017715093,81.68412,-8.751816,15.648551,SIT
9808593873000,0.26529,3.54355704965546,1.67592386883831,8.74341702533584,-0.02687807,0.0076358155,0.013744468,81.653885,-8.794873,15.662622,SIT
9808598649000,0.270066,3.54537625502491,1.67569646876075,8.74068821490718,-0.033292156,0.008857546,0.010995574,81.62353,-8.833605,15.680292,SIT
9808603613000,0.27503,3.54726707065597,1.67546011742386,8.73785198899263,-0.04153884,0.009468411,0.0125227375,81.59539,-8.864944,15.6977,SIT
9808608598000,0.280015,3.54916588530561,1.67522276621225,8.73500376453977,-0.04184427,0.014966198,0.008857546,81.56953,-8.896869,15.71278,SIT
9808613612000,0.285029,3.55107574621901,1.67498403422128,8.73213897067685,-0.04520403,0.009468411,0.015577064,81.54094,-8.924349,15.7311125,SIT
9808618623000,0.29004,3.55298446441548,1.67474544506955,8.72927589089083,-0.04184427,0.011301007,0.009773844,81.51675,-8.954465,15.744903,SIT
9808623601000,0.295018,3.55488061272559,1.67450842714952,8.72643166595074,-0.036957346,0.013744468,0.0143553335,81.48807,-8.982381,15.760639,SIT
9808628578000,0.299995,3.55677638013006,1.67427145684257,8.72358801236962,-0.046120327,0.015577064,0.013744468,81.46281,-9.007828,15.775323,SIT
9808633613000,0.30503,3.55869424006205,1.67403172497688,8.72071121996838,-0.03756821,0.018325957,0.0143553335,81.43594,-9.03865,15.789164,SIT
9808638608000,0.310025,3.56059686376816,1.67379389763446,8.71785728192584,-0.047036625,0.01160644,0.014966198,81.40993,-9.061698,15.804979,SIT
9808643610000,0.315027,3.5625021538138,1.67355573700047,8.71499934437053,-0.03756821,0.011911872,0.016798794,81.383194,-9.091788,15.818005,SIT
9808648652000,0.320069,3.56442268008531,1.67331567184321,8.71211855245652,-0.035430185,0.015271631,0.017715093,81.357,-9.116963,15.831867,SIT
9808653607000,0.325024,3.56631006756555,1.67307974902405,8.70928746877268,-0.03726278,0.006414085,0.0125227375,81.33295,-9.143628,15.848715,SIT
9808658813000,0.33023,3.56829306236315,1.67283187532142,8.70631297398801,-0.02565634,0.0009162979,0.012217305,81.30713,-9.173756,15.863802,SIT
9808663601000,0.335018,3.57011683860036,1.67260390388688,8.70357730725174,-0.033292156,0.00580322,0.019547688,81.28078,-9.197517,15.878361,SIT
9808668610000,0.340027,3.57202479498553,1.67236540996132,8.70071537018366,-0.034208454,0.011301007,0.01863139,81.25735,-9.226562,15.893641,SIT
9808673598000,0.345015,3.57392475235212,1.67212791591047,8.69786543165389,-0.034208454,-0.0027488936,0.01740966,81.232864,-9.252843,15.91318,SIT
9808678592000,0.350009,3.57582699515258,1.67189013618113,8.69501206497032,-0.03359759,0.0033597588,0.019242255,81.206764,-9.278525,15.925421,SIT
9808683589000,0.355006,3.57773038066999,1.67165221361254,8.69215698420984,-0.02443461,-0.008857546,0.012217305,81.18547,-9.307016,15.946039,SIT
9808688605000,0.360022,3.57964100339468,1.67141338639541,8.68929104762899,-0.026572637,-0.002443461,0.014049901,81.16007,-9.331374,15.959963,SIT
9808693601000,0.365018,3.58154400800644,1.67117551143991,8.68643653822749,-0.027183503,-0.00580322,0.0106901415,81.139534,-9.359224,15.979187,SIT
9808698617000,0.370034,3.58345463073114,1.67093668422277,8.68357060164663,-0.022907447,-0.008246681,0.004581489,81.11909,-9.387515,15.996046,SIT
9808703602000,0.375019,3.58535344538078,1.67069933301117,8.68072237719377,-0.014660766,0.0015271631,0.013439035,81.094955,-9.4154,16.0107,SIT
9808708609000,0.380026,3.58726063995466,1.67046093431177,8.67786158284362,-0.025350908,0.0015271631,0.009162978,81.0885764796775,-9.42372553871269,16.0155208388859,SIT
9808713611000,0.385028,3.5891659300003,1.67022277367777,8.67500364528831,-0.02443461,0.0015271631,0.009162978,81.0822043289579,-9.43204276352612,16.0203368636727,SIT
9808718610000,0.390027,3.591070077329,1.66998475588303,8.6721474218099,-0.02443461,0.0106901415,0.012217305,81.075836,-9.440355,16.02515,SIT
9808723598000,0.395015,3.59297003469558,1.66974726183217,8.66929748328014,-0.036651913,0.010079277,0.008857546,81.05494,-9.465921,16.039745,SIT
9808728596000,0.400013,3.59487380111864,1.66950929165051,8.6664418311607,-0.03145956,0.005497787,0.01038471,81.03289,-9.492906,16.052963,SIT
9808733615000,0.405032,3.59678556656027,1.66927032159413,8.66357418050294,-0.03573562,0.0076358155,0.014660766,81.0109,-9.513656,16.064331,SIT
9808738604000,0.410021,3.5986859048325,1.6690327799302,8.66072367061421,-0.03145956,0.0076358155,0.0106901415,80.991455,-9.538383,16.07712,SIT
9808744338000,0.415755,3.60087001781165,1.6687597665205,8.6574474982947,-0.030543262,0.0009162979,0.0070249503,80.97112,-9.560352,16.091307,SIT
9808748623000,0.42004,3.60250219850849,1.66855574446599,8.65499922511907,-0.022907447,-0.00061086525,0.011301007,80.94956,-9.584696,16.104109,SIT
9808753613000,0.42503,3.60440291768636,1.66831815518897,8.65214814387137,-0.023823744,-0.009162978,0.004276057,80.93326,-9.607797,16.119877,SIT
9808758605000,0.430022,3.60630439867554,1.6680804706858,8.64929591990574,-0.016187929,-0.00061086525,0.008552114,80.91176,-9.633721,16.131842,SIT
9808763634000,0.435051,3.60821997317364,1.6678410244986,8.6464225556583,-0.025961773,0.006414085,0.0143553335,80.892494,-9.654662,16.146126,SIT
9808768655000,0.440072,3.61013250042657,1.66760195921606,8.64355376228261,-0.03268129,0.009468411,0.013133603,80.87393,-9.678354,16.158817,SIT
9808774405000,0.445822,3.61232270789607,1.66732818399706,8.64026844821963,-0.036957346,0.00061086525,0.018020526,80.85234,-9.698753,16.173378,SIT
9808778591000,0.450008,3.61391717893387,1.66712887563762,8.63787673958178,-0.03481932,0.0012217305,0.016187929,80.83265,-9.719433,16.183937,SIT
9808783606000,0.455023,3.61582742075292,1.66689009603357,8.63501137435989,-0.023823744,0.008552114,0.014660766,80.811806,-9.740728,16.195192,SIT
9808788605000,0.460022,3.61773156808162,1.66665207823882,8.63215515088148,-0.03634648,0.0070249503,0.011911872,80.79253,-9.756152,16.208462,SIT
9808793594000,0.465011,3.61963190635385,1.66641453657489,8.62930464099275,-0.032375857,-0.003970624,0.009162978,80.774025,-9.778939,16.222189,SIT
9808798629000,0.470046,3.61984236594515,1.6667456681097,8.62565285114126,-0.028099801,-0.0009162979,0.017715093,80.752556,-9.797427,16.23273,SIT
9808803624000,0.475041,3.61960323558253,1.66722392883494,8.62182676034533,-0.03176499,0.0009162979,0.0067195175,80.73846,-9.816356,16.245398,SIT
9808808620000,0.480037,3.61936405734596,1.66770228530809,8.61799990356525,-0.024740042,0.002443461,0.010079277,80.728485,-9.832997,16.316027,SIT
9808813642000,0.485059,3.61912363438678,1.66818313122644,8.61415313119745,-0.033292156,-0.005192355,0.010995574,80.722786,-9.845282,16.38589,SIT
9808818610000,0.490027,3.61888579662071,1.66865880675858,8.61034772197339,-0.03176499,-0.0012217305,0.015271631,80.71435,-9.8615265,16.450296,SIT
9808823608000,0.495025,3.61864652263625,1.66913735472751,8.60651933322502,-0.032375857,-0.0018325958,0.008552114,80.70946,-9.875539,16.515532,SIT
9808828588000,0.500005,3.61840811038282,1.66961417923436,8.60270473219124,-0.027488936,0.008552114,0.016187929,80.69829,-9.889808,16.57554,SIT
9808833608000,0.505025,3.61816778317153,1.67009483365693,8.59885949179172,-0.02076942,0.0067195175,0.0076358155,80.694496,-9.906152,16.636112,SIT
9808838586000,0.510003,3.617929466666,1.670571466668,8.59504642272623,-0.022907447,0.0036651916,0.007330383,80.68553,-9.91993,16.693188,SIT
9808844203000,0.51562,3.61766055870867,1.67110928258266,8.59074388979314,-0.024129177,-0.0036651916,0.011911872,80.67789,-9.935876,16.75013,SIT
9808848635000,0.520052,3.61744838137791,1.67153363724418,8.58734904806991,-0.03145956,0.00061086525,0.013133603,80.67081,-9.949652,16.802822,SIT
9808853577000,0.524994,3.61721178833445,1.6720068233311,8.58356355443357,-0.027183503,0.0030543262,0.013439035,80.663086,-9.965777,16.856615,SIT
9808858571000,0.529988,3.61697270584577,1.67248498830846,8.57973822962178,-0.027183503,0.0009162979,0.01282817,80.65528,-9.97856,16.908928,SIT
9808863659000,0.535076,3.61672912320613,1.67297215358775,8.57584090230052,-0.031154128,0.008246681,0.011301007,80.646996,-9.99132,16.956345,SIT
9808868610000,0.540027,3.61649209929715,1.67344620140571,8.57204851480689,-0.028710667,0.0033597588,0.007941248,80.6402,-10.005877,17.006207,SIT
9808873571000,0.544988,3.6162545966487,1.67392120670259,8.56824846747183,-0.022296581,0.010079277,0.01282817,80.63038,-10.019711,17.04972,SIT
9808878585000,0.550002,3.6160145566811,1.67440128663781,8.56440782297718,-0.041233405,0.01282817,0.015271631,80.62272,-10.027602,17.09408,SIT
9808883593000,0.55501,3.61577480395717,1.67488079208566,8.56057177438738,-0.0290161,0.011911872,0.013133603,80.614784,-10.045551,17.136341,SIT
9808888589000,0.560006,3.6155356257206,1.6753591485588,8.5567449176073,-0.027488936,0.009162978,0.0106901415,80.606255,-10.05515,17.177261,SIT
9808893613000,0.56503,3.61529510701353,1.67584018597295,8.55289661327121,-0.03176499,0.009162978,0.013439035,80.6012862635021,-10.0603823583391,17.1973684509959,SIT
9808898680000,0.570097,3.61505252972676,1.67632534054649,8.54901537161696,-0.03268129,0.0061086523,0.015577064,80.596275,-10.0656595,17.217648,SIT
9808903688000,0.575105,3.61481277700283,1.67680484599434,8.54517932302716,-0.034208454,0.0012217305,0.012217305,80.58968,-10.078341,17.25762,SIT
9808908599000,0.580016,3.61457766805171,1.67727506389658,8.54141757489927,-0.03145956,0.0076358155,0.017715093,80.57864,-10.089471,17.29485,SIT
9808914343000,0.58576,3.61430268010318,1.67782503979364,8.53701776197999,-0.042760566,-0.002443461,0.014049901,80.57248,-10.09731,17.336298,SIT
9808918617000,0.590034,3.61409806685596,1.67823426628808,8.53374394575139,-0.025350908,0.0070249503,0.011911872,80.56289,-10.113024,17.369751,SIT
9808923598000,0.595015,3.61385960672859,1.67871118654283,8.52992857873347,-0.033292156,0.0036651916,0.0143553335,80.55433,-10.11859,17.408585,SIT
9808928589000,0.600006,3.61362066786175,1.6791890642765,8.52610555187411,-0.034513887,0.0061086523,0.012217305,80.5469,-10.131154,17.44179,SIT
9808933613000,0.60503,3.61338014915468,1.67967010169065,8.52225724753802,-0.040927973,0.00061086525,0.0076358155,80.540146,-10.140021,17.477192,SIT
9808938603000,0.61002,3.61314125816179,1.68014788367643,8.5184349866628,-0.032986723,-0.0015271631,0.0125227375,80.53093,-10.151718,17.510426,SIT
9808944344000,0.615761,3.61286641383509,1.68069757232981,8.51403747169594,-0.032375857,0.0067195175,0.01160644,80.52451,-10.160475,17.540787,SIT
9808948645000,0.620062,3.61266050799132,1.68110938401736,8.51074297389548,-0.029932396,0.016798794,0.0143553335,80.5156,-10.171024,17.570753,SIT
9808953714000,0.625131,3.61241783495666,1.68159473008668,8.50686020027294,-0.03573562,0.0021380284,0.0070249503,80.510895,-10.180332,17.60395,SIT
9808958598000,0.630015,3.61218401860209,1.68206236279581,8.50311913371692,-0.03756821,0.003970624,0.008246681,80.50142,-10.190261,17.629572,SIT
9808963621000,0.635038,3.61194354776897,1.68254330446206,8.49927159536497,-0.036957346,0.0076358155,0.0076358155,80.49536,-10.199955,17.6575,SIT
9808968622000,0.640039,3.61170413016267,1.68302213967467,8.49544090866418,-0.04337143,0.0033597588,0.01282817,80.48759,-10.206501,17.686749,SIT
9808973604000,0.645021,3.61146562216135,1.68349915567731,8.49162477566211,-0.038179077,0.010079277,0.008857546,80.48189,-10.217126,17.710642,SIT
9808978593000,0.65001,3.6112267790424,1.6839768419152,8.48780328077104,-0.03573562,0.011911872,0.013439035,80.4727,-10.223984,17.737108,SIT
9808983706000,0.655123,3.61098199955409,1.68446640089181,8.48388680384619,-0.04337143,0.02076942,0.00580322,80.46756,-10.230842,17.758202,SIT
9808988611000,0.660028,3.61074717784665,1.6849360443067,8.48012965162316,-0.049785517,0.021380283,0.0106901415,80.4578,-10.237083,17.781406,SIT
9808993592000,0.665009,3.61050871771928,1.68541296456144,8.47631428460523,-0.04428773,0.011301007,0.0036651916,80.45395,-10.246142,17.80359,SIT
9808998650000,0.670067,3.61026615042661,1.68627819829358,8.47604416062706,-0.042760566,0.019242255,0.009162978,80.44402,-10.250796,17.820978,SIT
9809003607000,0.675024,3.61002831257371,1.68722954970516,8.47675768908662,-0.04795292,0.015882496,0.009773844,80.438805,-10.256089,17.843193,SIT
9809008606000,0.680023,3.6097884595524,1.68818896179039,8.47747726317767,-0.038179077,0.022602014,0.008246681,80.43327,-10.267395,17.882095,SIT
9809013651000,0.685068,3.60954639944188,1.68915720223248,8.47820345867464,-0.03390302,0.028099801,0.01160644,80.42638,-10.275281,17.921257,SIT
9809018604000,0.690021,3.60930875350979,1.69010778596085,8.47891641135978,-0.044593163,0.0143553335,0.009773844,80.42215,-10.282271,17.962374,SIT
9809023600000,0.695017,3.60906904442908,1.69106662228368,8.47963555362001,-0.047647487,0.003970624,0.015271631,80.41427,-10.291449,18.00045,SIT
9809028593000,0.70001,3.60882947928897,1.6920248828441,8.48035426404942,-0.04642576,0.007330383,0.013744468,80.409004,-10.299637,18.036833,SIT
9809033576000,0.704993,3.60859039395087,1.69298122419651,8.48107153504276,-0.032375857,0.008552114,0.011911872,80.40296,-10.310014,18.075737,SIT
9809038639000,0.710056,3.60834747019674,1.69395291921302,8.48180032152466,-0.032986723,0.015271631,0.014966198,80.39543,-10.316413,18.111122,SIT
9809043589000,0.715006,3.60810996820525,1.69490292717899,8.48251284237897,-0.034513887,0.010079277,0.011911872,80.39085,-10.32699,18.147943,SIT
9809048622000,0.720039,3.60786848385713,1.69586886457147,8.48323731055266,-0.028710667,0.009468411,0.014966198,80.38291,-10.3384695,18.18104,SIT
9809053625000,0.725042,3.60762843891502,1.6968290443399,8.48395746041814,-0.03359759,0.0067195175,0.011301007,80.37827,-10.347417,18.214611,SIT
9809058603000,0.73002,3.60738959347792,1.69778442608831,8.48467401169345,-0.02443461,0.0070249503,0.011911872,80.371315,-10.360973,18.246864,SIT
9809063603000,0.73502,3.60714969247642,1.69874403009434,8.48539372972811,-0.022602014,-0.0030543262,0.010995574,80.366646,-10.371575,18.281507,SIT
9809068588000,0.740005,3.60691051117791,1.69970075528835,8.48611128860866,-0.021380283,0.00030543262,0.010079277,80.360954,-10.384291,18.311346,SIT
9809073586000,0.745003,3.6066707061368,1.70065997545278,8.48683071875611,-0.016798794,0.0076358155,0.0125227375,80.354836,-10.398023,18.341997,SIT
9809078594000,0.750011,3.60643042129369,1.70162111482522,8.48755158833962,-0.026572637,0.00061086525,0.0076358155,80.35172,-10.408763,18.37432,SIT
9809083582000,0.754999,3.60619109605459,1.70257841578164,8.488269579051,-0.023823744,-0.0067195175,0.007941248,80.3459,-10.423253,18.404219,SIT
9809088592000,0.760009,3.60595071525108,1.70353993899569,8.48899073652172,-0.021380283,0.0036651916,0.008857546,80.340675,-10.435239,18.429977,SIT
9809093582000,0.764999,3.60571129405157,1.70449762379371,8.48970901512032,-0.021991149,0.006414085,0.0106901415,80.33588,-10.446864,18.459072,SIT
9809098584000,0.770001,3.60547129708966,1.70545761164134,8.49042902104219,-0.029932396,0.008857546,0.0036651916,80.332794,-10.457718,18.484097,SIT
9809103513000,0.77493,3.60523480268238,1.70640358927049,8.49113851908076,-0.030543262,0.0106901415,0.0067195175,80.326035,-10.46913,18.508413,SIT
9809108516000,0.779933,3.60499475774027,1.70736376903892,8.49185866894624,-0.032986723,0.01038471,0.01160644,80.32072,-10.478217,18.531666,SIT
9809113521000,0.784938,3.60475461683776,1.70832433264896,8.49257910669893,-0.044593163,0.007330383,0.0067195175,80.317444,-10.485148,18.55415,SIT
9809118530000,0.789947,3.60451428401445,1.7092856639422,8.49330012022605,-0.028099801,0.007941248,0.0061086523,80.31128,-10.498094,18.575542,SIT
9809123526000,0.794943,3.60427457493374,1.71024450026503,8.49401926248629,-0.03573562,0.018325957,0.01160644,80.304375,-10.501188,18.594467,SIT
9809128519000,0.799936,3.60403500979364,1.71120276082546,8.4947379729157,-0.04062254,0.010079277,0.0067195175,80.30175,-10.510375,18.617239,SIT
9809133521000,0.804938,3.60379501283173,1.71216274867309,8.49545797883757,-0.03940081,0.004886922,0.009468411,80.294495,-10.517847,18.63646,SIT
9809138518000,0.809935,3.60355525577082,1.71312177691672,8.49617726504141,-0.032070424,0.009773844,0.004886922,80.29077,-10.526715,18.65394,SIT
9809143919000,0.815336,3.60329611470899,1.71415834116403,8.49695470446245,-0.028405234,0.019547688,0.00030543262,80.28627,-10.5346,18.671072,SIT
9809148548000,0.819965,3.6030740143618,1.71504674255282,8.49762101941893,-0.034208454,0.01282817,-0.00030543262,80.282585,-10.541831,18.690928,SIT
9809153569000,0.824986,3.60283310577608,1.71601037689568,8.49834376026934,-0.032375857,0.004886922,0.005497787,80.27783,-10.551775,18.70811,SIT
9809158571000,0.829988,3.60259310881417,1.71697036474331,8.49906376619122,-0.03145956,0.0106901415,0.010995574,80.27288,-10.559841,18.722837,SIT
9809163578000,0.834995,3.60235287195126,1.71793131219495,8.49978449183112,-0.026572637,0.012217305,0.0036651916,80.270706,-10.57001,18.74012,SIT
9809168915000,0.840332,3.60209680162225,1.71895559351099,8.50055271886132,-0.023823744,0.009773844,0.0018325958,80.2652,-10.578718,18.757072,SIT
9809173544000,0.844961,3.60187470127506,1.71984399489977,8.5012190338178,-0.02687807,0.00580322,0.010995574,80.258575,-10.586668,18.773863,SIT
9809178545000,0.849962,3.60163475229335,1.72080379082661,8.50193889579607,-0.028099801,0.003970624,0.00580322,80.2567,-10.597184,18.78947,SIT
9809183552000,0.854969,3.60139451543044,1.72176473827825,8.50265962143598,-0.015271631,0.006414085,0.007941248,80.24994,-10.608999,18.805506,SIT
9809188544000,0.859961,3.60115499827053,1.72272280691787,8.50337818792178,-0.024129177,0.011301007,0.004581489,80.24628,-10.615473,18.820377,SIT
9809193534000,0.864951,3.60091557707103,1.72368049171589,8.50409646652037,-0.017104227,0.01160644,0.01038471,80.239365,-10.62845,18.836124,SIT
9809198586000,0.870003,3.59924027095718,1.72566921749887,8.50953214906443,-0.026572637,0.01160644,0.009468411,80.2373392800358,-10.6316738316605,18.8451737219517,SIT
9809203597000,0.875014,3.59732922497449,1.72781914111144,8.51574302481172,-0.027488936,-0.0036651916,0.011911872,80.23533,-10.6348715,18.85415,SIT
9809208601000,0.880018,3.59542084858308,1.72996606143818,8.52194522442046,-0.028099801,0.00030543262,0.0070249503,80.23032,-10.64572,18.86636,SIT
9809213623000,0.88504,3.59350560752839,1.73212070449991,8.52816973409974,-0.022296581,0.009162978,0.003970624,80.22216,-10.653069,18.900042,SIT
9809218623000,0.89004,3.5915987566177,1.73426590866332,8.53436697591504,-0.025961773,0.003970624,0.01160644,80.21293,-10.657132,18.935835,SIT
9809223601000,0.895018,3.58970029585103,1.73640167392841,8.54053694986635,-0.024129177,0.0125227375,0.007941248,80.20666,-10.66555,18.96356,SIT
9809228588000,0.900005,3.58779840275271,1.738541300561,8.54671807885292,-0.02687807,0.02321288,0.005192355,80.19813,-10.670922,18.99167,SIT
9809233615000,0.905032,3.58588125484711,1.74069808882689,8.55294878577402,-0.031154128,0.021685716,0.003970624,80.19053,-10.676551,19.01986,SIT
9809239045000,0.910462,3.5838104147581,1.74302778054835,8.55967899038543,-0.032375857,0.01740966,0.004886922,80.18271,-10.682281,19.04509,SIT
9809243588000,0.915005,3.58207785002066,1.74497691305123,8.56530980429881,-0.023823744,0.021380283,-0.00030543262,80.17675,-10.690176,19.067331,SIT
9809248632000,0.920049,3.58015421882196,1.74714099501127,8.57156158184208,-0.02565634,0.0125227375,0.004581489,80.168625,-10.693881,19.094292,SIT
9809253597000,0.925014,3.57826071586765,1.74927118274554,8.57771544296466,-0.032986723,0.0143553335,0.0067195175,80.16202,-10.699085,19.116047,SIT
9809258599000,0.930016,3.5763531022166,1.75141724499062,8.58391516367668,-0.028099801,0.012217305,0.005192355,80.15585,-10.706928,19.140774,SIT
9809263600000,0.935017,3.57444586993574,1.75356287819486,8.59011364494034,-0.027488936,0.0076358155,0.009162978,80.14756,-10.710909,19.16543,SIT
9809268618000,0.940035,3.57253215436177,1.75571580509326,8.59633319682617,-0.024740042,0.01282817,0.007330383,80.14105,-10.717455,19.186865,SIT
9809273602000,0.945019,3.570631405374,1.75785414460335,8.60251060746766,-0.011301007,0.016493361,0.012217305,80.13181,-10.726004,19.20992,SIT
9809278590000,0.950007,3.56872913090551,1.75999420027676,8.6086929759026,-0.027488936,0.0070249503,0.010079277,80.12575,-10.728103,19.234097,SIT
9809283615000,0.955032,3.56681274574027,1.76215013046099,8.61492120392696,-0.02076942,0.008552114,0.004581489,80.11842,-10.7397585,19.25368,SIT
9809288609000,0.960026,3.56490818305068,1.76429276037941,8.62111100905208,-0.02321288,0.010079277,0.009162978,80.10938,-10.743793,19.27573,SIT
9809293614000,0.965031,3.56299942528908,1.76644010974698,8.62731444810919,-0.025045475,0.00580322,0.0061086523,80.10454,-10.750982,19.297657,SIT
9809298620000,0.970037,3.56109028615731,1.76858788815539,8.63351912661467,-0.02687807,0.003970624,0.004276057,80.09781,-10.756906,19.318228,SIT
9809303603000,0.97502,3.55918991853972,1.77072579862464,8.63969529780779,-0.022296581,0.0070249503,0.00580322,80.090996,-10.76398,19.338062,SIT
9809308719000,0.980136,3.55723882868791,1.77292077152464,8.6460363156332,-0.020158553,0.0018325958,0.00580322,80.085815,-10.770174,19.359959,SIT
9809313629000,0.985046,3.55536630109362,1.77502736201311,8.65212200709582,-0.021380283,-0.0021380284,0.00030543262,80.0816,-10.77701,19.3799,SIT
9809318612000,0.990029,3.55346593347603,1.77716527248237,8.65829817828894,-0.025350908,-0.009162978,0.0061086523,80.07455,-10.782505,19.402237,SIT
9809323597000,0.995014,3.55156480311808,1.77930404103329,8.66447682837879,-0.0125227375,-0.012217305,0.006414085,80.07075,-10.793159,19.423376,SIT
9809328592000,1.000009,3.5496598590583,1.78144709999253,8.67066787295227,-0.018325957,-0.0021380284,0.011911872,80.063324,-10.796604,19.442793,SIT
9809333587000,1.005004,3.54775491499853,1.78359015895178,8.67685891752575,-0.024740042,-0.013133603,0.0061086523,80.06062,-10.804289,19.467726,SIT
9809338606000,1.010023,3.54584081805439,1.78574351489101,8.68307970885994,-0.022602014,-0.003970624,0.009468411,80.05177,-10.811228,19.484478,SIT
9809344335000,1.015752,3.54365594828093,1.78820148982145,8.6901805085319,-0.014966198,-0.0067195175,0.0070249503,80.047806,-10.818995,19.506388,SIT
9809348594000,1.020011,3.54203169267521,1.79002877472784,8.69545931911017,-0.017715093,0.0021380284,0.0125227375,80.03925,-10.823391,19.522606,SIT
9809353615000,1.025032,3.5401168329907,1.79218298874874,8.70168258934109,-0.04062254,-0.004886922,0.009468411,80.03514,-10.82538,19.54292,SIT
9809358606000,1.030023,3.53821341441165,1.79432433154465,8.70786867612112,-0.03268129,-0.002443461,0.0061086523,80.02843,-10.834371,19.557966,SIT
9809363598000,1.035015,3.53630961446243,1.7964661033814,8.71405600234951,-0.030543262,0.00061086525,0.015577064,80.01931,-10.834728,19.574898,SIT
9809368622000,1.040039,3.53439361066737,1.7986216045248,8.72028299092552,-0.026572637,0.007330383,0.013439035,80.01432,-10.839172,19.588829,SIT
9809373600000,1.045017,3.53249514990069,1.80075736978989,8.72645296487682,-0.029626964,0.0018325958,0.01985312,80.00466,-10.840559,19.605963,SIT
9809378697000,1.050114,3.53055130608234,1.80294419091407,8.73277043318334,-0.035430185,-0.007941248,0.018020526,79.99807,-10.843278,19.621504,SIT
9809383597000,1.055014,3.52868259218987,1.80504649099421,8.73884373016232,-0.032986723,-0.007330383,0.014660766,79.98987,-10.846953,19.635578,SIT
9809388596000,1.060013,3.52677612264937,1.80719126611679,8.74503973252926,-0.032070424,-0.008246681,0.0143553335,79.98213,-10.848591,19.652445,SIT
9809393589000,1.065006,3.52487194132996,1.80933346699437,8.75122829820601,-0.03023783,-0.01160644,0.017104227,79.97471,-10.851187,19.669382,SIT
9809398640000,1.070057,3.51757535105008,1.82005067342488,8.7364778776252,-0.032070424,-0.007330383,0.018325957,79.9675,-10.853234,19.68391,SIT
9809403593000,1.07501,3.50799661712439,1.83441877431341,8.71253104281099,-0.044898596,-0.009162978,0.020463986,79.95989,-10.852474,19.700867,SIT
9809408602000,1.080019,3.51158998924742,1.83226811075258,8.7069371465737,-0.040011674,-0.0076358155,0.02107485,79.960144,-10.85858,19.721458,SIT
9809413656000,1.085073,3.52090014018755,1.82295795981246,8.70926461139697,-0.040317107,0.0030543262,0.024129177,79.95856,-10.859394,19.739521,SIT
9809418600000,1.090017,3.53000765626353,1.81385044373648,8.71154141909113,-0.043676864,-0.0018325958,0.021380283,79.95865,-10.864858,19.760624,SIT
9809423596000,1.095013,3.53921096336619,1.80464713663381,8.71384217379178,-0.042760566,0.0021380284,0.018020526,79.9568,-10.871073,19.775826,SIT
9809428588000,1.100005,3.55141492541241,1.79111043890745,8.72155774798294,-0.05009095,0.0033597588,0.021685716,79.957344,-10.868829,19.820744,SIT
9809433589000,1.105006,3.56618251167069,1.7738816225397,8.73386402703119,-0.05009095,-0.003970624,0.022296581,79.95998,-10.869492,19.865088,SIT
9809438604000,1.110021,3.58099143890231,1.75660457513233,8.74620475677064,-0.039095376,0.0076358155,0.027794369,79.962,-10.863885,19.922344,SIT
9809443587000,1.115004,3.5957058724806,1.73943777010124,8.75846674207308,-0.04917465,0.007941248,0.02687807,79.96677,-10.853462,19.982344,SIT
9809448598000,1.120015,3.58984987753335,1.72512985815001,8.75726341152045,-0.043982297,0.00061086525,0.02076942,79.973495,-10.84748,20.056328,SIT
9809453614000,1.125031,3.57287409211061,1.71239801908296,8.7487757846983,-0.05589417,0.00030543262,0.029321533,79.975555,-10.83317,20.126562,SIT
9809458602000,1.130019,3.56639387693729,1.69893908459407,8.74744655722057,-0.049785517,0.0018325958,0.027488936,79.98369,-10.819908,20.196684,SIT
9809463609000,1.135026,3.57623705411064,1.68417431883403,8.75728942604947,-0.05009095,-0.0018325958,0.03023783,79.98817,-10.8009405,20.266623,SIT
9809468603000,1.14002,3.5817258,1.67269102989982,8.76169464767532,-0.041233405,-0.0070249503,0.024740042,79.999344,-10.780218,20.359825,SIT
9809473612000,1.145029,3.5817258,1.66529770472643,8.75923029172874,-0.04642576,-0.007330383,0.0290161,80.00652,-10.755051,20.450163,SIT
9809478590000,1.150007,3.5817258,1.65795013580786,8.75678118733624,-0.0421497,-0.004886922,0.030848695,80.02369,-10.733034,20.551912,SIT
9809483620000,1.155037,3.5817258,1.65052581446185,8.75430649969175,-0.0421497,-0.002443461,0.027183503,80.040855,-10.70926,20.650091,SIT
9809488597000,1.160014,3.59413058125593,1.63480591874407,8.75816338659647,-0.037873644,0.002443461,0.03023783,80.06393,-10.688638,20.755714,SIT
9809494369000,1.165786,3.62034822952002,1.60858827047998,8.76865039114969,-0.043066,0.009162978,0.023518313,80.09015,-10.667386,20.85568,SIT
9809498631000,1.170048,3.63181296945048,1.59492036109904,8.77015178453896,-0.0421497,0.005497787,0.021380283,80.11403,-10.642242,20.97141,SIT
9809503606000,1.175023,3.63674358934078,1.58505912131843,8.76522106167857,-0.047647487,0.0076358155,0.031154128,80.13499,-10.614117,21.079988,SIT
9809508600000,1.180017,3.64372000705662,1.58357315529247,8.76391137543285,-0.04337143,0.00580322,0.023823744,80.16203,-10.58676,21.187681,SIT
9809513630000,1.185047,3.65273662923725,1.59033562192794,8.76616557805335,-0.04550946,0.009468411,0.022296581,80.18343,-10.555374,21.290339,SIT
9809518556000,1.189973,3.66156682423959,1.59695826817969,8.76837317290594,-0.0421497,0.008857546,0.021991149,80.20661,-10.526368,21.391348,SIT
9809523604000,1.195021,3.67061571266261,1.60374493449696,8.7706354422555,-0.04550946,0.01038471,0.024129177,80.22865,-10.495635,21.487272,SIT
9809528554000,1.199971,3.67784214401124,1.60855515598876,8.77200664871401,-0.03756821,0.0027488936,0.018936822,80.256645,-10.472956,21.576895,SIT
9809533609000,1.205026,3.67942424551783,1.60697305448217,8.77042451416713,-0.03604105,0.004886922,0.014049901,80.28265,-10.448014,21.660423,SIT
9809538529000,1.209946,3.68096409505539,1.60543320494461,8.76888463247165,-0.04153884,0.0015271631,0.007330383,80.3105,-10.42718,21.746065,SIT
9809544340000,1.215757,3.68278280758848,1.60361449241152,8.76706588195693,-0.03481932,-0.0033597588,0.011301007,80.3359,-10.409778,21.828924,SIT
9809548600000,1.220017,3.68411609194418,1.60228120805582,8.76573256975718,-0.032070424,0.005497787,0.016187929,80.35303,-10.387619,21.903788,SIT
9809553606000,1.225023,3.6856828575509,1.6007144424491,8.76416577143044,-0.030848695,0.002443461,0.011301007,80.3725,-10.367983,21.98029,SIT
9809558568000,1.229985,3.68683444502148,1.60192440722959,8.76372261498225,-0.040927973,0.00061086525,0.008552114,80.388885,-10.345826,22.051756,SIT
9809564404000,1.235821,3.68422421688773,1.63063694395666,8.77416347300579,-0.036651913,0.0012217305,0.0033597588,80.40713,-10.329058,22.120468,SIT
9809568544000,1.239961,3.68237254716981,1.65100533018868,8.78157011320755,-0.027794369,-0.0012217305,0.008246681,80.417755,-10.307768,22.188337,SIT
9809573599000,1.245016,3.68011163160844,1.67587542497198,8.7906137282365,-0.02687807,0.012217305,0.005192355,80.4311,-10.287489,22.248472,SIT
9809578607000,1.250024,3.67787173741827,1.70051428445264,8.79957325821969,-0.02687807,0.005497787,0.0061086523,80.44284,-10.268831,22.31314,SIT
9809583612000,1.255029,3.68114879889908,1.69370660330275,8.7901201559633,-0.029626964,0.0021380284,0.0067195175,80.45878,-10.253173,22.367163,SIT
9809588544000,1.259961,3.68548208124771,1.68070675625688,8.77712048990826,-0.021685716,0.004886922,0.007330383,80.4741,-10.240581,22.41945,SIT
9809593591000,1.265008,3.67827663235683,1.68180384509545,8.76649238551314,-0.01740966,0.01038471,0.013133603,80.493835,-10.237031,22.4739,SIT
9809598678000,1.270095,3.6644652975619,1.6910114016254,8.75728487705538,-0.027488936,0.013744468,0.005192355,80.51695,-10.233262,22.525509,SIT
9809603620000,1.275037,3.64444073054755,1.7043611129683,8.75088499432637,-0.022296581,0.013439035,0.013744468,80.532715,-10.230092,22.57703,SIT
9809608600000,1.280017,3.61867030691643,1.72154139538905,8.74659005826729,-0.025045475,0.009773844,0.01282817,80.55327,-10.224181,22.62583,SIT
9809613584000,1.285001,3.59860660675434,1.73415959774855,8.74589776160262,-0.021685716,-0.0021380284,0.007941248,80.56843,-10.222232,22.669754,SIT
9809618615000,1.290032,3.59121047297754,1.73662497567415,8.75329379240649,-0.019242255,0.0076358155,0.01038471,80.58019,-10.218677,22.707474,SIT
9809623569000,1.294986,3.5839275378294,1.73905262072353,8.7605766261577,-0.021991149,0.010995574,0.0143553335,80.59315,-10.216999,22.752705,SIT
9809628595000,1.300012,3.5765387546129,1.74151554846237,8.76796530650361,-0.024129177,0.004581489,0.01038471,80.6074,-10.216762,22.796085,SIT
9809633753000,1.30517,3.57691218058164,1.73821561941836,8.77394276001832,-0.026267206,0.0143553335,0.0143553335,80.61147,-10.213845,22.826107,SIT
9809638608000,1.310025,3.58755916111747,1.72756863888253,8.77749182764675,-0.025045475,0.009162978,0.01282817,80.619484,-10.212392,22.8604,SIT
9809643592000,1.315009,3.59848903773758,1.71663876226242,8.78113519593924,-0.02321288,0.01282817,0.0076358155,80.6263,-10.2108755,22.886326,SIT
9809648741000,1.320158,3.57423103743022,1.72186219516208,8.79335253373813,-0.019547688,0.01740966,0.013133603,80.63039,-10.209197,22.912926,SIT
9809653592000,1.325009,3.54238299435902,1.73096160889237,8.8070014643032,-0.029321533,0.015577064,0.008857546,80.639015,-10.206198,22.938522,SIT
9809658610000,1.330027,3.53048371247996,1.73675988752005,8.79723052004528,-0.03268129,0.01740966,0.011911872,80.635155,-10.1983595,22.962284,SIT
9809663596000,1.335013,3.52597942752571,1.74126417247429,8.77921347429488,-0.023823744,0.015271631,0.013439035,80.633514,-10.1921,22.986467,SIT
9809668607000,1.340024,3.52721152307692,1.74150544615385,8.77088165384615,-0.032986723,0.014660766,0.008857546,80.63296,-10.181916,23.004742,SIT
9809673603000,1.34502,3.53194066811139,1.73914088598186,8.76851710601942,-0.034208454,0.0125227375,0.0067195175,80.6315,-10.1759205,23.023558,SIT
9809678589000,1.350006,3.53666034728311,1.73678105871655,8.76615729107465,-0.03145956,0.01282817,0.0125227375,80.63165,-10.171417,23.040762,SIT
9809683615000,1.355032,3.54141788990585,1.73440229982456,8.76377854460204,-0.033292156,0.0106901415,0.0018325958,80.63773,-10.167649,23.057558,SIT
9809688602000,1.360019,3.54613851566384,1.73204199926858,8.76141825636907,-0.033292156,0.01282817,0.004276057,80.63775,-10.163075,23.073452,SIT
9809693581000,1.364998,3.55085156873162,1.72968548503793,8.75906175444167,-0.036651913,0.014660766,0.01160644,80.63953,-10.157871,23.089108,SIT
9809698656000,1.370073,3.55565549408189,1.72728353490326,8.75665981684746,-0.036651913,0.018020526,0.0143553335,80.64174,-10.153949,23.102999,SIT
9809703844000,1.375261,3.56056638368134,1.72482810292323,8.75420439768712,-0.03573562,0.0076358155,0.0067195175,80.64557,-10.149884,23.119516,SIT
9809708598000,1.380015,3.55782563148688,1.71907868104956,8.75082831486881,-0.035430185,0.013439035,0.0018325958,80.64651,-10.145202,23.130262,SIT
9809713708000,1.385125,3.54862071114455,1.7098738568231,8.74622604692937,-0.02565634,0.022907447,0.0061086523,80.64737,-10.143211,23.142456,SIT
9809718602000,1.390019,3.54530296556798,1.7046716,8.74550948685501,-0.03573562,0.0143553335,0.009468411,80.65446,-10.137017,23.16062,SIT
9809723604000,1.395021,3.55000216645085,1.7046716,8.75020849146557,-0.04550946,0.004581489,0.0061086523,80.66157,-10.133762,23.175817,SIT
9809728551000,1.399968,3.55464969679223,1.7046716,8.75485582769276,-0.03756821,0.008246681,0.0061086523,80.67679,-10.135005,23.187407,SIT
9809733588000,1.405005,3.55938177892878,1.7046716,8.75958771218364,-0.04062254,0.010995574,0.0033597588,80.69409,-10.131457,23.201033,SIT
9809738535000,1.409952,3.56847058848407,1.70614619712102,8.76867635768887,-0.03359759,0.016493361,0.011301007,80.71279,-10.133624,23.213272,SIT
9809744313000,1.41573,3.59044408214038,1.71163957053509,8.79064973662265,-0.033292156,0.014660766,0.004581489,80.73653,-10.135055,23.225302,SIT
9809748587000,1.420004,3.60150312313979,1.7142484,8.79796641686532,-0.03573562,0.01160644,0.004886922,80.75493,-10.135411,23.236996,SIT
9809753609000,1.425026,3.60355040262217,1.7142484,8.78773012634088,-0.03145956,0.008857546,0.0067195175,80.77449,-10.138025,23.24835,SIT
9809758533000,1.42995,3.60555773121062,1.7142484,8.77769358820024,-0.03176499,0.0036651916,0.007330383,80.785774,-10.135255,23.26236,SIT
9809763658000,1.435075,3.60764699989784,1.7142484,8.76724735384386,-0.03268129,0.004581489,0.008552114,80.79586,-10.133144,23.275045,SIT
9809768614000,1.440031,3.60966737367614,1.7142484,8.75714559043504,-0.03390302,0.0067195175,0.007941248,80.806305,-10.131,23.288233,SIT
9809773607000,1.445024,3.60450983362437,1.72168135796954,8.75171495497462,-0.03390302,-0.003970624,0.011911872,80.81542,-10.128268,23.304562,SIT
9809778615000,1.450032,3.59477163780711,1.73385410274112,8.74928048228426,-0.025961773,-0.003970624,0.018325957,80.8190738368,-10.1280942224,23.3093786944,SIT
9809783607000,1.455024,3.58506455443655,1.74598795695431,8.74685378746193,-0.02321288,0.005497787,0.01740966,80.822716,-10.127921,23.31418,SIT
9809788607000,1.460024,3.57534191484264,1.7581412564467,8.74442320370558,-0.035124753,-0.003970624,0.014049901,80.83289,-10.123147,23.332796,SIT
9809793595000,1.465012,3.57520357059244,1.75907782940756,8.75278858419522,-0.02443461,0.008552114,0.0143553335,80.82961,-10.122313,23.342398,SIT
9809798708000,1.470125,3.57987123928316,1.75441016071684,8.76679139531004,-0.032070424,0.010079277,0.01985312,80.82705,-10.113537,23.357237,SIT
9809803654000,1.475071,3.5843864533149,1.7498949466851,8.7803368488156,-0.02443461,0.015271631,0.016798794,80.833046,-10.1192,23.36957,SIT
9809808606000,1.480023,3.58890714475954,1.74537425524046,8.79389873433106,-0.03634648,0.007330383,0.0125227375,80.838326,-10.117253,23.384842,SIT
9809813667000,1.485084,3.58657432957185,1.74140271534306,8.7924166002161,-0.03268129,0.0036651916,0.016493361,80.841324,-10.120741,23.39725,SIT
9809819429000,1.490846,3.57539489001216,1.73767624846029,8.77192118800648,-0.034513887,-0.0027488936,0.014966198,80.84779,-10.120787,23.411581,SIT
9809823598000,1.495015,3.56730619103188,1.73498002485143,8.75709207077256,-0.027488936,0.002443461,0.015577064,80.85233,-10.120279,23.425669,SIT
9809828587000,1.500004,3.55762652703269,1.73175348141545,8.73934621663965,-0.03481932,0.007330383,0.013439035,80.85844,-10.116081,23.440744,SIT
9809833607000,1.505024,3.54788671679498,1.72850688930308,8.72149009562399,-0.028099801,0.00030543262,0.013439035,80.86397,-10.117111,23.457277,SIT
9809838602000,1.510019,3.53819541158833,1.72527646547812,8.70372289951378,-0.032070424,0.0061086523,0.014660766,80.86861,-10.113572,23.46826,SIT
9809843592000,1.515009,3.54135247467631,1.71881798507235,8.70325171782178,-0.03145956,0.009162978,0.018325957,80.87292,-10.112724,23.481546,SIT
9809848702000,1.520119,3.55532937547601,1.70950011607007,8.71722832673267,-0.03481932,0.015577064,0.013133603,80.87891,-10.110728,23.491316,SIT
9809853691000,1.525108,3.55582748132772,1.70916804781388,8.7267192708584,-0.03390302,0.005497787,0.014049901,80.88202,-10.107265,23.511515,SIT
9809858597000,1.530014,3.5416926715002,1.71859118876855,8.73143093973125,-0.041233405,0.008857546,0.012217305,80.8863,-10.101789,23.525072,SIT
9809863574000,1.534991,3.53669769219666,1.72525323864261,8.73333396576726,-0.048258353,0.015271631,0.0106901415,80.890594,-10.094404,23.540703,SIT
9809868616000,1.540033,3.54309219346466,1.72845047258401,8.73173531541135,-0.032986723,0.011301007,0.017104227,80.89334,-10.090404,23.557966,SIT
9809873597000,1.545014,3.54940933166694,1.7316090251945,8.73015600612481,-0.03634648,0.010079277,0.014966198,80.89869,-10.082552,23.569916,SIT
9809878594000,1.550011,3.55574676182089,1.73477772372786,8.7285716237709,-0.041233405,0.010079277,0.0125227375,80.90225,-10.0777025,23.582407,SIT
9809883590000,1.555007,3.56208292372786,1.73794578814104,8.72698755848369,-0.03756821,0.004581489,0.015577064,80.90514,-10.073941,23.596422,SIT
9809889378000,1.560795,3.56942353724218,1.74161607573581,8.72515237636153,-0.03726278,0.00030543262,0.010079277,80.91126,-10.0694275,23.608952,SIT
9809893585000,1.565002,3.57334027531204,1.74119188703194,8.72327973090755,-0.025350908,-0.0012217305,0.015577064,80.905106,-10.063462,23.62436,SIT
9809898673000,1.57009,3.5762854690864,1.73677409637039,8.7203345525099,-0.032986723,0.0027488936,0.014049901,80.90283,-10.054168,23.638094,SIT
9809903687000,1.575104,3.57918782788842,1.73242055816737,8.71743220886095,-0.03268129,0.0027488936,0.015271631,80.898224,-10.051289,23.655338,SIT
9809908598000,1.580015,3.58203056503974,1.72815645244039,8.71458948655142,-0.04153884,-0.0036651916,0.019242255,80.89351,-10.044068,23.672693,SIT
9809914274000,1.585691,3.58531612318898,1.72322811521654,8.71130394555592,-0.03573562,-0.005497787,0.014049901,80.89391,-10.042949,23.688585,SIT
9809918609000,1.590026,3.58782544217716,1.71946413673426,8.70879463966877,-0.028405234,0.009468411,0.01038471,80.892105,-10.039483,23.701153,SIT
9809923532000,1.594949,3.59067512554021,1.71518961168969,8.70594497118378,-0.03176499,0.010079277,0.016187929,80.88967,-10.032617,23.725668,SIT
9809928590000,1.600007,3.593021424099,1.712529575901,8.72250565125102,-0.044898596,0.0033597588,0.004886922,80.89315,-10.027685,23.746117,SIT
9809933546000,1.604963,3.59516498027278,1.71038601972722,8.74394110107488,-0.036651913,0.0070249503,0.013439035,80.88818,-10.024647,23.764095,SIT
9809938601000,1.610018,3.59735135566796,1.70819964433204,8.76580474087707,-0.043066,0.014966198,0.015577064,80.888756,-10.014414,23.782322,SIT
9809944350000,1.615767,3.59983789813025,1.70571310186975,8.7906700356788,-0.039095376,0.015577064,0.017104227,80.88718,-10.008353,23.801228,SIT
9809948627000,1.620044,3.60280527036798,1.69696811852808,8.79915929051001,-0.043676864,0.01160644,0.018936822,80.89714,-10.003044,23.822319,SIT
9809953599000,1.625016,3.60792855954379,1.67647496182483,8.79403642930923,-0.041233405,0.01740966,0.016187929,80.90718,-10.00101,23.839518,SIT
9809958678000,1.630095,3.61283028447088,1.66399031552912,8.78913486594921,-0.03726278,0.009162978,0.009773844,80.91179,-9.994116,23.852652,SIT
9809963660000,1.635077,3.61733435485698,1.65948624514302,8.78463070150099,-0.03481932,0.013133603,0.01863139,80.91145,-9.98617,23.860962,SIT
9809968606000,1.640023,3.61454975772263,1.65861534742579,8.77279326287105,-0.03481932,0.008246681,0.01038471,80.92113,-9.979288,23.87177,SIT
9809973601000,1.645018,3.60058300852555,1.66327093049148,8.74951534754258,-0.033292156,0.008857546,0.011911872,80.92448,-9.971435,23.880495,SIT
9809978578000,1.649995,3.59468312680434,1.66805466340217,8.73742850915478,-0.036651913,0.010079277,0.008857546,80.940025,-9.966849,23.889994,SIT
9809983584000,1.655001,3.60488995260805,1.67315807630402,8.74763528166915,-0.026572637,0.003970624,0.014049901,80.95267,-9.965017,23.901451,SIT
9809988587000,1.660004,3.60830051903347,1.67809688096653,8.74781229758368,-0.032375857,0.014966198,0.009468411,80.96974,-9.962966,23.902536,SIT
9809993589000,1.665006,3.60355669316696,1.68284070683304,8.73595273291741,-0.03481932,0.0061086523,0.015882496,80.983,-9.962387,23.911472,SIT
9809998697000,1.670114,3.59871233840364,1.68768506159636,8.72384184600911,-0.03573562,-0.0009162979,0.009773844,81.00317,-9.964596,23.915123,SIT
9810003697000,1.675114,3.59397040930877,1.69242699069123,8.71198702327193,-0.025350908,0.0012217305,0.015882496,81.01716,-9.966788,23.919418,SIT
9810008560000,1.679977,3.58684997321963,1.69331375672684,8.70887961444253,-0.03359759,0.0143553335,0.016493361,81.03405,-9.96509,23.921644,SIT
9810013600000,1.685017,3.57590302737912,1.68893499667967,8.71763720312075,-0.03176499,0.0070249503,0.011301007,81.05153,-9.968528,23.92874,SIT
9810018529000,1.689946,3.56519717498866,1.68465267360973,8.72620191633403,-0.03359759,0.01038471,0.01282817,81.05891,-9.967895,23.929031,SIT
9810023603000,1.69502,3.55417638070398,1.68024437430826,8.73501858398349,-0.039095376,0.01985312,0.017715093,81.06667,-9.966909,23.929363,SIT
9810028935000,1.700352,3.54378388636593,1.67685490637398,8.74490417747457,-0.043676864,0.008246681,0.016798794,81.07945,-9.96718,23.93519,SIT
9810033586000,1.705003,3.54826905018629,1.68806769884201,8.76060194643037,-0.033292156,0.019547688,0.016798794,81.08828,-9.969183,23.932112,SIT
9810038629000,1.710046,3.55313223684423,1.7002255385359,8.77762276966066,-0.036957346,0.019547688,0.014966198,81.09942,-9.96412,23.931833,SIT
9810043585000,1.715002,3.55791152557648,1.71217363560568,8.79434995584533,-0.04184427,0.0125227375,0.01863139,81.10839,-9.960757,23.93065,SIT
9810048894000,1.720311,3.56348382019798,1.72245776970303,8.80975040835916,-0.04550946,0.015882496,0.0143553335,81.12275,-9.958953,23.927605,SIT
9810053659000,1.725076,3.5726095980202,1.7087691029697,8.80062491640836,-0.033292156,0.004886922,0.016187929,81.13511,-9.958832,23.930967,SIT
9810058783000,1.7302,3.58123407823961,1.69558651833741,8.79134509046455,-0.032375857,0.005192355,0.01282817,81.149185,-9.959017,23.929113,SIT
9810063608000,1.735025,3.57471606314651,1.70210448805718,8.78917238851796,-0.0290161,0.005192355,0.016187929,81.16096,-9.961867,23.93073,SIT
9810068599000,1.740016,3.56797380131653,1.70884670295279,8.78692493661839,-0.03023783,0.0018325958,0.007941248,81.17715,-9.963163,23.933569,SIT
9810073561000,1.744978,3.56127071512131,1.71554974248636,8.78469054344555,-0.027488936,0.0027488936,0.014660766,81.187126,-9.964094,23.935999,SIT
9810078595000,1.750012,3.55447036528117,1.72235004498778,8.78242372860636,-0.029626964,0.0021380284,0.01160644,81.202576,-9.965416,23.938612,SIT
9810083573000,1.75499,3.5456089848963,1.72751830755185,8.77823881532202,-0.03390302,0.003970624,0.013133603,81.209015,-9.965079,23.931692,SIT
9810088587000,1.760004,3.53607875264464,1.73228342367768,8.77347359968245,-0.03359759,0.002443461,0.016187929,81.215965,-9.96547,23.925934,SIT
9810093607000,1.765024,3.53566086062284,1.733402,8.76143939826989,-0.03634648,0.004886922,0.01740966,81.22325,-9.968396,23.91033,SIT
9810098574000,1.769991,3.53801221828967,1.733402,8.74733120316362,-0.028405234,0.00580322,0.018325957,81.22967,-9.973708,23.896135,SIT
9810103522000,1.774939,3.54035458143351,1.733402,8.73327697538309,-0.03359759,0.008246681,0.0125227375,81.237434,-9.976387,23.880224,SIT
9810108531000,1.779948,3.5427258217301,1.733402,8.71904948408304,-0.032375857,0.003970624,0.013133603,81.243126,-9.981765,23.86678,SIT
9810113518000,1.784935,3.5501139300863,1.72670650487055,8.71656790873921,-0.03268129,0.0027488936,0.019242255,81.24345,-9.984494,23.845217,SIT
9810118522000,1.789939,3.55962143081044,1.71719905378435,8.7189448211487,-0.027183503,0.0030543262,0.009773844,81.24846,-9.99068,23.824251,SIT
9810123538000,1.794955,3.5691517312965,1.70766880305525,8.72132743358794,-0.03145956,0.0030543262,0.01282817,81.2490769063094,-9.99340592340766,23.8162307164284,SIT
9810128523000,1.79994,3.57862313239758,1.69819745140363,8.7236953209503,-0.021991149,-0.0021380284,0.007330383,81.24969,-9.996115,23.80826,SIT
9810133523000,1.80494,3.58721525958461,1.70058425958461,8.7272157871127,-0.03023783,0.004276057,0.0143553335,81.25009,-9.999284,23.78946,SIT
9810138522000,1.809939,3.59536548484849,1.70873448484848,8.73129098484849,-0.03390302,0.00030543262,0.009773844,81.25384,-10.003273,23.786453,SIT
9810143505000,1.814922,3.5989092380777,1.7142484,8.73273453128882,-0.02687807,-0.0067195175,0.01282817,81.25285,-10.002623,23.785013,SIT
9810148605000,1.820022,3.59263326943076,1.7142484,8.72855046481347,-0.022602014,-0.0015271631,0.012217305,81.25393,-10.001316,23.780813,SIT
9810153590000,1.825007,3.5864988177239,1.7142484,8.72446074493511,-0.026572637,0.0070249503,0.008552114,81.24198,-9.995262,23.779856,SIT
9810158552000,1.829969,3.58039266940506,1.7142484,8.72038989437615,-0.027488936,0.00580322,0.010079277,81.22924,-9.990818,23.780365,SIT
9810163583000,1.835,3.57420161092217,1.7142484,8.716262435859,-0.032070424,0.0012217305,0.009773844,81.21823,-9.985246,23.779129,SIT
9810168597000,1.840014,3.57375755242207,1.71103129515587,8.71811117202952,-0.027488936,0.014966198,0.016493361,81.202705,-9.979478,23.7787,SIT
9810173534000,1.844951,3.57613096046383,1.70628447907234,8.72285808724462,-0.03359759,0.016187929,0.016493361,81.19071,-9.970847,23.782467,SIT
9810178533000,1.84995,3.57853417431856,1.70147805136288,8.72766461533056,-0.035124753,0.0076358155,0.019242255,81.17608,-9.964099,23.78454,SIT
9810183540000,1.854957,3.58094123408463,1.69666393183073,8.73247883539983,-0.0290161,0.0125227375,0.015577064,81.16297,-9.958816,23.782087,SIT
9810188533000,1.85995,3.58331845832756,1.69668745832756,8.73882590846116,-0.02687807,0.013439035,0.013439035,81.15094,-9.953503,23.778101,SIT
9810193520000,1.864937,3.58568162020782,1.69905062020782,8.74591529539832,-0.034513887,0.0070249503,0.016493361,81.13894,-9.947257,23.774994,SIT
9810198573000,1.86999,3.58807605714003,1.70144505714003,8.75309850618506,-0.029932396,0.0076358155,0.01160644,81.12994,-9.944081,23.769226,SIT
9810203548000,1.874965,3.5904335326472,1.7038025326472,8.76017083424048,-0.0290161,0.004886922,0.013744468,81.11876,-9.937037,23.766787,SIT
9810208545000,1.879962,3.59427351196548,1.72249707179286,8.76574897400942,-0.032070424,0.0061086523,0.013439035,81.09911,-9.926064,23.765062,SIT
9810213721000,1.885138,3.59913517504904,1.75166705029423,8.77061073862299,-0.029321533,0.008246681,0.014049901,81.07922,-9.916911,23.763962,SIT
9810218548000,1.889965,3.58996179286057,1.75667359643029,8.76962554121485,-0.033292156,0.0106901415,0.016187929,81.06809,-9.911321,23.753866,SIT
9810223542000,1.894959,3.57160403863353,1.74749471931676,8.76503600681317,-0.0290161,0.0070249503,0.017715093,81.057495,-9.9087715,23.745163,SIT
9810228527000,1.899944,3.56507015196038,1.73798289607924,8.76028012628972,-0.03848451,-0.007941248,0.013744468,81.04861,-9.907168,23.739439,SIT
9810233577000,1.904994,3.57006012719769,1.72800294560462,8.7552903073669,-0.028099801,-0.00061086525,0.021991149,81.03466,-9.910343,23.729452,SIT
9810238570000,1.909987,3.5735029386761,1.72247126132391,8.7504936367855,-0.03145956,0.007330383,0.013744468,81.03181,-9.907292,23.73354,SIT
9810243533000,1.91495,3.57583694272245,1.72013725727755,8.74582565306423,-0.037873644,-0.0012217305,0.009468411,81.02596,-9.904864,23.740606,SIT
9810249001000,1.920418,3.57840843861717,1.71756576138283,8.74068268812611,-0.02687807,0.013439035,0.015882496,81.01768,-9.904407,23.73952,SIT
9810253599000,1.925016,3.58057079013946,1.71540340986054,8.73635800766058,-0.03390302,0.011301007,0.013133603,81.01512,-9.899278,23.744585,SIT
9810258600000,1.930017,3.57944047829348,1.70739243488045,8.74090386966714,-0.029626964,0.014049901,0.016798794,81.011894,-9.8993,23.750343,SIT
9810263662000,1.935079,3.57489497790905,1.69375593372714,8.75454018096578,-0.036651913,0.015271631,0.013744468,81.01183,-9.895734,23.756298,SIT
9810268640000,1.940057,3.5759382748068,1.6912019122102,8.77035651004637,-0.03848451,0.017104227,0.0015271631,81.013275,-9.894877,23.761595,SIT
9810273637000,1.945054,3.58580025720762,1.70599488581144,8.79008037187017,-0.029626964,0.015577064,0.009773844,81.00956,-9.89306,23.768133,SIT
9810278578000,1.949995,3.60366772767616,1.71630925461269,8.80726769295352,-0.035430185,0.01985312,0.005192355,81.01059,-9.885576,23.770164,SIT
9810283576000,1.954993,3.63237228323838,1.7210933472064,8.82162027046477,-0.025350908,0.022602014,0.009162978,81.00674,-9.882751,23.773703,SIT
9810288557000,1.959974,3.64474051985781,1.72784808014219,8.82780451792238,-0.034513887,0.008552114,0.01038471,81.00591,-9.87633,23.780323,SIT
9810293586000,1.965003,3.63522897108719,1.73735962891281,8.82304864421843,-0.025961773,0.013439035,0.015882496,81.00134,-9.876289,23.78112,SIT
9810298598000,1.970015,3.62768935897033,1.7429788,8.81639813799371,-0.029321533,0.005497787,0.0143553335,81.00254,-9.873059,23.791306,SIT
9810303610000,1.975027,3.62297341068972,1.7429788,8.80696629067597,-0.017715093,0.010995574,0.018020526,80.999405,-9.874784,23.796629,SIT
9810308527000,1.979944,3.61834685089408,1.7429788,8.79771321939477,-0.02076942,0.004581489,0.01863139,80.99887,-9.874255,23.80625,SIT
9810313611000,1.985028,3.61356315555119,1.7429788,8.78814587865985,-0.02107485,0.009773844,0.020463986,80.99586,-9.876898,23.811037,SIT
9810319003000,1.99042,3.60013890618557,1.74016499793814,8.77724232989691,-0.03023783,0.009773844,0.028099801,80.99156,-9.8756895,23.819077,SIT
9810323594000,1.995011,3.57747541532334,1.73398405761949,8.76694076269916,-0.03573562,0.005192355,0.020463986,80.991425,-9.8769655,23.825926,SIT
9810328670000,2.000087,3.55241771991565,1.72715015366448,8.75555092277413,-0.02443461,0.008246681,0.02321288,80.98469,-9.879254,23.827854,SIT
9810333613000,2.00503,3.52801657956888,1.72049530984067,8.74445951640112,-0.016798794,0.004276057,0.019547688,80.98304,-9.880876,23.832087,SIT
9810338613000,2.01003,3.50493956421566,1.71390512843132,8.73439126977647,-0.01985312,0.005497787,0.021380283,80.97846,-9.881718,23.834274,SIT
9810344341000,2.015758,3.50220864818042,1.70844329636083,8.73985307333101,-0.022907447,0.002443461,0.022602014,80.97571,-9.885019,23.838364,SIT
9810348588000,2.020005,3.50018382269129,1.70439364538259,8.74390270316623,-0.039095376,0.0009162979,0.021685716,80.97718,-9.883305,23.840252,SIT
9810353647000,2.025064,3.49777186315527,1.69956972631055,8.74872659705282,-0.032375857,-0.0009162979,0.015577064,80.98004,-9.887238,23.842684,SIT
9810358718000,2.030135,3.49602783864783,1.69476584090145,8.75303702560316,-0.03848451,-0.01282817,0.02443461,80.98065,-9.883808,23.843128,SIT
9810363614000,2.035031,3.50241904399109,1.69050503733927,8.75090669055841,-0.029626964,-0.007330383,0.023518313,80.98513,-9.887846,23.838345,SIT
9810368947000,2.040364,3.50938070618383,1.68586392921078,8.74858620918715,-0.038179077,0.0015271631,0.020158553,80.98414,-9.880296,23.83947,SIT
9810373601000,2.045018,3.51545600636103,1.68181372909264,8.74656117256577,-0.038789943,-0.0030543262,0.014966198,80.98455,-9.877579,23.842495,SIT
9810378590000,2.050007,3.52196861327639,1.67747199114908,8.74439037159798,-0.03145956,-0.0015271631,0.0076358155,80.985825,-9.875476,23.840918,SIT
9810383580000,2.054997,3.53759216183913,1.6792730230645,8.72696588467751,-0.034208454,-0.002443461,0.007941248,80.98682,-9.870404,23.841322,SIT
9810388675000,2.060092,3.55860822763002,1.6845270120814,8.70069593959298,-0.03390302,0.0036651916,0.01160644,80.98845,-9.868533,23.839018,SIT
9810393585000,2.065002,3.55904787113969,1.69961502104184,8.68869234227938,-0.03726278,0.010995574,0.01282817,80.99061,-9.863797,23.838009,SIT
9810398694000,2.070111,3.55448828741031,1.71785297508154,8.67957317482061,-0.03390302,0.0033597588,0.0106901415,80.993195,-9.860949,23.83942,SIT
9810403712000,2.075129,3.56631795452277,1.72715587124142,8.68990961540861,-0.027183503,0.0125227375,0.014660766,80.98836,-9.856318,23.843634,SIT
9810408608000,2.080025,3.58581816562695,1.73203089856519,8.70940962289457,-0.03970624,0.0061086523,0.0061086523,80.98947,-9.849426,23.853199,SIT
9810413589000,2.085006,3.5913026,1.73509274102087,8.71658477632997,-0.03756821,0.008246681,0.004276057,80.98628,-9.850752,23.858086,SIT
9810418637000,2.090054,3.5913026,1.73746090435975,8.71895298912511,-0.044593163,0.01038471,0.006414085,80.9849,-9.8470335,23.864197,SIT
9810423634000,2.095051,3.5913026,1.73980514211815,8.72129727584011,-0.03634648,0.018020526,0.010995574,80.98282,-9.848095,23.86893,SIT
9810428588000,2.100005,3.5913026,1.7421292073283,8.72362138958558,-0.03359759,0.018325957,0.01160644,80.98164,-9.846204,23.874725,SIT
9810433582000,2.104999,3.59574790736924,1.74446056912308,8.72891632284173,-0.044898596,0.01740966,0.011911872,80.97375,-9.841831,23.870401,SIT
9810438618000,2.110035,3.60278107353685,1.74680495784562,8.73594951348921,-0.03145956,0.014966198,0.012217305,80.96596,-9.844675,23.866543,SIT
9810443590000,2.115007,3.60972485872059,1.74911955290686,8.74289332284173,-0.047036625,0.010079277,0.016798794,80.957184,-9.83729,23.863743,SIT
9810448661000,2.120078,3.61680690511375,1.75148023503792,8.74997539388489,-0.048258353,0.013439035,0.014660766,80.95022,-9.837991,23.859026,SIT
9810453612000,2.125029,3.61493271187739,1.74745531187739,8.74555104118774,-0.031154128,0.008246681,0.014966198,80.95024,-9.84269,23.856524,SIT
9810458605000,2.130022,3.60529025122,1.73781285122,8.73108729985884,-0.03145956,0.0036651916,0.018936822,80.94955,-9.842339,23.853079,SIT
9810463581000,2.134998,3.60602320399042,1.73083009800479,8.73475855426975,-0.03268129,0.0076358155,0.015577064,80.95071,-9.847353,23.84915,SIT
9810468638000,2.140055,3.61568598882682,1.72599870558659,8.75408402304469,-0.039095376,0.005192355,0.021991149,80.948265,-9.849245,23.84902,SIT
9810473635000,2.145052,3.61290798644315,1.7190751909621,8.76515305411808,-0.028710667,0.0033597588,0.016493361,80.95782,-9.859376,23.844519,SIT
9810478580000,2.149997,3.59996412456268,1.71044594970846,8.76946776485058,-0.02443461,0.010995574,0.01985312,80.96209,-9.864302,23.838911,SIT
9810483594000,2.155011,3.58970521749169,1.70626898250832,8.77395241586774,-0.030543262,0.008246681,0.021380283,80.969124,-9.868362,23.836456,SIT
9810488602000,2.160019,3.58501331625905,1.71096088374095,8.77864441508511,-0.027183503,0.008246681,0.0143553335,80.976944,-9.876435,23.83091,SIT
9810493548000,2.164965,3.57885992763848,1.7131020558434,8.77620027921699,-0.034208454,0.006414085,0.0143553335,80.99086,-9.880632,23.826258,SIT
9810498620000,2.170037,3.56874461475219,1.7090559475885,8.75596973794252,-0.028099801,0.00061086525,0.01863139,81.0054,-9.889152,23.822674,SIT
9810504396000,2.175813,3.55722528367347,1.70444823440233,8.73293117201166,-0.031154128,0.008857546,0.015271631,81.021194,-9.894743,23.814653,SIT
9810508613000,2.18003,3.54881513492711,1.7010841889546,8.71611094477301,-0.030848695,0.01740966,0.010995574,81.03587,-9.902136,23.808393,SIT
9810513607000,2.185024,3.53885538087464,1.69710030397334,8.69619151986672,-0.03359759,0.016493361,0.014660766,81.04882,-9.907123,23.802845,SIT
9810518643000,2.19006,3.53883750228565,1.69759275114283,8.70115175902368,-0.03756821,0.017715093,0.021685716,81.06103,-9.9116955,23.794441,SIT
9810523627000,2.195044,3.54871045113249,1.70252922556624,8.73077070865653,-0.043982297,0.01863139,0.008552114,81.078,-9.916601,23.785677,SIT
9810528611000,2.200028,3.55805445747191,1.71226040696629,8.74109534485019,-0.04184427,0.02107485,0.013133603,81.08697,-9.919551,23.777395,SIT
9810533705000,2.205122,3.5671901744382,1.72596383932584,8.73652743867041,-0.029932396,0.018325957,0.016187929,81.100334,-9.924897,23.76973,SIT
9810538566000,2.209983,3.57115405711028,1.72942222844114,8.73504296366791,-0.035430185,0.016798794,0.009468411,81.114784,-9.926536,23.760658,SIT
9810544401000,2.215818,3.56838426142255,1.71834304569021,8.7378128171995,-0.04184427,0.01282817,0.006414085,81.12718,-9.930048,23.7536,SIT
9810548572000,2.219989,3.56640434405948,1.71042337623792,8.73979277591078,-0.040317107,0.01160644,0.004886922,81.12991,-9.93397,23.74119,SIT
9810553611000,2.225028,3.56401239882032,1.70085559528129,8.74218477110285,-0.035124753,0.022296581,0.009773844,81.13106,-9.936695,23.727047,SIT
9810558558000,2.229975,3.55731069915757,1.70035626421597,8.75940935602144,-0.042760566,0.016187929,0.015882496,81.13713,-9.937475,23.721197,SIT
9810563617000,2.235034,3.54339646352671,1.71427040298679,8.80115167547386,-0.043982297,0.011911872,0.011911872,81.143906,-9.941745,23.711826,SIT
9810568587000,2.240004,3.53516400103378,1.72118039793243,8.82188156618054,-0.036957346,0.013439035,0.013133603,81.1473,-9.94117,23.70259,SIT
9810574290000,2.245707,3.54020521299612,1.71109797400775,8.79163418912682,-0.03023783,0.014049901,0.014049901,81.15224,-9.940683,23.694767,SIT
9810578600000,2.250017,3.543845855366,1.7050990509026,8.7727824598294,-0.027488936,0.010995574,0.0143553335,81.15581,-9.9422035,23.67979,SIT
9810583663000,2.25508,3.54705208724459,1.70830524930239,8.7759887251868,-0.029932396,0.0021380284,0.014049901,81.159546,-9.943982,23.66675,SIT
9810588799000,2.260216,3.55030454762944,1.71155767572572,8.77924121953316,-0.032986723,0.007941248,0.015577064,81.16175,-9.945293,23.65269,SIT
9810593679000,2.265096,3.55339489160881,1.71464798743636,8.78233159578126,-0.038179077,0.006414085,0.018020526,81.164635,-9.945254,23.643482,SIT
9810598657000,2.270074,3.55654729577465,1.71780035868545,8.78548403286385,-0.034208454,0.005497787,0.013133603,81.17978,-9.950253,23.641905,SIT
9810603541000,2.274958,3.55964017282285,1.72089320343847,8.78857694220723,-0.032070424,0.005192355,0.015577064,81.19167,-9.952135,23.64104,SIT
9810608568000,2.279985,3.56314028291663,1.72363583902779,8.7916983451539,-0.026572637,0.01038471,0.01863139,81.20423,-9.956247,23.638597,SIT
9810613557000,2.284974,3.57027923926686,1.72125618691105,8.7940777984859,-0.041233405,0.007941248,0.021380283,81.21626,-9.955224,23.638428,SIT
9810618523000,2.28994,3.57738528401235,1.71888750532922,8.79644628219942,-0.03726278,-0.0030543262,0.013439035,81.22289,-9.958941,23.641287,SIT
9810623551000,2.294968,3.58458004699671,1.7164892510011,8.79884433618886,-0.020158553,0.003970624,0.008857546,81.22669,-9.961594,23.63996,SIT
9810628688000,2.300105,3.59047156319431,1.71466391840285,8.79942293506622,-0.034208454,0.0009162979,0.01282817,81.231415,-9.957044,23.644373,SIT
9810633538000,2.304955,3.58129040486262,1.71925449756869,8.7810607142716,-0.02321288,0.0015271631,0.017715093,81.23643,-9.963814,23.645454,SIT
9810638731000,2.310148,3.5728472383976,1.72277784240361,8.76312712648974,-0.02321288,-0.0009162979,0.008246681,81.23747,-9.959984,23.653994,SIT
9810643806000,2.315223,3.58258229297947,1.7081752605308,8.76799475543315,-0.021380283,0.004276057,0.017715093,81.230835,-9.95686,23.661121,SIT
9810648722000,2.320139,3.59061075941817,1.69561367772734,8.77270092570899,-0.021685716,0.0021380284,0.020463986,81.22726,-9.955236,23.671448,SIT
9810653488000,2.324905,3.5816991047884,1.70229738380436,8.77715682281447,-0.03756821,0.0027488936,0.010995574,81.22421,-9.950475,23.67901,SIT
9810658656000,2.330073,3.57203577471567,1.70954484352028,8.78198856352809,-0.031154128,0.01038471,0.013744468,81.216484,-9.947158,23.686296,SIT
9810663519000,2.334936,3.5629427456631,1.7163645797042,8.78653514926539,-0.03268129,0.0027488936,0.0076358155,81.215416,-9.939985,23.696321,SIT
9810668476000,2.339893,3.55367395170596,1.72331613887831,8.79116961883145,-0.032070424,0.005497787,0.0143553335,81.20863,-9.933436,23.701815,SIT
9810673491000,2.344908,3.54910493859588,1.73938624561649,8.78761865735243,-0.035430185,0.005497787,0.009162978,81.2083651584297,-9.93094848804305,23.7058016151853,SIT
9810678512000,2.349929,3.54490609884736,1.75618160461055,8.78341972991617,-0.032375857,0.002443461,0.009773844,81.2081,-9.928458,23.709793,SIT
9810683484000,2.354901,3.56806169903293,1.75861193921253,8.78545253430808,-0.033292156,-0.0067195175,0.009773844,81.20445,-9.922365,23.719,SIT
9810688471000,2.359888,3.60655093557449,1.75311349325351,8.79095109509556,-0.021380283,0.004276057,0.014660766,81.191444,-9.91832,23.720057,SIT
9810693514000,2.364931,3.60627148059328,1.76929452132332,8.78732419320042,-0.023518313,0.004581489,0.005497787,81.18359,-9.914315,23.731928,SIT
9810698541000,2.369958,3.60163480780121,1.78784126090725,8.782687423577,-0.027794369,-0.0018325958,0.015577064,81.16839,-9.910252,23.743471,SIT
9810703500000,2.374917,3.6008794,1.7855194916442,8.7765885916442,-0.024740042,0.0009162979,0.007941248,81.16535,-9.91086,23.758535,SIT
9810708527000,2.379944,3.6008794,1.77903125159479,8.77010035159479,-0.027794369,-0.0027488936,0.01160644,81.15668,-9.906463,23.777632,SIT
9810713520000,2.384937,3.6008794,1.77258689460916,8.76365599460916,-0.021380283,0.009773844,0.009162978,81.15118,-9.910678,23.789806,SIT
9810718512000,2.389929,3.6008794,1.76614382830189,8.75721292830189,-0.03145956,0.008246681,0.0125227375,81.143936,-9.908784,23.806797,SIT
9810723464000,2.394881,3.599999542534,1.76037268506801,8.75232167009616,-0.029932396,0.0012217305,0.008552114,81.139404,-9.912796,23.820768,SIT
9810728498000,2.399915,3.59759758890937,1.75556877781874,8.74991979171441,-0.029321533,0.0067195175,0.009162978,81.13195,-9.913126,23.831535,SIT
9810733466000,2.404883,3.5952271269294,1.7508278538588,8.74754940399083,-0.027183503,0.004276057,0.0067195175,81.13135,-9.913996,23.84976,SIT
9810738507000,2.409924,3.59282183328185,1.7460172665637,8.7451441856908,-0.033292156,0.009468411,0.009773844,81.12813,-9.912236,23.863964,SIT
9810743472000,2.414889,3.58806734188164,1.74136117094082,8.74847781961305,-0.037873644,0.014966198,0.017104227,81.127266,-9.912712,23.877113,SIT
9810748546000,2.419963,3.5788502168437,1.73675260842185,8.76230331468134,-0.03970624,0.00030543262,0.007941248,81.13141,-9.913935,23.893196,SIT
9810753508000,2.424925,3.56845800657988,1.73217167742456,8.77358534826925,-0.024740042,0.008857546,0.010079277,81.12822,-9.914698,23.90142,SIT
9810758500000,2.429917,3.55398397739429,1.727347034615,8.7784100918357,-0.03268129,0.011301007,0.015271631,81.128105,-9.909812,23.914566,SIT
9810763521000,2.434938,3.54522126347977,1.72442615030988,8.78133103713999,-0.03634648,0.006414085,0.016493361,81.118385,-9.905575,23.919073,SIT
9810768504000,2.439921,3.55174535114838,1.72660083106088,8.77915631097339,-0.031154128,0.00580322,0.016187929,81.10747,-9.9014,23.921696,SIT
9810773493000,2.44491,3.55827729443128,1.72877813033175,8.77697896623223,-0.032375857,0.0076358155,0.008246681,81.09474,-9.891917,23.926304,SIT
9810778518000,2.449935,3.56485637139993,1.73097114072184,8.77478591004375,-0.032375857,0.004581489,0.0067195175,81.08091,-9.883747,23.932482,SIT
9810783482000,2.454899,3.57135558295662,1.73313752949326,8.77261947602989,-0.032375857,0.009468411,0.007941248,81.06845,-9.876188,23.93537,SIT
9810788482000,2.459899,3.58029623314618,1.72932838342691,8.78050240329138,-0.03023783,0.009773844,0.0061086523,81.06332,-9.872684,23.937674,SIT
9810793494000,2.464911,3.58958934478219,1.72468182760891,8.7897957090029,-0.032375857,0.007330383,0.0067195175,81.057106,-9.867813,23.939425,SIT
9810798534000,2.469951,3.58749500678097,1.72192140339049,8.79912414667955,-0.030543262,0.01985312,0.011911872,81.04585,-9.86458,23.935595,SIT
9810803487000,2.474904,3.58291312893504,1.71963046446752,8.80828785452789,-0.027183503,0.015882496,0.004581489,81.03962,-9.862783,23.936354,SIT
9810808543000,2.47996,3.57823596875151,1.71729188437575,8.81764212605651,-0.027488936,0.00030543262,0.006414085,81.029236,-9.857849,23.938135,SIT
9810813584000,2.485001,3.57357268463656,1.71496024231828,8.82696864559285,-0.02687807,0.0070249503,0.007330383,81.020546,-9.8551655,23.934294,SIT
9810818549000,2.489966,3.56522257834072,1.73156427333756,8.82635275300823,-0.028405234,-0.003970624,0.007330383,81.01374,-9.851903,23.939697,SIT
9810823557000,2.494974,3.55509779151362,1.75687597610302,8.82129030673422,-0.018020526,-0.0018325958,0.011301007,81.00451,-9.851495,23.939667,SIT
9810828530000,2.499947,3.5600533744027,1.76566145035135,8.82376812405134,-0.02443461,-0.0070249503,0.010995574,81.00118,-9.848978,23.9316,SIT
9810833554000,2.504971,3.56906946090134,1.77016944652862,8.82827621437272,-0.023823744,-0.0067195175,0.014049901,80.99529,-9.8501625,23.922049,SIT
9810838545000,2.509962,3.56230872443004,1.76186899293035,8.81341565488392,-0.024740042,-0.00030543262,0.015882496,80.98991,-9.853905,23.911743,SIT
9810843533000,2.51495,3.54732145892073,1.74688183175068,8.7884370529178,-0.028710667,0.005192355,0.0125227375,80.98532,-9.857232,23.901716,SIT
9810848585000,2.520002,3.53991462437122,1.73246747311367,8.77142063652759,-0.025045475,-0.0012217305,0.013439035,80.98295,-9.863169,23.898176,SIT
9810853604000,2.525021,3.53522891963346,1.71841035890037,8.75736347338662,-0.02076942,-0.002443461,0.01160644,80.981834,-9.868876,23.891462,SIT
9810858598000,2.530015,3.53220175939864,1.71752808120271,8.7532015,-0.03359759,-0.005497787,0.00580322,80.9836,-9.871368,23.880833,SIT
9810863638000,2.535055,3.52984577404208,1.72224005191585,8.7532015,-0.03359759,0.0027488936,0.0067195175,80.98323,-9.8776045,23.867937,SIT
9810868606000,2.540023,3.52752344561917,1.72688470876165,8.7532015,-0.029321533,-0.0018325958,0.010079277,80.97816,-9.877727,23.855885,SIT
9810873601000,2.545018,3.52518849584615,1.73155460830771,8.7532015,-0.036651913,0.0015271631,0.017715093,80.97069,-9.874251,23.840027,SIT
9810878582000,2.549999,3.52286009047689,1.73621141904622,8.7532015,-0.034513887,-0.009162978,0.009468411,80.97427,-9.880059,23.821215,SIT
9810883617000,2.555034,3.52050644240738,1.74091871518524,8.7532015,-0.028710667,-0.01038471,0.013133603,80.971146,-9.882563,23.80053,SIT
9810888600000,2.560017,3.5181771021233,1.7455773957534,8.7532015,-0.026267206,0.0018325958,0.02107485,80.969086,-9.885114,23.779436,SIT
9810893577000,2.564994,3.51585056658369,1.75023046683263,8.7532015,-0.029626964,0.010079277,0.010995574,80.97173,-9.889239,23.759573,SIT
9810899185000,2.570602,3.50882794847564,1.76134570788158,8.74441139211842,-0.036651913,0.007941248,0.014966198,80.967575,-9.890389,23.741003,SIT
9810903606000,2.575023,3.50052699115773,1.77379718719733,8.73195991280267,-0.038179077,0.00030543262,0.011301007,80.96872,-9.894058,23.72141,SIT
9810908600000,2.580017,3.49341419254764,1.76856483314687,8.73719228899213,-0.027488936,0.0061086523,0.008857546,80.96765,-9.901802,23.698711,SIT
9810913618000,2.585035,3.48885778955153,1.74122636759268,8.76453080212383,-0.038179077,0.004276057,0.01985312,80.96445,-9.902283,23.681421,SIT
9810918612000,2.590029,3.49097747186954,1.72047861875364,8.7735655468841,-0.028099801,0.013439035,0.015882496,80.96723,-9.916844,23.65777,SIT
9810923603000,2.59502,3.50489646103669,1.71119929264221,8.75036723160551,-0.038789943,0.013439035,0.011911872,80.96729,-9.921725,23.63841,SIT
9810928581000,2.599998,3.52366704633575,1.7076646050277,8.73554453376651,-0.038789943,0.010995574,0.013133603,80.97484,-9.929338,23.614109,SIT
9810933640000,2.605057,3.55463159671922,1.71798608589689,8.74070538197699,-0.03634648,0.018936822,0.013439035,80.983055,-9.935116,23.587406,SIT
9810938534000,2.609951,3.57764308740824,1.72199383753059,8.75095041163185,-0.03634648,0.017104227,0.013439035,80.99134,-9.939129,23.567345,SIT
9810944333000,2.61575,3.59332232603049,1.7167674246565,8.7718559539808,-0.048258353,0.009773844,0.01985312,80.99722,-9.939671,23.54767,SIT
9810948550000,2.619967,3.6015385582575,1.71886251468538,8.78522779128751,-0.040317107,0.008246681,0.01282817,81.0029,-9.947168,23.52788,SIT
9810953606000,2.625023,3.60388223206196,1.73526825578896,8.79694616030978,-0.03604105,0.009162978,0.020463986,81.00238,-9.948076,23.511135,SIT
9810958531000,2.629948,3.60616518172314,1.75124892725557,8.80836090861568,-0.048563786,0.015271631,0.021380283,81.00576,-9.9466305,23.493673,SIT
9810963604000,2.635021,3.60851673575992,1.76770983006776,8.82011867879961,-0.040317107,0.015882496,0.018020526,81.008354,-9.951265,23.478167,SIT
9810969203000,2.64062,3.60597328473535,1.77744360597826,8.82661392722117,-0.04795292,0.009468411,0.020158553,81.010445,-9.949074,23.460016,SIT
9810973606000,2.645023,3.592023973138,1.76548706804348,8.81665016294896,-0.04795292,0.0076358155,0.018020526,81.01449,-9.951801,23.440636,SIT
9810978713000,2.65013,3.5758442923913,1.7516187875,8.80509328260869,-0.043982297,0.0036651916,0.03023783,81.01381,-9.956734,23.424658,SIT
9810983620000,2.655037,3.56029823924386,1.73829361565217,8.79398899206049,-0.047647487,-0.00580322,0.02687807,81.01886,-9.961527,23.410345,SIT
9810988568000,2.659985,3.54462229243856,1.72485710652174,8.78279192060491,-0.03726278,-0.002443461,0.025045475,81.01916,-9.969328,23.394756,SIT
9810993600000,2.665017,3.5521987978715,1.71943504690579,8.79949252069373,-0.041233405,0.0009162979,0.024740042,81.020515,-9.972491,23.382109,SIT
9810998636000,2.670053,3.56170397493102,1.71468250800158,8.81850257705952,-0.04062254,0.003970624,0.024740042,81.02208,-9.97957,23.368912,SIT
9811003607000,2.675024,3.56050235298007,1.7142484,8.80782013400728,-0.035124753,0.002443461,0.021380283,81.02232,-9.98135,23.354979,SIT
9811008535000,2.679952,3.55824116785167,1.7142484,8.79425325934266,-0.026267206,0.0012217305,0.021380283,81.02141,-9.983765,23.340729,SIT
9811013601000,2.685018,3.55591666219816,1.7142484,8.78030646813913,-0.018325957,0.010079277,0.01740966,81.02228,-9.986662,23.324186,SIT
9811018610000,2.690027,3.55361831067459,1.7142484,8.76651659898429,-0.0290161,0.004276057,0.019242255,81.0223,-9.986247,23.312826,SIT
9811023602000,2.695019,3.56147114655626,1.70577248884559,8.75599730647833,-0.038179077,-0.0015271631,0.015882496,81.01757,-9.987156,23.294466,SIT
9811028588000,2.700005,3.57310049975645,1.69414318421822,8.74669391134924,-0.030543262,0.0015271631,0.017104227,81.01087,-9.988956,23.276155,SIT
9811033618000,2.705035,3.58483247861666,1.68241125435947,8.73730841646371,-0.028099801,-0.00061086525,0.022602014,81.00459,-9.987959,23.262274,SIT
9811038569000,2.709986,3.59638019776912,1.67086358343887,8.72807032795908,-0.03634648,0.0030543262,0.024129177,80.9988,-9.986486,23.246235,SIT
9811043589000,2.715006,3.603700239413,1.65508101289308,8.70754590461216,-0.029932396,-0.004581489,0.019547688,80.994156,-9.989588,23.23438,SIT
9811048632000,2.720049,3.60830246948733,1.63667204453974,8.67993242805413,-0.022296581,0.013133603,0.009773844,80.989136,-9.9913435,23.21462,SIT
9811053697000,2.725114,3.60584467458834,1.63036286270583,8.683150435247,-0.042760566,0.0061086523,0.018325957,80.981,-9.980401,23.21594,SIT
9811058599000,2.730016,3.59748766994215,1.63454136502893,8.71240012603471,-0.03390302,0.002443461,0.021380283,80.976425,-9.980969,23.210688,SIT
9811063577000,2.734994,3.59265250133125,1.63965875904464,8.73607282380579,-0.040927973,0.0033597588,0.017715093,80.97374,-9.970631,23.207487,SIT
9811068577000,2.739994,3.59765213589141,1.64715823698773,8.74357217123466,-0.027183503,0.003970624,0.020158553,80.96866,-9.967199,23.205923,SIT
9811073577000,2.744994,3.60265177045158,1.65465771493083,8.75107151866353,-0.03268129,0.004886922,0.016187929,80.97047,-9.95887,23.203362,SIT
9811078590000,2.750007,3.6076644040616,1.66217669151658,8.75859036439572,-0.03604105,0.0076358155,0.01985312,80.96908,-9.953642,23.200678,SIT
9811083568000,2.754985,3.60630574702617,1.66428917351308,8.77315413243458,-0.042455133,0.004581489,0.018020526,80.97094,-9.947349,23.198877,SIT
9811088560000,2.759977,3.59682767692308,1.65955013846154,8.79684930769231,-0.03604105,-0.00030543262,0.015271631,80.97193,-9.943351,23.197012,SIT
9811093552000,2.764969,3.58732156741539,1.65280657780773,8.80966672626535,-0.03268129,-0.0036651916,0.015882496,80.972534,-9.938946,23.196058,SIT
9811098567000,2.769984,3.57773228863931,1.64321732406409,8.80726936902266,-0.029932396,0.007941248,0.020158553,80.972244,-9.936013,23.192282,SIT
9811103491000,2.774908,3.56831701272836,1.63380207273136,8.8049155131776,-0.033292156,0.002443461,0.016187929,80.969734,-9.927338,23.199766,SIT
9811108509000,2.779926,3.55872199759409,1.6242070826445,8.8025167218229,-0.02565634,0.002443461,0.015271631,80.96421,-9.921678,23.202658,SIT
9811113480000,2.784897,3.55673363429475,1.6203494976294,8.79921595851442,-0.033292156,-0.0012217305,0.015577064,80.96109,-9.91364,23.199963,SIT
9811118534000,2.789951,3.56629539893323,1.62513033002766,8.794435525484,-0.029932396,-0.00030543262,0.010995574,80.9596,-9.911267,23.195738,SIT
9811123466000,2.794883,3.57302708831687,1.62542283504939,8.78799661922578,-0.01863139,-0.009162978,0.0061086523,80.95929,-9.90579,23.193548,SIT
9811128518000,2.799935,3.57544063683528,1.61818218949416,8.77834234954604,-0.028710667,-0.0061086523,0.0106901415,80.956856,-9.895185,23.188105,SIT
9811133468000,2.804885,3.57780545575177,1.61108773274469,8.76888299980046,-0.032986723,-0.007941248,0.006414085,80.95578,-9.889017,23.19324,SIT
9811138518000,2.809935,3.58021804878779,1.60384995363664,8.75923255208022,-0.024129177,0.0036651916,0.008552114,80.950554,-9.882634,23.194103,SIT
9811143902000,2.815319,3.5911444944469,1.60686165555752,8.75131782012007,-0.034208454,0.0012217305,0.005192355,80.94941,-9.871514,23.198689,SIT
9811148554000,2.819971,3.61081045789706,1.62259442631765,8.74738475064006,-0.03023783,0.0030543262,0.0015271631,80.94692,-9.866386,23.1988,SIT
9811153515000,2.824932,3.63005434756615,1.63541116216924,8.74273588630001,-0.035124753,0.004886922,0.0018325958,80.94873,-9.855225,23.206373,SIT
9811158541000,2.829958,3.63440122707487,1.61367676462567,8.73404194572383,-0.039095376,0.010079277,0.0030543262,80.95108,-9.845835,23.212004,SIT
9811163590000,2.835007,3.63876799878985,1.59184290605075,8.72530821990427,-0.03970624,0.014660766,0.005497787,80.95659,-9.84063,23.224028,SIT
9811168541000,2.839958,3.66106313571976,1.58318693928407,8.73759696711838,-0.03573562,0.014660766,-0.0027488936,80.96487,-9.836782,23.234892,SIT
9811173625000,2.845042,3.68596134650984,1.57571747604705,8.75253594558936,-0.032070424,0.013133603,-0.005192355,80.97038,-9.83187,23.24491,SIT
9811178530000,2.849947,3.70998292871388,1.56851100138583,8.76694894507798,-0.03268129,0.010995574,-0.00061086525,80.97907,-9.824152,23.256338,SIT
9811183850000,2.855267,3.73476473072576,1.56177897709698,8.78231172665291,-0.034208454,0.021380283,0.002443461,80.993225,-9.820287,23.261826,SIT
9811188621000,2.860038,3.73066578815825,1.578174747367,8.7905093549834,-0.028099801,0.023823744,0.00061086525,81.00774,-9.818274,23.269743,SIT
9811193525000,2.864942,3.7264525803714,1.5950275785144,8.7989355065937,-0.025961773,0.022907447,-0.004276057,81.021454,-9.811409,23.278822,SIT
9811198583000,2.87,3.71031370430741,1.6068587478463,8.78602098295631,-0.026572637,0.020158553,-0.0070249503,81.03477,-9.805422,23.28739,SIT
9811203535000,2.874952,3.6907189047619,1.61665614761905,8.76642628571429,-0.020158553,0.01740966,-0.009468411,81.04927,-9.802369,23.295637,SIT
9811208596000,2.880013,3.69068625038767,1.64378989046794,8.77000945179239,-0.013744468,0.025045475,-0.0021380284,81.05497,-9.799176,23.29977,SIT
9811213594000,2.885011,3.69505228581593,1.67435218405546,8.77874170500775,-0.017104227,0.030543262,0.008857546,81.06038,-9.794944,23.305058,SIT
9811218609000,2.890026,3.67902792969231,1.71782039289423,8.75843934225962,-0.02076942,0.023518313,-0.007941248,81.07218,-9.796978,23.309418,SIT
9811224143000,2.89556,3.648452154,1.773876034875,8.717671588125,-0.014660766,0.022602014,-0.0036651916,81.07343,-9.79702,23.312082,SIT
9811228584000,2.900001,3.62984305068832,1.79486727827644,8.70798707157985,-0.01863139,0.02565634,0.0015271631,81.0765,-9.802045,23.303373,SIT
9811233612000,2.905029,3.61284617444405,1.80215165380969,8.71284329658111,-0.018325957,0.029626964,0.00580322,81.0784,-9.809199,23.295082,SIT
9811238600000,2.910017,3.59598451599012,1.80937807886138,8.71766088812969,-0.028405234,0.025961773,0.004886922,81.07661,-9.822124,23.285137,SIT
9811243593000,2.91501,3.57910595531239,1.81661174772326,8.72248330885987,-0.019547688,0.018020526,0.002443461,81.07396,-9.839491,23.275831,SIT
9811248643000,2.92006,3.56660155598471,1.81820644623687,8.72863157577078,-0.01985312,0.02107485,0.007330383,81.06554,-9.847887,23.27271,SIT
9811253635000,2.925052,3.55734592746721,1.81589255118823,8.73557328507817,-0.020158553,0.022907447,0.0070249503,81.06002,-9.859311,23.271769,SIT
9811258653000,2.93007,3.54804209255118,1.81356660460288,8.74255114912153,-0.02687807,0.029321533,0.0067195175,81.052826,-9.870367,23.265268,SIT
9811263593000,2.93501,3.53888287683074,1.81127681262766,8.74942054895697,-0.029321533,0.014660766,0.0076358155,81.04655,-9.882167,23.264385,SIT
9811268604000,2.940021,3.51718033571893,1.81477686122316,8.77224296974626,-0.027488936,0.016493361,0.009773844,81.03873,-9.8930645,23.257309,SIT
9811273605000,2.945022,3.48082650383865,1.82516367033182,8.81379026040989,-0.028710667,0.02687807,0.008857546,81.03198,-9.902631,23.251886,SIT
9811278577000,2.949994,3.45301083339644,1.84296326660356,8.81602283339644,-0.03390302,0.025350908,0.004886922,81.02646,-9.910149,23.24676,SIT
9811283614000,2.955031,3.43017935781901,1.86579474218099,8.79319135781901,-0.028405234,0.022907447,0.0036651916,81.019936,-9.919837,23.239305,SIT
9811288598000,2.960015,3.4143122247883,1.8724463247883,8.77041256197075,-0.030848695,0.02321288,0.002443461,81.02275,-9.931778,23.21741,SIT
9811294166000,2.965583,3.4040497878368,1.8621838878368,8.74475646959199,-0.036651913,0.029932396,0.007330383,81.023674,-9.943368,23.195318,SIT
9811298629000,2.970046,3.40043276658534,1.85923323317068,8.7367134524251,-0.044593163,0.023823744,0.004886922,81.027664,-9.959472,23.175713,SIT
9811303665000,2.975082,3.40200164088351,1.86237098176702,8.74298891685371,-0.044593163,0.02443461,0.0012217305,81.029594,-9.975346,23.153234,SIT
9811308592000,2.980009,3.40353655821216,1.86544081642432,8.7491285541134,-0.040927973,0.03176499,0.008552114,81.02877,-9.989616,23.123217,SIT
9811313614000,2.985031,3.4051010710647,1.8685698421294,8.75538657285059,-0.05467244,0.02443461,0.008857546,81.03184,-10.0001545,23.097492,SIT
9811318591000,2.990008,3.40665156498487,1.87167082996975,8.76158851615107,-0.05375614,0.024740042,0.012217305,81.03322,-10.015376,23.067299,SIT
9811323600000,2.995017,3.40821202792362,1.87479175584724,8.76783033531765,-0.0580322,0.032986723,0.009468411,81.0362,-10.025967,23.037518,SIT
9811328547000,2.999964,3.40805704133075,1.87319562399224,8.76849657771201,-0.058337633,0.023823744,0.006414085,81.03913,-10.037195,23.013567,SIT
9811333608000,3.005025,3.40311080346974,1.85835691040923,8.7536580707215,-0.058337633,0.021685716,0.008552114,81.04032,-10.046825,22.986378,SIT
9811338532000,3.009949,3.40120526702011,1.84688483297989,8.74074720586176,-0.05131268,0.008857546,0.015577064,81.04196,-10.058775,22.965355,SIT
9811344334000,3.015751,3.40676339381815,1.84132670618185,8.72963072011603,-0.05009095,0.00061086525,0.018020526,81.04407,-10.069186,22.944275,SIT
9811348552000,3.019969,3.41669920886471,1.83580449645411,8.72888462068097,-0.04886922,0.007941248,0.019547688,81.03813,-10.076331,22.920973,SIT
9811353611000,3.025028,3.44110186384608,1.82604343446157,8.74352626463181,-0.051618114,0.0009162979,0.022602014,81.03241,-10.082177,22.904839,SIT
9811358534000,3.029951,3.45794684919623,1.81599504650433,8.7553604551032,-0.05131268,-0.005497787,0.018020526,81.02463,-10.0881815,22.885376,SIT
9811364031000,3.035448,3.46045059073528,1.80347631266527,8.76287170586417,-0.046120327,0.0015271631,0.023518313,81.01268,-10.093238,22.865423,SIT
9811368548000,3.039965,3.46250796758299,1.79318940694378,8.76904385789023,-0.046731193,0.0036651916,0.030543262,81.002464,-10.094992,22.850729,SIT
9811373598000,3.045015,3.46480811216589,1.78168866001141,8.7759443156568,-0.047647487,0.00580322,0.028099801,80.99329,-10.09848,22.834356,SIT
9811378597000,3.050014,3.46852972593458,1.76998347406542,8.7836577019081,-0.046731193,-0.004886922,0.03268129,80.99535,-10.106463,22.824835,SIT
9811383611000,3.055028,3.48255369649533,1.75595950350467,8.79768147721963,-0.045814894,-0.003970624,0.034513887,80.99804,-10.114572,22.811579,SIT
9811388617000,3.060034,3.49666903669561,1.7426951408261,8.81037833490222,-0.04062254,-0.009162978,0.03145956,81.00193,-10.119065,22.803062,SIT
9811393577000,3.064994,3.51208766138116,1.73884048465471,8.80652359823095,-0.038179077,-0.005497787,0.024129177,81.00595,-10.123265,22.791954,SIT
9811398658000,3.070075,3.52788242590278,1.7348917935243,8.80257482463686,-0.03756821,-0.013439035,0.026267206,81.0034,-10.120265,22.795628,SIT
9811403620000,3.075037,3.5417209728722,1.73077556065928,8.79583228586868,-0.03573562,-0.018020526,0.02443461,81.003914,-10.1195545,22.79665,SIT
9811408595000,3.080012,3.55459449669459,1.72648441592362,8.78725026524363,-0.039095376,-0.01985312,0.027488936,81.00262,-10.116899,22.799377,SIT
9811413579000,3.084996,3.5634919947153,1.7247449947153,8.78101218607588,-0.042455133,-0.012217305,0.025961773,81.00286,-10.114874,22.802303,SIT
9811418610000,3.090027,3.56592623312282,1.72717923312282,8.77857789683221,-0.050396383,-0.014049901,0.028099801,81.00175,-10.110087,22.808517,SIT
9811423598000,3.095015,3.56833966607386,1.72959266607386,8.77616441347951,-0.04550946,0.002443461,0.026572637,81.00306,-10.109416,22.807055,SIT
9811428582000,3.099999,3.57075116363361,1.73200416363361,8.77375286555853,-0.05131268,-0.00580322,0.025350908,81.005196,-10.103665,22.81301,SIT
9811433676000,3.105093,3.57813846128392,1.7234195645268,8.76436909331568,-0.04428773,-0.0061086523,0.022296581,81.00694,-10.103018,22.81189,SIT
9811438600000,3.110017,3.59151356666352,1.70112772222747,8.74653571258391,-0.040011674,-0.0061086523,0.025045475,81.0065847675053,-10.100500526018,22.8123462299687,SIT
9811443573000,3.11499,3.60162090182778,1.68403499634444,8.73553099591287,-0.044593163,-0.003970624,0.029626964,81.006226,-10.097958,22.812807,SIT
9811448707000,3.120124,3.6041172102762,1.6790423794476,8.7405235867435,-0.04520403,0.0015271631,0.0290161,81.00853,-10.096995,22.812881,SIT
9811453587000,3.125004,3.6064900161251,1.6742967677498,8.7452691736647,-0.044593163,0.0027488936,0.028405234,81.00686,-10.090362,22.819782,SIT
9811458602000,3.130019,3.60892846311942,1.66941987376117,8.75014604219131,-0.043982297,0.01038471,0.024740042,81.005684,-10.084164,22.822893,SIT
9811463573000,3.13499,3.61395991899785,1.66548847025054,8.75845705105766,-0.054061573,0.004886922,0.023823744,81.00293,-10.073855,22.83238,SIT
9811468611000,3.140028,3.62361095033255,1.66307571241686,8.77293352247837,-0.053450707,-0.0033597588,0.03023783,80.998886,-10.066305,22.84045,SIT
9811473551000,3.144968,3.63307424822723,1.66070988794319,8.78712839520928,-0.04520403,-0.006414085,0.024740042,80.99901,-10.057749,22.84763,SIT
9811478587000,3.150004,3.64272144826724,1.65829808793319,8.80159911971796,-0.04795292,0.0018325958,0.021380283,80.996506,-10.045801,22.854042,SIT
9811483546000,3.154963,3.64723128176379,1.65525547376468,8.8037674839353,-0.0421497,-0.0036651916,0.02565634,80.98532,-10.03307,22.871346,SIT
9811488603000,3.16002,3.64293880424551,1.65096297383559,8.78445137992466,-0.036957346,0.0009162979,0.021991149,80.97686,-10.021158,22.882368,SIT
9811493569000,3.164986,3.63872356925327,1.64674771683581,8.76548286647463,-0.03970624,-0.0076358155,0.021380283,80.96763,-10.006435,22.899122,SIT
9811498660000,3.170077,3.6344022318901,1.64242635691115,8.74603689346333,-0.043066,-0.00580322,0.025350908,80.95755,-9.993203,22.91121,SIT
9811503543000,3.17496,3.63025744887215,1.63828155225349,8.72738541316198,-0.0421497,-0.0027488936,0.031154128,80.94783,-9.980621,22.92486,SIT
9811508597000,3.180014,3.64583166866673,1.63357843283332,8.72852655186026,-0.03634648,-0.00030543262,0.020463986,80.94219,-9.970276,22.936956,SIT
9811513754000,3.185171,3.66532739849995,1.62870450037501,8.73340058610481,-0.04153884,-0.0027488936,0.01863139,80.93253,-9.956039,22.949862,SIT
9811518606000,3.190023,3.6595788208107,1.60304256243209,8.72154068768283,-0.05131268,0.00061086525,0.018325957,80.933655,-9.946501,22.961773,SIT
9811523534000,3.194951,3.64971787839532,1.57345973518596,8.70674922257626,-0.040927973,-0.0009162979,0.018936822,80.93552,-9.941193,22.975182,SIT
9811528582000,3.199999,3.63649446704036,1.56241701136024,8.7175864756633,-0.040011674,0.010079277,0.017104227,80.93724,-9.930416,22.985174,SIT
9811533600000,3.205017,3.62302575,1.55343786666667,8.73105523958333,-0.04642576,0.008552114,0.013744468,80.94009,-9.920752,22.998554,SIT
9811538605000,3.210022,3.6330179257581,1.55468893143953,8.72430927178459,-0.04062254,0.0036651916,0.015271631,80.94955,-9.913075,23.008467,SIT
9811544335000,3.215752,3.65214482154061,1.55947065538515,8.70996405001743,-0.03481932,0.008246681,0.0143553335,80.960175,-9.904509,23.015472,SIT
9811549246000,3.220663,3.66159641858653,1.56753193717307,8.71182990317195,-0.028710667,0.009162978,0.0125227375,80.97119,-9.8952875,23.022415,SIT
9811553617000,3.225034,3.6662553159488,1.57684973189761,8.72114764924875,-0.034208454,0.006414085,0.0033597588,80.98452,-9.885593,23.028389,SIT
9811558603000,3.23002,3.67417910524709,1.59269731049418,8.73386419056478,-0.03940081,0.0067195175,0.011911872,80.99229,-9.877309,23.036402,SIT
9811563606000,3.235023,3.6833210114482,1.61098112289639,8.74757709759588,-0.026267206,0.0018325958,0.01282817,81.005394,-9.874336,23.045418,SIT
9811568609000,3.240026,3.6870706,1.61296620082435,8.75733708877616,-0.03481932,0.0061086523,0.008857546,81.02082,-9.86602,23.057367,SIT
9811573603000,3.24502,3.6870706,1.60363464837325,8.76433577747427,-0.029321533,0.004581489,0.010995574,81.034386,-9.864024,23.072136,SIT
9811578577000,3.249994,3.6870706,1.59434046697722,8.77130643778352,-0.02565634,0.006414085,0.008246681,81.049736,-9.863293,23.084187,SIT
9811583732000,3.255149,3.6870706,1.5847080775328,8.77853075501195,-0.01985312,0.012217305,0.007941248,81.063194,-9.863972,23.095287,SIT
9811588594000,3.260011,3.68820969280969,1.57789491438062,8.77737565254982,-0.0290161,0.006414085,0.0061086523,81.0741,-9.861228,23.104145,SIT
9811593568000,3.264985,3.69053652962095,1.57324124075811,8.76806835389801,-0.027794369,0.0067195175,0.0067195175,81.083405,-9.862399,23.109522,SIT
9811598603000,3.27002,3.69289190222743,1.56853049554513,8.7586469126612,-0.019242255,0.01160644,0.0018325958,81.09856,-9.860927,23.116127,SIT
9811603606000,3.275023,3.69523230523642,1.56384968952716,8.74928534950176,-0.024740042,0.01740966,0.00580322,81.11042,-9.854984,23.122555,SIT
9811608545000,3.279962,3.69156091534548,1.56356274232726,8.7393862627879,-0.027794369,0.01160644,0.007941248,81.12439,-9.85261,23.130241,SIT
9811613632000,3.285049,3.67804213403015,1.57032213298492,8.7281206116918,-0.0290161,0.010995574,0.00580322,81.13755,-9.849273,23.134604,SIT
9811619155000,3.290572,3.66336467595967,1.57766086202016,8.71588939663306,-0.023518313,0.01038471,-0.0015271631,81.1603,-9.848102,23.150068,SIT
9811623604000,3.295021,3.65154138952918,1.58357250523541,8.70603665794099,-0.030848695,0.016798794,0.0030543262,81.1792,-9.842042,23.16363,SIT
9811628641000,3.300058,3.6373287008,1.59049305968,8.6961125682,-0.027488936,0.020158553,0.004581489,81.2027,-9.842664,23.173952,SIT
9811633618000,3.305035,3.613496834,1.6000258064,8.70087879225,-0.03756821,0.010995574,0.004276057,81.225174,-9.837384,23.185738,SIT
9811638619000,3.310036,3.58890327223411,1.61070299425858,8.70771682463421,-0.023518313,0.026572637,0.0061086523,81.24439,-9.8421135,23.187702,SIT
9811643579000,3.314996,3.55638779212801,1.63508958311799,8.74023226229999,-0.025961773,0.01740966,0.004581489,81.266174,-9.840146,23.198643,SIT
9811648689000,3.320106,3.52288898097031,1.66021366962437,8.77373102973389,-0.023518313,0.01038471,0.0036651916,81.287094,-9.845707,23.196795,SIT
9811653642000,3.325059,3.50944316836136,1.67335750885152,8.77144230021204,-0.022602014,0.011301007,0.007330383,81.30659,-9.84959,23.195435,SIT
9811658535000,3.329952,3.5025109800286,1.68260042662853,8.75757787528971,-0.020463986,0.018325957,0.00061086525,81.32903,-9.85544,23.193638,SIT
9811663581000,3.334998,3.49536202798955,1.69213236268061,8.74327992144583,-0.023823744,0.016493361,0.0061086523,81.35175,-9.864488,23.185898,SIT
9811668601000,3.340018,3.488249911613,1.701615184516,8.72905563918339,-0.017715093,0.016187929,0.003970624,81.37765,-9.877724,23.175282,SIT
9811673598000,3.345015,3.48116068224133,1.71266646293112,8.72607000597885,-0.027488936,0.0125227375,0.0012217305,81.40454,-9.8859215,23.167557,SIT
9811678606000,3.350023,3.47405119300326,1.72451561166123,8.72843988521593,-0.030543262,0.012217305,0.002443461,81.42994,-9.896772,23.159286,SIT
9811683610000,3.355027,3.46694738227098,1.73635529621504,8.73080787157822,-0.028405234,0.0067195175,0.00061086525,81.45673,-9.91108,23.15327,SIT
9811688996000,3.360413,3.45930127423658,1.74909880960569,8.73335662748295,-0.027183503,0.0076358155,0.003970624,81.48049,-9.923118,23.146048,SIT
9811693571000,3.364988,3.46278326058687,1.7442215091197,8.72849196842105,-0.027794369,0.014660766,0.00580322,81.504486,-9.935111,23.138586,SIT
9811698729000,3.370146,3.47198626653004,1.73041700020494,8.71928901052632,-0.018020526,0.013133603,0.0012217305,81.52919,-9.950026,23.133219,SIT
9811703616000,3.375033,3.48070574889613,1.7173377766558,8.71056957368421,-0.02687807,0.01740966,0.005497787,81.545074,-9.959761,23.12768,SIT
9811708596000,3.380013,3.4895911637075,1.70400965443875,8.70168420526316,-0.02565634,0.008552114,0.006414085,81.56364,-9.975129,23.125908,SIT
9811713599000,3.385016,3.49382968269988,1.69679951730012,8.70426458650059,-0.028710667,0.012217305,0.004581489,81.58024,-9.986465,23.119589,SIT
9811718610000,3.390027,3.48872062863835,1.70190857136165,8.72980985680826,-0.024740042,0.0033597588,0.007330383,81.59591,-9.998951,23.119587,SIT
9811723601000,3.395018,3.48703880574144,1.70791521722431,8.75335582909325,-0.024129177,0.011301007,0.003970624,81.612305,-10.005829,23.116085,SIT
9811728570000,3.399987,3.48939413731934,1.71498121195803,8.77455376410612,-0.031154128,0.01282817,0.005497787,81.626816,-10.010598,23.11716,SIT
9811733585000,3.405002,3.49177127313403,1.7221126194021,8.79594793679469,-0.020463986,0.004581489,0.009468411,81.64138,-10.01999,23.117153,SIT
9811738604000,3.410021,3.49415030496931,1.72924971490794,8.81735917362898,-0.027488936,0.0106901415,0.0125227375,81.65442,-10.022575,23.112726,SIT
9811744363000,3.41578,3.49750558358588,1.73537318358588,8.82587355049663,-0.03604105,0.004886922,0.017104227,81.666565,-10.026682,23.114195,SIT
9811748592000,3.420009,3.50044187643007,1.73830947643007,8.82000084216632,-0.032986723,-0.0012217305,0.013133603,81.67974,-10.032425,23.11372,SIT
9811753601000,3.425018,3.50391974137606,1.74178734137606,8.81304496701225,-0.015882496,-0.00030543262,0.014660766,81.68139,-10.035947,23.111952,SIT
9811758678000,3.430095,3.50349543649415,1.73813150948246,8.79450436494152,-0.02107485,-0.005497787,0.013439035,81.68571,-10.035153,23.113174,SIT
9811763617000,3.435034,3.50112106697455,1.73100840092365,8.77076066974549,-0.026572637,-0.012217305,0.01282817,81.689316,-10.03842,23.11462,SIT
9811768607000,3.440024,3.49872217977009,1.72381173931028,8.74677179770092,-0.025045475,-0.0009162979,0.009773844,81.68371,-10.0404415,23.10963,SIT
9811773604000,3.445021,3.4963199273932,1.71660498217961,8.72274927393203,-0.03176499,0.00030543262,0.013133603,81.677444,-10.038259,23.109608,SIT
9811778578000,3.449995,3.49866205346631,1.71893988019947,8.7211493559206,-0.034208454,-0.00580322,0.0143553335,81.66726,-10.035642,23.109756,SIT
9811783614000,3.455031,3.50337788066882,1.72601362100323,8.73058108418891,-0.030848695,-0.005192355,0.01160644,81.6571,-10.033055,23.10763,SIT
9811788600000,3.460017,3.50804688671165,1.73301713006747,8.73991916940452,-0.037873644,0.0076358155,0.01282817,81.64108,-10.024792,23.101942,SIT
9811793576000,3.464993,3.51270652852254,1.74000659278381,8.74923852600958,-0.04062254,-0.0009162979,0.013744468,81.6276,-10.019125,23.101954,SIT
9811798581000,3.469998,3.52143485201912,1.74162943523215,8.75590021544577,-0.03634648,-0.0015271631,0.013133603,81.61343,-10.013772,23.096249,SIT
9811803695000,3.475112,3.53337787771167,1.73924084007023,8.76067738082813,-0.036651913,0.004276057,0.008857546,81.60063,-10.007095,23.091053,SIT
9811808596000,3.480013,3.54482347194694,1.73695173078424,8.76525557549746,-0.043982297,0.00061086525,0.01160644,81.586754,-10.00116,23.089252,SIT
9811813605000,3.485022,3.55652128494928,1.73461217795552,8.76993465672552,-0.04550946,-0.0036651916,0.0125227375,81.5748,-9.997554,23.085772,SIT
9811818605000,3.490022,3.5702499397737,1.73230518003233,8.76906458590853,-0.036957346,0.0015271631,0.014966198,81.56366,-9.9957905,23.078495,SIT
9811823597000,3.495014,3.58615997586764,1.73003231773319,8.76224609394314,-0.04550946,0.003970624,0.014049901,81.55398,-9.989596,23.073168,SIT
9811828552000,3.499969,3.60195208901778,1.72777630156889,8.75547813967862,-0.04184427,-0.0027488936,0.013133603,81.53821,-9.984996,23.07203,SIT
9811833667000,3.505084,3.61825413922221,1.72544743725397,8.74849164400494,-0.037873644,-0.008857546,0.01282817,81.52282,-9.978579,23.07009,SIT
9811838546000,3.509963,3.63144013385293,1.72321508871569,8.74484518434429,-0.03359759,-0.00061086525,0.019242255,81.50221,-9.970279,23.071928,SIT
9811843578000,3.514995,3.63843879642736,1.72088220119088,8.74951081323522,-0.03970624,0.00061086525,0.026572637,81.482666,-9.960576,23.077251,SIT
9811848605000,3.520022,3.64543050484582,1.71855163171806,8.7541718061674,-0.03726278,0.0033597588,0.018020526,81.46856,-9.956479,23.08402,SIT
9811853614000,3.525031,3.65239717830275,1.71622940723242,8.75881610964806,-0.044898596,0.00061086525,0.016187929,81.45092,-9.946906,23.09244,SIT
9811858600000,3.530017,3.65965737947531,1.71293122052469,8.76146086178627,-0.036957346,-0.007330383,0.020158553,81.42762,-9.938908,23.105124,SIT
9811863591000,3.535008,3.66887763580247,1.70371096419753,8.75224089429012,-0.03940081,-0.00061086525,0.023823744,81.40487,-9.9269,23.113918,SIT
9811868635000,3.540052,3.67714628433919,1.69439976867838,8.74501505538579,-0.038789943,0.0125227375,0.022602014,81.38308,-9.917176,23.123604,SIT
9811874297000,3.545714,3.67196830099312,1.68404380198625,8.76572688063407,-0.03604105,0.0061086523,0.016187929,81.36314,-9.908034,23.136377,SIT
9811878941000,3.550358,3.66907009557389,1.67517246761065,8.78231635315079,-0.029932396,0.0076358155,0.023518313,81.326645,-9.893522,23.139883,SIT
9811883598000,3.555015,3.69416339504876,1.65844355762378,8.79068052428732,-0.035124753,-0.006414085,0.022907447,81.29675,-9.879026,23.148615,SIT
9811888600000,3.560017,3.72111565701425,1.64047533607464,8.79966433017629,-0.031154128,-0.00061086525,0.02076942,81.264946,-9.866046,23.150095,SIT
9811893591000,3.565008,3.71795597879878,1.6357784446997,8.79922969969554,-0.025350908,0.00580322,0.021380283,81.23416,-9.852595,23.155197,SIT
9811898637000,3.570054,3.7090391907556,1.6335492476889,8.79700068890119,-0.023518313,-0.007941248,0.021380283,81.2059,-9.84006,23.163988,SIT
9811903633000,3.57505,3.70021075772673,1.63134213943168,8.79479376501522,-0.025350908,0.004886922,0.021991149,81.17613,-9.824808,23.165773,SIT
9811908595000,3.580012,3.69144240610758,1.62915005152689,8.79260186022696,-0.026572637,0.010079277,0.026267206,81.14729,-9.810388,23.173443,SIT
9811913585000,3.585002,3.68946956742334,1.61846123030665,8.79390776702509,-0.022907447,0.016187929,0.022296581,81.121185,-9.799554,23.170828,SIT
9811918613000,3.59003,3.69426368833134,1.59928474667463,8.7987014874552,-0.03176499,0.018325957,0.016493361,81.09507,-9.7853775,23.168058,SIT
9811923599000,3.595016,3.69544059115977,1.59095670884023,8.79384424776967,-0.03359759,0.015882496,0.01038471,81.0711,-9.774218,23.163033,SIT
9811928581000,3.599998,3.69302211905921,1.59337518094079,8.77933361719384,-0.030543262,0.018325957,0.011911872,81.046875,-9.762295,23.156315,SIT
9811933610000,3.605027,3.6905808311841,1.5958164688159,8.76468609387672,-0.032375857,0.016187929,0.01282817,81.02588,-9.746231,23.151564,SIT
9811938603000,3.61002,3.68815701922141,1.59824028077859,8.75014342457421,-0.030848695,0.016798794,0.0036651916,81.007866,-9.733334,23.14507,SIT
9811945095000,3.616512,3.665246731137,1.60478266721575,8.73544087826436,-0.022602014,0.027488936,0.013744468,81.002815,-9.727007,23.141762,SIT
9811948604000,3.620021,3.64724486093478,1.60928313476631,8.72869003595822,-0.03023783,0.019242255,0.011301007,81.00548,-9.719498,23.142477,SIT
9811953611000,3.625028,3.62155795181465,1.61570486204634,8.71905724387304,-0.040011674,0.018020526,0.011301007,80.998146,-9.711965,23.139942,SIT
9811958601000,3.630018,3.61574627756059,1.62906048274042,8.72018418803753,-0.03481932,0.016798794,0.003970624,80.99451,-9.707678,23.139202,SIT
9811963603000,3.63502,3.62510967740422,1.64778733131353,8.72954778342455,-0.024129177,0.023518313,0.0018325958,80.98912,-9.701922,23.136816,SIT
9811968585000,3.640002,3.6252396804496,1.66552783910081,8.72749279785822,-0.023823744,0.01985312,0.0036651916,80.985725,-9.697425,23.134367,SIT
9811973600000,3.645017,3.61673845874856,1.68253028250288,8.71474092092221,-0.025961773,0.022907447,0.0030543262,80.98308,-9.695665,23.128042,SIT
9811978586000,3.650003,3.60919932478212,1.69886542565365,8.71160187608941,-0.028710667,0.020158553,0.008246681,80.97855,-9.69617,23.125517,SIT
9811983595000,3.655012,3.60428081855839,1.71362094432482,8.73619440720804,-0.032986723,0.028099801,0.004581489,80.97622,-9.696794,23.118742,SIT
9811988532000,3.659949,3.59072027660494,1.73398430824074,8.75610408287037,-0.027488936,0.027183503,0.0021380284,80.97255,-9.702503,23.11543,SIT
9811993619000,3.665036,3.555635781893,1.76906875061728,8.76612814197531,-0.027183503,0.024129177,0.0021380284,80.9700842201652,-9.70463612740122,23.1135434505823,SIT
9811998579000,3.669996,3.5330029194512,1.79337894164639,8.77151630193636,-0.021685716,0.02107485,0.0070249503,80.96768,-9.706716,23.111704,SIT
9812003637000,3.675054,3.53064622710908,1.80044901867276,8.76915956037754,-0.030543262,0.018020526,0.00061086525,80.96697,-9.711731,23.105358,SIT
9812008527000,3.679944,3.52836781161818,1.80728426514547,8.76688109730466,-0.03268129,0.01985312,0.00061086525,80.9656,-9.725378,23.096094,SIT
9812014119000,3.685536,3.52576231071324,1.81510076786027,8.76427554198696,-0.034513887,0.016493361,0.005192355,80.96514,-9.736712,23.089287,SIT
9812018558000,3.689975,3.52146730381534,1.8212717977108,8.76165903657955,-0.03390302,0.009773844,0.01038471,80.96887,-9.750769,23.077667,SIT
9812023598000,3.695015,3.50995760522701,1.82817761686379,8.75705530136398,-0.03390302,0.022296581,0.005192355,80.97329,-9.764512,23.061663,SIT
9812028614000,3.700031,3.4985027147272,1.83505055116368,8.75247348869706,-0.032070424,0.0143553335,0.0030543262,80.97365,-9.7794075,23.052954,SIT
9812033611000,3.705028,3.48709121396414,1.84189745162152,8.74790903138115,-0.0290161,0.017104227,0.0076358155,80.97209,-9.794119,23.038267,SIT
9812038660000,3.710077,3.47668017924068,1.84982059620341,8.74392436986242,-0.043676864,0.017715093,0.003970624,80.97413,-9.805496,23.026253,SIT
9812043625000,3.715042,3.48082061915709,1.87052279578544,8.74806468007663,-0.04520403,0.018020526,0.003970624,80.9734,-9.819867,23.01438,SIT
9812048680000,3.720097,3.48503611236503,1.89160026182515,8.75228004123128,-0.04734206,0.026267206,0.009773844,80.97793,-9.836483,22.99276,SIT
9812053626000,3.725043,3.48236606623706,1.88902463247413,8.76397604503515,-0.03970624,0.028099801,0.0125227375,80.983444,-9.855156,22.973335,SIT
9812058585000,3.730002,3.47772914462019,1.87975078924038,8.77788673725835,-0.042760566,0.021685716,0.010079277,80.98852,-9.86998,22.954632,SIT
9812063589000,3.735006,3.47305014567467,1.87039279134935,8.79192366080844,-0.03726278,0.008552114,0.0125227375,80.99287,-9.893716,22.933693,SIT
9812068567000,3.739984,3.4683954580746,1.86108341614919,8.80588765070299,-0.03390302,0.015882496,0.017715093,80.995964,-9.915494,22.9096,SIT
9812073566000,3.744983,3.4646988790186,1.84737488410227,8.80960941752784,-0.043982297,0.015882496,0.017715093,81.00584,-9.937511,22.889568,SIT
9812078627000,3.750044,3.46146745127008,1.83121772848857,8.80799366991133,-0.03940081,0.008857546,0.02321288,81.01201,-9.962422,22.870766,SIT
9812083939000,3.755356,3.45807576105074,1.81425925968398,8.80629778938596,-0.043676864,0.0070249503,0.021991149,81.01991,-9.977997,22.848568,SIT
9812088559000,3.759976,3.455125909994,1.79950998899927,8.80482283305554,-0.0421497,0.009468411,0.021991149,81.025665,-9.995091,22.82818,SIT
9812093660000,3.765077,3.45186894240949,1.78322513407227,8.80319431525435,-0.0421497,0.0106901415,0.025045475,81.03456,-10.011045,22.812319,SIT
9812098569000,3.769986,3.44873456603774,1.76755323584906,8.80162709433962,-0.036651913,0.004886922,0.029626964,81.04289,-10.028206,22.798355,SIT
9812103578000,3.774995,3.45390274837819,1.74650152905452,8.8104637184265,-0.040011674,0.003970624,0.030848695,81.04606,-10.041979,22.776934,SIT
9812108580000,3.779997,3.4633483076013,1.72288763099675,8.82463235314995,-0.0421497,0.006414085,0.03176499,81.047874,-10.056652,22.7571,SIT
9812113589000,3.785006,3.47892609723273,1.72030944861636,8.82678541240294,-0.043982297,-0.0027488936,0.022296581,81.05357,-10.062706,22.739958,SIT
9812118583000,3.79,3.49796911503086,1.72983095751543,8.82202455853076,-0.038179077,-0.00030543262,0.026572637,81.0539,-10.0684,22.720299,SIT
9812123605000,3.795022,3.51060434083789,1.72241571832423,8.79826655136612,-0.04550946,-0.0030543262,0.026267206,81.06846,-10.071452,22.700249,SIT
9812128581000,3.799998,3.5192845151184,1.70505536976321,8.76354603551913,-0.052534413,0.0018325958,0.024129177,81.08135,-10.075548,22.678171,SIT
9812133588000,3.805005,3.51998235353766,1.68438866148571,8.75218984820779,-0.051618114,0.0018325958,0.022907447,81.0909723129116,-10.0804930494911,22.669931082718,SIT
9812138603000,3.81002,3.51000258169351,1.65943917977143,8.77214928768831,-0.046731193,-0.0021380284,0.018325957,81.10061,-10.085446,22.661678,SIT
9812144327000,3.815744,3.5116242482682,1.63418460346359,8.77758987714306,-0.057726767,-0.00580322,0.01740966,81.11825,-10.088413,22.644463,SIT
9812148606000,3.820023,3.52015741836607,1.61711826326786,8.77190097827445,-0.05009095,-0.0021380284,0.018936822,81.13616,-10.095807,22.629156,SIT
9812153595000,3.825012,3.53010646852225,1.59722016295551,8.76526813965434,-0.050396383,-0.0036651916,0.02107485,81.15463,-10.09292,22.614862,SIT
9812158599000,3.830016,3.54251825256812,1.588303796272,8.762778,-0.05131268,-0.00030543262,0.019242255,81.17296,-10.091956,22.5985,SIT
9812163606000,3.835023,3.55639369153605,1.58599123115987,8.762778,-0.042760566,0.008552114,0.018325957,81.18973,-10.0928955,22.581635,SIT
9812168602000,3.840019,3.57023864721485,1.58368374657825,8.762778,-0.04550946,-0.0021380284,0.017715093,81.202805,-10.085196,22.56449,SIT
9812173602000,3.845019,3.58409468772607,1.58137441453099,8.762778,-0.05222898,0.00030543262,0.019242255,81.21403,-10.078489,22.54195,SIT
9812178578000,3.849995,3.58469327222007,1.57356377222007,8.77819985683844,-0.051618114,-0.007941248,0.01863139,81.22714,-10.073236,22.525875,SIT
9812183621000,3.855038,3.57065923432778,1.55952973432778,8.81094614064316,-0.037873644,0.004276057,0.016493361,81.23873,-10.069663,22.503956,SIT
9812188543000,3.85996,3.57203586785942,1.55049634309593,8.82792322690064,-0.044593163,-0.0036651916,0.010995574,81.25323,-10.058437,22.504208,SIT
9812193656000,3.865073,3.59603771992549,1.54809618295182,8.82312275623744,-0.030848695,-0.00580322,0.0143553335,81.264404,-10.05549,22.499886,SIT
9812198685000,3.870102,3.61964525249743,1.54573545434538,8.81840115112004,-0.043066,-0.005497787,0.0061086523,81.284294,-10.042764,22.495522,SIT
9812203636000,3.875053,3.64288663125337,1.5434113407382,8.81375277829518,-0.031154128,0.0009162979,0.015577064,81.29722,-10.037673,22.491224,SIT
9812208533000,3.87995,3.66126239847909,1.54917148094106,8.80335650380228,-0.026267206,0.008246681,0.015577064,81.31391,-10.02795,22.490778,SIT
9812213630000,3.885047,3.67054242692015,1.57237150359316,8.78015643269962,-0.028405234,0.00580322,0.007941248,81.33001,-10.019368,22.491295,SIT
9812218553000,3.88997,3.68049929957398,1.59275539957398,8.7617761981918,-0.03176499,-0.0018325958,0.013744468,81.34564,-10.012496,22.493526,SIT
9812223604000,3.895021,3.69423756052258,1.60649366052258,8.75719692132917,-0.031154128,-0.00580322,0.011301007,81.36562,-10.00779,22.494516,SIT
9812228590000,3.900007,3.70392529154229,1.61962975422886,8.7526267908893,-0.015577064,-0.002443461,0.0106901415,81.38248,-10.010496,22.497932,SIT
9812233596000,3.905013,3.68404906401327,1.62956786799337,8.74765788966625,-0.017715093,-0.0015271631,0.010079277,81.400024,-10.008821,22.50281,SIT
9812238579000,3.909996,3.66880204831743,1.63409370673029,8.74628010798594,-0.021685716,0.0027488936,0.015271631,81.40828,-10.008732,22.514189,SIT
9812243607000,3.915024,3.67363902977398,1.61474578090407,8.76079085032647,-0.03145956,-0.009773844,0.014966198,81.41905,-10.007139,22.529284,SIT
9812248623000,3.92004,3.67557957828843,1.60124092171157,8.77044078828249,-0.026572637,-0.003970624,0.017104227,81.424614,-10.007594,22.542141,SIT
9812253613000,3.92503,3.66611281283677,1.61070768716323,8.76097407225634,-0.016798794,-0.008857546,0.008857546,81.43463,-10.0079975,22.560318,SIT
9812258602000,3.930019,3.65672122802994,1.62009927478758,8.75374115450583,-0.0125227375,-0.01160644,0.013133603,81.43982,-10.00266,22.576273,SIT
9812263591000,3.935008,3.64766623794182,1.62915428063426,8.75675946877665,-0.0067195175,-0.0033597588,0.015271631,81.44758,-10.001472,22.589388,SIT
9812269067000,3.940484,3.63772734723775,1.63909318863514,8.76007241504785,-0.024740042,-0.005192355,0.016187929,81.45649,-9.996301,22.611198,SIT
9812273602000,3.945019,3.62949636306264,1.64732418713478,8.76281606211504,-0.0290161,-0.006414085,0.013744468,81.46502,-9.996381,22.629778,SIT
9812278552000,3.949969,3.62051215762343,1.65630840820936,8.76581078162608,-0.017715093,-0.002443461,0.014049901,81.46754,-9.992755,22.651114,SIT
9812283615000,3.955032,3.61132285820146,1.66549772362361,8.76887386544111,-0.015882496,0.0012217305,0.016187929,81.470276,-9.98575,22.672033,SIT
9812288587000,3.960004,3.6022987229603,1.67452187456963,8.77188189481664,-0.015882496,-0.004581489,0.0106901415,81.47551,-9.98218,22.693367,SIT
9812293619000,3.965036,3.59898745559429,1.67972508881142,8.76478726188816,-0.009468411,-0.0012217305,0.007330383,81.47771,-9.978884,22.71645,SIT
9812298655000,3.970072,3.59674561276438,1.68420877447125,8.7558199373867,-0.020463986,0.0036651916,0.010079277,81.479904,-9.971071,22.739853,SIT
9812303790000,3.975207,3.59445969875889,1.68878060248222,8.74667632910333,-0.018936822,0.004276057,0.00580322,81.48521,-9.974255,22.758963,SIT
9812308573000,3.97999,3.59233048226654,1.69303903546693,8.73815950760006,-0.017715093,0.00030543262,0.008552114,81.48742,-9.973409,22.777834,SIT
9812313586000,3.985003,3.58581274051304,1.69234987025652,8.7422826745813,-0.015882496,0.0067195175,0.0067195175,81.49362,-9.973797,22.79856,SIT
9812318608000,3.990025,3.57561670710197,1.68725185355099,8.75757651176595,-0.016187929,0.011911872,0.0015271631,81.500175,-9.974048,22.81983,SIT
9812323598000,3.995015,3.572149,1.68398709270859,8.762778,-0.016493361,0.005192355,-0.0027488936,81.50699,-9.977305,22.842207,SIT
9812328588000,4.000005,3.572149,1.68165947924602,8.762778,-0.021991149,0.0030543262,0.0030543262,81.51155,-9.978499,22.861385,SIT
9812333618000,4.005035,3.572149,1.6793132075593,8.762778,-0.025961773,-0.0030543262,0.005497787,81.52448,-9.981564,22.881313,SIT
9812339167000,4.010584,3.572149,1.67672484541425,8.762778,-0.019242255,0.0067195175,0.005192355,81.535355,-9.9855585,22.896812,SIT
9812344338000,4.015755,3.58512246092355,1.67918456523089,8.76926486592937,-0.020158553,0.015577064,0.005192355,81.546745,-9.987667,22.908539,SIT
9812348591000,4.020008,3.60092771136981,1.68313587784245,8.77716765618937,-0.022296581,0.01160644,0.003970624,81.55846,-9.991249,22.920584,SIT
9812353604000,4.025021,3.60182006515695,1.68335896628924,8.77329591024579,-0.02687807,-0.0009162979,-0.00061086525,81.57092,-9.9933195,22.931992,SIT
9812358597000,4.030014,3.58421278819847,1.67895714704962,8.75568872521403,-0.025045475,0.0018325958,0.007941248,81.5788,-9.99505,22.940477,SIT
9812363585000,4.035002,3.57057760255497,1.68065539233508,8.73891070921466,-0.03481932,0.0009162979,0.0036651916,81.60427,-10.001277,22.946737,SIT
9812368612000,4.040029,3.56553649537173,1.69577871388482,8.72378707183246,-0.021685716,0.007941248,0.004276057,81.62445,-10.012148,22.950459,SIT
9812373542000,4.044959,3.56349894166381,1.70837856665523,8.71674752203539,-0.028405234,0.01160644,0.0036651916,81.64606,-10.015312,22.953733,SIT
9812378582000,4.049999,3.56586509059268,1.7178431623707,8.72147991872151,-0.025961773,0.002443461,0.003970624,81.66695,-10.02382,22.958582,SIT
9812383560000,4.054977,3.56820213213393,1.72719132853571,8.72615409941664,-0.029321533,0.013439035,0.004886922,81.685745,-10.031839,22.95682,SIT
9812388604000,4.060021,3.57057015895877,1.73666343583509,8.73089025197314,-0.028710667,0.007941248,0.004886922,81.705666,-10.04125,22.962051,SIT
9812393631000,4.065048,3.57379237374446,1.74626554748891,8.73733473032897,-0.024129177,0.015882496,-0.0021380284,81.73184,-10.053232,22.963171,SIT
9812398693000,4.07011,3.57879162728679,1.75626405457358,8.74733318521192,-0.026572637,0.010079277,0.0009162979,81.7554,-10.061965,22.970009,SIT
9812403534000,4.074951,3.5852167582846,1.7638778791423,8.74971055994152,-0.03481932,0.009162978,0.004581489,81.777374,-10.072253,22.976664,SIT
9812408834000,4.080251,3.59511091812865,1.76882495906433,8.73981645175439,-0.028710667,0.0067195175,0.002443461,81.79997,-10.085577,22.984896,SIT
9812413555000,4.084972,3.59779035405913,1.76862015405913,8.74331517007812,-0.021991149,0.010995574,0.013744468,81.81637,-10.09601,22.992167,SIT
9812418608000,4.090025,3.58822018291308,1.75904998291308,8.77202578344705,-0.031154128,0.0036651916,0.006414085,81.83932,-10.105832,23.00191,SIT
9812423552000,4.094969,3.57916283802332,1.75511855528617,8.78830531425543,-0.026572637,-0.0015271631,0.008246681,81.84945,-10.1173725,23.011543,SIT
9812428576000,4.099993,3.57066361626038,1.76361775486222,8.77768134251899,-0.03176499,0.00030543262,0.009773844,81.861534,-10.124531,23.02046,SIT
9812433670000,4.105087,3.56204597381205,1.77223537481452,8.76690934569864,-0.019242255,0.0070249503,0.004886922,81.874916,-10.134978,23.026554,SIT
9812438603000,4.11002,3.55370069894012,1.78058062790143,8.75647780657128,-0.02076942,0.008857546,0.008857546,81.884964,-10.139002,23.033743,SIT
9812443609000,4.115026,3.54523192821056,1.78904937652358,8.74589189842784,-0.031154128,0.010079277,0.012217305,81.90778,-10.150646,23.03177,SIT
9812448609000,4.120026,3.54164982123178,1.78555714522802,8.75246789384109,-0.03023783,0.012217305,0.0061086523,81.93148,-10.164994,23.028736,SIT
9812453542000,4.124959,3.53942874204043,1.77889388446168,8.76357328979784,-0.03023783,0.016493361,0.0070249503,81.95119,-10.174783,23.025347,SIT
9812458626000,4.130043,3.53713967522332,1.77202666010813,8.7750186238834,-0.030848695,0.018020526,0.01282817,81.97345,-10.189695,23.022213,SIT
9812463631000,4.135048,3.53488617809121,1.76526614518101,8.78628610954396,-0.03359759,0.015882496,0.011301007,81.99694,-10.204235,23.018633,SIT
