timestamp,rel_time,acc_x,acc_y,acc_z,gyro_x,gyro_y,gyro_z,azimuth,pitch,roll,label
2761948352000,0,3.80400192266478,8.02247255496877,4.11780128088221,-0.03634648,0.0021380284,0.023518313,279.0434,-55.16263,24.335526,SIT
2761953299000,0.004947,3.8066017556173,8.02436334638467,4.11638319534103,-0.04734206,-0.00580322,0.028099801,278.9827,-55.154552,24.35051,SIT
2761958288000,0.009936,3.80922366113583,8.02627019060823,4.11495307026221,-0.049480084,0.0012217305,0.03023783,278.91864,-55.14876,24.362091,SIT
2761963333000,0.014981,3.81187499674236,8.02819843857532,4.11350689246653,-0.054061573,0.004581489,0.029626964,278.85828,-55.13972,24.375116,SIT
2761968309000,0.019957,3.81449007027618,8.0301003140727,4.11208049391126,-0.06352998,0.0009162979,0.028710667,278.79822,-55.128716,24.388178,SIT
2761974021000,0.025669,3.81749193925229,8.03228349591373,4.11044311679155,-0.062308256,-0.0030543262,0.03604105,278.73688,-55.117188,24.402412,SIT
2761978324000,0.029972,3.8197533261928,8.03392814427893,4.10920963749426,-0.06291912,-0.007941248,0.03145956,278.6792,-55.10599,24.413502,SIT
2761983331000,0.034979,3.82069538093627,8.03381445469332,4.10349321382542,-0.0571159,-0.0012217305,0.030543262,278.61838,-55.093998,24.426,SIT
2761988329000,0.039977,3.81973984674852,8.03142562421271,4.09298238764785,-0.046731193,0.005497787,0.028405234,278.5603,-55.083965,24.43716,SIT
2761993324000,0.044972,3.8187848861107,8.02903822760393,4.0824778704896,-0.03268129,0.008246681,0.026267206,278.528,-55.0711,24.445175,SIT
2761998359000,0.050007,3.81782227814044,8.026631712704,4.07188923307381,-0.03481932,0.018325957,0.03176499,278.4913,-55.05613,24.452595,SIT
2762003306000,0.054954,3.81687649430154,8.02426725804462,4.06148566022458,-0.038789943,0.02565634,0.03145956,278.456,-55.04532,24.45773,SIT
2762008288000,0.059936,3.81592401904676,8.02188607488047,4.05100848215002,-0.03726278,0.03359759,0.03848451,278.41623,-55.03261,24.46462,SIT
2762013327000,0.064975,3.81496064634326,8.01947764815142,4.04041143270849,-0.0421497,0.03634648,0.036651913,278.3775,-55.01986,24.468693,SIT
2762018309000,0.069957,3.81400817108849,8.01709646498727,4.02993425463393,-0.050701816,0.03359759,0.038179077,278.33704,-55.00466,24.47494,SIT
2762023295000,0.074943,3.81305493110046,8.01471336999401,4.01944866453361,-0.06291912,0.03848451,0.034208454,278.29504,-54.98942,24.477833,SIT
2762028322000,0.07997,3.8120938525967,8.01231067875231,4.00887685116934,-0.060170226,0.035124753,0.039095376,278.25513,-54.973515,24.484585,SIT
2762033310000,0.084958,3.81114023024205,8.00992662784449,3.99838705505615,-0.067500606,0.03481932,0.037873644,278.21472,-54.95551,24.487616,SIT
2762038291000,0.089939,3.81018794617058,8.00754592263762,3.98791197998802,-0.0580322,0.03604105,0.02565634,278.17606,-54.942894,24.489126,SIT
2762044020000,0.095668,3.80909265698258,8.00480770538604,3.97586385610421,-0.058643065,0.029321533,0.029626964,278.138,-54.924034,24.495352,SIT
2762048355000,0.100003,3.80826387732994,8.00273576058142,3.96674732319509,-0.0580322,0.0290161,0.03023783,278.10034,-54.91067,24.496552,SIT
2762053308000,0.104956,3.80731694639118,8.00036843817837,3.95633113230723,-0.062308256,0.027183503,0.0290161,278.06503,-54.895966,24.49923,SIT
2762058289000,0.109937,3.80636466231971,7.9979877329715,3.94585605723911,-0.053450707,0.032375857,0.028099801,278.028,-54.88399,24.501179,SIT
2762063336000,0.114984,3.80539976014972,7.99557548258422,3.93524218374607,-0.04917465,0.023823744,0.023823744,277.9964,-54.87142,24.503782,SIT
2762068369000,0.120017,3.80443753454609,7.99316992359884,3.92465775234317,-0.052534413,0.0143553335,0.02321288,277.9635,-54.858658,24.506487,SIT
2762073333000,0.124981,3.80348850059091,7.99079734366572,3.91421842838449,-0.03940081,0.016493361,0.020158553,277.931,-54.85152,24.506992,SIT
2762079448000,0.131096,3.80231941464491,7.98787463490443,3.90135854401557,-0.032986723,-0.0009162979,0.016187929,277.9072,-54.84284,24.510641,SIT
2762083313000,0.134961,3.80158049114838,7.98602733002096,3.89323042413236,-0.0290161,-0.004581489,0.014966198,277.87927,-54.83638,24.512133,SIT
2762088335000,0.139983,3.80062036856116,7.98362702856565,3.88266912580027,-0.02565634,-0.008857546,0.019242255,277.8564,-54.83078,24.516163,SIT
2762093311000,0.144959,3.79966904040625,7.98124871314518,3.87220456576434,-0.03756821,-0.011911872,0.020463986,277.83508,-54.82381,24.519274,SIT
2762098428000,0.150076,3.7986907554045,7.97880300574837,3.86144348182063,-0.0290161,-0.0143553335,0.016187929,277.8152,-54.821842,24.522358,SIT
2762103333000,0.154981,3.79775300126466,7.97645862529471,3.8511282352418,-0.04520403,-0.008552114,0.023823744,277.7922,-54.809986,24.527966,SIT
2762108281000,0.159929,3.79680702624245,7.97409369267805,3.84072255938614,-0.040011674,-0.010079277,0.019547688,277.7744,-54.807446,24.530476,SIT
2762113925000,0.165573,3.79572798763587,7.97139610179518,3.82885319104956,-0.03940081,-0.010079277,0.025350908,277.759326067617,-54.8009582425451,24.5317740017952,SIT
2762118308000,0.169956,3.79489003118431,7.96930121504117,3.81963571383141,-0.05131268,0.008857546,0.020463986,277.74762,-54.79592,24.532782,SIT
2762123289000,0.174937,3.79393774711284,7.96692050983431,3.80916063876329,-0.060170226,0.012217305,0.023823744,277.7261,-54.786392,24.536615,SIT
2762128310000,0.179958,3.79297781570894,7.96452068633628,3.79860144343764,-0.059253927,0.0143553335,0.025350908,277.69995,-54.776894,24.537897,SIT
2762133322000,0.18497,3.79201960495483,7.96212516445376,3.78806117516994,-0.06261369,0.028710667,0.03023783,277.6687,-54.76358,24.538858,SIT
2762138294000,0.189942,3.79106904153316,7.95974876086241,3.77760502715975,-0.065973446,0.024129177,0.02687807,277.6434,-54.75204,24.540115,SIT
2762143302000,0.19495,3.7901115955123,7.957355150809,3.7670731709178,-0.05955936,0.03268129,0.03481932,277.60837,-54.73862,24.542011,SIT
2762148385000,0.200033,3.78913981074313,7.95492569395967,3.75638358919299,-0.067500606,0.03176499,0.03481932,277.57916,-54.724228,24.542713,SIT
2762153291000,0.204939,3.78820186541997,7.95258083554874,3.74606623960773,-0.057726767,0.029932396,0.03726278,277.54666,-54.71269,24.54504,SIT
2762158284000,0.209932,3.78724728714877,7.95019439485452,3.73556592846235,-0.059864793,0.030543262,0.04153884,277.5138,-54.69705,24.54757,SIT
2762163327000,0.214975,3.78628314971203,7.94778405629635,3.72496046699506,-0.054061573,0.039095376,0.03604105,277.48047,-54.686638,24.547321,SIT
2762168303000,0.219951,3.78533182155712,7.94540574087588,3.71449590695913,-0.043676864,0.028099801,0.03634648,277.45145,-54.674862,24.551928,SIT
2762173286000,0.224934,3.78437915511903,7.94302407975445,3.70401662587813,-0.03604105,0.030543262,0.03573562,277.4174,-54.665146,24.55204,SIT
2762178329000,0.229977,3.78341501768229,7.94061374119629,3.69341116441084,-0.035430185,0.015882496,0.028099801,277.39255,-54.657574,24.553894,SIT
2762183686000,0.235334,3.78306263559742,7.93973278314521,3.69681605257506,-0.027794369,0.004581489,0.019242255,277.3666,-54.653343,24.554455,SIT
2762188291000,0.239939,3.78350314965639,7.94083405679326,3.71597822555037,-0.021380283,-0.0061086523,0.015882496,277.34518,-54.649452,24.55617,SIT
2762193320000,0.244968,3.78398422353317,7.94203672892702,3.73690473323611,-0.020158553,-0.02076942,0.014049901,277.36188,-54.66813,24.561281,SIT
2762198444000,0.250092,3.78447438510498,7.94326212006113,3.75822655176499,-0.01740966,-0.037873644,0.017715093,277.3819,-54.687477,24.56841,SIT
2762203344000,0.254992,3.78494311884851,7.94443394218391,3.77861626893741,-0.02107485,-0.044593163,0.004276057,277.40564,-54.70924,24.570974,SIT
2762208296000,0.259944,3.78541682690932,7.94561819997003,3.79922236678187,-0.021380283,-0.047036625,0.005497787,277.43036,-54.728043,24.579527,SIT
2762213328000,0.264976,3.78589818776595,7.94682158954592,3.82016135796792,-0.024129177,-0.042760566,0.0061086523,277.4568,-54.748108,24.584225,SIT
2762218294000,0.269942,3.78637323506602,7.94800919539525,3.84082571214715,-0.020463986,-0.04734206,0.007330383,277.48596,-54.76862,24.590536,SIT
2762223285000,0.274933,3.78685067386479,7.94920277992888,3.86159409549564,-0.021685716,-0.03573562,0.013133603,277.50848,-54.786175,24.59537,SIT
2762228324000,0.279972,3.78733270434105,7.95040784353637,3.88256221484907,-0.03573562,-0.040317107,0.008552114,277.5379,-54.80344,24.600183,SIT
2762233334000,0.284982,3.78781196067883,7.95160597187007,3.90340966036618,-0.028405234,-0.029321533,0.023518313,277.55597,-54.819115,24.607855,SIT
2762238290000,0.289938,3.78828605137943,7.95279118624568,3.92403240287772,-0.0290161,-0.016493361,0.019242255,277.57794,-54.8351,24.609524,SIT
2762243307000,0.294955,3.78876597733684,7.95399098861098,3.94490897656222,-0.03604105,-0.012217305,0.01863139,277.59647,-54.84716,24.615395,SIT
2762248396000,0.300044,3.78925279081048,7.95520800958707,3.96608515425415,-0.03176499,-0.009773844,0.022602014,277.61176,-54.860985,24.619781,SIT
2762253352000,0.305,3.78972688151108,7.95639322396268,3.98670789676569,-0.036651913,-0.0067195175,0.022602014,277.62616,-54.872307,24.622227,SIT
2762258282000,0.30993,3.79019848505304,7.95757222050662,4.00722244894121,-0.03359759,0.0033597588,0.01863139,277.6378,-54.885784,24.623325,SIT
2762263325000,0.314973,3.79068089816909,7.9587782407036,4.02820721296172,-0.03481932,0.010995574,0.022907447,277.64804,-54.895515,24.62633,SIT
2762268297000,0.319945,3.79115651942885,7.95996728143716,4.04889653414158,-0.048258353,0.018020526,0.028099801,277.65594,-54.90378,24.627304,SIT
2762273286000,0.324934,3.79163376690772,7.96116038767605,4.06965659515652,-0.051923547,0.01985312,0.027183503,277.6634,-54.913857,24.627447,SIT
2762279427000,0.331075,3.7922212146463,7.96262899168748,4.09521032029037,-0.054061573,0.02107485,0.02076942,277.66904,-54.92149,24.626642,SIT
2762283313000,0.334961,3.79259294920291,7.96355831837505,4.11138061435813,-0.054367006,0.015882496,0.02076942,277.67517,-54.927467,24.62778,SIT
2762288288000,0.339936,3.79306885744252,7.96474807655073,4.1320824190383,-0.050701816,0.024129177,0.0290161,277.6769,-54.933258,24.627592,SIT
2762293302000,0.34495,3.79354849642008,7.96594716147392,4.15294650922249,-0.058337633,0.01863139,0.028405234,277.68518,-54.938457,24.627472,SIT
2762299270000,0.350918,3.79411939498771,7.96737439298999,4.17778035250514,-0.059253927,0.01740966,0.022907447,277.68942,-54.944878,24.626614,SIT
2762303363000,0.355011,3.79451093115348,7.96835322318357,4.19481200809427,-0.053450707,0.019547688,0.03176499,277.69235,-54.948174,24.629513,SIT
2762308284000,0.359932,3.79498167375592,7.96953006740116,4.21528910976886,-0.059253927,0.019242255,0.0290161,277.69864,-54.95247,24.628437,SIT
2762313339000,0.364987,3.79546523479134,7.9707389573666,4.23632380779062,-0.053450707,0.017104227,0.032375857,277.70276,-54.95699,24.631119,SIT
2762318306000,0.369954,3.79594037775136,7.97192680236331,4.25699232313662,-0.058643065,0.016187929,0.02321288,277.70868,-54.961323,24.629679,SIT
2762323313000,0.374961,3.7964193471093,7.97312421325489,4.27782728515343,-0.064751714,0.0036651916,0.021380283,277.71698,-54.964314,24.632618,SIT
2762328322000,0.37997,3.79689850778712,7.97432210244122,4.29867056950377,-0.05100725,0.0036651916,0.022602014,277.7228,-54.971382,24.63253,SIT
2762333306000,0.384954,3.79737527696626,7.97551401294325,4.31940982468486,-0.051618114,0.006414085,0.018936822,277.73224,-54.97579,24.631859,SIT
2762338288000,0.389936,3.7978518548255,7.97670544515053,4.34014075753241,-0.048563786,0.00061086525,0.01863139,277.7434,-54.982567,24.633375,SIT
2762343315000,0.394963,3.79833273738238,7.97790763898955,4.36105894288461,-0.04520403,0.0027488936,0.011911872,277.7528,-54.991253,24.63093,SIT
2762348339000,0.399987,3.79881333295943,7.97910911538646,4.3819646447365,-0.056505036,0.004276057,0.008246681,277.76358,-54.99695,24.62996,SIT
2762353296000,0.404944,3.79928751931998,7.98029456890944,4.40259154841481,-0.058337633,-0.0033597588,0.011911872,277.7762,-55.004852,24.630035,SIT
2762358283000,0.409931,3.79976457547895,7.98148719685359,4.42334328709621,-0.042455133,-0.0106901415,0.008857546,277.7896,-55.016037,24.627274,SIT
2762363325000,0.414973,3.80024689293505,7.98269297790319,4.44432388994996,-0.042455133,-0.014966198,0.015882496,277.8023,-55.020794,24.628618,SIT
2762369093000,0.420741,3.80079865951316,7.98407237994486,4.46832549987864,-0.045814894,-0.0070249503,0.010995574,277.81555,-55.03094,24.62548,SIT
2762373291000,0.424939,3.80120023997343,7.9850763206125,4.4857940779786,-0.049480084,-0.002443461,0.011301007,277.82916,-55.03836,24.626356,SIT
2762378325000,0.429973,3.80168179214995,7.98628018848313,4.50674139149819,-0.045814894,0.0009162979,0.012217305,277.84134,-55.04729,24.625282,SIT
2762383356000,0.435004,3.8022491926051,7.98637192061354,4.52008150403613,-0.048563786,0.0070249503,0.009468411,277.8518,-55.054817,24.622437,SIT
2762388288000,0.439936,3.80295911476225,7.98447879733213,4.51960822012706,-0.04184427,-0.005192355,0.010079277,277.8658,-55.06387,24.62257,SIT
2762393346000,0.444994,3.80368717361684,7.98253730958732,4.51912284502322,-0.042760566,0.0067195175,0.014966198,277.79922,-55.024548,24.613523,SIT
2762398463000,0.450111,3.80442372505198,7.98057317499061,4.51863180816946,-0.03940081,0.0125227375,0.02321288,277.73788,-54.98726,24.608078,SIT
2762403346000,0.454994,3.80512659404901,7.97869886011163,4.51816322639168,-0.037873644,0.010995574,0.015271631,277.67743,-54.952465,24.599466,SIT
2762408284000,0.459932,3.80583737985841,7.97680343376053,4.51768936671142,-0.047647487,0.013439035,0.021991149,277.61163,-54.91201,24.595797,SIT
2762413324000,0.464972,3.80656284775623,7.97486885522478,4.51720571892113,-0.042760566,0.023823744,0.028710667,277.54575,-54.87702,24.589577,SIT
2762418302000,0.46995,3.80727939124736,7.97295807507578,4.51672802076634,-0.052839845,0.016187929,0.028710667,277.48486,-54.837837,24.585522,SIT
2762423289000,0.474937,3.80799723021689,7.97104384032225,4.51624945895479,-0.04886922,0.028710667,0.022296581,277.41595,-54.80301,24.577917,SIT
2762428335000,0.479983,3.80872356176696,7.96910695871681,4.51576523539332,-0.043982297,0.03634648,0.026267206,277.34973,-54.764942,24.574703,SIT
2762433365000,0.485013,3.80944759024434,7.96717621863054,4.51528254722165,-0.0580322,0.020463986,0.024129177,277.28894,-54.727108,24.56992,SIT
2762438658000,0.490306,3.81020947547909,7.96514452732306,4.51477462107998,-0.04886922,0.024129177,0.027794369,277.2198,-54.693417,24.564472,SIT
2762443327000,0.494975,3.81088154087887,7.96335235526286,4.51432657514091,-0.040011674,0.0290161,0.027794369,277.15616,-54.658756,24.55956,SIT
2762448403000,0.500051,3.81161219069024,7.96140395830899,4.51383947272354,-0.044593163,0.022907447,0.02321288,277.09534,-54.624046,24.55551,SIT
2762453381000,0.505029,3.81232873418138,7.95949317815999,4.51336177456876,-0.037873644,0.004581489,0.023518313,277.0365,-54.592884,24.55383,SIT
2762458283000,0.509931,3.81303433807723,7.95761157022701,4.51289136951557,-0.03023783,-0.0027488936,0.01863139,276.97824,-54.563545,24.549204,SIT
2762463334000,0.514982,3.81376138933752,7.95567276939683,4.51240666614478,-0.021380283,-0.004581489,0.012217305,276.9243,-54.536587,24.545992,SIT
2762468297000,0.519945,3.814475773698,7.95376774692205,4.51193040741795,-0.018936822,-0.018325957,0.014660766,276.87567,-54.50951,24.546356,SIT
2762473286000,0.524934,3.81519390055161,7.95185274447862,4.51145165368267,-0.011911872,-0.02443461,0.01038471,276.82776,-54.488186,24.542755,SIT
2762479437000,0.531085,3.81607928805944,7.94949171420613,4.51086139226241,-0.015271631,-0.02443461,0.0018325958,276.78265,-54.46603,24.539715,SIT
2762483304000,0.534952,3.81663591194056,7.94800738579387,4.51049030773759,-0.015271631,-0.016187929,0.0070249503,276.73608,-54.444344,24.538895,SIT
2762488295000,0.539943,3.81735432667826,7.94609161566056,4.51001136207859,-0.016493361,-0.018325957,0.0125227375,276.69397,-54.423717,24.537416,SIT
2762493360000,0.545008,3.81808339312715,7.94414744100112,4.50952531524171,-0.03268129,-0.0076358155,0.007941248,276.64703,-54.401386,24.532103,SIT
2762498459000,0.550107,3.81881735360552,7.94219021561346,4.50903600570149,-0.03604105,-0.01863139,0.008857546,276.60568,-54.379467,24.532722,SIT
2762503336000,0.554984,3.81951935895029,7.94031820380417,4.50856799969489,-0.043676864,-0.003970624,0.018020526,276.55402,-54.35306,24.529745,SIT
2762508329000,0.559977,3.82023806157207,7.93840166598095,4.50808886211216,-0.05222898,-0.009773844,0.018020526,276.51276,-54.327904,24.528784,SIT
2762513328000,0.564976,3.82095762784611,7.93648282508805,4.50760914875825,-0.058948494,-0.0125227375,0.016187929,276.4659,-54.300556,24.527472,SIT
2762518297000,0.569945,3.82167287585886,7.93457549954358,4.50713231426023,-0.051618114,-0.0061086523,0.021991149,276.41748,-54.273285,24.52771,SIT
2762523289000,0.574937,3.8223914345386,7.93265934556531,4.50665327263937,-0.05222898,-0.004886922,0.02443461,276.37234,-54.244682,24.527674,SIT
2762528364000,0.580012,3.82312194040792,7.9307113324564,4.50616626618386,-0.058643065,-0.0009162979,0.01863139,276.3254,-54.21739,24.52583,SIT
2762533363000,0.585011,3.82384150668196,7.9287924915635,4.50568655282995,-0.028710667,0.003970624,0.017715093,276.27725,-54.19633,24.52557,SIT
2762538291000,0.589939,3.82455085307094,7.92690090366188,4.50521365276833,-0.028099801,0.014049901,0.017715093,276.22766,-54.16956,24.522934,SIT
2762543359000,0.595007,3.82528035134596,7.9249555774676,4.50472731804586,-0.027183503,0.020463986,0.025350908,276.1772,-54.147804,24.521935,SIT
2762548418000,0.600066,3.8260085541426,7.92301370587784,4.50424184698016,-0.033292156,0.026572637,0.034513887,276.12424,-54.124702,24.520178,SIT
2762553383000,0.605031,3.82672322638717,7.92110791571316,4.5037653963296,-0.03756821,0.03268129,0.032986723,276.07043,-54.103043,24.516897,SIT
2762558297000,0.609945,3.82743055758754,7.91922170164081,4.50329383973406,-0.048258353,0.03634648,0.029932396,276.015,-54.07764,24.515116,SIT
2762563336000,0.614984,3.82815588154331,7.91728750695,4.50281028790563,-0.051923547,0.047647487,0.0290161,275.9562,-54.05301,24.511757,SIT
2762568298000,0.619946,3.82887012196175,7.91538286832017,4.50233412514066,-0.06261369,0.03481932,0.025045475,275.90454,-54.0264,24.509623,SIT
2762573299000,0.624947,3.82958997611988,7.91346325973737,4.50185421986302,-0.061086524,0.03634648,0.029932396,275.8451,-54.00028,24.506315,SIT
2762578384000,0.630032,3.83032192140964,7.91151140817898,4.50136625378888,-0.07574729,0.029626964,0.02107485,275.7946,-53.9727,24.501389,SIT
2762583458000,0.635106,3.83083216368861,7.91055176140468,4.49847427375726,-0.06536258,0.03390302,0.021685716,275.739,-53.94805,24.498566,SIT
2762588353000,0.640001,3.83106603667059,7.9107856295025,4.4928613270739,-0.067500606,0.032986723,0.021685716,275.6886,-53.920273,24.495016,SIT
2762593403000,0.645051,3.83130731523219,7.91102690302528,4.48707064663447,-0.07269296,0.03145956,0.02321288,275.679,-53.865883,24.492115,SIT
2762598393000,0.650041,3.8315457271178,7.91126530993195,4.48134876635868,-0.07086037,0.032375857,0.024740042,275.66882,-53.814045,24.48909,SIT
2762603348000,0.654996,3.83178246677576,7.91150204464589,4.47566701951168,-0.06627888,0.02321288,0.02107485,275.66235,-53.764,24.48675,SIT
2762608343000,0.659991,3.83202111755104,7.91174069043723,4.46993940588893,-0.061086524,0.028710667,0.019242255,275.6509,-53.71528,24.483257,SIT
2762613349000,0.664997,3.83226029388358,7.91197986177486,4.46419917890284,-0.05375614,0.025045475,0.03390302,275.64258,-53.66681,24.485474,SIT
2762618361000,0.670009,3.83249975688372,7.9122193197741,4.45845207190038,-0.057726767,0.022296581,0.024740042,275.63608,-53.623573,24.480394,SIT
2762623361000,0.675009,3.83273864654866,7.91245820445012,4.45271872493065,-0.056199603,0.01282817,0.029932396,275.62814,-53.5785,24.483986,SIT
2762628368000,0.680016,3.83297787065914,7.91269742356469,4.44697735127517,-0.05131268,0.014966198,0.03145956,275.6195,-53.537167,24.483128,SIT
2762633427000,0.685075,3.83321957922213,7.91293912707988,4.4411763508112,-0.055283304,0.013133603,0.027183503,275.61456,-53.495743,24.483807,SIT
2762638341000,0.689989,3.83345435998483,7.91317390293947,4.43554161740935,-0.054061573,-0.002443461,0.0290161,275.6116,-53.456093,24.48788,SIT
2762643365000,0.695013,3.83369439632017,7.91341393426194,4.42978075037417,-0.057421334,0.01038471,0.01740966,275.6038,-53.419415,24.483822,SIT
2762648343000,0.699991,3.83393223487059,7.91365176784538,4.42407263013111,-0.04795292,0.0027488936,0.021685716,275.6032,-53.3833,24.488935,SIT
2762653252000,0.7049,3.83416677674363,7.9138863048203,4.41844363007623,-0.0571159,-0.01038471,0.023518313,275.60254,-53.346546,24.489525,SIT
2762658242000,0.70989,3.83440518862924,7.91412471172697,4.41272174980044,-0.054061573,-0.004581489,0.01985312,275.5988,-53.315533,24.488213,SIT
2762663304000,0.714952,3.83464704052603,7.91436655857297,4.40691730932829,-0.055588737,-0.01282817,0.025350908,275.60077,-53.280613,24.493204,SIT
2762668256000,0.719904,3.83488363685019,7.9146031499561,4.40123900248947,-0.044898596,-0.008857546,0.018020526,275.6001,-53.25314,24.49151,SIT
2762673225000,0.724873,3.83512104539921,7.91484055354713,4.39554120227096,-0.04734206,-0.0061086523,0.015882496,275.60028,-53.221554,24.493639,SIT
2762678996000,0.730644,3.83539677185049,7.91511627424019,4.3889237731985,-0.050396383,-0.008246681,0.02076942,275.60065,-53.193016,24.495733,SIT
2762683225000,0.734873,3.8355988247291,7.91531832289916,4.3840745083315,-0.041233405,-0.005192355,0.02321288,275.59933,-53.168274,24.495548,SIT
2762688233000,0.739881,3.83583809661751,7.91555758979066,4.37833198800663,-0.04642576,0.0030543262,0.024740042,275.5965,-53.140034,24.495848,SIT
2762693506000,0.745154,3.83609002965816,7.91580951757,4.37228560029235,-0.044593163,0.004581489,0.018325957,275.59537,-53.117043,24.495163,SIT
2762698266000,0.749914,3.83631745261919,7.91603693578156,4.36682745397717,-0.04428773,0.003970624,0.020463986,275.591,-53.09147,24.496115,SIT
2762703269000,0.754917,3.83655648561793,7.91627596378839,4.36109066699926,-0.04642576,0.0009162979,0.015882496,275.58878,-53.06909,24.49388,SIT
2762708240000,0.759888,3.83679398972282,7.91651346293329,4.35539057344196,-0.04184427,0.0021380284,0.019547688,275.58392,-53.046844,24.493727,SIT
2762713230000,0.764878,3.83703240160843,7.91675186983996,4.34966869316617,-0.043066,0.013133603,0.01985312,275.57834,-53.025215,24.490652,SIT
2762718217000,0.769865,3.83727067016024,7.91699013341582,4.34395025289857,-0.03756821,0.0061086523,0.017715093,275.57715,-53.006344,24.490168,SIT
2762723208000,0.774856,3.83750912982379,7.91722858809942,4.33822722595338,-0.04734206,-0.004276057,0.017104227,275.57358,-52.984306,24.489122,SIT
2762728247000,0.779895,3.83774988282812,7.91746933607591,4.33244915887729,-0.047647487,0.00061086525,0.018325957,275.56775,-52.966015,24.48687,SIT
2762733217000,0.784865,3.83798733915508,7.91770678744387,4.32675021198938,-0.055588737,0.0076358155,0.017715093,275.56445,-52.94522,24.4851,SIT
2762738210000,0.789858,3.83822589437449,7.91794533768135,4.32102489170541,-0.045814894,0.0067195175,0.015577064,275.56204,-52.928734,24.483643,SIT
2762743254000,0.794902,3.83846688626848,7.91818632454252,4.31524109128235,-0.046120327,0.0070249503,0.022602014,275.556,-52.907436,24.483217,SIT
2762748246000,0.799894,3.83870539370996,7.91842482700305,4.30951691766778,-0.052839845,-0.0018325958,0.02443461,275.55383,-52.888813,24.482372,SIT
2762753283000,0.804931,3.83894605115843,7.91866547942568,4.30374114393047,-0.04642576,0.0030543262,0.023823744,275.54706,-52.872517,24.480707,SIT
2762758282000,0.80993,3.83918489304544,7.91890431632476,4.29800894363014,-0.042455133,0.0015271631,0.015271631,275.54538,-52.856133,24.479536,SIT
2762764111000,0.815759,3.83946339061683,7.91918280808006,4.29132500773283,-0.035124753,-0.00030543262,0.017715093,275.54083,-52.840282,24.480276,SIT
2762768338000,0.819986,3.83966534793957,7.91938476118517,4.28647803620463,-0.032375857,0.0036651916,0.018936822,275.53656,-52.82668,24.477987,SIT
2762773279000,0.824927,3.83990141870647,7.91962082702201,4.28081234272914,-0.039095376,-0.0009162979,0.009162978,275.53644,-52.814724,24.474968,SIT
2762778308000,0.829956,3.84014169393147,7.91986109722915,4.27504574234699,-0.03573562,0.00061086525,0.016798794,275.5307,-52.80216,24.475214,SIT
2762783310000,0.834958,3.8401372748709,7.91953202630769,4.27158064856321,-0.03481932,0.008857546,0.016493361,275.52704,-52.79154,24.47077,SIT
2762788296000,0.839944,3.83966034317163,7.91810123618993,4.27253450698169,-0.038179077,0.010079277,0.020158553,275.52307,-52.77881,24.46999,SIT
2762793364000,0.845012,3.83917556783028,7.91664691522788,4.2735040526024,-0.041233405,0.007941248,0.022602014,275.53802,-52.780174,24.47056,SIT
2762798459000,0.850107,3.83868820982631,7.9151848463049,4.27447876352141,-0.047036625,0.015882496,0.02565634,275.549,-52.779522,24.470556,SIT
2762803335000,0.854983,3.8382218000859,7.91378562195387,4.27541157813202,-0.04795292,0.0106901415,0.027794369,275.56384,-52.779083,24.472979,SIT
2762808286000,0.859934,3.83774821628262,7.91236487548917,4.27635874079346,-0.049785517,0.011301007,0.018020526,275.5761,-52.779133,24.471205,SIT
2762813323000,0.864971,3.8372664062206,7.9109194503341,4.2773223558865,-0.056199603,0.015882496,0.017715093,275.58676,-52.775948,24.472383,SIT
2762818299000,0.869947,3.83679043106303,7.9094915298315,4.27827430123153,-0.0580322,0.015271631,0.0143553335,275.60052,-52.775997,24.47094,SIT
2762823286000,0.874934,3.83631340370959,7.90806045275223,4.27922835095736,-0.06261369,0.01740966,0.019242255,275.61087,-52.772743,24.470451,SIT
2762828321000,0.879969,3.8358317849559,7.90661560152019,4.28019158343571,-0.05375614,0.006414085,0.01985312,275.626,-52.773567,24.469965,SIT
2762833476000,0.885124,3.83533868770163,7.90513631490626,4.28117777279537,-0.049785517,0.004276057,0.015577064,275.638,-52.772617,24.467932,SIT
2762838291000,0.889939,3.83487811286569,7.9037545952077,4.28209891765799,-0.047647487,0.004886922,0.01282817,275.65176,-52.772877,24.467497,SIT
2762843338000,0.894986,3.83439534626195,7.90230630043748,4.28306444582447,-0.053450707,0.013439035,0.018325957,275.66315,-52.771645,24.467203,SIT
2762848459000,0.900107,3.83390550124951,7.90083677051509,4.28404413073443,-0.05100725,0.004581489,0.018020526,275.6803,-52.77434,24.467066,SIT
2762853328000,0.904976,3.8334397610883,7.89943955489468,4.28497560619363,-0.046120327,0.005497787,0.018325957,275.69135,-52.775265,24.465887,SIT
2762858294000,0.909942,3.83296474247246,7.89801450400723,4.28592563846523,-0.04428773,0.004886922,0.01863139,275.70514,-52.77624,24.46601,SIT
2762863334000,0.914982,3.83248264544792,7.89656821796762,4.2868898274803,-0.054367006,-0.0033597588,0.016493361,275.72095,-52.776257,24.466455,SIT
2762868294000,0.919942,3.8320082007571,7.89514488884927,4.28783871190783,-0.034513887,-0.0033597588,0.015882496,275.73425,-52.78262,24.46624,SIT
2762873282000,0.92493,3.83153107774948,7.89371352480848,4.288792952941,-0.032986723,0.005497787,0.01863139,275.747,-52.782955,24.466148,SIT
2762880127000,0.931775,3.83087632494532,7.89174927323285,4.29010245171246,-0.037873644,0.0009162979,0.017715093,275.76398,-52.78694,24.46677,SIT
2762883337000,0.934985,3.83056927505468,7.89082812676715,4.29071654828754,-0.0290161,0.004276057,0.016798794,275.77573,-52.793556,24.465694,SIT
2762888289000,0.939937,3.83009559559724,7.88940709334092,4.29166390225631,-0.032375857,0.00030543262,0.017104227,275.7906,-52.79657,24.466276,SIT
2762893322000,0.94497,3.8296141681519,7.88796281603192,4.29262675211998,-0.031154128,-0.003970624,0.014966198,275.805,-52.802994,24.465542,SIT
2762898389000,0.950037,3.82912948846473,7.88650878203138,4.29359610643334,-0.023823744,0.009468411,0.024740042,275.8136,-52.807583,24.465904,SIT
2762903365000,0.955013,3.82865351330716,7.88508086152878,4.29454805177838,-0.040317107,0.0027488936,0.017715093,275.8317,-52.811146,24.464834,SIT
2762908288000,0.959936,3.82818260782069,7.88366814998652,4.29548985783418,-0.031154128,0.015271631,0.020463986,275.83768,-52.8177,24.464066,SIT
2762913328000,0.964976,3.82770051079615,7.8822218639469,4.29645404684925,-0.039095376,0.01160644,0.021685716,275.85117,-52.818954,24.464268,SIT
2762918296000,0.969944,3.82722530087196,7.88079623913643,4.29740446173554,-0.04184427,0.00580322,0.015882496,275.86234,-52.824,24.461956,SIT
2762923282000,0.97493,3.82674836917268,7.87936544901867,4.29835832015402,-0.03970624,0.017104227,0.018020526,275.86832,-52.82663,24.460045,SIT
2762928351000,0.979999,3.82626349817717,7.8779108410951,4.29932805708207,-0.049785517,0.01038471,0.010995574,275.88303,-52.8291,24.457663,SIT
2762933340000,0.984988,3.82578627951538,7.87647919009279,4.30028248942259,-0.049785517,0.01740966,0.019242255,275.88806,-52.830692,24.456205,SIT
2762938371000,0.990019,3.82530504337838,7.87503548670682,4.30124495667156,-0.042760566,0.018325957,0.026267206,275.8978,-52.833298,24.45451,SIT
2762943326000,0.994974,3.82483107695842,7.87361359239605,4.30219288456237,-0.04734206,0.014049901,0.022296581,275.90735,-52.834087,24.451885,SIT
2762948428000,1.000076,3.82434304937524,7.87214951474246,4.30316893463279,-0.042760566,0.01740966,0.022907447,275.9127,-52.836014,24.450941,SIT
2762953358000,1.005006,3.82387147430957,7.87073479446958,4.30411207983999,-0.043676864,0.01160644,0.021380283,275.92258,-52.837105,24.450308,SIT
2762958286000,1.009934,3.82340009055224,7.86932064811974,4.30505484243251,-0.037873644,0.014049901,0.02687807,275.92804,-52.839085,24.44996,SIT
2762963333000,1.014981,3.8229173239485,7.86787235334951,4.30602037059899,-0.04337143,0.013744468,0.019242255,275.938,-52.841427,24.447092,SIT
2762968295000,1.019943,3.82244268794934,7.86644845030813,4.30696963764121,-0.04062254,0.009468411,0.017104227,275.9466,-52.84456,24.447132,SIT
2762973271000,1.024919,3.82196671279178,7.86502052980553,4.30792158298625,-0.05009095,0.005497787,0.018020526,275.9558,-52.844917,24.446018,SIT
2762978318000,1.029966,3.82148394618804,7.86357223503531,4.30888711115273,-0.03970624,0.018020526,0.025961773,275.96082,-52.84902,24.444445,SIT
2762983356000,1.035004,3.82136077018597,7.86234362981403,4.31013572124344,-0.047647487,0.021991149,0.023518313,275.9706,-52.849247,24.442204,SIT
2762988287000,1.039935,3.82206444579194,7.86163995420806,4.31201219197528,-0.04886922,0.018020526,0.02321288,275.97754,-52.85108,24.441818,SIT
2762993308000,1.044956,3.82278096479774,7.86092343520226,4.31392291181803,-0.040927973,0.013133603,0.020158553,276.00278,-52.83711,24.433884,SIT
2762998341000,1.049989,3.82349919625685,7.86020520374315,4.31583819820889,-0.043676864,0.009162978,0.02076942,276.02798,-52.82069,24.427406,SIT
2763003294000,1.054942,3.82420601136057,7.85949838863943,4.31772304094562,-0.03634648,0.0030543262,0.022602014,276.05505,-52.80902,24.421623,SIT
2763008283000,1.059931,3.82491796382421,7.85878643617579,4.31962158332671,-0.022907447,0.00030543262,0.011301007,276.08383,-52.801147,24.412933,SIT
2763013314000,1.064962,3.82563590987443,7.85806849012557,4.32153610862622,-0.02076942,-0.003970624,0.014660766,276.11182,-52.7898,24.40954,SIT
2763018991000,1.070639,3.82644604299452,7.85725835700548,4.32369646643289,-0.011911872,-0.01160644,0.005192355,276.14484,-52.787838,24.401115,SIT
2763023286000,1.074934,3.82705895857506,7.85664544142494,4.32533091011434,-0.004276057,-0.015882496,0.009468411,276.17508,-52.783146,24.397226,SIT
2763028350000,1.079998,3.82778161387189,7.85592278612811,4.32725799342118,-0.0061086523,-0.018020526,0.009773844,276.2085,-52.78129,24.390886,SIT
2763033354000,1.085002,3.82849570690217,7.85520869309783,4.32916224398742,-0.0076358155,-0.014966198,0.004886922,276.24146,-52.781578,24.384277,SIT
2763038286000,1.089934,3.82919952521259,7.85450487478741,4.33103909526494,-0.010995574,-0.023823744,0.0027488936,276.2774,-52.78081,24.380457,SIT
2763043350000,1.094998,3.82992218050942,7.85378221949058,4.33296617857178,-0.021685716,-0.023823744,0.0067195175,276.3095,-52.778236,24.375414,SIT
2763048425000,1.100073,3.83064640555511,7.85305799444489,4.33489744788107,-0.018936822,-0.022602014,0.010995574,276.34357,-52.77842,24.371073,SIT
2763053317000,1.104965,3.83134451568783,7.85235988431217,4.33675907733152,-0.014966198,-0.01863139,0.0033597588,276.3777,-52.77854,24.364418,SIT
2763058282000,1.10993,3.83205304324485,7.85165135675515,4.33864848661637,-0.03023783,-0.030543262,0.011911872,276.41235,-52.771572,24.364962,SIT
2763063326000,1.114974,3.83277284445283,7.85093155554717,4.34056795900968,-0.028405234,-0.029321533,0.01282817,276.4442,-52.772274,24.35941,SIT
2763068303000,1.119951,3.83348308446316,7.85022131553684,4.34246193484264,-0.029626964,-0.036651913,0.008246681,276.4809,-52.76897,24.357452,SIT
2763073288000,1.124936,3.83419446610904,7.84950993389096,4.34435895504103,-0.018325957,-0.025961773,0.01160644,276.51047,-52.767357,24.35502,SIT
2763079424000,1.131072,3.83507010056823,7.84863429943177,4.3466939833133,-0.01282817,-0.027183503,0.0036651916,276.54736,-52.767754,24.351273,SIT
2763083311000,1.134959,3.83562479273623,7.84807960726377,4.34817316435866,-0.002443461,-0.015271631,0.0076358155,276.575,-52.768867,24.34803,SIT
2763088621000,1.140269,3.83638255332592,7.84732184667408,4.35019386190197,-0.007941248,-0.01038471,0.013133603,276.60553,-52.76926,24.344397,SIT
2763093321000,1.144969,3.83705326420567,7.84665113579433,4.35198242658249,-0.0012217305,-0.006414085,0.005497787,276.6341,-52.776302,24.337036,SIT
2763098353000,1.150001,3.83777135296034,7.84593304703966,4.35389733242768,-0.0012217305,0.014049901,0.007941248,276.642513600963,-52.7740284086712,24.3339634700923,SIT
2763103285000,1.154933,3.83847517127076,7.84522922872924,4.3557741837052,-0.024740042,0.022907447,0.014049901,276.65076,-52.7718,24.330952,SIT
2763108286000,1.159934,3.83918883618771,7.84451556381229,4.35767729263441,-0.028099801,0.021685716,0.01740966,276.6764,-52.775505,24.32551,SIT
2763113321000,1.164969,3.83990735305571,7.84379704694429,4.35959334011662,-0.032070424,0.029932396,0.014966198,276.69077,-52.7738,24.315577,SIT
2763118303000,1.169951,3.84061830658825,7.84308609341175,4.36148921867798,-0.038789943,0.028710667,0.016493361,276.70676,-52.769615,24.309149,SIT
2763123286000,1.174934,3.84132940282524,7.84237499717476,4.36338547778501,-0.0421497,0.032070424,0.011301007,276.72046,-52.767292,24.298887,SIT
2763128315000,1.179963,3.84204706346658,7.84165733653342,4.36529924199317,-0.03940081,0.027794369,0.013133603,276.73508,-52.763428,24.29222,SIT
2763133322000,1.18497,3.84276158461019,7.84094281538981,4.36720463419644,-0.041233405,0.02443461,0.010079277,276.7499,-52.760105,24.282696,SIT
2763138291000,1.189939,3.84347068298498,7.84023371701502,4.36909556566399,-0.033292156,0.025961773,0.008857546,276.76382,-52.758926,24.274227,SIT
2763143325000,1.194973,3.84418905714853,7.83951534285147,4.37101123260053,-0.03481932,0.022907447,0.01160644,276.7796,-52.755413,24.26732,SIT
2763148452000,1.2001,3.84492070282524,7.83878369717476,4.37296229028501,-0.028099801,0.016187929,0.007941248,276.79694,-52.756954,24.259033,SIT
2763153324000,1.204972,3.84561595886911,7.83808844113089,4.37481630882192,-0.007941248,0.0061086523,0.0036651916,276.81555,-52.760765,24.252369,SIT
2763158408000,1.210056,3.84634146825479,7.83736293174521,4.3767510030423,-0.009773844,-0.008552114,0.008857546,276.83615,-52.76036,24.24891,SIT
2763163341000,1.214989,3.84704542926965,7.83665897073035,4.37862823486549,0.007941248,-0.026572637,-0.00580322,276.8639,-52.773006,24.241434,SIT
2763168302000,1.21995,3.8477533860089,7.8359510139911,4.38051612196763,0.0067195175,-0.027488936,0.002443461,276.88644,-52.775875,24.24068,SIT
2763173262000,1.22491,3.84846120004371,7.83524319995629,4.3824036285241,0.013744468,-0.0421497,-0.0012217305,276.92145,-52.789295,24.237766,SIT
2763178319000,1.229967,3.84918285640944,7.83452154359056,4.38432804801121,0.010079277,-0.054367006,-0.009162978,276.95514,-52.7994,24.235601,SIT
2763183558000,1.235206,3.84989465381687,7.83419307633738,4.38561163091465,0.02107485,-0.049785517,-0.0036651916,276.9864,-52.81211,24.235516,SIT
2763188293000,1.239941,3.85012270611997,7.8387541223993,4.37854199999346,0.019242255,-0.064751714,-0.0061086523,277.0284,-52.824383,24.235828,SIT
2763193302000,1.24495,3.85036395511388,7.8435791022777,4.37106327110556,0.03573562,-0.06841691,-0.0067195175,277.0657,-52.83043,24.233028,SIT
2763198413000,1.250061,3.85061011674453,7.84850233489069,4.36343225027384,0.043982297,-0.08155051,-0.0027488936,277.10895,-52.834206,24.234138,SIT
2763203324000,1.254972,3.85084664575415,7.8532329150829,4.35609984109665,0.043066,-0.074830994,0.003970624,277.14697,-52.839256,24.233482,SIT
2763208295000,1.259943,3.85108606455007,7.85802129100135,4.34867784842311,0.038179077,-0.08246681,0.0033597588,277.19257,-52.84601,24.23566,SIT
2763213339000,1.264987,3.85132899925267,7.86287998505338,4.34114686249566,0.040927973,-0.08307768,-0.011911872,277.23517,-52.85587,24.23377,SIT
2763218296000,1.269944,3.85156774376512,7.86765487530238,4.33374577263794,0.032375857,-0.074830994,-0.0125227375,277.27484,-52.859795,24.235039,SIT
2763223301000,1.274949,3.85180880010662,7.87247600213236,4.32627301598312,0.042760566,-0.07513642,-0.008552114,277.31818,-52.870453,24.23484,SIT
2763228325000,1.279973,3.85205077154712,7.87731543094231,4.31877189122113,0.04153884,-0.080634214,-0.009162978,277.36102,-52.878,24.232912,SIT
2763233362000,1.28501,3.85229336910798,7.88216738215962,4.31125135670159,0.04428773,-0.07574729,-0.01282817,277.4005,-52.888454,24.229765,SIT
2763238308000,1.289956,3.85253158382627,7.88693167652546,4.30386669048486,0.053450707,-0.076052725,-0.011911872,277.44193,-52.899296,24.229034,SIT
2763243317000,1.294965,3.85277283282019,7.89175665640386,4.29638796159695,0.04184427,-0.06872234,-0.015271631,277.48065,-52.90792,24.224566,SIT
2763248357000,1.300005,3.85301557487037,7.89661149740748,4.28886294790259,0.04642576,-0.07147124,-0.013439035,277.52094,-52.920654,24.223042,SIT
2763253301000,1.304949,3.85325369326246,7.90137386524912,4.28148126780242,0.055283304,-0.07391469,-0.008552114,277.55875,-52.931904,24.220442,SIT
2763258285000,1.309933,3.85349373817875,7.90617476357492,4.27403986537133,0.05009095,-0.07269296,-0.017715093,277.59778,-52.943535,24.214672,SIT
2763263341000,1.314989,3.85373725083861,7.91104501677219,4.26649096274461,0.05100725,-0.06994407,-0.013744468,277.6339,-52.954742,24.213512,SIT
2763268297000,1.319945,3.85397594718795,7.91581894375908,4.25909136594515,0.038789943,-0.0720821,-0.01740966,277.67325,-52.965332,24.20869,SIT
2763273287000,1.324935,3.85421628108288,7.92062562165751,4.25164100516443,0.05131268,-0.07238753,-0.0143553335,277.70932,-52.97916,24.205952,SIT
2763279410000,1.331058,3.85451118377598,7.92652367551964,4.24249900936075,0.04550946,-0.079107046,-0.02076942,277.74936,-52.98915,24.20115,SIT
2763283372000,1.33502,3.85470200599876,7.93034011997526,4.23658351248435,0.048563786,-0.07269296,-0.02107485,277.7841,-53.00178,24.196892,SIT
2763288285000,1.339933,3.85493863133458,7.93507262669168,4.22924811719062,0.06047566,-0.08399397,-0.026267206,277.82684,-53.01722,24.193222,SIT
2763293323000,1.344971,3.85518127705855,7.93992554117109,4.22172608961281,0.056505036,-0.08307768,-0.02687807,277.86346,-53.029053,24.18812,SIT
2763298390000,1.350038,3.85542531951258,7.94480639025151,4.21416076334508,0.06047566,-0.082161374,-0.0143553335,277.9016,-53.043346,24.186628,SIT
2763303326000,1.354974,3.85566305259982,7.94956105199632,4.20679102771109,0.056199603,-0.09132435,-0.016493361,277.9442,-53.057922,24.182634,SIT
2763308281000,1.359929,3.85590170078606,7.9543340157211,4.19939292396991,0.07238753,-0.07391469,-0.022602014,277.97754,-53.07586,24.17694,SIT
2763313333000,1.364981,3.8561450207935,7.95920041586997,4.19184999357627,0.070249505,-0.09315695,-0.013744468,278.02115,-53.08649,24.18074,SIT
2763318295000,1.369943,3.85638400612147,7.96398012242948,4.18444143842719,0.06719518,-0.08979719,-0.009773844,278.05505,-53.102238,24.176323,SIT
2763323291000,1.374939,3.85662462899503,7.96879257990052,4.17698211929683,0.065973446,-0.084910266,-0.01282817,278.0932,-53.117435,24.17471,SIT
2763328314000,1.379962,3.85686655227242,7.97363104544837,4.1694824875931,0.06872234,-0.08307768,-0.014660766,278.13007,-53.131714,24.174253,SIT
2763333387000,1.385035,3.85711088370507,7.97851767410142,4.16190820297574,0.06994407,-0.08399397,-0.006414085,278.16498,-53.14393,24.175203,SIT
2763338287000,1.389935,3.85734688292052,7.98323765841049,4.15459221743956,0.06872234,-0.08460484,-0.009162978,278.20084,-53.15857,24.172615,SIT
2763344097000,1.395745,3.8576267105617,7.9888342112341,4.14591754887523,0.062308256,-0.076358154,-0.016187929,278.23358,-53.171494,24.16982,SIT
2763348376000,1.400024,3.85783280048883,7.99295600977666,4.13952875252639,0.064751714,-0.070554934,-0.0106901415,278.26538,-53.184,24.169834,SIT
2763353312000,1.40496,3.85807053357607,7.99771067152147,4.13215901689239,0.046731193,-0.076358154,-0.013439035,278.3001,-53.19374,24.166498,SIT
2763358282000,1.40993,3.85830990420889,8.00249808417781,4.12473851727712,0.04428773,-0.069027774,-0.011301007,278.3277,-53.20509,24.163185,SIT
2763363333000,1.414981,3.85855317605323,8.00736352106457,4.11719707994176,0.038179077,-0.064446285,-0.0125227375,278.35828,-53.2131,24.159517,SIT
2763368299000,1.419947,3.85879235403362,8.0121470806725,4.10978255255958,0.03481932,-0.05497787,-0.0012217305,278.38297,-53.218296,24.157892,SIT
2763373263000,1.424911,3.85903143568781,8.01692871375622,4.10237101129395,0.044898596,-0.04734206,-0.007330383,278.40942,-53.2287,24.151276,SIT
2763378317000,1.429965,3.85927485202146,8.02179704042929,4.09482509478377,0.029932396,-0.04337143,-0.004276057,278.4309,-53.229225,24.149027,SIT
2763383404000,1.435052,3.86184880638019,8.02296838736614,4.09169190638019,0.03023783,-0.04886922,-0.00580322,278.45435,-53.237103,24.144445,SIT
2763388287000,1.439935,3.87030093496001,8.01451623672224,4.10014403496001,0.028099801,-0.047647487,-0.004276057,278.47366,-53.240192,24.14004,SIT
2763393353000,1.445001,3.87906982363201,8.00574732515928,4.10891292363201,0.042455133,-0.03940081,-0.00030543262,278.53177,-53.27284,24.126348,SIT
2763398458000,1.450106,3.88790621855316,7.99691090717094,4.11774931855316,0.028405234,-0.043676864,-0.0027488936,278.59314,-53.299606,24.113314,SIT
2763403366000,1.455014,3.89640162036962,7.98841548317744,4.12624472036962,0.030543262,-0.043066,-0.0030543262,278.64935,-53.331028,24.100355,SIT
2763408290000,1.459938,3.90123105714036,7.99399790555993,4.13107415714036,0.026572637,-0.04917465,-0.007330383,278.70898,-53.35906,24.087612,SIT
2763414220000,1.465868,3.90620351349269,8.00394266249891,4.13604661349269,0.025045475,-0.053145275,-0.012217305,278.7674,-53.38778,24.074589,SIT
2763418295000,1.469943,3.89912032370549,8.01442704789413,4.12074654741099,0.040011674,-0.053450707,-0.006414085,278.81946,-53.41194,24.066544,SIT
2763423286000,1.474934,3.88405957101145,8.02948811511396,4.0906250420229,0.035430185,-0.048563786,-0.004276057,278.87186,-53.433094,24.056435,SIT
2763428299000,1.479947,3.88128526295036,8.0429762769781,4.08507639793248,0.03848451,-0.049785517,-0.005497787,278.95856,-53.439835,24.039701,SIT
2763433405000,1.485053,3.88555108697549,8.05577357088022,4.09360800143941,0.039095376,-0.048258353,-0.0067195175,279.0418,-53.445175,24.02292,SIT
2763438333000,1.489981,3.88648112164866,8.05856363605442,4.10057551390556,0.038789943,-0.059864793,-0.0036651916,279.14252,-53.450016,24.009552,SIT
2763443482000,1.49513,3.88154805410164,8.04376463945578,4.10550868447379,0.030848695,-0.056199603,-0.0036651916,279.23807,-53.454784,23.993221,SIT
2763448317000,1.499965,3.8802709776115,8.03161257526829,4.0968007567195,0.036957346,-0.06719518,-0.009162978,279.3563,-53.45077,23.983675,SIT
2763453324000,1.504972,3.88499196191789,8.0221704094713,4.06375386657478,0.03604105,-0.057421334,-0.004581489,279.46494,-53.44276,23.973518,SIT
2763458301000,1.509949,3.8852121976223,8.01727273221594,4.03398389405574,0.034513887,-0.055588737,-0.015577064,279.5785,-53.43939,23.960913,SIT
2763463336000,1.514984,3.87581457766517,8.02197164032352,4.01048984416293,0.029321533,-0.05497787,-0.010995574,279.68536,-53.432148,23.952387,SIT
2763468294000,1.519942,3.8698910333945,8.02450294862385,4.00041665816514,0.032070424,-0.05681047,-0.009162978,279.81976,-53.41803,23.940857,SIT
2763473312000,1.52496,3.87315684259599,8.02123707121984,4.02654309767584,0.033292156,-0.058643065,-0.0076358155,279.9517,-53.40313,23.930517,SIT
2763480424000,1.532072,3.87778546655793,8.01660835059463,4.06357204103976,0.027183503,-0.057421334,-0.008857546,280.08643,-53.39282,23.918962,SIT
2763484008000,1.535656,3.87618496057504,8.02305254356349,4.05318979873666,0.03726278,-0.056505036,-0.003970624,280.21893,-53.385967,23.909765,SIT
2763488310000,1.539958,3.8716979867567,8.03651351187105,4.02178093515574,0.03756821,-0.048258353,-0.009468411,280.3492,-53.3793,23.896648,SIT
2763493358000,1.545006,3.86685682657432,8.03799795703089,4.01397086712841,0.03726278,-0.057726767,-0.0076358155,280.474,-53.368183,23.88931,SIT
2763498342000,1.54999,3.86250698868131,8.02494839793129,4.03572005659346,0.03573562,-0.045814894,-0.0021380284,280.58948,-53.358444,23.877644,SIT
2763503215000,1.554863,3.8580478253124,8.01859780807434,4.05520513873758,0.036651913,-0.04520403,-0.002443461,280.70935,-53.362118,23.866425,SIT
2763508215000,1.559863,3.85293365250454,8.02882636729681,4.07054771056285,0.038179077,-0.051923547,-0.007330383,280.82648,-53.36623,23.854979,SIT
2763513258000,1.564906,3.85486163675807,8.03693503223681,4.07174311077602,0.038179077,-0.04520403,-0.003970624,280.9322,-53.365566,23.84367,SIT
2763518219000,1.569867,3.86690241551016,8.0417511928633,4.05247783962695,0.034513887,-0.04550946,0.0015271631,281.04083,-53.36579,23.833752,SIT
2763523205000,1.574853,3.87900387143798,8.04659162359978,4.03311548486999,0.033292156,-0.044898596,-0.0070249503,281.1487,-53.36723,23.819965,SIT
2763528245000,1.579893,3.89123639006539,8.05148447777384,4.01354342952,0.032986723,-0.04642576,-0.009468411,281.2544,-53.36668,23.809578,SIT
2763533206000,1.584854,3.8955955003083,8.04976433625062,4.00094014551964,0.029321533,-0.045814894,-0.0033597588,281.35794,-53.365715,23.799002,SIT
2763538210000,1.589858,3.89082948268523,8.04023259960219,3.99617422742914,0.021991149,-0.03726278,0.0018325958,281.4591,-53.365345,23.786892,SIT
2763543216000,1.594864,3.89014293061524,8.03885953847567,3.99744706123049,0.01740966,-0.04153884,-0.00061086525,281.56897,-53.369385,23.778921,SIT
2763548246000,1.599894,3.89456637450872,8.04770614912764,4.00629394901745,0.01160644,-0.044593163,-0.0067195175,281.67456,-53.37187,23.770025,SIT
2763553511000,1.605159,3.90374372449546,8.0555898623625,4.01417783112386,0.01282817,-0.042455133,-0.0021380284,281.78098,-53.368313,23.771212,SIT
2763558279000,1.609927,3.92121371297944,8.05995745069345,4.01854532824486,0.021685716,-0.034513887,-0.013133603,281.88864,-53.370293,23.766405,SIT
2763563305000,1.614953,3.93484930996303,8.06306185816183,4.01982221992605,0.012217305,-0.037873644,-0.002443461,281.99304,-53.36402,23.769197,SIT
2763568308000,1.619956,3.92857862575009,8.05992653242483,4.00728085150018,0.01282817,-0.030543262,0.0018325958,282.09378,-53.365902,23.764988,SIT
2763573281000,1.624929,3.9223455430815,8.05681000736184,3.99481468616301,0.022602014,-0.038789943,-0.004581489,282.19525,-53.36806,23.767042,SIT
2763578315000,1.629963,3.9160360039394,8.05365525426169,3.98219560787881,0.027488936,-0.040927973,-0.01038471,282.29123,-53.369194,23.768204,SIT
2763583546000,1.635194,3.9094795479894,8.05037704340215,3.9690826959788,0.032375857,-0.047036625,-0.005497787,282.38882,-53.372276,23.771868,SIT
2763588287000,1.639935,3.90353725059713,8.04740591021824,3.95719810119425,0.025350908,-0.056199603,-0.009162978,282.48895,-53.377293,23.772419,SIT
2763593318000,1.644966,3.89598816284862,8.04345415400807,3.94812553201193,0.034208454,-0.05375614,-0.002443461,282.58777,-53.380814,23.778555,SIT
2763598396000,1.650044,3.87466252243466,8.03065872522364,3.97798142859148,0.04337143,-0.035124753,-0.004581489,282.68542,-53.386135,23.78018,SIT
2763603379000,1.655027,3.85373584536046,8.01810267527627,4.00727877649535,0.040927973,-0.024740042,0.0015271631,282.78674,-53.39359,23.784708,SIT
2763608284000,1.659932,3.83136732086889,8.00838340700155,3.99787473669511,0.03481932,-0.03390302,-0.00030543262,282.88873,-53.40463,23.78655,SIT
2763613302000,1.66495,3.80806612692009,7.99906297808379,3.97923378153607,0.029321533,-0.040927973,-0.008857546,282.9864,-53.415882,23.78626,SIT
2763618296000,1.669944,3.86196056644349,8.0177986247127,4.05198088346158,0.033292156,-0.0580322,-0.00580322,283.0742,-53.429996,23.781998,SIT
2763623301000,1.674949,3.94338777020086,8.04653748775857,4.15735756488458,0.02321288,-0.07238753,-0.005192355,283.16388,-53.442398,23.775644,SIT
2763628318000,1.679966,3.95651946101742,8.06568402373055,4.15857357152333,0.024740042,-0.07788532,-0.010995574,283.25952,-53.462215,23.76448,SIT
2763633332000,1.68498,3.94530395319288,8.08138582837389,4.12268380595132,0.016493361,-0.08827003,-0.013133603,283.35873,-53.47733,23.757072,SIT
2763638285000,1.689933,3.9342248925118,8.09689660587658,4.0872306729481,0.026267206,-0.0870483,-0.009773844,283.43954,-53.481426,23.755396,SIT
2763643337000,1.694985,3.92292438482739,8.11271741103377,4.05106890675947,0.032986723,-0.09010262,-0.010995574,283.5244,-53.485123,23.753902,SIT
2763648341000,1.699989,3.91466103567875,8.12338495255863,4.00817947462687,0.044898596,-0.083383106,-0.009468411,283.6048,-53.492157,23.749361,SIT
2763653295000,1.704943,3.90984395097979,8.12820201210783,3.95760008528785,0.05009095,-0.09010262,-0.015577064,283.69003,-53.50141,23.744783,SIT
2763658284000,1.709932,3.90499283358717,8.13305310417301,3.90666335266525,0.071776666,-0.080634214,-0.0143553335,283.77997,-53.530876,23.736393,SIT
2763663335000,1.714983,3.9000814297086,8.13796448240938,3.8550936119403,0.064446285,-0.06811147,-0.0106901415,283.87042,-53.55598,23.72761,SIT
2763669093000,1.720741,3.90102993542637,8.13047685958072,3.82745326457363,0.06566802,-0.06505715,-0.009162978,283.96002,-53.587433,23.718645,SIT
2763673298000,1.724946,3.90510836807778,8.1182415190399,3.82337483192222,0.048258353,-0.05100725,-0.008552114,284.04184,-53.612713,23.70725,SIT
2763679416000,1.731064,3.90469960980534,8.10891735472242,3.81059558413843,0.03481932,-0.054061573,0.0021380284,284.13327,-53.655956,23.69896,SIT
2763683334000,1.734982,3.90199435368421,8.10621204210526,3.79977450315789,0.019547688,-0.046731193,-0.003970624,284.2195,-53.69765,23.68347,SIT
2763688280000,1.739928,3.89857929580389,8.10279691290555,3.78611420031723,0.009162978,-0.03573562,-0.0018325958,284.30243,-53.731583,23.672678,SIT
2763693353000,1.745001,3.89030719715687,8.09638817569326,3.79029184175593,-0.0018325958,-0.02687807,-0.004581489,284.38464,-53.763935,23.658632,SIT
2763698279000,1.749927,3.88086174379818,8.08930418430273,3.79973734442887,-0.006414085,-0.025350908,-0.0021380284,284.46393,-53.79371,23.646196,SIT
2763703339000,1.754987,3.87115934956452,8.08202748993893,3.80943978931825,-0.017715093,-0.018936822,0.004276057,284.54095,-53.821335,23.632427,SIT
2763708273000,1.759921,3.8616985564521,8.07493199389328,3.81890063182501,-0.01863139,-0.016798794,-0.0027488936,284.6195,-53.852028,23.61656,SIT
2763713354000,1.765002,3.85760103162685,8.07510020705347,3.83040684186576,-0.01160644,-0.0106901415,-0.00580322,284.6936,-53.877815,23.60657,SIT
2763718282000,1.76993,3.85526663629619,8.07743465113518,3.84207881851907,-0.0036651916,-0.008857546,-0.007330383,284.7683,-53.904522,23.595654,SIT
2763723348000,1.774996,3.85286687031706,8.07983446723055,3.8540776484147,-0.003970624,-0.018020526,-0.0015271631,284.83926,-53.927807,23.585106,SIT
2763728288000,1.779936,3.85052679058218,8.08217459583519,3.86577804708908,-0.00030543262,-0.019242255,-0.0018325958,284.90793,-53.95483,23.571615,SIT
2763733368000,1.785016,3.85658296420138,8.08953135411354,3.88579641050345,0.002443461,-0.018936822,0.0012217305,284.97662,-53.97964,23.561668,SIT
2763739249000,1.790897,3.86722264698215,8.10017070359875,3.91239561745537,0.004886922,-0.027488936,-0.005192355,285.04883,-54.00684,23.550789,SIT
2763743360000,1.795008,3.86617010156415,8.1048379581614,3.91977389843585,0.011301007,-0.03573562,-0.006414085,285.11688,-54.031155,23.54092,SIT
2763748469000,1.800117,3.86147497909989,8.10953317867767,3.92446902090011,0.008857546,-0.04337143,-0.012217305,285.18802,-54.0561,23.529535,SIT
2763753213000,1.804861,3.87213717501041,8.11662869596002,3.91380682498959,0.012217305,-0.038789943,-0.009468411,285.25327,-54.079453,23.519997,SIT
2763758211000,1.809859,3.89705639950021,8.1265965939192,3.88888760049979,0.0036651916,-0.03390302,-0.008857546,285.32098,-54.101204,23.509594,SIT
2763763242000,1.81489,3.90304729064575,8.13213892498994,3.87288692086099,0.0033597588,-0.0421497,-0.004581489,285.38565,-54.12774,23.498585,SIT
2763768214000,1.819862,3.89586324574532,8.13453353160833,3.8633081943271,0.00580322,-0.039095376,-0.002443461,285.44543,-54.153084,23.48532,SIT
2763773493000,1.825141,3.88823561641521,8.13707599507141,3.85313802188694,0.0076358155,-0.034208454,0.0009162979,285.50925,-54.17873,23.476957,SIT
2763778242000,1.82989,3.88137378430899,8.13936320078958,3.84398891241199,0.004886922,-0.028405234,0.005192355,285.57086,-54.203064,23.468952,SIT
2763783212000,1.83486,3.87424808857327,8.13737970755326,3.84320540761782,0.01282817,-0.027183503,0.004276057,285.6303,-54.23049,23.46326,SIT
2763788211000,1.839859,3.86711578139743,8.13262486092765,3.84796027906838,0.007330383,-0.019242255,0.0033597588,285.68506,-54.25342,23.456991,SIT
2763793249000,1.844897,3.85992783109699,8.12783291907931,3.85275224593534,0.0076358155,-0.031154128,0.0033597588,285.75003,-54.280403,23.454918,SIT
2763798262000,1.84991,3.85277554946616,8.12306475621989,3.85752043368923,0.005497787,-0.030848695,-0.0076358155,285.81055,-54.307743,23.44712,SIT
2763803263000,1.854911,3.85498024476755,8.11092436375875,3.85179743284868,0.011911872,-0.035430185,-0.0030543262,285.87286,-54.33363,23.445454,SIT
2763808263000,1.859911,3.86357547004129,8.09373400296177,3.83890459493807,0.004886922,-0.029321533,-0.005497787,285.93408,-54.359467,23.437788,SIT
2763813290000,1.864938,3.87079127241345,8.08898939827398,3.82984216379327,0.0009162979,-0.03359759,-0.004276057,285.9958,-54.384476,23.432957,SIT
2763818275000,1.869923,3.87552694823926,8.10556411531594,3.82747432588037,-0.00030543262,-0.032986723,-0.0033597588,286.05423,-54.40886,23.426031,SIT
2763823257000,1.874905,3.88025977410971,8.12212885760341,3.82510791294514,-0.00030543262,-0.029321533,-0.008246681,286.11487,-54.42863,23.428165,SIT
2763828293000,1.879941,3.88504389917667,8.13887314547168,3.82271585041167,-0.004581489,-0.0290161,-0.008246681,286.17487,-54.446083,23.431824,SIT
2763833296000,1.884944,3.88120670140513,8.14811782999035,3.82463444929744,-0.010079277,-0.026572637,0.00061086525,286.2311,-54.461567,23.440493,SIT
2763838265000,1.889913,3.86078961711895,8.14301371881369,3.83484299144052,-0.015882496,-0.02565634,0.0021380284,286.28818,-54.477493,23.447054,SIT
2763843669000,1.895317,3.85481161732771,8.13781796863572,3.84523481732771,-0.019547688,-0.02107485,-0.0015271631,286.3455,-54.49565,23.452353,SIT
2763848350000,1.899998,3.86321836853258,8.13361472470698,3.85364156853258,0.002443461,-0.020463986,-0.0021380284,286.4024,-54.51703,23.458805,SIT
2763853267000,1.904915,3.8682279173534,8.12830270180858,3.8602552826466,-0.00030543262,-0.029321533,-0.003970624,286.46268,-54.530598,23.464243,SIT
2763858289000,1.909937,3.86583168948234,8.12111386806836,3.86265151051766,0.0015271631,-0.032375857,0.0015271631,286.51968,-54.54832,23.470203,SIT
2763863281000,1.914929,3.86344977599522,8.11396797837676,3.86503342400478,0.004886922,-0.040317107,-0.008552114,286.58057,-54.565582,23.47764,SIT
2763868297000,1.919945,3.86105641100095,8.10678773344627,3.86742678899905,0.0021380284,-0.040011674,-0.0018325958,286.6362,-54.57765,23.48951,SIT
2763873266000,1.924914,3.86314417231005,8.1049308009725,3.86533902768995,0.0021380284,-0.03726278,-0.0033597588,286.6954,-54.5946,23.49694,SIT
2763879465000,1.931113,3.87736439440452,8.11630706773977,3.85111880559548,0.004581489,-0.023823744,-0.013744468,286.75125,-54.611973,23.501854,SIT
2763883335000,1.934983,3.88624199716394,8.12340920556673,3.84224120283606,-0.0033597588,-0.029321533,-0.010995574,286.8042,-54.62894,23.50028,SIT
2763888288000,1.939936,3.89760395232346,8.1324988408786,3.83087924767654,-0.009162978,-0.021685716,-0.00580322,286.85037,-54.648174,23.493301,SIT
2763893316000,1.944964,3.90809397350513,8.14104224979867,3.81660534316489,-0.011301007,-0.016187929,-0.0033597588,286.89822,-54.66636,23.487364,SIT
2763898399000,1.950047,3.91299420245621,8.14594232524663,3.78720386712301,-0.016798794,-0.0125227375,-0.0012217305,286.9433,-54.681564,23.48196,SIT
2763903302000,1.95495,3.91836232985816,8.1513103601048,3.76296083507092,-0.021380283,-0.0067195175,-0.003970624,286.99072,-54.699543,23.476892,SIT
2763908326000,1.959974,3.92705576977143,8.16000398157015,3.75861411511428,-0.020158553,-0.00061086525,0.004886922,287.03458,-54.714752,23.474798,SIT
2763913737000,1.965385,3.93552389987881,8.16919723715857,3.75465190012119,-0.033292156,-0.0033597588,-0.0015271631,287.086,-54.732815,23.469065,SIT
2763918294000,1.969942,3.92331876957211,8.17326569889065,3.76685703042789,-0.028710667,0.006414085,0.0067195175,287.1284,-54.74999,23.46687,SIT
2763923267000,1.974915,3.90999945576582,8.17770556287872,3.78017634423418,-0.034208454,0.0067195175,0.0076358155,287.1751,-54.768726,23.457165,SIT
2763928317000,1.979965,3.90178574926397,8.15823764198942,3.78098811642132,-0.044593163,0.010995574,0.009468411,287.21625,-54.78534,23.448212,SIT
2763933408000,1.985056,3.89481769312563,8.13268805430899,3.77866543104188,-0.040317107,0.021685716,0.01038471,287.25513,-54.803646,23.438581,SIT
2763938287000,1.989935,3.8881398015721,8.10820240545948,3.7764394671907,-0.04642576,0.03176499,0.0076358155,287.29666,-54.814106,23.42706,SIT
2763943303000,1.994951,3.88127439799914,8.08302921123339,3.77415099933305,-0.055588737,0.02107485,0.005192355,287.3404,-54.824543,23.41743,SIT
2763948338000,1.999986,3.88461127070297,8.08225458065827,3.78527080410402,-0.047036625,0.028405234,0.016187929,287.37442,-54.835243,23.407217,SIT
2763953299000,2.004947,3.89426395351483,8.09673340329135,3.80457627052011,-0.05100725,0.027794369,0.004581489,287.41675,-54.846424,23.393332,SIT
2763958290000,2.009938,3.88822935538014,8.11786307436643,3.833808304113,-0.04917465,0.02107485,0.015271631,287.45032,-54.84923,23.392738,SIT
2763963327000,2.014975,3.87319871300374,8.14291414499377,3.86887980299128,-0.040011674,0.02687807,0.016187929,287.48328,-54.85708,23.385292,SIT
2763968307000,2.019955,3.85858867499746,8.14638166735977,3.88208724166751,-0.05009095,0.021685716,0.0143553335,287.51776,-54.85836,23.38242,SIT
2763973287000,2.024935,3.84407631147175,8.14154436438787,3.88692469617608,-0.051923547,0.025961773,0.015271631,287.54718,-54.862644,23.378548,SIT
2763978331000,2.029979,3.85067054666281,8.12645746282385,3.87781265333719,-0.044898596,0.023823744,0.02107485,287.57446,-54.86822,23.371777,SIT
2763983309000,2.034957,3.8644449790234,8.10809140917847,3.8640382209766,-0.054367006,0.023823744,0.018020526,287.6008,-54.871655,23.36238,SIT
2763988320000,2.039968,3.86308284443622,8.09900451536753,3.85647962221811,-0.044898596,0.02107485,0.0143553335,287.62683,-54.879665,23.353706,SIT
2763993317000,2.044965,3.85422239829661,8.09457443107758,3.85204939914831,-0.053145275,0.017715093,0.010079277,287.65332,-54.88286,23.34441,SIT
2763998321000,2.049969,3.85472846794999,8.08997554202223,3.83774623012502,-0.051618114,0.007330383,0.013744468,287.68265,-54.88732,23.339018,SIT
2764003292000,2.05494,3.86417603151419,8.08525190821592,3.81412732121453,-0.053450707,0.006414085,0.016187929,287.71075,-54.890583,23.33165,SIT
2764008291000,2.059939,3.87134140232306,8.08744778051068,3.81046754185121,-0.05100725,0.024129177,0.018325957,287.73495,-54.897175,23.320366,SIT
2764013321000,2.064969,3.87609655720444,8.09695804062058,3.8279031097496,-0.05589417,0.029626964,0.018020526,287.7625,-54.901936,23.31103,SIT
2764018305000,2.069953,3.88080822557994,8.10638132817281,3.84517922712645,-0.062308256,0.02565634,0.012217305,287.79077,-54.90903,23.301567,SIT
2764023303000,2.074951,3.88553312897897,8.1158310856339,3.8625038729229,-0.057421334,0.02687807,0.014049901,287.8147,-54.916023,23.292866,SIT
2764029009000,2.080657,3.89092734642493,8.12661946419993,3.88228267022474,-0.05100725,0.042455133,0.013439035,287.8282,-54.930183,23.279125,SIT
2764033352000,2.085,3.89503303979468,8.13483080806818,3.89733687924715,-0.06383542,0.029626964,0.010995574,287.84906,-54.941074,23.269285,SIT
2764038273000,2.089921,3.89002295365079,8.14221980099206,3.89959975365079,-0.07086037,0.022602014,0.015882496,287.86298,-54.952843,23.258793,SIT
2764043325000,2.094973,3.87082374984127,8.1470194515873,3.88040054984127,-0.06566802,0.034513887,0.015882496,287.8761,-54.96568,23.246008,SIT
2764048324000,2.099972,3.85762753153495,8.14621077745061,3.85990165767477,-0.06261369,0.030543262,0.017104227,287.89804,-54.963173,23.242867,SIT
2764053297000,2.104945,3.85310383981763,8.13716367743161,3.83728319908815,-0.06688975,0.046731193,0.015882496,287.91125,-54.960903,23.235088,SIT
2764058281000,2.109929,3.85044280382208,8.12900975304778,3.82454442293245,-0.062308256,0.028099801,0.017715093,287.93835,-54.964684,23.231287,SIT
2764063469000,2.115117,3.85248911512356,8.12287069093905,3.83682229074135,-0.062308256,0.030848695,0.022296581,287.95462,-54.966385,23.223257,SIT
2764068387000,2.120035,3.85442892988468,8.11705112512356,3.84846117930807,-0.06872234,0.03756821,0.01863139,287.97397,-54.973793,23.218132,SIT
2764073285000,2.124933,3.85636085601318,8.11125522570017,3.86005273607908,-0.05467244,0.03145956,0.022907447,287.99417,-54.982944,23.217558,SIT
2764079394000,2.131042,3.85877043884679,8.10402632623559,3.87451023308072,-0.064446285,0.038179077,0.022602014,288.01053,-54.986153,23.215609,SIT
2764083310000,2.134958,3.86357702283096,8.09991615317535,3.8734520214613,-0.06291912,0.04550946,0.028710667,288.0267,-54.992474,23.217026,SIT
2764088291000,2.139939,3.87297782901907,8.09521589732473,3.86170101372617,-0.06719518,0.04184427,0.027183503,288.045,-54.9971,23.216927,SIT
2764093301000,2.144949,3.88243336786717,8.09048827600138,3.84988159016603,-0.070554934,0.03604105,0.020158553,288.05884,-54.994198,23.220535,SIT
2764099034000,2.150682,3.89325344854905,8.08507840513376,3.83635648931369,-0.06688975,0.041233405,0.024129177,288.0691,-54.990234,23.22542,SIT
2764103291000,2.154939,3.89955018460103,8.08401815235651,3.83549555893607,-0.06658431,0.04153884,0.024740042,288.07944,-54.99043,23.227524,SIT
2764108283000,2.159931,3.90433060446637,8.08720499910006,3.84824334524365,-0.07269296,0.045814894,0.017715093,288.08765,-54.99084,23.227396,SIT
2764113332000,2.16498,3.90916560845277,8.09042823411773,3.86113668920739,-0.07422013,0.044898596,0.019242255,288.09784,-54.99074,23.232992,SIT
2764118296000,2.169944,3.91391921506566,8.09359720591961,3.87381297350843,-0.07727446,0.05100725,0.017715093,288.10617,-54.991096,23.234446,SIT
2764123285000,2.174933,3.91869676208253,8.09678213749083,3.88655309888674,-0.07666359,0.043676864,0.015882496,288.1153,-54.99457,23.234774,SIT
2764128317000,2.179965,3.92351548659423,8.09999451986534,3.89940303091794,-0.077579886,0.043066,0.016798794,288.12067,-54.99682,23.233791,SIT
2764133376000,2.185024,3.92266138785934,8.10580749211335,3.91371955356777,-0.06963864,0.043066,0.021991149,288.12744,-55.000507,23.234333,SIT
2764138288000,2.189936,3.91302508025947,8.11544400095596,3.92978006623421,-0.070249505,0.04428773,0.019547688,288.13495,-55.003532,23.233091,SIT
2764143308000,2.194956,3.90317689944691,8.12529238743599,3.94619370092182,-0.058337633,0.03940081,0.01740966,288.13934,-55.00534,23.230204,SIT
2764148360000,2.200008,3.89534909669194,8.12829764633476,3.95763250330806,-0.050701816,0.025961773,0.014966198,288.14615,-55.006695,23.227713,SIT
2764153289000,2.204937,3.89016126866689,8.12310970996813,3.96282033133311,-0.04642576,0.01740966,0.015271631,288.15283,-55.00968,23.225506,SIT
2764158282000,2.20993,3.86958460798289,8.10784700570207,3.97276899657876,-0.032070424,0.011301007,0.0125227375,288.16272,-55.016766,23.21941,SIT
2764163322000,2.21497,3.83948219315752,8.0863452808268,3.98567003150392,-0.032070424,0.009162978,0.01985312,288.17236,-55.019657,23.216719,SIT
2764168758000,2.220406,3.83240871665976,8.07700221928589,3.98977416111341,-0.036651913,0.013744468,0.022602014,288.18176,-55.02526,23.211868,SIT
2764173303000,2.224951,3.85404398598293,8.08421393807472,3.98256240467235,-0.030848695,0.013439035,0.02076942,288.19266,-55.0324,23.208708,SIT
2764178661000,2.230309,3.87869508187532,8.0928429093766,3.97419823624936,-0.03726278,0.014966198,0.015271631,288.19446,-55.038223,23.200497,SIT
2764183350000,2.234998,3.8807857571954,8.103296285977,3.9700168856092,-0.056199603,0.014966198,0.026267206,288.19476,-55.03954,23.1965,SIT
2764188281000,2.239929,3.88298433258532,8.11428916292658,3.96561973482937,-0.058948494,0.019242255,0.02687807,288.19696,-55.045486,23.190817,SIT
2764193325000,2.244973,3.88523329106569,8.12553395532846,3.96112181786862,-0.062002823,0.016798794,0.017104227,288.20093,-55.047302,23.18626,SIT
2764198321000,2.249969,3.88746084787932,8.13667173939662,3.95666670424135,-0.05467244,0.004886922,0.01282817,288.2055,-55.04951,23.184042,SIT
2764203291000,2.254939,3.88478390705957,8.13008638567946,3.93482304235743,-0.065973446,0.009468411,0.017104227,288.2063,-55.047432,23.179855,SIT
2764208294000,2.259942,3.87970517795209,8.11485014532542,3.90435066771253,-0.06261369,0.009468411,0.0125227375,288.211088037085,-55.0512694122221,23.1777462686671,SIT
2764213322000,2.26497,3.86835540670947,8.09788654697531,3.88750900670947,-0.05009095,0.0009162979,0.012217305,288.2159,-55.055126,23.175627,SIT
2764218315000,2.269963,3.85538399092142,8.08059141622208,3.87453759092142,-0.038179077,-0.013133603,0.010079277,288.22702,-55.06312,23.168915,SIT
2764223283000,2.274931,3.8512196517311,8.0799642586555,3.8703732517311,-0.034208454,-0.0012217305,0.008552114,288.23474,-55.077274,23.15904,SIT
2764228307000,2.279955,3.85358920815563,8.09181204077813,3.87274280815563,-0.0290161,0.015882496,0.010995574,288.2446,-55.093422,23.15097,SIT
2764233353000,2.285001,3.85596914082246,8.10371170411229,3.87512274082246,-0.024129177,0.015271631,0.013133603,288.2571,-55.11121,23.1429,SIT
2764238432000,2.29008,3.85836463785275,8.11568918926373,3.87751823785275,-0.028405234,0.030848695,0.015271631,288.26004,-55.127193,23.131474,SIT
2764243303000,2.294951,3.86414055575289,8.1164445463573,3.87157576637067,-0.039095376,0.032375857,0.019547688,288.26645,-55.141533,23.123339,SIT
2764248438000,2.300086,3.87353172695503,8.1070531790318,3.85748900956746,-0.05009095,0.03970624,0.023823744,288.2667,-55.15401,23.113337,SIT
2764253336000,2.304984,3.86788435309836,8.10019098149776,3.85345054896721,-0.063224554,0.03970624,0.021685716,288.27884,-55.158764,23.10498,SIT
2764258288000,2.309936,3.84287372801266,8.09602267456271,3.86178742399578,-0.07513642,0.046731193,0.028099801,288.28513,-55.158894,23.098305,SIT
2764263319000,2.314967,3.82265763520624,8.08937820591101,3.86600672958753,-0.076358154,0.04917465,0.028405234,288.29465,-55.160088,23.092052,SIT
2764268294000,2.319942,3.83297366421998,8.06874598630508,3.84537467156003,-0.08093964,0.051923547,0.02443461,288.3017,-55.1578,23.085592,SIT
2764273290000,2.324938,3.83508722708333,8.05539712044271,3.838541359375,-0.08674286,0.050701816,0.022907447,288.3086,-55.15485,23.077435,SIT
2764279401000,2.331049,3.81331497083333,8.06084029817708,3.87119974375,-0.082161374,0.059253927,0.022296581,288.31235,-55.153824,23.067202,SIT
2764283368000,2.335016,3.80303977261932,8.06436926299496,3.89202396627085,-0.08155051,0.054367006,0.025350908,288.32294,-55.149086,23.058674,SIT
2764288289000,2.339937,3.80957224493832,8.06872433548953,3.91597636477383,-0.076358154,0.04550946,0.023823744,288.3329,-55.14743,23.048632,SIT
2764293307000,2.344955,3.81623348169847,8.07316525273761,3.94040089956106,-0.082161374,0.044898596,0.01985312,288.34576,-55.136314,23.04054,SIT
2764298444000,2.350092,3.82305268720603,8.07771148468327,3.96540465308876,-0.07666359,0.043676864,0.015577064,288.36133,-55.129414,23.033405,SIT
2764303282000,2.35493,3.82947497964238,8.08199310238876,3.98895305868872,-0.06994407,0.033292156,0.012217305,288.37985,-55.122574,23.026983,SIT
2764308286000,2.359934,3.82316256006216,8.0714844032634,3.99730844102564,-0.0693332,0.035124753,0.021991149,288.39386,-55.11422,23.021639,SIT
2764313294000,2.364942,3.8138462013986,8.05750957342657,4.00196652307692,-0.064751714,0.029626964,0.016493361,288.41516,-55.11205,23.014036,SIT
2764318298000,2.369946,3.81690139973487,8.06120365532479,4.00488243703049,-0.06078109,0.020158553,0.016798794,288.42734,-55.100914,23.011612,SIT
2764323294000,2.374942,3.82394893144793,8.07060043786517,4.00723166332793,-0.06291912,0.011911872,0.0106901415,288.4422,-55.0922,23.006826,SIT
2764328310000,2.379958,3.83102467585801,8.0800348376295,4.00959029405411,-0.05375614,0.01863139,0.014966198,288.45212,-55.08381,23.003748,SIT
2764333326000,2.384974,3.83810042026808,8.08946923739382,4.01194892478028,-0.05955936,0.009162978,0.012217305,288.4705,-55.07482,23.000595,SIT
2764338288000,2.389936,3.84637243152893,8.08329222100065,4.00357275270661,-0.06291912,0.0106901415,0.021685716,288.48145,-55.06537,22.99944,SIT
2764343341000,2.394989,3.85538977437809,8.06976615964781,3.99004673843287,-0.051618114,0.013133603,0.02107485,288.49637,-55.060654,22.99619,SIT
2764348400000,2.400048,3.86747568045769,8.0663452159992,3.97860327969487,-0.060170226,0.016798794,0.01740966,288.51056,-55.05048,22.992702,SIT
2764353287000,2.404935,3.88156836988859,8.07104287724581,3.96920815340761,-0.053145275,0.02321288,0.018936822,288.52252,-55.045376,22.989767,SIT
2764358290000,2.409938,3.89079309016295,8.07063845534098,3.95696952951116,-0.05681047,0.03176499,0.018020526,288.54016,-55.03229,22.988798,SIT
2764363325000,2.414973,3.89564313924764,8.06578830496882,3.94241938225709,-0.055283304,0.028710667,0.02107485,288.55823,-55.021206,22.989897,SIT
2764368305000,2.419953,3.88687140128742,8.06094869347093,3.92790085096557,-0.059253927,0.028405234,0.017715093,288.57385,-55.01222,22.986103,SIT
2764373306000,2.424954,3.86729703659957,8.05605500010217,3.91322007744968,-0.05100725,0.041233405,0.016493361,288.5857,-55.0055,22.982382,SIT
2764378332000,2.42998,3.86410162428526,8.05874252136203,3.91895826071314,-0.06627888,0.03145956,0.022296581,288.60464,-54.99349,22.983545,SIT
2764383342000,2.43499,3.87180797956955,8.06644903758432,3.93822414892387,-0.064751714,0.047036625,0.023518313,288.61368,-54.988144,22.978361,SIT
2764388325000,2.439973,3.8786068,8.07351839020109,3.95738427643548,-0.06352998,0.04734206,0.02107485,288.63147,-54.982277,22.975168,SIT
2764393301000,2.444949,3.8786068,8.07590819773331,3.97650233743543,-0.061391957,0.04886922,0.020158553,288.64404,-54.976696,22.970629,SIT
2764398478000,2.450126,3.8786068,8.07839453888972,3.99639265130134,-0.07147124,0.05467244,0.023823744,288.65192,-54.96608,22.96662,SIT
2764403299000,2.454947,3.8786068,8.08070990506996,4.01491519392207,-0.076052725,0.05589417,0.022907447,288.6613,-54.958443,22.961771,SIT
2764408306000,2.459954,3.87777417486423,8.08171482445811,4.03239067762772,-0.08124508,0.043676864,0.02565634,288.67163,-54.947487,22.959953,SIT
2764413320000,2.464968,3.87085082091604,8.07248361356755,4.0370061987312,-0.09040806,0.046731193,0.020463986,288.67853,-54.936817,22.953886,SIT
2764418305000,2.469953,3.86396751029942,8.06330579420387,4.04159502455904,-0.079107046,0.04642576,0.015882496,288.674,-54.93533,22.93683,SIT
2764423982000,2.47563,3.85612868294324,8.05285394254337,4.04682085489499,-0.081855945,0.04062254,0.02107485,288.6696,-54.928177,22.92192,SIT
2764428879000,2.480527,3.85023266970461,8.04487375854421,4.05063273773566,-0.07452556,0.04062254,0.018936822,288.66547,-54.927853,22.903923,SIT
2764433378000,2.485026,3.85457645669926,8.04921740946668,4.04628904145579,-0.06994407,0.03848451,0.021685716,288.6621,-54.92447,22.890114,SIT
2764438627000,2.490275,3.85963300337569,8.05391420225678,4.04195180824957,-0.06841691,0.031154128,0.018325957,288.6588,-54.9218,22.874714,SIT
2764443309000,2.494957,3.8638847175422,8.04966262127821,4.05470690635312,-0.06261369,0.019547688,0.007941248,288.658,-54.92185,22.859625,SIT
2764448339000,2.499987,3.86845244976294,8.04509503214489,4.06841005531955,-0.06963864,0.013439035,0.01740966,288.6554,-54.916916,22.853245,SIT
2764453300000,2.504948,3.8731923615717,8.02786792332429,4.06598038189127,-0.053450707,0.017104227,0.018020526,288.65604,-54.921783,22.842596,SIT
2764458351000,2.509999,3.87805342245,8.00842352753492,4.06111937177168,-0.058948494,0.017715093,0.013439035,288.65857,-54.919823,22.834505,SIT
2764463327000,2.514975,3.8767247111905,8.01562044404751,4.05680182238099,-0.054061573,0.0015271631,0.01160644,288.66162,-54.92028,22.829958,SIT
2764468299000,2.519947,3.87459843408056,8.02625182959721,4.05254926816111,-0.05100725,0.016798794,0.017715093,288.65533,-54.918545,22.822332,SIT
2764473280000,2.524928,3.87246830811825,8.03690245940877,4.04828901623649,-0.052839845,0.0070249503,0.010995574,288.66125,-54.91794,22.818163,SIT
2764479427000,2.531075,3.86983954194874,8.05004629025632,4.04303148389747,-0.06414085,0.004886922,0.0106901415,288.65906,-54.913586,22.814348,SIT
2764483321000,2.534969,3.86063246415425,8.04989536360648,4.03091548019281,-0.061391957,0.018020526,0.014049901,288.65582,-54.912437,22.809212,SIT
2764488289000,2.539937,3.83978340964067,8.03947116290535,4.00485416205083,-0.064446285,0.006414085,0.014049901,288.66052,-54.90849,22.80685,SIT
2764493925000,2.545573,3.83230242683112,8.0428391341556,3.99826728049336,-0.064751714,0.01863139,0.01863139,288.65765,-54.908085,22.80014,SIT
2764498357000,2.550005,3.8343159172296,8.05290658614801,4.0043077516888,-0.063224554,0.025045475,0.01985312,288.66006,-54.908108,22.79505,SIT
2764503362000,2.55501,3.8365897257685,8.0642756288425,4.0111291773055,-0.07696902,0.020158553,0.017715093,288.67444,-54.903774,22.777906,SIT
2764508282000,2.55993,3.83882491817837,8.07545159089184,4.01783475453511,-0.056505036,0.020463986,0.016798794,288.68518,-54.906673,22.760466,SIT
2764513301000,2.564949,3.83857297132398,8.0819616676327,4.02139548566199,-0.07269296,0.029321533,0.014966198,288.6952,-54.899677,22.742355,SIT
2764518299000,2.569947,3.83370568981086,8.07952797605247,4.01896184490543,-0.07391469,0.032070424,0.021380283,288.7057,-54.898857,22.727446,SIT
2764523279000,2.574927,3.82885593752288,8.07710304926785,4.01653696876144,-0.06047566,0.030543262,0.016187929,288.71063,-54.905178,22.708168,SIT
2764528309000,2.579957,3.82395749294285,8.07465377582876,4.01408774647143,-0.06963864,0.03023783,0.014660766,288.71304,-54.90447,22.691534,SIT
2764533341000,2.584989,3.82322791304348,8.07532995652174,4.01892773913043,-0.06963864,0.032986723,0.014660766,288.71558,-54.909126,22.674385,SIT
2764538287000,2.589935,3.82802844540387,8.0801305891355,4.03332933621161,-0.06963864,0.02321288,0.014049901,288.722,-54.912174,22.659008,SIT
2764543304000,2.594952,3.82868427332827,8.07670929226824,4.04345088409954,-0.06505715,0.04337143,0.013744468,288.72263,-54.913513,22.646059,SIT
2764548498000,2.600146,3.82395954886018,8.06253482285334,4.04817550989742,-0.06841691,0.03268129,0.015882496,288.7341,-54.912876,22.639275,SIT
2764553781000,2.605429,3.82422320330611,8.05204259539297,4.04996328698587,-0.07880162,0.043066,0.021380283,288.73352,-54.909016,22.62572,SIT
2764558283000,2.609931,3.83054903402944,8.04782550701814,4.04785472078055,-0.06963864,0.039095376,0.015577064,288.7411,-54.910454,22.613575,SIT
2764563526000,2.615174,3.83791605546046,8.04291431324889,4.04539909825402,-0.076358154,0.03634648,0.021685716,288.7411,-54.90153,22.604866,SIT
2764568297000,2.619945,3.84461986229765,8.03844524869174,4.04316454264195,-0.07360926,0.03573562,0.022296581,288.74323,-54.89885,22.593956,SIT
2764573294000,2.624942,3.84770166472609,8.03385360965467,4.04032503236304,-0.07452556,0.040317107,0.015882496,288.74176,-54.8948,22.591095,SIT
2764578325000,2.629973,3.83899060329054,8.02949798797686,4.03596950164527,-0.06627888,0.03604105,0.016798794,288.74173,-54.89189,22.591547,SIT
2764583306000,2.634954,3.83081592347416,8.02545712541893,4.03248746237432,-0.0729984,0.031154128,0.015882496,288.74112,-54.885715,22.591652,SIT
2764588305000,2.639953,3.83307574991739,8.02771699905593,4.04830620028322,-0.07452556,0.03176499,0.021380283,288.73907,-54.88109,22.59348,SIT
2764593314000,2.644962,3.83534009691763,8.02998139334435,4.0641565819967,-0.07666359,0.029626964,0.01863139,288.74103,-54.877632,22.593166,SIT
2764598461000,2.650109,3.83766682760444,8.03230817262214,4.08044364821336,-0.073303826,0.040927973,0.020158553,288.7377,-54.873295,22.593449,SIT
2764603268000,2.654916,3.83983985935332,8.03448124975218,4.09565482507435,-0.06963864,0.03604105,0.021685716,288.7387,-54.870335,22.593948,SIT
2764608283000,2.659931,3.83842420587774,8.03119013342477,4.10074843328762,-0.073303826,0.029932396,0.020158553,288.73718,-54.866867,22.592821,SIT
2764613294000,2.664942,3.83607363060345,8.02648888469828,4.10309905765086,-0.082161374,0.03573562,0.01740966,288.73367,-54.863068,22.590883,SIT
2764618294000,2.669942,3.83372821524295,8.02179795601489,4.10544452199256,-0.08124508,0.03573562,0.02076942,288.7283,-54.856018,22.59179,SIT
2764623292000,2.67494,3.83138373804859,8.01710890370298,4.10778904814851,-0.09132435,0.036651913,0.02443461,288.72147,-54.845375,22.591278,SIT
2764628323000,2.679971,3.82747448145339,8.01416280680807,4.10682580680807,-0.0870483,0.03573562,0.02321288,288.71558,-54.838512,22.589897,SIT
2764633376000,2.685024,3.82294279906354,8.01189691829377,4.10455991829377,-0.08460484,0.03390302,0.025045475,288.70874,-54.828083,22.59028,SIT
2764638305000,2.689953,3.8185223236035,8.00968663440558,4.10234963440558,-0.080634214,0.048258353,0.020158553,288.69754,-54.81953,22.58658,SIT
2764643397000,2.695045,3.81395566484057,8.00740325733951,4.10006625733951,-0.089491755,0.049785517,0.020463986,288.6894,-54.807655,22.58667,SIT
2764648580000,2.700228,3.8103672148502,8.00020011190405,4.1024789680004,-0.086132,0.048258353,0.02107485,288.6868,-54.793026,22.591915,SIT
2764653358000,2.705006,3.80809002014532,7.98881420971434,4.1093105758933,-0.09193522,0.045814894,0.022907447,288.6838,-54.774754,22.59735,SIT
2764658384000,2.710032,3.80569462864537,7.97683732725192,4.11649677540559,-0.07727446,0.049785517,0.023823744,288.68005,-54.76293,22.60109,SIT
2764663430000,2.715078,3.80328970514581,7.96481278509008,4.12371157101622,-0.08399397,0.056199603,0.02321288,288.67618,-54.745735,22.604776,SIT
2764668300000,2.719948,3.81239648982399,7.9645687538944,4.1234418857981,-0.07971791,0.053450707,0.022296581,288.6695,-54.735867,22.615955,SIT
2764673295000,2.724943,3.83659035792029,7.97908507475218,4.11376438908558,-0.089186326,0.054061573,0.023518313,288.6599,-54.721626,22.625916,SIT
2764679980000,2.731628,3.84813073526311,7.98618387674558,4.11106848799131,-0.09162979,0.038789943,0.026572637,288.65125,-54.70624,22.638853,SIT
2764683335000,2.734983,3.84664501603625,7.98544102488902,4.11329705907472,-0.07788532,0.04886922,0.02107485,288.6366,-54.694084,22.646164,SIT
2764688311000,2.739959,3.84444145750486,7.98433925712799,4.11660238536715,-0.07422013,0.04153884,0.021685716,288.63202,-54.67858,22.65975,SIT
2764693345000,2.744993,3.84221221440858,7.98322464721863,4.11994623837279,-0.074830994,0.048563786,0.022602014,288.6215,-54.66638,22.668474,SIT
2764698334000,2.749982,3.84000289899195,7.98212000104504,4.12326019996301,-0.07880162,0.052534413,0.021380283,288.61404,-54.654827,22.677876,SIT
2764703309000,2.754957,3.83779978329788,7.98101845470036,4.12656486200176,-0.071776666,0.037873644,0.02107485,288.6129,-54.642628,22.690939,SIT
2764708335000,2.759983,3.83557408290021,7.9799056161218,4.12990340097799,-0.073303826,0.04153884,0.026572637,288.60498,-54.62726,22.701868,SIT
2764713345000,2.764993,3.83335546789975,7.97879632020485,4.1332313118954,-0.07269296,0.042455133,0.018936822,288.60373,-54.616783,22.711342,SIT
2764718311000,2.769959,3.83115633774161,7.97769676660732,4.13652999565107,-0.076358154,0.03268129,0.020463986,288.60223,-54.602634,22.725082,SIT
2764723302000,2.77495,3.85347348879897,7.99264704667917,4.15234762383302,-0.06872234,0.04062254,0.02443461,288.59845,-54.591816,22.729872,SIT
2764728315000,2.779963,3.88190050847725,8.01159829418731,4.17129921764532,-0.076358154,0.03145956,0.020463986,288.6029,-54.578594,22.736443,SIT
2764733310000,2.784958,3.88450159984174,8.01210492294758,4.18653400047478,-0.06719518,0.021991149,0.018020526,288.60782,-54.56471,22.741392,SIT
2764738339000,2.789987,3.87973782860534,8.00734105222552,4.20082531418398,-0.06352998,0.022296581,0.01985312,288.61237,-54.548542,22.746197,SIT
2764753247000,2.804895,3.87024862166927,7.9894937306138,4.22093475666147,-0.03756821,0.016187929,0.01985312,288.6381,-54.49866,22.775011,SIT
2764758218000,2.809866,3.86721898009991,7.98343447911032,4.22699403980017,-0.03390302,0.014966198,0.021685716,288.64792,-54.48369,22.786493,SIT
2764763229000,2.814877,3.86416496000255,7.97732647080536,4.23310207999491,-0.04337143,0.008246681,0.016798794,288.66504,-54.465645,22.79446,SIT
2764768216000,2.819864,3.86112556702199,7.97124771658128,4.23918086595602,-0.03940081,0.0036651916,0.01740966,288.68054,-54.450497,22.803827,SIT
2764773205000,2.824853,3.86157476266035,7.97638920633511,4.2510118949477,-0.050701816,0.004581489,0.02107485,288.7031,-54.426113,22.813549,SIT
2764778238000,2.829886,3.86633103208999,7.99541418472469,4.27003707199526,-0.043066,0.0076358155,0.018936822,288.72668,-54.40846,22.821913,SIT
2764783207000,2.834855,3.87296386049767,8.01014394265163,4.26509751693235,-0.040927973,0.00580322,0.014966198,288.74603,-54.383984,22.830898,SIT
2764788208000,2.839856,3.88227443141524,8.01945470800933,4.22785513604199,-0.050396383,-0.009468411,0.010995574,288.7682,-54.35996,22.840427,SIT
2764793215000,2.844863,3.8846902120597,8.02187053910448,4.18500465689552,-0.049785517,-0.01282817,0.018936822,288.78177,-54.34106,22.842072,SIT
2764798243000,2.849891,3.87510769456716,8.01228782149254,4.13230051050746,-0.050701816,-0.017104227,0.01985312,288.8011,-54.322647,22.8431,SIT
2764803220000,2.854868,3.87073432152881,8.00450573186026,4.09205574947746,-0.053145275,-0.0143553335,0.015271631,288.82477,-54.308907,22.845055,SIT
2764808231000,2.859879,3.87551080652931,7.99972939648651,4.07294990922663,-0.048258353,-0.005497787,0.010079277,288.84753,-54.297142,22.84666,SIT
2764813254000,2.864902,3.87694383580513,7.99995941102524,4.06222894683037,-0.045814894,-0.0018325958,0.011301007,288.8683,-54.29869,22.839558,SIT
2764818619000,2.870267,3.87191746797104,8.01001209420857,4.06725526217961,-0.035430185,0.015271631,0.015271631,288.88306,-54.303505,22.82912,SIT
2764823230000,2.874878,3.86474510128755,8.01293041577253,4.07299929914163,-0.03145956,0.020463986,0.020463986,288.90082,-54.30904,22.821405,SIT
2764828263000,2.879911,3.85064052625829,8.00352741484588,4.08240234916114,-0.05100725,0.035124753,0.017104227,288.9118,-54.312527,22.809256,SIT
2764833290000,2.884938,3.83906349616257,7.99539740261621,4.08991434546508,-0.048563786,0.035430185,0.018020526,288.92426,-54.32045,22.799963,SIT
2764838235000,2.889883,3.83449166858136,7.99082559890428,4.0922002353864,-0.054367006,0.049785517,0.027183503,288.92804,-54.321445,22.78845,SIT
2764843286000,2.894934,3.82982184024714,7.98615579495101,4.09453512517256,-0.07269296,0.052839845,0.015882496,288.93387,-54.324093,22.774607,SIT
2764848286000,2.899934,3.82519916321861,7.98153314205725,4.09684643955206,-0.08277224,0.061391957,0.029932396,288.92923,-54.32064,22.767164,SIT
2764853321000,2.904969,3.81986869425323,7.97620269758758,4.09951165287339,-0.0842994,0.077579886,0.028405234,288.92566,-54.320213,22.751968,SIT
2764858280000,2.909928,3.81013880301168,7.96647283174554,4.10437659849416,-0.10445796,0.07360926,0.02565634,288.9234,-54.311302,22.741983,SIT
2764863329000,2.914977,3.80023232572219,7.95656638031653,4.10932983713891,-0.10598512,0.07086037,0.027488936,288.90707,-54.31085,22.727789,SIT
2764868325000,2.919973,3.79042983799426,7.94676391817763,4.11423108100287,-0.09987647,0.06841691,0.030543262,288.89218,-54.307957,22.714298,SIT
2764873296000,2.924944,3.78692640428004,7.93610687346761,4.11904864573448,-0.092240654,0.06963864,0.024740042,288.87827,-54.30638,22.699465,SIT
2764879399000,2.931047,3.80956512435364,7.91912798115619,4.12470829620413,-0.08827003,0.0729984,0.025045475,288.86325,-54.303574,22.687475,SIT
2764883372000,2.93502,3.82036622132708,7.91200195327465,4.13150241372052,-0.08155051,0.06841691,0.025045475,288.85013,-54.300945,22.67713,SIT
2764888619000,2.940267,3.81555834976798,7.9216176712912,4.15554189702435,-0.083383106,0.054367006,0.02565634,288.8387,-54.297115,22.668303,SIT
2764893342000,2.94499,3.81123062394872,7.93027310033488,4.17718063909487,-0.0729984,0.048258353,0.017104227,288.8252,-54.295513,22.660011,SIT
2764898331000,2.949979,3.80665916002488,7.93941600431517,4.200038078051,-0.06780604,0.049785517,0.013133603,288.8128,-54.291473,22.65414,SIT
2764903634000,2.955282,3.80189631428981,7.9489416664039,4.2235641674072,-0.063224554,0.027183503,0.017104227,288.80276,-54.296104,22.64159,SIT
2764908288000,2.959936,3.79976687193158,7.95320043994554,4.22782296318379,-0.0580322,0.022907447,0.016187929,288.78888,-54.30332,22.624792,SIT
2764913280000,2.964928,3.79748277733505,7.95776850988964,4.23239105697769,-0.052534413,0.016798794,0.023823744,288.77536,-54.306126,22.612541,SIT
2764918314000,2.969962,3.79517946559648,7.96237501311452,4.23699758425302,-0.050701816,0.005192355,0.015271631,288.7672,-54.312233,22.597866,SIT
2764923298000,2.974946,3.79289903140796,7.96693576243371,4.24155835738378,-0.05589417,0.004581489,0.013133603,288.7559,-54.31513,22.586515,SIT
2764928341000,2.979989,3.80306691588151,7.97145351147282,4.23897510706413,-0.061391957,-0.004581489,0.016798794,288.7506,-54.31862,22.577654,SIT
2764933392000,2.98504,3.81656435861043,7.97595266687904,4.23447597514765,-0.046120327,-0.0033597588,0.010995574,288.7445,-54.327454,22.56496,SIT
2764938282000,2.98993,3.82963157202251,7.9803084122634,4.2301202525043,-0.04642576,-0.0009162979,0.014966198,288.7296,-54.33642,22.551956,SIT
2764943350000,2.994998,3.84317444269172,7.98482271034274,4.22560597799377,-0.04062254,-0.0070249503,0.014660766,288.71848,-54.351337,22.537975,SIT
2764948323000,2.999971,3.84867887491503,8.00262451360016,4.21738437457515,-0.04795292,-0.0061086523,0.011301007,288.70486,-54.362663,22.523476,SIT
2764953302000,3.00495,3.84626001998681,8.03406960240958,4.20529009993405,-0.054061573,-0.008552114,0.013439035,288.6933,-54.37401,22.512043,SIT
2764958285000,3.009933,3.84383922181302,8.06553995339116,4.19318610906508,-0.043066,0.004581489,0.018020526,288.6807,-54.38528,22.503256,SIT
2764963326000,3.014974,3.8413902465784,8.09737660586922,4.180941232892,-0.043066,0.007330383,0.016187929,288.6724,-54.393353,22.49543,SIT
2764968339000,3.019987,3.83496909881359,8.06624576774583,4.17282261025538,-0.04520403,0.01863139,0.012217305,288.658,-54.40247,22.485588,SIT
2764973330000,3.024978,3.82535763514981,7.98454837678464,4.1680166275186,-0.043066,0.017715093,0.024129177,288.6443,-54.409473,22.480917,SIT
2764978323000,3.029971,3.8237332527608,7.94616226074712,4.17237887242575,-0.050396383,0.022296581,0.021380283,288.64374,-54.422066,22.469065,SIT
2764983418000,3.035066,3.82843106203245,7.9414644760025,4.18412346918596,-0.040927973,0.021991149,0.01740966,288.6433,-54.436348,22.460949,SIT
2764988280000,3.039928,3.83291403527656,7.93698152616377,4.1953309725124,-0.051618114,0.016798794,0.028405234,288.63956,-54.43284,22.452738,SIT
2764993358000,3.045006,3.83759616981659,7.93229941606894,4.20703638219805,-0.041233405,0.026572637,0.022602014,288.63498,-54.439686,22.437769,SIT
2764998345000,3.049993,3.84220855038557,7.92864150487415,4.21570399025171,-0.046731193,0.018325957,0.023518313,288.63416,-54.437443,22.430763,SIT
2765003309000,3.054957,3.84681975705902,7.92633585338765,4.2203152932247,-0.04062254,0.03268129,0.023823744,288.62558,-54.441036,22.418173,SIT
2765008278000,3.059926,3.85143560838062,7.92402787952859,4.22493124094282,-0.048563786,0.015577064,0.0143553335,288.62457,-54.437515,22.410507,SIT
2765013332000,3.06498,3.8561304187206,7.92168042533585,4.22962614932829,-0.050396383,0.011911872,0.017104227,288.61426,-54.43424,22.402624,SIT
2765018311000,3.069959,3.86118338570278,7.92261428758738,4.23381408381818,-0.047647487,0.0067195175,0.016493361,288.61102,-54.432667,22.3944,SIT
2765023286000,3.074934,3.86732295337135,7.93182367114461,4.23688383559808,-0.048258353,0.010079277,0.013744468,288.6064,-54.4299,22.385988,SIT
2765028321000,3.079969,3.87353656607712,7.94114412264425,4.23999060951,-0.04337143,0.005497787,0.009468411,288.60736,-54.42321,22.385967,SIT
2765033359000,3.085007,3.87975388103476,7.95047012754099,4.24309923452853,-0.03634648,-0.0033597588,0.009162978,288.6084,-54.41684,22.386457,SIT
2765038424000,3.090072,3.88600451625914,7.95984611301182,4.24622451950646,-0.043066,-0.0076358155,0.01038471,288.6098,-54.40925,22.386332,SIT
2765043361000,3.095009,3.89209718873748,7.96898515353887,4.24927082393608,-0.0421497,-0.006414085,0.012217305,288.61203,-54.404926,22.38677,SIT
2765048336000,3.099984,3.89590035934387,7.97673597985307,4.25321843216262,-0.03359759,-0.0143553335,0.008246681,288.61853,-54.401867,22.38789,SIT
2765053306000,3.104954,3.8719511312066,7.96715623858307,4.26758806907517,-0.029321533,-0.011911872,0.008857546,288.62085,-54.39706,22.38903,SIT
2765058338000,3.109986,3.85029885078247,7.95874874637128,4.2799880807903,-0.026267206,-0.007330383,0.013133603,288.6269,-54.393208,22.391748,SIT
2765063365000,3.115013,3.8550076314554,7.96345747787559,4.27057032276995,-0.041233405,-0.0067195175,0.020463986,288.63266,-54.385826,22.395546,SIT
2765068490000,3.120138,3.85915547157739,7.96760527468624,4.26138127779509,-0.04184427,-0.01160644,0.01740966,288.63977,-54.38006,22.400873,SIT
2765073907000,3.125555,3.85490007615454,7.96334992369781,4.25712597124108,-0.038179077,-0.0036651916,0.01282817,288.64224,-54.371246,22.40561,SIT
2765079339000,3.130987,3.85063289728488,7.95908278938561,4.25285888148634,-0.028405234,0.0018325958,0.01038471,288.64838,-54.36536,22.411285,SIT
2765083381000,3.135029,3.84032235511394,7.94877228836807,4.239363606977,-0.0290161,-0.0033597588,0.012217305,288.65515,-54.358337,22.417109,SIT
2765088326000,3.139974,3.82497816805271,7.93342815471433,4.21890458408036,-0.028099801,0.003970624,0.016493361,288.65695,-54.35391,22.420376,SIT
2765093370000,3.145018,3.82458699907556,7.9261549290633,4.21035407278559,-0.03176499,0.004886922,0.0125227375,288.65894,-54.354057,22.41899,SIT
2765098394000,3.150042,3.82912561271578,7.92161622063956,4.20581555392887,-0.033292156,-0.0021380284,0.017715093,288.65915,-54.35234,22.42111,SIT
2765103337000,3.154985,3.83364564341055,7.920019,4.21006408682111,-0.032986723,-0.003970624,0.013439035,288.66153,-54.354645,22.418306,SIT
2765108392000,3.16004,3.8382991783524,7.920019,4.2193711567048,-0.03726278,0.002443461,0.0143553335,288.66205,-54.35369,22.417967,SIT
2765113323000,3.164971,3.84283856129963,7.920019,4.22844992259925,-0.04153884,0.004581489,0.018020526,288.66843,-54.35048,22.415846,SIT
2765118297000,3.169945,3.84741752921273,7.920019,4.23760785842545,-0.04520403,0.008246681,0.02076942,288.67258,-54.34659,22.412788,SIT
2765123292000,3.17494,3.85101454795193,7.92684791148044,4.24138747581693,-0.04184427,0.0021380284,0.014049901,288.67886,-54.34567,22.406385,SIT
2765128319000,3.179967,3.85347645404244,7.94161939943748,4.23892562114037,-0.03848451,0.0067195175,0.009162978,288.6805,-54.34324,22.399393,SIT
2765133332000,3.18498,3.85593150381999,7.95634974937356,4.2364706226336,-0.042455133,-0.0012217305,0.016493361,288.68314,-54.335495,22.401157,SIT
2765138306000,3.189954,3.85836745386858,7.97096550053695,4.23403472345692,-0.040317107,0.003970624,0.009468411,288.68378,-54.33353,22.395803,SIT
2765143990000,3.195638,3.85789511620835,7.97903806752229,4.23139088366964,-0.03848451,0.008857546,0.013744468,288.68384,-54.327335,22.396303,SIT
2765148362000,3.20001,3.85593032176443,7.98100284145002,4.22942604819334,-0.045814894,0.013439035,0.020463986,288.68323,-54.320602,22.3951,SIT
2765153289000,3.204937,3.85371610808071,7.98321703201314,4.22721178826842,-0.052534413,0.0070249503,0.01740966,288.6883,-54.31863,22.392595,SIT
2765158323000,3.209971,3.85145380816518,7.98547930830596,4.22494944110746,-0.050701816,0.0067195175,0.015271631,288.68927,-54.31561,22.390644,SIT
2765163312000,3.21496,3.84521869292996,7.98084642390661,4.22181939855311,-0.050396383,0.013133603,0.018020526,288.68988,-54.31061,22.389196,SIT
2765168305000,3.219953,3.82949460138112,7.95988096850817,4.21657792524389,-0.04642576,0.01282817,0.016798794,288.69327,-54.308086,22.387262,SIT
2765173287000,3.224935,3.82330682865163,7.94658867134837,4.21163421647469,-0.047036625,0.013744468,0.018325957,288.69833,-54.30236,22.386927,SIT
2765178306000,3.229954,3.82795942367631,7.94193607632369,4.20698171861388,-0.045814894,0.014049901,0.022907447,288.7033,-54.29773,22.387226,SIT
2765183380000,3.235028,3.8307228,7.93852707630935,4.20486401694904,-0.049785517,0.014049901,0.016493361,288.70084,-54.300247,22.379692,SIT
2765188300000,3.239948,3.8307228,7.9370094133576,4.20638166405334,-0.048563786,0.018020526,0.021380283,288.69492,-54.301086,22.375784,SIT
2765193311000,3.244959,3.8307228,7.9354636798106,4.20792738145977,-0.05100725,0.022602014,0.019242255,288.69095,-54.30238,22.369492,SIT
2765198346000,3.249994,3.8307228,7.9339105430297,4.2094805020228,-0.05100725,0.020463986,0.020463986,288.68658,-54.302856,22.365862,SIT
2765203286000,3.254934,3.8307228,7.93238671071636,4.21100431842427,-0.05222898,0.022602014,0.023823744,288.68024,-54.301884,22.362776,SIT
2765208285000,3.259933,3.8307228,7.93084467878632,4.2125463342524,-0.04795292,0.021991149,0.018325957,288.67645,-54.303493,22.35859,SIT
2765213691000,3.265339,3.83425348939867,7.93018444208859,4.21556035698837,-0.051923547,0.02107485,0.01863139,288.67316,-54.298637,22.361977,SIT
2765218299000,3.269947,3.84623391410343,7.93218115868965,4.22155061104022,-0.048258353,0.015271631,0.014966198,288.6729,-54.29827,22.36372,SIT
2765223289000,3.274937,3.85920750769648,7.93434340171033,4.22803745299308,-0.042455133,0.018936822,0.017715093,288.66818,-54.29525,22.366161,SIT
2765228317000,3.279965,3.87227989819465,7.93652211070992,4.23457369374236,-0.045814894,0.02107485,0.016493361,288.6667,-54.2926,22.367657,SIT
2765233370000,3.285018,3.88541728665671,7.93871165259038,4.24114243369983,-0.05589417,0.022907447,0.016493361,288.66376,-54.289104,22.369677,SIT
2765238291000,3.289939,3.88138858204562,7.93577522649927,4.24932054700147,-0.052839845,0.028405234,0.017715093,288.65735,-54.28898,22.372799,SIT
2765243263000,3.294911,3.87262922781457,7.93139559511589,4.25807980976821,-0.05009095,0.021685716,0.016798794,288.6541,-54.287,22.376745,SIT
2765248338000,3.299986,3.86318845544435,7.92813558336267,4.26752057505407,-0.05131268,0.01863139,0.014049901,288.64734,-54.28158,22.377272,SIT
2765253323000,3.304971,3.85358420095559,7.92573446959714,4.27712487968616,-0.050701816,0.015271631,0.010995574,288.6427,-54.277473,22.378462,SIT
2765258281000,3.309929,3.84403196549816,7.92334636086104,4.28667716501534,-0.046120327,0.016798794,0.016187929,288.63666,-54.270103,22.385826,SIT
2765263324000,3.314972,3.83431596642358,7.92091731036564,4.29639321481668,-0.045814894,0.01160644,0.015271631,288.6347,-54.263824,22.3921,SIT
2765268349000,3.319997,3.84000773188791,7.92620898690939,4.29070146811209,-0.04795292,0.008857546,0.017715093,288.63608,-54.25161,22.404188,SIT
2765273330000,3.324978,3.85464325268971,7.93596605171814,4.27606594731029,-0.049480084,0.009468411,0.02107485,288.63782,-54.239956,22.416151,SIT
2765279374000,3.331022,3.86357316852792,7.92269286890863,4.25889609441624,-0.04642576,0.008857546,0.016187929,288.63132,-54.234734,22.424353,SIT
2765283433000,3.335081,3.86736780257712,7.90751437233503,4.24751219226865,-0.056199603,0.015882496,0.019242255,288.62097,-54.22444,22.43396,SIT
2765288340000,3.339988,3.85677153929229,7.90699476635304,4.23639636964614,-0.045814894,0.01038471,0.01985312,288.61484,-54.22486,22.441277,SIT
2765293428000,3.345076,3.83683831842913,7.91696127271426,4.22642975921456,-0.059864793,0.014660766,0.027183503,288.60278,-54.216057,22.448586,SIT
2765298381000,3.350029,3.82808500011368,7.92265685497361,4.22073414502639,-0.05681047,0.015577064,0.01985312,288.5957,-54.21369,22.461533,SIT
2765303343000,3.354991,3.82422628459602,7.92651565107592,4.21687534892408,-0.050396383,0.023518313,0.02321288,288.58295,-54.2058,22.476957,SIT
2765308317000,3.359965,3.8221614706024,7.93213467650599,4.21785689301303,-0.06291912,0.024740042,0.02107485,288.57666,-54.200546,22.486925,SIT
2765313340000,3.364988,3.82719672118072,7.9447228029518,4.23799794790391,-0.056199603,0.03481932,0.021991149,288.5649,-54.199623,22.49589,SIT
2765318304000,3.369952,3.83217282786413,7.95716306966033,4.25790242659758,-0.06291912,0.01863139,0.020463986,288.56204,-54.1954,22.506105,SIT
2765323322000,3.37497,3.83720306624797,7.96973866561993,4.27802343265819,-0.054061573,0.02687807,0.02076942,288.54947,-54.195435,22.51207,SIT
2765328359000,3.380007,3.83592479978113,7.97310518455405,4.28457653304151,-0.046120327,0.015882496,0.022602014,288.54663,-54.19386,22.52262,SIT
2765333367000,3.385015,3.82467788012194,7.96185822574846,4.26958064016259,-0.049785517,0.015882496,0.025045475,288.53845,-54.191452,22.530544,SIT
2765338317000,3.389965,3.81356121632143,7.95074152325491,4.2547584217619,-0.04917465,0.01740966,0.02443461,288.5296,-54.18912,22.538761,SIT
2765343332000,3.39498,3.81739001429202,7.93710789167607,4.27150509404663,-0.0421497,0.021991149,0.03145956,288.51852,-54.185513,22.548813,SIT
2765348324000,3.399972,3.82442913855215,7.92302966765644,4.29496881707975,-0.054367006,0.015882496,0.02076942,288.51273,-54.181328,22.555258,SIT
2765353223000,3.404871,3.83133712528098,7.90921371824294,4.31799541546503,-0.047036625,0.01282817,0.02321288,288.5199,-54.168766,22.567669,SIT
2765358227000,3.409875,3.83839317051288,7.89510165233865,4.34151554167853,-0.04184427,0.0033597588,0.012217305,288.53387,-54.15816,22.5754,SIT
2765363268000,3.414916,3.84382402290503,7.89481322290503,4.34610810694832,-0.04428773,0.0067195175,0.01863139,288.54205,-54.14424,22.58643,SIT
2765368231000,3.419879,3.84856560893855,7.89955480893855,4.34373733868715,-0.040317107,0.009468411,0.025045475,288.55438,-54.1353,22.59576,SIT
2765373205000,3.424853,3.85331770422985,7.90430690422985,4.34136131585196,-0.03848451,-0.0030543262,0.019242255,288.56058,-54.11732,22.607655,SIT
2765378237000,3.429885,3.85812521197127,7.90911441197127,4.33895758708101,-0.050396383,-0.0036651916,0.01740966,288.5611,-54.0959,22.619738,SIT
2765383215000,3.434863,3.86289555207373,7.91388468018433,4.317639559447,-0.03970624,-0.0143553335,0.01863139,288.56805,-54.080856,22.63381,SIT
2765388211000,3.439859,3.8676887491084,7.91867777711881,4.28888047733921,-0.0421497,-0.017104227,0.01863139,288.57327,-54.061607,22.645716,SIT
2765393207000,3.444855,3.85931641428303,7.9297326195264,4.27759507047547,-0.036651913,-0.02107485,0.021380283,288.5791,-54.052837,22.641983,SIT
2765398619000,3.450267,3.8447055399361,7.94434354472843,4.27272467731629,-0.0421497,-0.02107485,0.019547688,288.5851,-54.042366,22.637114,SIT
2765403245000,3.454893,3.84174117562594,7.94298321254902,4.27558072687783,-0.03023783,-0.015577064,0.019547688,288.5943,-54.03973,22.633848,SIT
2765408246000,3.459894,3.84414909803922,7.93335154803922,4.28280449411765,-0.022296581,-0.014966198,0.014660766,288.60568,-54.036575,22.62969,SIT
2765413279000,3.464927,3.84657242807441,7.92365825320261,4.29007448422323,-0.017715093,-0.0076358155,0.009773844,288.61774,-54.035885,22.629837,SIT
2765418255000,3.469903,3.84896831328306,7.91407473738562,4.29726213984917,-0.0290161,0.0027488936,0.018936822,288.62726,-54.031864,22.631727,SIT
2765423249000,3.474897,3.85136411402009,7.90597925793972,4.2940355128505,-0.036651913,0.0125227375,0.018936822,288.63654,-54.0333,22.625566,SIT
2765428271000,3.479919,3.8537680071375,7.89876757858749,4.28441989017844,-0.040927973,0.028099801,0.027183503,288.63873,-54.029842,22.621689,SIT
2765433384000,3.485032,3.85621545944919,7.89142522165242,4.27463002981956,-0.05009095,0.027488936,0.02687807,288.63983,-54.02142,22.618134,SIT
2765438247000,3.489895,3.85854324364472,7.88444186906583,4.26531884442445,-0.05009095,0.040927973,0.0290161,288.63132,-54.01227,22.61337,SIT
2765443245000,3.494893,3.85099199338151,7.88453240220616,4.26731992221377,-0.06047566,0.03573562,0.022296581,288.6294,-54.000893,22.609116,SIT
2765448351000,3.499999,3.83704206732598,7.88918237755801,4.27662006713579,-0.06872234,0.040011674,0.022907447,288.61993,-53.98844,22.604305,SIT
2765453305000,3.504953,3.82947539771158,7.88879396937266,4.27584336479582,-0.06719518,0.03604105,0.022602014,288.61972,-53.9752,22.602991,SIT
2765458287000,3.509935,3.82712228972184,7.88408770425133,4.26643088369501,-0.06261369,0.038179077,0.032375857,288.61508,-53.959282,22.603065,SIT
2765463317000,3.514965,3.82474651027816,7.87933609574867,4.25692771630499,-0.05955936,0.030543262,0.018020526,288.6174,-53.948868,22.597046,SIT
2765468929000,3.520577,3.82209583945551,7.87403469874729,4.24632497765831,-0.05375614,0.030543262,0.01863139,288.61337,-53.935818,22.59599,SIT
2765473288000,3.524936,3.8191223925126,7.86606426205904,4.26073806738661,-0.055283304,0.016493361,0.02321288,288.61627,-53.924603,22.594713,SIT
2765479405000,3.531053,3.81385049856012,7.85024880039597,4.30818511295896,-0.054367006,0.016798794,0.01863139,288.61652,-53.91704,22.589493,SIT
2765483275000,3.534923,3.80919511492855,7.84934012591467,4.3310908478869,-0.048563786,0.013439035,0.018325957,288.6222,-53.910484,22.589096,SIT
2765488293000,3.539941,3.79945418370325,7.87369209798318,4.34083162654302,-0.04428773,0.0033597588,0.0143553335,288.63068,-53.90557,22.587605,SIT
2765493266000,3.544914,3.79765185908261,7.88736147619241,4.34656120573371,-0.04184427,0.006414085,0.021991149,288.6273,-53.895073,22.580238,SIT
2765498374000,3.550022,3.8175091961234,7.87246855116704,4.34159694922874,-0.03756821,0.0036651916,0.01985312,288.63022,-53.88871,22.571949,SIT
2765503287000,3.554935,3.83212207380815,7.86535694761629,4.3438906806215,-0.03390302,0.005497787,0.019242255,288.62695,-53.885235,22.568707,SIT
2765508286000,3.559934,3.83674226519977,7.87459733039954,4.36237139794441,-0.038179077,-0.004886922,0.02076942,288.62778,-53.881035,22.567665,SIT
2765513304000,3.564952,3.84466168034288,7.88607405756867,4.36896704801286,-0.044593163,-0.007330383,0.0143553335,288.62585,-53.876392,22.566223,SIT
2765518300000,3.569948,3.86330406990064,7.90471634979544,4.33634281762127,-0.038179077,-0.01160644,0.014049901,288.62607,-53.872334,22.56837,SIT
2765523301000,3.574949,3.87818323520566,7.91959544405131,4.30871587925697,-0.032986723,-0.008552114,0.020463986,288.62286,-53.864666,22.572714,SIT
2765528316000,3.579964,3.8758230380461,7.91723529618163,4.30399553422773,-0.03848451,-0.0106901415,0.019242255,288.62338,-53.857727,22.576284,SIT
2765533408000,3.585056,3.87342660256524,7.91483891074746,4.29920271331269,-0.038789943,-0.0030543262,0.02321288,288.62454,-53.855377,22.582348,SIT
2765538730000,3.590378,3.87092192274805,7.91233428323751,4.29419340598555,-0.035430185,-0.009162978,0.018936822,288.63135,-53.854496,22.588053,SIT
2765543304000,3.594952,3.86993184382118,7.91134424382118,4.29131143440422,-0.03726278,-0.0027488936,0.018936822,288.6314,-53.851,22.592846,SIT
2765548497000,3.600145,3.87838540873704,7.91979780873704,4.29976491104878,-0.03970624,0.0015271631,0.015882496,288.6347,-53.849537,22.596786,SIT
2765553273000,3.604921,3.88616014897161,7.92757254897161,4.30753957010029,-0.034513887,0.004276057,0.021380283,288.63318,-53.851563,22.599916,SIT
2765558286000,3.609934,3.87385071552203,7.92242955776102,4.28806374811433,-0.029321533,0.006414085,0.020463986,288.63208,-53.854744,22.600168,SIT
2765563292000,3.61494,3.85481877395792,7.91291358697896,4.25951593513299,-0.03268129,0.0021380284,0.018936822,288.6313,-53.8562,22.602127,SIT
2765568404000,3.620052,3.84279527079818,7.91398289066046,4.24148070619727,-0.03573562,0.0033597588,0.015271631,288.62814,-53.8584,22.602789,SIT
2765573308000,3.624956,3.83368565442731,7.91853760372418,4.22781628164097,-0.038789943,0.011301007,0.01985312,288.62335,-53.858547,22.60476,SIT
2765578304000,3.629952,3.83367170871888,7.91707015286555,4.2263209703033,-0.039095376,0.004276057,0.01740966,288.626,-53.866512,22.599907,SIT
2765583421000,3.635069,3.83810851139882,7.91263344284291,4.23075786564056,-0.03390302,-0.0012217305,0.0143553335,288.62555,-53.874046,22.594942,SIT
2765588288000,3.639936,3.84470662300885,7.89722133097345,4.24837353451327,-0.03268129,0.010079277,0.014660766,288.62518,-53.88319,22.587809,SIT
2765593282000,3.64493,3.85411203878073,7.86900508365782,4.28129239150442,-0.042455133,0.009773844,0.013744468,288.63013,-53.89157,22.582182,SIT
2765598356000,3.650004,3.86048745558076,7.85608436674227,4.30308916674227,-0.04337143,0.010079277,0.02076942,288.63202,-53.89613,22.581984,SIT
2765603292000,3.65494,3.86276854831829,7.86292764495488,4.30993244495488,-0.03970624,0.012217305,0.019242255,288.63492,-53.901226,22.579279,SIT
2765608406000,3.660054,3.86513190088308,7.87001770264923,4.31702250264923,-0.04734206,0.0061086523,0.013133603,288.63177,-53.895584,22.580612,SIT
2765613322000,3.66497,3.8674037509434,7.87683325283019,4.32383805283019,-0.035430185,0.006414085,0.01038471,288.62607,-53.894695,22.581228,SIT
2765618275000,3.669923,3.86903,7.88105059477943,4.32673262577538,-0.043982297,0.0061086523,0.015271631,288.62723,-53.883564,22.583921,SIT
2765623290000,3.674938,3.86903,7.87873752143132,4.31979355064535,-0.043982297,0.005192355,0.013439035,288.62985,-53.87882,22.584297,SIT
2765628293000,3.679941,3.86903,7.87642998285494,4.31287107948372,-0.04337143,0.0018325958,0.0143553335,288.6312,-53.870598,22.586641,SIT
2765633358000,3.685006,3.86903,7.874093847958,4.30586282115199,-0.03848451,0.0018325958,0.016187929,288.63196,-53.863728,22.58841,SIT
2765638307000,3.689955,3.8683742339446,7.87279077290285,4.30097004908311,-0.038179077,-0.0021380284,0.009773844,288.63202,-53.860462,22.58876,SIT
2765643283000,3.694931,3.86372595489661,7.87743910048771,4.30794246765509,-0.03145956,0.0067195175,0.012217305,288.62698,-53.857758,22.589993,SIT
2765648418000,3.700066,3.85892914763949,7.88223595783262,4.31513767854077,-0.032375857,0.0012217305,0.014966198,288.6294,-53.855827,22.59259,SIT
2765653294000,3.704942,3.8543742825595,7.88679087047405,4.32196997616075,-0.03573562,-0.00030543262,0.01160644,288.62888,-53.855495,22.592518,SIT
2765658492000,3.71014,3.84950787649955,7.89165732350045,4.32724270599819,-0.04184427,0.0018325958,0.015577064,288.6263,-53.853027,22.5965,SIT
2765663331000,3.714979,3.84485177932282,7.89631342067718,4.30861831729127,-0.030543262,-0.003970624,0.0143553335,288.6276,-53.855213,22.599602,SIT
2765668445000,3.720093,3.83998799398522,7.90039818772407,4.29103281202956,-0.03023783,0.0030543262,0.02107485,288.62537,-53.850327,22.59647,SIT
2765673291000,3.724939,3.83604532362586,7.89448414101606,4.29891815274828,-0.034208454,-0.005192355,0.016493361,288.6307,-53.849346,22.593267,SIT
2765679792000,3.73144,3.83075615730184,7.88655033630108,4.30949648539631,-0.024740042,-0.0036651916,0.014660766,288.62915,-53.856487,22.58612,SIT
2765683277000,3.734925,3.82792078664515,7.88229725070937,4.31516722670971,-0.04184427,-0.006414085,0.017715093,288.63098,-53.85679,22.581032,SIT
2765688301000,3.739949,3.82383329678022,7.87616597323082,4.32334220643955,-0.030848695,0.00030543262,0.01160644,288.6315,-53.867104,22.571913,SIT
2765693271000,3.744919,3.81961345458385,7.87060248658923,4.32565167716233,-0.03359759,-0.004581489,0.01160644,288.63455,-53.868927,22.567299,SIT
2765698359000,3.750007,3.81493583546127,7.86592496515312,4.31629634123068,-0.037873644,0.00061086525,0.013744468,288.63367,-53.873375,22.559647,SIT
2765703307000,3.754955,3.81406631370641,7.86505551370641,4.31330869663423,-0.040317107,0.005497787,0.01985312,288.636,-53.868347,22.558628,SIT
2765708337000,3.759985,3.82383340697486,7.87482260697486,4.32795943852393,-0.041233405,0.008857546,0.016187929,288.63843,-53.864323,22.555271,SIT
2765713317000,3.764965,3.82942351268593,7.88301128731407,4.33439571092373,-0.05009095,-0.00580322,0.008552114,288.64514,-53.85881,22.55412,SIT
2765718356000,3.770004,3.82485150935102,7.88758329064898,4.32067960543818,-0.03481932,0.006414085,0.014049901,288.64218,-53.85673,22.55125,SIT
2765723334000,3.774982,3.82333176951749,7.88910303048251,4.30664865585908,-0.04795292,0.0027488936,0.008246681,288.65195,-53.845146,22.556154,SIT
2765728375000,3.780023,3.8356566734746,7.8767781265254,4.29021553637988,-0.04153884,0.008857546,0.01160644,288.65344,-53.83866,22.561499,SIT
2765733327000,3.784975,3.8477639784529,7.8646708215471,4.27407254735767,-0.040011674,0.013133603,0.013133603,288.66016,-53.83254,22.564878,SIT
2765738331000,3.789979,3.84272811693861,7.86613246688903,4.30342319913459,-0.03359759,0.0106901415,0.0143553335,288.66644,-53.82851,22.56899,SIT
2765743271000,3.794919,3.83419852314072,7.8703971747228,4.34180628215992,-0.040317107,0.0033597588,0.013744468,288.67285,-53.822212,22.573011,SIT
2765748344000,3.799992,3.82777549958765,7.86918776113849,4.36039436196319,-0.044898596,0.0027488936,0.01038471,288.67917,-53.81829,22.57559,SIT
2765753298000,3.804946,3.82300395506386,7.8644163162627,4.36516600613497,-0.032375857,0.017104227,0.02076942,288.68127,-53.814392,22.580257,SIT
2765758295000,3.809943,3.83309703616026,7.86405224832215,4.36553008928208,-0.034208454,0.01038471,0.018936822,288.6867,-53.80519,22.583763,SIT
2765763319000,3.814967,3.85266744218019,7.86649849798658,4.36308373744153,-0.045814894,0.0021380284,0.01740966,288.687,-53.794823,22.58807,SIT
2765768292000,3.81994,3.87203918364857,7.86891991510067,4.36066221918853,-0.041233405,0.0030543262,0.019242255,288.685,-53.787445,22.59044,SIT
2765773285000,3.824933,3.89148883278422,7.8713510704698,4.35823096227374,-0.03604105,0.004581489,0.014966198,288.6862,-53.779415,22.591892,SIT
2765778320000,3.829968,3.89459187797527,7.86262956626739,4.34160438987635,-0.035124753,0.00061086525,0.016798794,288.68735,-53.770264,22.59589,SIT
2765783422000,3.83507,3.88987193655332,7.84846993914219,4.31800468276662,-0.038179077,-0.0012217305,0.008246681,288.6897,-53.764328,22.595665,SIT
2765788286000,3.839934,3.88545280571732,7.84704604003378,4.30592195996622,-0.029626964,-0.0030543262,0.011301007,288.6908,-53.756878,22.603504,SIT
2765793884000,3.845532,3.88042253707816,7.85375302986895,4.29921497013105,-0.029932396,0.003970624,0.0143553335,288.69116,-53.74868,22.60808,SIT
2765798315000,3.849963,3.87644091500954,7.85906183157664,4.29390616842336,-0.042455133,0.01038471,0.01038471,288.69492,-53.742306,22.612206,SIT
2765803293000,3.854941,3.8719677679417,7.86502599652832,4.28794200347168,-0.0421497,0.0106901415,0.015882496,288.69644,-53.73649,22.619167,SIT
2765808283000,3.859931,3.86748383787571,7.87100453873581,4.28196346126419,-0.04184427,0.007941248,0.008857546,288.7044,-53.725777,22.631588,SIT
2765813318000,3.864966,3.86295947156663,7.87703699565258,4.27593100434742,-0.041233405,0.0027488936,0.010079277,288.71072,-53.713074,22.647255,SIT
2765818281000,3.869929,3.85557681094897,7.88268109726276,4.27222511750119,-0.042455133,0.012217305,0.015271631,288.7141,-53.701004,22.660055,SIT
2765823294000,3.874942,3.8372616947258,7.88725987631855,4.2768039921793,-0.047647487,0.016493361,0.015882496,288.72067,-53.689224,22.673012,SIT
2765828399000,3.880047,3.82241984747484,7.89065187626258,4.27892221548634,-0.04917465,0.01863139,0.01863139,288.7313,-53.679592,22.69,SIT
2765833421000,3.885069,3.83163780427408,7.88604289786296,4.2650951840345,-0.049480084,0.02076942,0.019547688,288.74072,-53.669716,22.705536,SIT
2765838500000,3.890148,3.84131103594758,7.88272343594758,4.25412526485429,-0.04520403,0.02076942,0.02076942,288.75,-53.661774,22.718805,SIT
2765843317000,3.894965,3.85484461083513,7.89625701083513,4.28119232041854,-0.04886922,0.025045475,0.016798794,288.75806,-53.653187,22.729652,SIT
2765848692000,3.90034,3.86931872993619,7.90957621019144,4.31014046137982,-0.03970624,0.02076942,0.013439035,288.76733,-53.650726,22.739338,SIT
2765853289000,3.904937,3.8733901763063,7.89736187108111,4.31828337537686,-0.04184427,0.009468411,0.011301007,288.7777,-53.645756,22.748426,SIT
2765858263000,3.909911,3.87779552201979,7.88414583394063,4.32709408980394,-0.03176499,0.006414085,0.013744468,288.7835,-53.642365,22.75768,SIT
2765863849000,3.915497,3.88274290061962,7.86930369814113,4.33698887283363,-0.038789943,-0.005192355,0.01160644,288.7956,-53.63628,22.767708,SIT
2765868335000,3.919983,3.88671603710349,7.85738428868954,4.3449351665449,-0.024129177,0.009468411,0.010995574,288.80066,-53.636524,22.775135,SIT
2765873293000,3.924941,3.88503755663034,7.85612761051898,4.34315125137085,-0.029626964,0.002443461,0.014660766,288.8142,-53.63069,22.78736,SIT
2765879435000,3.931083,3.87918387641937,7.86198122960641,4.33437076161616,-0.029932396,0.004886922,0.013439035,288.82196,-53.63029,22.79456,SIT
2765883344000,3.934992,3.87545837398617,7.86570669313828,4.32878252741703,-0.040317107,-0.006414085,0.005497787,288.82983,-53.621304,22.80596,SIT
2765888313000,3.939961,3.87072263042245,7.87044238725183,4.32167893679654,-0.031154128,-0.002443461,0.00580322,288.83173,-53.615437,22.816286,SIT
2765893287000,3.944935,3.86004068200763,7.86913862324626,4.31314712133842,-0.030848695,-0.0012217305,0.0061086523,288.83853,-53.60721,22.826239,SIT
2765898326000,3.949974,3.84587646269445,7.86441731540945,4.30370430846297,-0.03145956,-0.007330383,0.013439035,288.845,-53.599632,22.838167,SIT
2765903306000,3.954954,3.84447360244399,7.86812373659199,4.30416040244399,-0.03940081,-0.007330383,0.010079277,288.846524387796,-53.5995730236853,22.8413397258129,SIT
2765908290000,3.959938,3.8514172700611,7.87738196008147,4.3111040700611,-0.03359759,0.002443461,0.010995574,288.84805,-53.599514,22.844515,SIT
2765913307000,3.964955,3.85840691300553,7.88670148400737,4.31809371300553,-0.025045475,0.004581489,0.008552114,288.8536,-53.60029,22.854246,SIT
2765918314000,3.969962,3.86538262403259,7.89600243204345,4.32506942403259,-0.029321533,0.008857546,0.0036651916,288.86224,-53.5967,22.863703,SIT
2765923282000,3.97493,3.86800989846795,7.89474501211132,4.33279720612818,-0.035124753,0.004581489,0.01282817,288.86642,-53.59595,22.875229,SIT
2765928323000,3.979971,3.86582167216028,7.88161569996374,4.3415501113589,-0.025045475,-0.0030543262,0.009468411,288.87296,-53.600945,22.882032,SIT
2765933569000,3.985217,3.86354445827214,7.86795246419182,4.35065896691143,-0.018936822,-0.00580322,0.0027488936,288.87766,-53.60197,22.890423,SIT
2765938319000,3.989967,3.86148255092013,7.85558106314024,4.35890659631946,-0.008246681,-0.005497787,0.0061086523,288.8825,-53.60491,22.900782,SIT
2765943388000,3.995036,3.85978691002034,7.8435718515256,4.36802512831874,-0.0076358155,-0.013133603,-0.0012217305,288.89282,-53.610195,22.907969,SIT
2765948362000,4.00001,3.86399978728221,7.84567824616609,4.38066373810914,-0.003970624,-0.01740966,0.0018325958,288.9,-53.615753,22.917755,SIT
2765953300000,4.004948,3.86818217327319,7.84776939548952,4.39321087424604,-0.0027488936,-0.018325957,0.005497787,288.90393,-53.61725,22.926931,SIT
2765958288000,4.009936,3.87240690825153,7.84988171886442,4.40588505712391,0.003970624,-0.018325957,0.005497787,288.90878,-53.620815,22.936075,SIT
2765963329000,4.014977,3.87667653315645,7.85201648673388,4.41869390954718,0.004276057,-0.016798794,0.0076358155,288.91254,-53.622147,22.946228,SIT
2765968296000,4.019944,3.88254174931214,7.85429324977071,4.4231730639254,-0.0027488936,-0.028099801,0.004886922,288.92047,-53.6242,22.956589,SIT
2765973288000,4.024936,3.88984951232039,7.85672917077346,4.4207371683583,0.003970624,-0.03848451,0.004886922,288.925536077084,-53.6266420579624,22.9631157379743,SIT
2765978337000,4.029985,3.89724071733415,7.85919290577805,4.41827345907979,0.008552114,-0.052839845,0.00580322,288.93066,-53.629112,22.969717,SIT
2765983352000,4.035,3.90458214992357,7.86164004997452,4.41582634043616,0.01282817,-0.05681047,0.0027488936,288.9353,-53.628708,22.98008,SIT
2765988287000,4.039935,3.89866896092499,7.8668925195375,4.40046093487499,0.021380283,-0.05467244,-0.003970624,288.94824,-53.630295,22.990597,SIT
2765993289000,4.044937,3.8844670179662,7.8739934910169,4.37679102994367,0.024129177,-0.06536258,-0.0015271631,288.9647,-53.630535,23.004509,SIT
2765998339000,4.049987,3.87012879086866,7.88116260456567,4.3528939847811,0.032070424,-0.08124508,-0.0012217305,288.9837,-53.635326,23.017693,SIT
2766003298000,4.054946,3.85604893578417,7.88820253210792,4.32942755964028,0.0421497,-0.076052725,-0.0125227375,289.00107,-53.642944,23.026636,SIT
2766008285000,4.059933,3.85332963357154,7.89215210839289,4.3130968412498,0.049785517,-0.07513642,-0.009468411,289.0226,-53.64644,23.050303,SIT
2766013328000,4.064976,3.85952041099824,7.89369980274956,4.30226298075308,0.057726767,-0.06963864,-0.009773844,289.0434,-53.654915,23.068174,SIT
2766018296000,4.069944,3.86561911856433,7.89522447964108,4.29159024251242,0.05497787,-0.0580322,-0.0027488936,289.06976,-53.669987,23.083237,SIT
2766023289000,4.074937,3.87174851608396,7.89675682902099,4.28086379685307,0.034208454,-0.045814894,-0.0033597588,289.09537,-53.684074,23.094847,SIT
2766028290000,4.079938,3.87788773438872,7.89829163359718,4.27012016481974,0.031154128,-0.04550946,-0.004581489,289.1214,-53.699276,23.10481,SIT
2766033371000,4.085019,3.88412516054478,7.8998509901362,4.25920466904663,0.025045475,-0.039095376,-0.00061086525,289.14148,-53.708355,23.113008,SIT
2766038268000,4.089916,3.88519014444008,7.89936887222004,4.23863177183694,0.011301007,-0.041233405,-0.00061086525,289.16437,-53.71599,23.120687,SIT
2766043298000,4.094946,3.87572623402751,7.89463691701375,4.19604392792731,0.008552114,-0.037873644,-0.0018325958,289.18338,-53.72406,23.127071,SIT
2766049260000,4.100908,3.87268286514286,7.89494166514286,4.17504292007143,0.01038471,-0.03848451,-0.01038471,289.20422,-53.738815,23.130693,SIT
2766053296000,4.104944,3.87881809765079,7.90107689765079,4.19038109743651,0.007941248,-0.02076942,-0.0033597588,289.21686,-53.74912,23.134697,SIT
2766058263000,4.109911,3.88636856838095,7.90862736838095,4.20925739252381,0.0125227375,-0.02687807,-0.0015271631,289.24405,-53.768883,23.137926,SIT
2766063314000,4.114962,3.88115587595129,7.90341467595129,4.22785052148021,0.0076358155,-0.030848695,-0.0018325958,289.26495,-53.7848,23.139532,SIT
2766068299000,4.119947,3.87207285692542,7.89433165692542,4.24601665437595,0.013439035,-0.027488936,-0.0012217305,289.2849,-53.80311,23.141499,SIT
2766073293000,4.124941,3.86374339646268,7.88864549823134,4.26267560707465,0.014966198,-0.028099801,-0.0012217305,289.30927,-53.811817,23.15109,SIT
2766079458000,4.131106,3.8539383691439,7.88374298457195,4.2822856617122,0.03023783,-0.029932396,-0.005497787,289.33328,-53.82531,23.15906,SIT
