timestamp,rel_time,acc_x,acc_y,acc_z,gyro_x,gyro_y,gyro_z,azimuth,pitch,roll,label
2720395057000,0,4.88721367038462,4.04275075391133,6.64892462897443,-0.009468411,-0.064446285,-0.10751228,272.57236,-48.54371,16.689562,SIT
2720400055000,0.004998,4.84992945265155,4.00316504048506,6.65375777449621,0.0076358155,-0.096516706,-0.110872045,272.50156,-48.40236,16.905811,SIT
2720404984000,0.009927,4.81315996301443,3.96412582850466,6.65852419592014,0.03176499,-0.12156218,-0.105068825,272.43298,-48.264137,17.125135,SIT
2720410074000,0.015017,4.77518944115342,3.92381144648392,6.6634463069057,0.044593163,-0.13958271,-0.105068825,272.37167,-48.130386,17.342726,SIT
2720415077000,0.02002,4.78145514329103,3.91647164543515,6.6533721186575,0.04520403,-0.15485434,-0.112399206,272.3155,-48.001617,17.559765,SIT
2720420003000,0.024946,4.81816360646298,3.93186551413633,6.6330048337813,0.036957346,-0.16523905,-0.11209377,272.26056,-47.874516,17.776653,SIT
2720424985000,0.029928,4.85528938062511,3.94743438418693,6.61240600851674,0.032070424,-0.17592919,-0.12980886,272.18994,-47.669197,17.890835,SIT
2720430065000,0.035008,4.89314544902006,3.96330950659903,6.59140198757254,0.032986723,-0.183565,-0.13255776,272.1168,-47.46383,18.008135,SIT
2720435359000,0.040302,4.93259624155606,3.97985338416786,6.56951315157282,0.019242255,-0.17592919,-0.14080444,272.04562,-47.259113,18.117872,SIT
2720439984000,0.044927,4.96706165815579,3.99430662061588,6.55039039628406,0.0021380284,-0.1554652,-0.14110987,271.971,-47.055687,18.226196,SIT
2720445043000,0.049986,5.00476123492942,4.01011611752194,6.5294732029855,0.0036651916,-0.14905111,-0.17256944,271.90424,-46.861324,18.32545,SIT
2720450066000,0.055009,5.04219254035222,4.02581311356051,6.50870485707946,-0.015577064,-0.14263703,-0.20463985,271.83188,-46.660168,18.419292,SIT
2720454981000,0.059924,5.07881903172252,4.04117260699663,6.48838305335097,-0.019242255,-0.10934488,-0.21594086,271.75293,-46.467426,18.503317,SIT
2720460102000,0.065045,5.11698063137814,4.05717585539669,6.4672095117653,-0.019242255,-0.087964594,-0.24404067,271.6839,-46.279846,18.576448,SIT
2720465060000,0.070003,5.15392755797305,4.07266972486897,6.44670991809574,-0.008246681,-0.063224554,-0.2782491,271.60916,-46.09907,18.637989,SIT
2720469999000,0.074942,5.19073289691058,4.08810421888341,6.42628888277225,-0.004581489,-0.048258353,-0.30115658,271.53442,-45.921227,18.692884,SIT
2720474939000,0.079882,5.22754568783008,4.10354183792195,6.40586371279895,0.0125227375,-0.044593163,-0.3323107,271.46454,-45.75762,18.735477,SIT
2720480068000,0.085011,5.26576690334143,4.11957008651479,6.38465709401494,0.033292156,-0.04550946,-0.3643811,271.39655,-45.601357,18.770554,SIT
2720485047000,0.08999,5.30287032155766,4.1351295814931,6.36407067269975,0.04795292,-0.07788532,-0.38240165,271.33795,-45.452335,18.806906,SIT
2720489985000,0.094928,5.33966820851322,4.15056095048344,6.34365377202604,0.06688975,-0.12522738,-0.3659083,271.2821,-45.311386,18.846664,SIT
2720495044000,0.099987,5.37736778528685,4.16637044738951,6.32273657872748,0.071776666,-0.1695151,-0.3390302,271.23398,-45.173534,18.890152,SIT
2720500064000,0.105007,5.41477673476375,4.18205806835579,6.30198063677082,0.06291912,-0.20311269,-0.33505958,271.19495,-45.039753,18.938793,SIT
2720505001000,0.109944,5.45156716973734,4.19748631232203,6.2815678707469,0.06261369,-0.24648413,-0.32070425,271.16003,-44.906452,19.004995,SIT
2720510100000,0.115043,5.48956482578967,4.21342081019197,6.26048529145666,0.04917465,-0.2687807,-0.30115658,271.12546,-44.76837,19.0747,SIT
2720515061000,0.120004,5.52653410833049,4.22892405473654,6.23997329383773,0.04795292,-0.30298916,-0.2761111,271.09857,-44.632767,19.158113,SIT
2720520000000,0.124943,5.56333944726802,4.24435854875098,6.21955225851423,0.052534413,-0.32742378,-0.25320363,271.07022,-44.49508,19.246387,SIT
2720524992000,0.129935,5.60053974124982,4.25995866904255,6.19891208675174,0.042760566,-0.34330627,-0.23365596,271.04242,-44.35278,19.342714,SIT
2720529991000,0.134934,5.6377921991054,4.2755806645028,6.17824297244071,0.05467244,-0.3622431,-0.21013765,271.01447,-44.21581,19.448343,SIT
2720535058000,0.140001,5.67555139173477,4.29141516160164,6.15729270194382,0.050701816,-0.35430184,-0.20708331,270.98343,-44.074726,19.54985,SIT
2720540142000,0.145085,5.71343726805759,4.30730278411012,6.13627214240045,0.049480084,-0.33169982,-0.20525073,270.94797,-43.93667,19.65489,SIT
2720544986000,0.149929,5.74953466870821,4.32244040083536,6.11624389880721,0.052534413,-0.30970868,-0.17165314,270.90292,-43.79627,19.76389,SIT
2720551037000,0.15598,5.79462661159361,4.34134992164551,6.09122513291482,0.046731193,-0.29871312,-0.1441642,270.85544,-43.656086,19.86785,SIT
2720555104000,0.160047,5.82493382225547,4.35405939464748,6.07440951221009,0.04153884,-0.27091873,-0.13072516,270.79468,-43.51642,19.966442,SIT
2720559934000,0.164877,5.86092689515854,4.36915326103536,6.05443915371393,0.031154128,-0.23396139,-0.118202426,270.72342,-43.372658,20.06466,SIT
2720565001000,0.169944,5.89868608778791,4.3849877581342,6.03348888321703,0.022296581,-0.1994475,-0.11636983,270.6455,-43.22987,20.156553,SIT
2720569947000,0.17489,5.93554359059921,4.40044412731732,6.01303890534499,0.01863139,-0.16310102,-0.11484267,270.55618,-43.086422,20.241545,SIT
2720574956000,0.179899,5.97287056827446,4.41609737301853,5.99232844453604,0.023823744,-0.12186762,-0.118507855,270.45865,-42.94574,20.316368,SIT
2720580060000,0.185003,6.01090548423663,4.43204749600896,5.97122519199683,0.038789943,-0.100792766,-0.1328632,270.35944,-42.810116,20.384546,SIT
2720584993000,0.189936,6.04766611128236,4.44746323987881,5.95082896457208,0.044898596,-0.07819075,-0.12889257,270.2477,-42.673767,20.445965,SIT
2720589984000,0.194927,6.08485895328219,4.46306023514629,5.93019292745939,0.064751714,-0.04428773,-0.105374254,270.12793,-42.546005,20.500826,SIT
2720595041000,0.199984,6.12254362609189,4.47886348200416,5.90928400346041,0.08307768,-0.010995574,-0.081855945,270.0027,-42.420856,20.550983,SIT
2720600103000,0.205046,6.16026555881142,4.49468235398251,5.88835440621247,0.124311075,0.04917465,-0.052534413,269.8582,-42.304386,20.593985,SIT
2720604947000,0.20989,6.19636295946204,4.50981997070775,5.86832616261923,0.14019357,0.059253927,-0.035124753,269.71536,-42.18638,20.641634,SIT
2720609945000,0.214888,6.23360796533565,4.5254388411439,5.84766118295799,0.14202617,0.051618114,-0.028710667,269.55994,-42.074326,20.68364,SIT
2720615107000,0.22005,6.21386426132318,4.53054887414914,5.86325339596027,0.15485434,0.03634648,-0.031154128,269.4029,-41.969414,20.725937,SIT
2720620787000,0.22573,6.16818578496324,4.53163645604085,5.89560897995132,0.16401732,0.041233405,-0.031154128,269.24188,-41.86436,20.76651,SIT
2720624997000,0.22994,6.13432902695701,4.53244256867537,5.91959084766299,0.16432275,0.043066,-0.018936822,269.1427,-41.786392,20.980036,SIT
2720630055000,0.234998,6.09365266543789,4.5334110526909,5.94840326735079,0.17134771,0.03604105,-0.021380283,269.0482,-41.714844,21.186888,SIT
2720634996000,0.239939,6.0539172161959,4.53435713405127,5.97654920757961,0.1563815,0.032986723,-0.021685716,268.95,-41.63635,21.391068,SIT
2720639978000,0.244921,6.01385204555765,4.53531106591474,6.00492870043936,0.14477506,0.042455133,-0.016493361,268.85052,-41.56048,21.590408,SIT
2720645065000,0.250008,5.97294246646556,4.53628510272514,6.03390631589049,0.12095132,0.049480084,-0.007941248,268.75223,-41.47796,21.78719,SIT
2720650098000,0.255041,5.93246715457831,4.53724879984855,6.06257632543749,0.10415252,0.065973446,0.003970624,268.6485,-41.393745,21.977818,SIT
2720655203000,0.260146,5.89141281975128,4.53822628322128,6.09165647619,0.093462385,0.08002335,0.004886922,268.54486,-41.306305,22.162987,SIT
2720660056000,0.264999,5.85238506521346,4.53915551472136,6.11930113272319,0.076052725,0.096516706,0.002443461,268.43588,-41.212795,22.342157,SIT
2720665065000,0.270008,5.81210276097279,4.54011461642833,6.14783442853501,0.06383542,0.12003502,0.016798794,268.3191,-41.116398,22.516888,SIT
2720670073000,0.275016,5.7718284987174,4.5410735266596,6.1763620279412,0.059864793,0.1518,0.026267206,268.19913,-41.019947,22.681467,SIT
2720674955000,0.279898,5.73256752660662,4.54200831095455,6.20417188023773,0.057421334,0.16676621,0.041233405,268.0741,-40.919197,22.845179,SIT
2720679977000,0.28492,5.69218067655738,4.54296990184542,6.23277922932276,0.04550946,0.16798794,0.040011674,267.94742,-40.81744,23.000488,SIT
2720684958000,0.289901,5.65212354790441,4.5439236422332,6.26115302577688,0.027794369,0.16768251,0.033292156,267.81656,-40.71362,23.15168,SIT
2720690072000,0.295015,5.61099683520991,4.5449028488871,6.29028444418008,0.018325957,0.16768251,0.030543262,267.68564,-40.609886,23.299856,SIT
2720694970000,0.299913,5.57160719133473,4.54584069679301,6.31818543896673,0.00580322,0.17104226,0.03726278,267.55426,-40.50214,23.444801,SIT
2720699982000,0.304925,5.53130076113824,4.54680037292703,6.34673582399544,0.0061086523,0.17684549,0.039095376,267.42493,-40.397873,23.584618,SIT
2720704944000,0.309887,5.49139643020549,4.54775047527679,6.37500138874255,0.0036651916,0.18478674,0.041233405,267.29367,-40.290413,23.721699,SIT
2720709931000,0.314874,5.45129104964086,4.54870536451868,6.40340936363046,0.005497787,0.17989981,0.043982297,267.1643,-40.18527,23.85776,SIT
2720715091000,0.320034,5.40979440562373,4.5496933790541,6.43280281669274,0.0067195175,0.16401732,0.04917465,267.0355,-40.08026,23.992502,SIT
2720719948000,0.324891,5.37073448314481,4.55062337645692,6.46047025884846,0.0009162979,0.15851954,0.04795292,266.90714,-39.97609,24.122564,SIT
2720724942000,0.329885,5.33057280868326,4.5515796060286,6.4889181085758,-0.00061086525,0.1386664,0.04337143,266.78586,-39.87452,24.256325,SIT
2720729978000,0.334921,5.29007337084019,4.55254387757906,6.51760520733969,0.004581489,0.13194689,0.043676864,266.6629,-39.77415,24.386463,SIT
2720734949000,0.339892,5.25009666203996,4.55349570320999,6.54592203973748,-0.0061086523,0.12736541,0.048563786,266.54462,-39.671104,24.517422,SIT
2720739947000,0.34489,5.20990281963731,4.55445269868441,6.57439267508735,0.0070249503,0.110872045,0.042760566,266.43353,-39.57815,24.647333,SIT
2720744964000,0.349907,5.16955617951445,4.55541333219686,6.60297154214422,0.008552114,0.10598512,0.03848451,266.32022,-39.480373,24.77434,SIT
2720750071000,0.355014,5.12848576071687,4.55639119852097,6.632063085708,-0.0018325958,0.1001819,0.04062254,266.21133,-39.38423,24.902294,SIT
2720754943000,0.359886,5.08930520845884,4.55732406805906,6.65981597394821,-0.0036651916,0.09407325,0.041233405,266.10556,-39.292828,25.02748,SIT
2720760136000,0.365079,5.04754317892764,4.55831840129209,6.68939740839636,-0.0106901415,0.08399397,0.036651913,266.00336,-39.19962,25.151394,SIT
2720765092000,0.370035,5.00768709990653,4.55926735478774,6.71762879470967,-0.020158553,0.061391957,0.023518313,265.90775,-39.1081,25.274916,SIT
2720769953000,0.374896,4.96859500948651,4.5601981180933,6.74531902248792,-0.035124753,0.07819075,0.01038471,265.80734,-39.01579,25.38892,SIT
2720774941000,0.379884,4.92848158693662,4.56115319881087,6.77373269378146,-0.050396383,0.05131268,0.008246681,265.7227,-38.92296,25.513523,SIT
2720779974000,0.384917,4.88800627504936,4.56211689593428,6.80240270332845,-0.06352998,0.04337143,0.008246681,265.63327,-38.830315,25.626202,SIT
2720784954000,0.389897,4.84795718838166,4.56307044484637,6.83077080337694,-0.08124508,0.041233405,0.002443461,265.55087,-38.735775,25.739183,SIT
2720789947000,0.39489,4.80780355590539,4.56402648294237,6.85921295669864,-0.09590584,0.06047566,-0.006414085,265.4668,-38.64097,25.846346,SIT
2720794969000,0.399912,4.76741670585616,4.56498807383324,6.88782030578368,-0.106595986,0.054367006,-0.017104227,265.39114,-38.545795,25.955284,SIT
2720800110000,0.405053,4.72607285955924,4.56597245033065,6.91710552713895,-0.12889257,0.04337143,-0.017715093,265.31262,-38.44591,26.059313,SIT
2720804947000,0.40989,4.68717377678581,4.56689861821976,6.94465904118203,-0.12583824,0.038789943,-0.020463986,265.23755,-38.35328,26.158588,SIT
2720809953000,0.414896,4.64691559850097,4.56785714549967,6.97317524777695,-0.12370021,0.03604105,-0.027488936,265.16623,-38.25774,26.256666,SIT
2720815001000,0.419944,4.64937196057577,4.57224205116563,6.97311025059862,-0.10934488,0.043982297,-0.03604105,265.09506,-38.16826,26.350529,SIT
2720819962000,0.424905,4.66900256094266,4.57791837422379,6.96152110378138,-0.098043874,0.031154128,-0.040927973,265.0304,-38.080803,26.446575,SIT
2720824942000,0.429885,4.68870834401605,4.58361643687842,6.94988757200354,-0.09285152,0.023823744,-0.03940081,264.94125,-38.00904,26.309324,SIT
2720830106000,0.435049,4.70914221224717,4.58952503036206,6.93782420692307,-0.084910266,-0.009162978,-0.035430185,264.86115,-37.941753,26.18356,SIT
2720834983000,0.439926,4.72844042591162,4.59510524152002,6.92643128835269,-0.07086037,-0.023823744,-0.028099801,264.77753,-37.877117,26.06023,SIT
2720839945000,0.444888,4.74807498326306,4.60078270876747,6.91483980548489,-0.06169739,-0.03940081,-0.02565634,264.70154,-37.814133,25.947243,SIT
2720844971000,0.449914,4.76796278762588,4.60653340412935,6.9030988153814,-0.05222898,-0.053450707,-0.029626964,264.62823,-37.755173,25.840385,SIT
2720850132000,0.455075,4.78838478490335,4.61243856504513,6.8910424584526,-0.039095376,-0.06383542,-0.02107485,264.55402,-37.69764,25.741974,SIT
2720854948000,0.459891,4.80744162251007,4.61794898065651,6.87979203896624,-0.028099801,-0.071776666,-0.023518313,264.48578,-37.64489,25.645962,SIT
2720859947000,0.46489,4.82722258828997,4.62366878290762,6.86811412222781,-0.0125227375,-0.064751714,-0.028710667,264.41528,-37.596127,25.552786,SIT
2720865149000,0.470092,4.8478068219341,4.62962085558421,6.85596198722614,-0.00580322,-0.07513642,-0.031154128,264.35016,-37.548416,25.467567,SIT
2720869949000,0.474892,4.86680034778797,4.63511296416699,6.84474894454871,0.006414085,-0.076358154,-0.03634648,264.28354,-37.507473,25.379923,SIT
2720874951000,0.479894,4.88659318452153,4.64083619898596,6.8330640196586,0.012217305,-0.06963864,-0.04795292,264.21967,-37.46842,25.293497,SIT
2720879978000,0.484921,4.90648494586891,4.64658803853713,6.82132069350455,0.009773844,-0.06780604,-0.044593163,264.15488,-37.429165,25.212591,SIT
2720884966000,0.489909,4.92622238481872,4.65229525470607,6.80966847332225,0.014049901,-0.065973446,-0.058337633,264.09552,-37.397617,25.127096,SIT
2720889945000,0.494888,4.94592421090756,4.65799217317141,6.79803727759497,0.027794369,-0.056199603,-0.06505715,264.03183,-37.366474,25.043798,SIT
2720894963000,0.499906,4.96578035939396,4.66373371501899,6.78631497589594,0.025350908,-0.06169739,-0.062308256,263.97214,-37.333336,24.964827,SIT
2720900093000,0.505036,4.98607969015029,4.66960340606684,6.77433103653443,0.014660766,-0.05222898,-0.06352998,263.9099,-37.303276,24.88084,SIT
2720904944000,0.509887,5.00527502221636,4.67515386830331,6.76299885527855,0.013744468,-0.058948494,-0.0580322,263.85022,-37.273727,24.805464,SIT
2720909938000,0.514881,5.02503620307349,4.68086794960797,6.75133261879291,0.008857546,-0.07391469,-0.051923547,263.79065,-37.240913,24.73189,SIT
2720915079000,0.520022,5.0453790606599,4.68675022673799,6.73932298287526,0.011911872,-0.07971791,-0.04550946,263.72937,-37.209198,24.660933,SIT
2720919951000,0.524894,5.06465748940158,4.69232471694951,6.72794174455767,0.008552114,-0.076052725,-0.042455133,263.66882,-37.17462,24.593536,SIT
2720924950000,0.529893,5.08443845518148,4.69804451920061,6.71626382781923,-0.008246681,-0.06780604,-0.03604105,263.60645,-37.13637,24.53,SIT
2720929979000,0.534922,5.10433813049796,4.70379864713036,6.70451582956407,-0.010079277,-0.0842994,-0.027488936,263.5475,-37.100548,24.473656,SIT
2720934952000,0.539895,5.12401621467948,4.70948870045998,6.69289865014013,-0.010995574,-0.073303826,-0.004581489,263.4764,-37.058197,24.415232,SIT
2720939943000,0.544886,5.14376552458296,4.71519934919678,6.68123942180616,-0.018020526,-0.077579886,-0.0015271631,263.4149,-37.016094,24.36293,SIT
2720945790000,0.550733,5.16690201326371,4.72188942396418,6.66758053419471,-0.022907447,-0.06780604,0.0076358155,263.3416,-36.970554,24.312096,SIT
2720950106000,0.555049,5.18398035859398,4.72682774493153,6.65749813998726,-0.03176499,-0.056199603,0.026267206,263.26624,-36.921074,24.265413,SIT
2720954968000,0.559911,5.20321921749013,4.73239079325017,6.64614026217524,-0.036957346,-0.05222898,0.025350908,263.19327,-36.873474,24.217539,SIT
2720959941000,0.564884,5.22289730167165,4.73808084657978,6.63452308275131,-0.04337143,-0.05222898,0.018325957,263.11618,-36.822266,24.171549,SIT
2720965079000,0.570022,5.2432282883044,4.74395969114193,6.62252045498534,-0.054367006,-0.03940081,0.017715093,263.03482,-36.768578,24.124102,SIT
2720969964000,0.574907,5.26255815784527,4.7495490558142,6.61110884801049,-0.06627888,-0.028405234,0.014966198,262.95642,-36.71515,24.07648,SIT
2720974944000,0.579887,5.28226394091866,4.75524711846883,6.59947531623266,-0.06505715,-0.02321288,0.014049901,262.8768,-36.662838,24.028746,SIT
2720979979000,0.584922,5.30218735814246,4.76100811153431,6.58771330167414,-0.07849618,-0.02107485,0.01038471,262.7973,-36.605564,23.97949,SIT
2720984954000,0.589897,5.32187335629309,4.7667004532425,6.57609145014909,-0.07788532,-0.0070249503,0.013439035,262.71344,-36.55199,23.928825,SIT
2720989940000,0.594883,5.3416028812738,4.77240538103286,6.56444390206791,-0.06719518,0.008246681,0.01160644,262.6314,-36.499645,23.877043,SIT
2720995118000,0.600061,5.36209214728867,4.77832999316653,6.55234783227963,-0.074830994,0.0015271631,0.010079277,262.55075,-36.443222,23.828857,SIT
2721000798000,0.605741,5.38456781954908,4.78482898832282,6.53907906511134,-0.06414085,-0.0009162979,0.022602014,262.46378,-36.39293,23.779993,SIT
2721005108000,0.610051,5.40162242297204,4.78976044415444,6.52901068720722,-0.047036625,0.0021380284,0.023823744,262.38065,-36.34492,23.730242,SIT
2721010221000,0.615164,5.42185448499096,4.79561068398439,6.5170664607052,-0.03268129,0.009468411,0.027183503,262.29425,-36.29749,23.683954,SIT
2721015975000,0.620918,5.41956081763394,4.79273602707043,6.50523611175596,-0.03176499,0.0036651916,0.021685716,262.21234,-36.252655,23.639578,SIT
2721020076000,0.625019,5.40788183954998,4.78689655835357,6.49745012636665,-0.008552114,0.008246681,0.030543262,262.12323,-36.214912,23.595734,SIT
2721024975000,0.629918,5.39393028782277,4.77992080677009,6.48814909188185,0.004581489,-0.0030543262,0.03145956,262.09167,-36.167553,23.66074,SIT
2721030001000,0.634944,5.37961706084155,4.77276421818903,6.47860694056103,0.020158553,-0.011911872,0.034208454,262.05655,-36.12593,23.724642,SIT
2721035166000,0.640109,5.36749319072795,4.7386774379562,6.48156441390807,0.021685716,-0.004276057,0.032070424,262.04785,-36.059395,23.799648,SIT
2721039966000,0.644909,5.35842460915368,4.68426575912409,6.49516728626948,0.03268129,-0.0061086523,0.03390302,262.0413,-35.999638,23.87781,SIT
2721045090000,0.650033,5.3748362253,4.63530461965,6.54069853519,0.03359759,0.0012217305,0.03726278,262.0592,-35.912212,23.964087,SIT
2721050220000,0.655163,5.4190522083,4.59600138115,6.61930516609,0.048258353,0.007330383,0.038179077,262.07745,-35.83326,24.048698,SIT
2721054870000,0.659813,5.45498095890688,4.57113281968623,6.69536492154858,0.04550946,0.015882496,0.0421497,262.12848,-35.698532,24.15564,SIT
2721059886000,0.664829,5.48901563582996,4.55654656584008,6.78288208924089,0.037873644,0.027183503,0.047647487,262.1757,-35.569977,24.25815,SIT
2721064899000,0.669842,5.51123398721931,4.55812309373825,6.84197338095756,0.033292156,0.028405234,0.043676864,262.2646,-35.379253,24.393087,SIT
2721069889000,0.674832,5.52068847984964,4.57703232580869,6.87033710565832,0.031154128,0.035124753,0.038179077,262.34622,-35.19368,24.520874,SIT
2721074857000,0.6798,5.51936789301033,4.59373980698967,6.89432336510127,0.027794369,0.038179077,0.042455133,262.49362,-34.92416,24.69206,SIT
2721079917000,0.68486,5.50493423296267,4.60817346703733,6.9135682954031,0.02321288,0.022907447,0.036957346,262.64093,-34.667988,24.857126,SIT
2721084943000,0.689886,5.48268018533913,4.63866008763461,6.92197318361988,0.013133603,0.02107485,0.036651913,262.87204,-34.322704,25.075947,SIT
2721089898000,0.694841,5.45130182637446,4.68796917147175,6.91749056091064,0.00580322,0.014049901,0.028099801,263.0994,-33.997982,25.287907,SIT
2721094914000,0.699857,5.41515434893657,4.73924004572285,6.90849647957463,0.00061086525,0.017104227,0.01740966,263.41507,-33.587208,25.55877,SIT
2721099891000,0.704834,5.37049611451326,4.79282988039914,6.8906331858053,-0.012217305,0.01282817,0.021991149,263.71524,-33.19825,25.821692,SIT
2721104982000,0.709925,5.3239052765288,4.84477706362618,6.86765772652413,-0.025350908,0.021380283,0.0125227375,264.07184,-32.775787,26.118435,SIT
2721109992000,0.714935,5.27463098402577,4.88509243212585,6.82734231125012,-0.03848451,0.022907447,0.014049901,264.41022,-32.375446,26.407022,SIT
2721115160000,0.720103,5.22396392954342,4.92546234046553,6.78746963294539,-0.04886922,0.032986723,0.013439035,264.80356,-31.945127,26.726706,SIT
2721119969000,0.724912,5.17815156723366,4.95294955693823,6.76456361921814,-0.06261369,0.036651913,0.012217305,265.18173,-31.538788,27.03369,SIT
2721125096000,0.730039,5.12957237943821,4.98209687308798,6.73919550129786,-0.064446285,0.04917465,0.009468411,265.59985,-31.119179,27.363821,SIT
2721129969000,0.734912,5.08630951771577,5.00805459915639,6.70458518481506,-0.086132,0.051618114,0.009468411,265.797682563714,-30.9220166709142,27.5195943695388,SIT
2721134984000,0.739927,5.04178596927783,5.03476873751738,6.66896631817002,-0.08460484,0.059253927,0.012217305,266.00128,-30.719109,27.679907,SIT
2721139955000,0.744898,4.99765993198764,5.01973785866117,6.65662648322348,-0.09010262,0.05955936,0.011301007,266.4425,-30.3054,28.026867,SIT
2721145317000,0.75026,4.95040678872913,4.99748857745826,6.64584558928571,-0.086132,0.065973446,0.0125227375,266.86462,-29.916315,28.355646,SIT
2721149964000,0.754907,4.92150852690167,4.93969205380334,6.62933214285714,-0.08002335,0.0580322,0.012217305,267.33197,-29.509743,28.722826,SIT
2721155138000,0.760081,4.88933301437848,4.87534102875696,6.61094596428571,-0.074830994,0.054367006,0.0070249503,267.79108,-29.129206,29.06154,SIT
2721159955000,0.764898,4.85182351614953,4.82053949581701,6.61203999270359,-0.06261369,0.052839845,0.011301007,268.23492,-28.77623,29.388044,SIT
2721164928000,0.769871,4.81147575500371,4.76506129132691,6.6170834562639,-0.04917465,0.053450707,0.010079277,268.66925,-28.450418,29.698858,SIT
2721170060000,0.775003,4.80309005123909,4.73733802297582,6.64884245440955,-0.029932396,0.04795292,0.005192355,269.06393,-28.159958,29.986416,SIT
2721174951000,0.779894,4.79839057901073,4.71384041647437,6.68173929979934,-0.02687807,0.05009095,0.0061086523,269.44604,-27.886768,30.260872,SIT
2721180057000,0.785,4.82404897863965,4.72916812665438,6.68895609867649,-0.023518313,0.04062254,0.0067195175,269.81464,-27.632198,30.519503,SIT
2721184937000,0.78988,4.85123751289087,4.74729382404131,6.69348754076696,-0.02565634,0.034513887,0.009468411,270.140452054021,-27.4183475666196,30.7463008606464,SIT
2721194940000,0.799883,4.90696843668493,4.78444778940224,6.70277606847821,-0.023823744,0.03176499,0.015577064,270.8083,-26.979998,31.21119,SIT
2721199984000,0.804927,4.92761611844773,4.81415330331113,6.72215774408727,-0.03268129,0.029626964,0.026572637,271.11713,-26.786613,31.426516,SIT
2721204952000,0.809895,4.94598750333044,4.84630334675162,6.7451220950864,-0.035124753,0.022602014,0.029932396,271.42358,-26.606215,31.6354,SIT
2721209946000,0.814889,4.95776437487101,4.89477307810052,6.71887229677049,-0.024129177,0.022296581,0.046120327,271.73013,-26.429266,31.84727,SIT
2721215092000,0.820035,4.96718200722339,4.95127862637111,6.67178438085228,-0.03390302,0.014660766,0.04337143,272.03818,-26.260347,32.052074,SIT
2721219947000,0.82489,4.95528801784668,4.97337763643066,6.63176131966468,-0.024129177,-0.0012217305,0.051923547,272.33704,-26.107365,32.253975,SIT
2721224966000,0.829909,4.93101473272397,4.97823229345521,6.59292375931724,-0.013133603,0.0033597588,0.053145275,272.63156,-25.963854,32.443417,SIT
2721230061000,0.835004,4.91924547543468,4.98478932840777,6.55663357996654,-0.011301007,0.0036651916,0.05375614,272.93512,-25.840778,32.632168,SIT
2721234998000,0.839941,4.91445195300857,4.99197959953363,6.52307914822325,-0.01282817,0.0030543262,0.061391957,273.2309,-25.726583,32.81366,SIT
2721239993000,0.844936,4.90960211616059,4.99925434214528,6.48913051817306,-0.0143553335,0.0125227375,0.07544186,273.52423,-25.622896,32.986744,SIT
2721245057000,0.85,4.90468528456937,5.00662957669691,6.45471292806813,-0.0125227375,0.02443461,0.08368854,273.81226,-25.526985,33.152607,SIT
2721250119000,0.855062,4.87614622555233,4.96450439840116,6.42820424379845,-0.005497787,0.008552114,0.076358154,274.09283,-25.44426,33.311924,SIT
2721255083000,0.860026,4.83929415334302,4.90461965479651,6.40517166860465,-0.0033597588,-0.016187929,0.07147124,274.3659,-25.365618,33.46582,SIT
2721259987000,0.86493,4.84199186513351,4.89181208256675,6.40036321707026,-0.0018325958,-0.014660766,0.051618114,274.65488,-25.301058,33.614944,SIT
2721265070000,0.870013,4.86619696403461,4.9039146320173,6.40520421157575,-0.0021380284,-0.006414085,0.022296581,274.9472,-25.245413,33.759888,SIT
2721270616000,0.875559,4.89260685553677,4.91711957776839,6.41048616229924,0.004581489,-0.022296581,0.004581489,275.226,-25.197035,33.899887,SIT
2721274953000,0.879896,4.91325952402665,4.92744591201333,6.4146166744319,0.0036651916,-0.03268129,-0.0021380284,275.5044,-25.155228,34.028557,SIT
2721280055000,0.884998,4.94640697007991,4.94701068832002,6.42244254409589,0.0036651916,-0.032375857,-0.014660766,275.641798282869,-25.1423733992032,34.0896082231076,SIT
2721284993000,0.889936,4.98372781583309,4.97033624736115,6.4317727189997,-0.00580322,-0.03634648,-0.016493361,275.77478,-25.129932,34.148697,SIT
2721289980000,0.894923,5.03856455172414,4.98839773171218,6.45534983474188,0.0021380284,-0.046731193,-0.0030543262,276.0393,-25.108528,34.27148,SIT
2721295062000,0.900005,5.1064705862069,5.00294909716962,6.48930295327885,-0.0009162979,-0.057421334,-0.0021380284,276.31647,-25.089453,34.393894,SIT
2721300172000,0.905115,5.15973853036157,5.0027654616741,6.52036522249629,0.007330383,-0.06352998,-0.0030543262,276.59473,-25.074738,34.52347,SIT
2721305128000,0.910071,5.2020532952947,4.99336221876176,6.54857480395245,-0.00030543262,-0.06994407,0.0067195175,276.8687,-25.057535,34.65227,SIT
2721309986000,0.914929,5.23893006977353,4.99685508574393,6.56745131128756,0.008246681,-0.06658431,0.0070249503,277.144,-25.046003,34.78137,SIT
2721315067000,0.92001,5.27405388627628,5.01002653412433,6.58062280551295,0.008246681,-0.07452556,0.013439035,277.282554237967,-25.0383726020214,34.8481506004203,SIT
2721319979000,0.924922,5.29770710344003,5.01304823539805,6.59577434041779,0.0027488936,-0.08002335,0.010995574,277.4165,-25.030996,34.91271,SIT
2721324944000,0.929887,5.30264872841405,4.9982232056745,6.61554120151736,-0.003970624,-0.08124508,0.008552114,277.6807,-25.017334,35.033062,SIT
2721330003000,0.934946,5.30862515853805,4.98644215216197,6.62510101817456,-0.003970624,-0.07696902,0.024129177,277.9438,-24.998653,35.16159,SIT
2721334995000,0.939938,5.31578624086279,4.97928109476233,6.62032686359097,-0.0021380284,-0.067500606,0.01985312,278.2094,-24.986761,35.280376,SIT
2721340594000,0.945537,5.32381807177951,4.97124929180148,6.61497219782305,-0.008857546,-0.07238753,0.029321533,278.4588,-24.968271,35.399807,SIT
2721345052000,0.949995,5.33021312486519,4.96485426097464,6.61070874006391,-0.004276057,-0.06261369,0.031154128,278.70428,-24.958235,35.506706,SIT
2721350087000,0.95503,5.34905991452632,4.95022991819549,6.61433023726316,0.0030543262,-0.043066,0.027488936,278.94458,-24.949871,35.608265,SIT
2721355044000,0.959987,5.38237373740351,4.92643433042606,6.62860778870175,-0.005497787,-0.028710667,0.026572637,279.1797,-24.941248,35.704918,SIT
2721359945000,0.964888,5.39351516692759,4.91095099080235,6.6328252816047,-0.016187929,-0.015882496,0.028099801,279.40842,-24.933214,35.797047,SIT
2721365058000,0.970001,5.37435042221135,4.9061596795499,6.62324265909981,-0.018325957,-0.004276057,0.03176499,279.63147,-24.927776,35.882156,SIT
2721369923000,0.974866,5.35332194042709,4.90655502547887,6.61434329138484,-0.010079277,0.0061086523,0.03023783,279.84503,-24.918291,35.96523,SIT
2721374941000,0.979884,5.32689546274402,4.91536386670333,6.60553449615067,-0.0125227375,0.02076942,0.032986723,280.0504,-24.907322,36.041924,SIT
2721379931000,0.984874,5.30461685801582,4.91687379932334,6.61336617658755,-0.020463986,0.010995574,0.04795292,280.2445,-24.902817,36.118282,SIT
2721384955000,0.989898,5.29960818210493,4.88682148235478,6.69350608947533,-0.019242255,-0.0021380284,0.046731193,280.4383,-24.90432,36.18692,SIT
2721389959000,0.994902,5.30106070438691,4.86628959113825,6.76055021763556,-0.024740042,-0.0106901415,0.04917465,280.6276,-24.905596,36.25261,SIT
2721394964000,0.999907,5.3197931944211,4.87097267697118,6.79333211187103,-0.02076942,-0.00580322,0.052534413,280.81476,-24.91109,36.31537,SIT
2721400085000,1.005028,5.33372574645377,4.87403905225585,6.81924215354623,-0.02565634,-0.01160644,0.05497787,280.99146,-24.90414,36.378517,SIT
2721404943000,1.009886,5.3315662545117,4.87187958286298,6.8214016454883,-0.028710667,-0.0106901415,0.04642576,281.16644,-24.901766,36.43518,SIT
2721410258000,1.015201,5.32920361563312,4.86951696865485,6.82376428436688,-0.028710667,-0.01740966,0.049480084,281.32782,-24.899769,36.494774,SIT
2721414974000,1.019917,5.3271072459339,4.86742062084571,6.8258606540661,-0.0421497,-0.01038471,0.055283304,281.48657,-24.896856,36.547688,SIT
2721419966000,1.024909,5.32488818793167,4.86520158601467,6.82807971206833,-0.043066,-0.01038471,0.056505036,281.65106,-24.895882,36.603146,SIT
2721424947000,1.02989,5.3061619664512,4.85574661061778,6.80044927706898,-0.05100725,-0.0125227375,0.054367006,281.8123,-24.891699,36.65559,SIT
2721430223000,1.035166,5.28483433272508,4.84430112864448,6.76689458181271,-0.05589417,-0.0070249503,0.05100725,281.97043,-24.88957,36.70404,SIT
2721434967000,1.03991,5.26661402424303,4.82608077259876,6.72134381060758,-0.056505036,-0.008246681,0.051923547,282.1194,-24.891224,36.74876,SIT
2721440163000,1.045106,5.24741266623352,4.80620173954282,6.67266276766575,-0.050701816,-0.003970624,0.048258353,282.2689,-24.897043,36.788185,SIT
2721444968000,1.049911,5.23868336261975,4.78874322346581,6.64211002271649,-0.044593163,-0.0027488936,0.04642576,282.4168,-24.903572,36.827297,SIT
2721450333000,1.055276,5.2289367,4.76925,6.6079965,-0.043676864,0.008246681,0.043066,282.57288,-24.907667,36.866795,SIT
2721454944000,1.059887,5.21539803118038,4.73314683602453,6.54030315590189,-0.06047566,0.0067195175,0.035430185,282.73114,-24.91183,36.90616,SIT
2721460352000,1.065295,5.19813741202686,4.69244742016786,6.46378025853966,-0.046120327,0.014966198,0.027794369,282.88538,-24.92359,36.940952,SIT
2721465063000,1.070006,5.15648556911456,4.68866090696601,6.45242067939572,-0.032375857,0.011911872,0.021991149,283.042,-24.934101,36.976162,SIT
2721469929000,1.074872,5.1134633089551,4.68474981096937,6.44068735056651,-0.026572637,0.00580322,0.01160644,283.20166,-24.946821,37.01335,SIT
2721474944000,1.079887,5.07510436497089,4.68870347602126,6.44125877602126,0.0021380284,-0.0021380284,0.00580322,283.36072,-24.968813,37.049717,SIT
2721480387000,1.08533,5.03816332599342,4.69925810188307,6.45181340188307,0.022602014,-0.0027488936,-0.0106901415,283.524,-24.99535,37.08082,SIT
2721484992000,1.089935,5.00690970032903,4.70818774584662,6.46074304584662,0.047647487,-0.0061086523,-0.014049901,283.68872,-25.030218,37.10975,SIT
2721489941000,1.094884,4.97332138471273,4.71778444681853,6.47033974681853,0.06383542,-0.004581489,-0.026267206,283.85852,-25.07286,37.132362,SIT
2721494960000,1.099903,4.95476463861249,4.73942995841427,6.54015605520317,0.07880162,-0.0030543262,-0.027794369,284.02496,-25.119463,37.155495,SIT
2721500109000,1.105052,4.94499036692765,4.76875256934589,6.64767268652131,0.07391469,-0.0125227375,-0.035124753,284.1969,-25.168827,37.176857,SIT
2721504942000,1.109885,4.97239046283591,4.80399252267963,6.71257329275777,0.07147124,-0.009162978,-0.03390302,284.36237,-25.228209,37.18521,SIT
2721509940000,1.114883,5.02256321017724,4.84504303891748,6.75818492454736,0.0693332,-0.010995574,-0.03573562,284.53217,-25.28836,37.194572,SIT
2721515001000,1.119944,5.06460823753501,4.88013046301521,6.77282308164266,0.052839845,-0.02443461,-0.036957346,284.69147,-25.345913,37.196774,SIT
2721519956000,1.124899,5.0978386605042,4.90861363313325,6.75858152136855,0.042455133,-0.028710667,-0.03604105,284.84787,-25.40385,37.196697,SIT
2721524942000,1.129885,5.12135548243002,4.95673617689101,6.73941419594997,0.013744468,-0.02687807,-0.048258353,285.01166,-25.458122,37.196533,SIT
2721529977000,1.13492,5.13571497855867,5.02374720880484,6.71548170240222,-0.01740966,-0.0421497,-0.04550946,285.17334,-25.50639,37.20329,SIT
2721534951000,1.139894,5.15953293711947,5.05415568749376,6.71335799960076,-0.025045475,-0.038789943,-0.043982297,285.3467,-25.556429,37.210674,SIT
2721539942000,1.144885,5.19292815201118,5.04938487134445,6.73244076604452,-0.04886922,-0.018936822,-0.049480084,285.51938,-25.59747,37.21608,SIT
2721544972000,1.149915,5.21214921538916,5.05170933194923,6.72550886288497,-0.07086037,-0.021380283,-0.04917465,285.7102,-25.647572,37.22687,SIT
2721550108000,1.155051,5.21698907291154,5.06138884484896,6.69163061827216,-0.096516706,-0.013133603,-0.05100725,285.89545,-25.693485,37.22828,SIT
2721554933000,1.159876,5.20841630446402,5.07926303464318,6.65533577947144,-0.111177474,0.0009162979,-0.048258353,286.07294,-25.732246,37.232178,SIT
2721559943000,1.164886,5.18467099712957,5.10775740344452,6.61259407750173,-0.12156218,0.0076358155,-0.042455133,286.248,-25.766762,37.23526,SIT
2721564972000,1.169915,5.17777264038171,5.11099811923659,6.588843,-0.13469578,0.01038471,-0.040011674,286.4264,-25.801098,37.23839,SIT
2721569949000,1.174892,5.19173182932591,5.08307974134817,6.588843,-0.15088372,0.020158553,-0.032986723,286.597,-25.83119,37.239105,SIT
2721574926000,1.179869,5.20569101827012,5.05516136345975,6.588843,-0.14630222,0.02076942,-0.024740042,286.77838,-25.87152,37.24015,SIT
2721579983000,1.184926,5.21987458638161,5.02679422723678,6.588843,-0.13591751,0.032375857,-0.01985312,286.95258,-25.90953,37.236145,SIT
2721584923000,1.189866,5.23898176006547,5.00029911661211,6.58716878835925,-0.15241088,0.0290161,-0.014660766,287.11624,-25.946455,37.228687,SIT
2721589946000,1.194889,5.26850565515548,4.97569587070376,6.58224803641571,-0.13713925,0.022907447,0.0015271631,287.27155,-25.989454,37.22135,SIT
2721594971000,1.199914,5.29377370189541,4.94418948315513,6.56451357695373,-0.13072516,0.029321533,0.005497787,287.41888,-26.013573,37.223305,SIT
2721600126000,1.205069,5.31296821010886,4.90100167682737,6.52612451041991,-0.1142318,0.029626964,0.011301007,287.56158,-26.040245,37.230183,SIT
2721604945000,1.209888,5.33254110382878,4.87302741559984,6.50735358593167,-0.098043874,0.02321288,0.014966198,287.6974,-26.062521,37.242565,SIT
2721609940000,1.214883,5.35602240954251,4.86833120349499,6.52144232032201,-0.0842994,0.034513887,0.022296581,287.82516,-26.086536,37.2512,SIT
2721614969000,1.219912,5.37823915738508,4.85512956145251,6.52855675080859,-0.07849618,0.02076942,0.029626964,287.9447,-26.10929,37.27344,SIT
2721619958000,1.224901,5.39697047352739,4.82234988044693,6.5191911905322,-0.06352998,0.02107485,0.03145956,288.05713,-26.13687,37.28871,SIT
2721624940000,1.229883,5.40971097657465,4.80627530312014,6.50867349159215,-0.06352998,0.021685716,0.032375857,288.15973,-26.161295,37.304035,SIT
2721629975000,1.234918,5.40502394362364,4.83908389755054,6.49461263744168,-0.04337143,0.023823744,0.03848451,288.25842,-26.191875,37.318928,SIT
2721634955000,1.239898,5.3997137703654,4.86742583607107,6.48109016392893,-0.052534413,0.0290161,0.046731193,288.3493,-26.208153,37.334637,SIT
2721639944000,1.244887,5.3917052797184,4.87943853022963,6.46907746977037,-0.04795292,0.032986723,0.03604105,288.44247,-26.234192,37.347015,SIT
2721644949000,1.249892,5.38367110539725,4.89148974976534,6.45702625023466,-0.047647487,0.05009095,0.040317107,288.53143,-26.261047,37.35836,SIT
2721650107000,1.25505,5.37403796430367,4.88968453971845,6.44664013700352,-0.057421334,0.06047566,0.038179077,288.6248,-26.289974,37.36667,SIT
2721654923000,1.259866,5.36476267276018,4.88504684552036,6.437364700181,-0.057421334,0.082161374,0.03390302,288.7105,-26.3205,37.36779,SIT
2721659940000,1.264883,5.33092728828976,4.88794614994003,6.45071269829695,-0.059864793,0.083383106,0.036651913,288.8007,-26.35138,37.370323,SIT
2721666046000,1.270989,5.28323759751499,4.89355666905733,6.47315492122811,-0.061391957,0.09254608,0.044898596,288.88336,-26.38201,37.36563,SIT
2721669940000,1.274883,5.25282428996882,4.89713468436076,6.48746707584553,-0.076052725,0.099571034,0.047036625,288.96936,-26.40833,37.358036,SIT
2721674955000,1.279898,5.21365563631087,4.90174273437275,6.50589939618614,-0.08002335,0.10354166,0.044898596,289.05182,-26.43573,37.34938,SIT
2721679974000,1.284917,5.18132550409607,4.90961857672912,6.51852201101256,-0.09621128,0.099571034,0.037873644,289.13422,-26.458014,37.340343,SIT
2721684953000,1.289896,5.15281246715168,4.91912288929639,6.52802622433725,-0.09407325,0.10445796,0.04520403,289.20932,-26.480947,37.330112,SIT
2721689948000,1.294891,5.12632070958482,4.91650623075812,6.55228572030151,-0.108123146,0.10720685,0.048563786,289.28818,-26.503378,37.307423,SIT
2721694975000,1.299918,5.10081409607938,4.90723109857432,6.58474880400732,-0.11881329,0.112704635,0.049480084,289.3632,-26.525995,37.28405,SIT
2721700110000,1.305053,5.07475949883441,4.89775669957615,6.61790932416434,-0.11575896,0.100792766,0.054367006,289.43954,-26.55018,37.260555,SIT
2721704939000,1.309882,5.05025752218476,4.88884688988537,6.64909377437626,-0.11911872,0.087964594,0.056199603,289.5149,-26.57123,37.236202,SIT
2721709951000,1.314894,5.02815813578035,4.87030840367053,6.67238922403856,-0.1142318,0.090713486,0.061391957,289.5863,-26.59312,37.212715,SIT
2721715093000,1.320036,5.0089802930776,4.84154163961639,6.68677255600234,-0.108123146,0.077579886,0.06383542,289.66296,-26.614836,37.196156,SIT
2721719944000,1.324887,5.00125042371493,4.80729429205407,6.70066015850911,-0.105068825,0.07544186,0.06078109,289.71616,-26.637976,37.16438,SIT
2721724941000,1.329884,5.00615071748925,4.76319256909687,6.71536078399549,-0.09865474,0.07147124,0.052839845,289.7726,-26.663456,37.13631,SIT
2721729963000,1.334906,5.00289917107203,4.73359450528643,6.72984349471357,-0.1001819,0.06688975,0.050701816,289.82083,-26.682535,37.108078,SIT
2721735302000,1.340245,4.99033885486882,4.71852212584259,6.74491587415741,-0.09132435,0.06658431,0.050396383,289.87042,-26.706194,37.079422,SIT
2721739937000,1.34488,4.97943474068979,4.70543718882775,6.75800081117225,-0.07269296,0.059864793,0.047036625,289.9171,-26.72108,37.05663,SIT
2721744974000,1.349917,4.967584897514,4.6912173770168,6.7722206229832,-0.06780604,0.051923547,0.04153884,289.96454,-26.735487,37.034264,SIT
2721750060000,1.355003,4.94693700760113,4.68108029612418,6.79620669627469,-0.06719518,0.042455133,0.03726278,290.01392,-26.753296,37.01391,SIT
2721755066000,1.360009,4.915366854619,4.67657032809031,6.83228681729069,-0.0580322,0.034513887,0.02565634,290.06796,-26.776342,36.99333,SIT
2721759935000,1.364878,4.89085245091806,4.68506538120869,6.8729208548316,-0.055283304,0.03390302,0.02565634,290.1099,-26.791492,36.96878,SIT
2721764989000,1.369932,4.88069587821844,4.72569161898017,6.9287819516525,-0.06291912,0.027488936,0.01282817,290.16147,-26.811003,36.94395,SIT
2721769929000,1.374872,4.87791665795227,4.75840119488067,6.96067743836764,-0.05589417,0.00580322,0.005497787,290.21222,-26.830467,36.91886,SIT
2721774940000,1.379883,4.88665947901257,4.78025824753143,6.95630607348333,-0.048563786,-0.0061086523,0.0033597588,290.26425,-26.849808,36.892273,SIT
2721779936000,1.384879,4.89188409086167,4.80077661370749,6.95089748112873,-0.045814894,-0.01282817,0.0012217305,290.32358,-26.874933,36.861492,SIT
2721784952000,1.389895,4.88186171890257,4.81581017164615,6.94087505684331,-0.03634648,-0.0070249503,-0.0030543262,290.38358,-26.903656,36.830345,SIT
2721789936000,1.394879,4.87964164181338,4.83049588330399,6.92729933920188,-0.040927973,-0.018325957,-0.0015271631,290.4511,-26.933805,36.807312,SIT
2721794985000,1.399928,4.89855924330986,4.84468399800469,6.90365239906103,-0.04734206,-0.020158553,-0.010079277,290.5193,-26.96793,36.77881,SIT
2721800056000,1.404999,4.91526599568067,4.863715040423,6.87744998426174,-0.05222898,-0.022907447,-0.007941248,290.59244,-27.001474,36.756397,SIT
2721804940000,1.409883,4.92455461587727,4.89622542934167,6.84493969233443,-0.0580322,-0.02687807,-0.004276057,290.66763,-27.03445,36.733833,SIT
2721809948000,1.414891,4.93724533151676,4.92766853151676,6.81349666848324,-0.061086524,-0.017104227,-0.012217305,290.7482,-27.07129,36.71082,SIT
2721814990000,1.419933,4.96183849928695,4.95226169928695,6.78890350071305,-0.059864793,-0.025350908,-0.0021380284,290.82608,-27.103325,36.6966,SIT
2721819962000,1.424905,4.98600775557975,4.96884563478497,6.76523992754491,-0.07391469,-0.021991149,0.002443461,290.90994,-27.14318,36.67541,SIT
2721824937000,1.42988,5.00994873219296,4.96286038542356,6.74329401321971,-0.08277224,-0.01985312,0.0021380284,290.99326,-27.182894,36.657368,SIT
2721829973000,1.434916,5.03418325645911,4.95680174908505,6.72107901331184,-0.08032878,-0.030848695,0.011301007,291.0811,-27.223135,36.647526,SIT
2721834957000,1.4399,5.05816754338177,4.95080567213684,6.6990933978351,-0.08124508,-0.03176499,0.015577064,291.167,-27.261356,36.633965,SIT
2721839939000,1.444882,5.08214220579122,4.94481200131904,6.67711660483648,-0.09101892,-0.03023783,0.018020526,291.25153,-27.29642,36.62349,SIT
2721845092000,1.450035,5.10244867929293,4.934044647117,6.65534079427609,-0.082161374,-0.016187929,0.026572637,291.33188,-27.331022,36.607773,SIT
2721850221000,1.455164,5.11795354267677,4.91853983769992,6.63466764309764,-0.08032878,-0.025961773,0.021380283,291.41913,-27.364016,36.59541,SIT
2721854945000,1.459888,5.1374788083384,4.90734707726719,6.62992794686549,-0.07360926,-0.020158553,0.021991149,291.49493,-27.394035,36.58302,SIT
2721859945000,1.464888,5.16176598626496,4.89763227710489,6.63478532158653,-0.083383106,-0.02565634,0.032375857,291.5727,-27.419865,36.5762,SIT
2721864996000,1.469939,5.18294255198117,4.88801499407611,6.61952723256179,-0.076358154,-0.023518313,0.03481932,291.65332,-27.446676,36.570568,SIT
2721869949000,1.474892,5.20155127805022,4.87871058246371,6.59161375483523,-0.07452556,-0.025961773,0.041233405,291.73077,-27.467588,36.569294,SIT
2721874986000,1.479929,5.2205294342829,4.86653489532775,6.57657942649581,-0.06505715,-0.0125227375,0.04184427,291.8011,-27.4887,36.566315,SIT
2721879973000,1.484916,5.23936023813701,4.85241182930508,6.57187178697881,-0.06414085,-0.007941248,0.03481932,291.87308,-27.508678,36.565304,SIT
2721884946000,1.489889,5.26077010137327,4.83318449862673,6.56715333972535,-0.06078109,-0.0030543262,0.042760566,291.94864,-27.521341,36.571613,SIT
2721889942000,1.494885,5.28457629741268,4.80937830258732,6.56239210051746,-0.059253927,-0.003970624,0.038789943,292.02878,-27.537687,36.574505,SIT
2721895046000,1.499989,5.30604104953488,4.79546360604651,6.56262919395349,-0.042455133,-0.010079277,0.04428773,292.1002,-27.550777,36.581627,SIT
2721900093000,1.505036,5.3247751516376,4.79078006829457,6.56731273170543,-0.03604105,0.004276057,0.040317107,292.17032,-27.564873,36.58138,SIT
2721904976000,1.509919,5.3365004729069,4.7706508935735,6.58078466453448,-0.05375614,0.0018325958,0.04428773,292.23096,-27.571388,36.590946,SIT
2721909996000,1.514939,5.34129795180122,4.73227101232412,6.60477205900609,-0.053145275,0.0143553335,0.043676864,292.2871,-27.584904,36.591717,SIT
2721915065000,1.520008,5.34273455974472,4.70954173122239,6.62319154820815,-0.05497787,0.011301007,0.03848451,292.34726,-27.59097,36.60288,SIT
2721919998000,1.524941,5.34041534745213,4.7049033308542,6.63478770653903,-0.04917465,0.029626964,0.03634648,292.39877,-27.598616,36.605877,SIT
2721924983000,1.529926,5.3380716877565,4.7002160359352,6.64650610290624,-0.053450707,0.022907447,0.032986723,292.4454,-27.596844,36.61515,SIT
2721930054000,1.534997,5.33568759581738,4.6954478769514,6.65842666217968,-0.06169739,0.027183503,0.03145956,292.48538,-27.595882,36.617104,SIT
2721934989000,1.539932,5.32470855944056,4.6983792363225,6.66928684422049,-0.059864793,0.040011674,0.03145956,292.5248,-27.596867,36.617897,SIT
2721939946000,1.544889,5.30029880087413,4.7130251730255,6.67905076803785,-0.057421334,0.04428773,0.02687807,292.56622,-27.59781,36.6183,SIT
2721944945000,1.549888,5.28335306036036,4.72441041844655,6.6846113,-0.0571159,0.03848451,0.028405234,292.59973,-27.595053,36.617176,SIT
2721950059000,1.555002,5.27619806756757,4.7315653614317,6.6846113,-0.055588737,0.036651913,0.022907447,292.6344,-27.595648,36.612103,SIT
2721954917000,1.55986,5.26940124414414,4.73836213754078,6.6846113,-0.05497787,0.03848451,0.022907447,292.67734,-27.59326,36.600086,SIT
2721959985000,1.564928,5.26231060990991,4.74545272241539,6.6846113,-0.044898596,0.05131268,0.027488936,292.71802,-27.59386,36.585857,SIT
2721964959000,1.569902,5.24651940671449,4.75232581244901,6.69055666653069,-0.04734206,0.042455133,0.025961773,292.76352,-27.594486,36.578674,SIT
2721969956000,1.574899,5.21286108426877,4.75905745819384,6.70850772185024,-0.03604105,0.038789943,0.023518313,292.8037,-27.59978,36.56795,SIT
2721974951000,1.579894,5.17921623323487,4.76578640966381,6.72645159243682,-0.035430185,0.043982297,0.026572637,292.84595,-27.605215,36.555428,SIT
2721979977000,1.58492,5.14536257531767,4.77255712239415,6.7445068263844,-0.032070424,0.038179077,0.02076942,292.89386,-27.61597,36.544506,SIT
2721985070000,1.590013,5.11245372559866,4.77921691860033,6.76434744472805,-0.029932396,0.04184427,0.025045475,292.93832,-27.621975,36.533123,SIT
2721990683000,1.595626,5.09249657750139,4.78420620562465,6.80426168882495,-0.024740042,0.038179077,0.021380283,292.98883,-27.632198,36.52255,SIT
2721995002000,1.599945,5.07714027558938,4.78804528110265,6.83497425256172,-0.02107485,0.036957346,0.023823744,293.03265,-27.646679,36.49713,SIT
2722000091000,1.605034,5.07804237828191,4.79774360818461,6.84718013256673,-0.026572637,0.027183503,0.032375857,293.0778,-27.65982,36.4755,SIT
2722005208000,1.610151,5.08059211875748,4.80794278308445,6.85737933409126,-0.02687807,0.024740042,0.026267206,293.12476,-27.677137,36.450897,SIT
2722009945000,1.614888,5.08295250973516,4.81738454417503,6.86682111982934,-0.034208454,0.026267206,0.027183503,293.16492,-27.688616,36.42539,SIT
2722015129000,1.620072,5.08386672443099,4.82812799036827,6.87473000963173,-0.0421497,0.015271631,0.028710667,293.21515,-27.699894,36.414875,SIT
2722019960000,1.624903,5.07030858923513,4.84168626713881,6.86117173286119,-0.03176499,0.013439035,0.032070424,293.26187,-27.713064,36.402412,SIT
2722025256000,1.630199,5.05579840717068,4.85619658888445,6.84779478852492,-0.038789943,0.010995574,0.034513887,293.31195,-27.722681,36.390846,SIT
2722029973000,1.634916,5.04677528976331,4.86521965918306,6.85230625301109,-0.04795292,0.016798794,0.03145956,293.36078,-27.734512,36.377506,SIT
2722035277000,1.64022,5.03703263329524,4.87349199988571,6.85552343318095,-0.047036625,0.008857546,0.036651913,293.40494,-27.755,36.366703,SIT
2722039946000,1.644889,5.0327741495619,4.86071654868571,6.83848949824762,-0.050396383,0.008857546,0.035124753,293.426978565392,-27.7646623229929,36.3597040713181,SIT
2722044980000,1.649923,5.02818275801905,4.84694237405714,6.82012393207619,-0.049480084,0.0027488936,0.032070424,293.45074,-27.77508,36.352158,SIT
2722049992000,1.654935,5.01912022168651,4.82410612701958,6.80563155077241,-0.05467244,-0.0009162979,0.03390302,293.49573,-27.794323,36.3387,SIT
2722054922000,1.659865,5.00982904171997,4.80087793455673,6.7916945867854,-0.04886922,0.0012217305,0.032375857,293.5425,-27.816694,36.3241,SIT
2722060822000,1.665765,5.01356060387477,4.77841762916224,6.74594020765291,-0.06261369,-0.005497787,0.03023783,293.58807,-27.83343,36.312344,SIT
2722064984000,1.669927,5.01741201226205,4.76301179453087,6.71127725065224,-0.04062254,-0.015882496,0.027183503,293.6342,-27.859241,36.30064,SIT
2722069958000,1.674901,5.00624770627692,4.74367442523077,6.67976692902564,-0.05375614,0.004581489,0.028710667,293.67514,-27.869452,36.28738,SIT
2722074923000,1.679866,4.99161730258461,4.72416732215385,6.65050601979487,-0.051923547,-0.012217305,0.021685716,293.7287,-27.88963,36.283176,SIT
2722079975000,1.684918,5.00187000187296,4.70489435450401,6.63395016913091,-0.051618114,-0.010995574,0.017715093,293.77332,-27.904905,36.275642,SIT
2722084931000,1.689874,5.01598038363889,4.68608046303637,6.61983964002577,-0.05222898,-0.020463986,0.012217305,293.8255,-27.921968,36.272957,SIT
2722089941000,1.694884,5.02227065191943,4.70317866968791,6.63366948584106,-0.04917465,-0.017715093,0.013133603,293.8734,-27.938831,36.26875,SIT
2722094984000,1.699927,5.02708621659188,4.72725674447103,6.65293219708844,-0.05131268,-0.015577064,0.0076358155,293.9262,-27.956703,36.26472,SIT
2722100003000,1.704946,5.03351617121396,4.73473785439022,6.655881,-0.04520403,-0.0143553335,0.004886922,293.97278,-27.973997,36.26665,SIT
2722104926000,1.709869,5.04011506753756,4.73913708798171,6.655881,-0.045814894,-0.016187929,0.005192355,294.01968,-27.98981,36.268105,SIT
2722109934000,1.714877,5.04682789971074,4.7436122782775,6.655881,-0.033292156,-0.015271631,0.0070249503,294.05936,-28.016108,36.258377,SIT
2722115129000,1.720072,5.05379139075301,4.74825457332276,6.655881,-0.04550946,-0.010995574,0.0009162979,294.1005,-28.03812,36.24709,SIT
2722119945000,1.724888,5.06493865572034,4.75568617748941,6.66985562076271,-0.036957346,-0.014966198,0.0030543262,294.13977,-28.06486,36.239258,SIT
2722124954000,1.729897,5.08018320762712,4.76584940665254,6.69526356101695,-0.042760566,-0.016798794,-0.008246681,294.18292,-28.089344,36.2268,SIT
2722129976000,1.734919,5.10109725148046,4.77241261727201,6.7100902675681,-0.03726278,-0.015882496,-0.0076358155,294.22437,-28.113451,36.21139,SIT
2722135049000,1.739992,5.12507233359653,4.77720758362613,6.71968025034544,-0.03848451,-0.01160644,-0.0036651916,294.26727,-28.136112,36.19457,SIT
2722139994000,1.744937,5.13932174727634,4.78805695145129,6.71984173880716,-0.03573562,-0.007330383,-0.0061086523,294.30988,-28.160713,36.17649,SIT
2722144957000,1.7499,5.14877132887674,4.80223075651093,6.71511712067594,-0.04153884,-0.008246681,0.009468411,294.34586,-28.178701,36.16255,SIT
2722150070000,1.755013,5.16168952939169,4.80131221300944,6.72583137179281,-0.03756821,-0.013439035,0.008246681,294.3877,-28.200684,36.14975,SIT
2722155051000,1.759994,5.17605472939169,4.79173546300944,6.74498502179281,-0.037873644,-0.013439035,-0.00030543262,294.42584,-28.218748,36.13742,SIT
2722159948000,1.764891,5.18641950750974,4.7830367205101,6.76774939450939,-0.034208454,-0.01740966,0.009773844,294.46274,-28.238281,36.133053,SIT
2722165071000,1.770014,5.19510918983351,4.77434708355473,6.79381839611229,-0.03634648,-0.010995574,0.009773844,294.5023,-28.259762,36.12308,SIT
2722170055000,1.774998,5.19815671773548,4.76720037493241,6.80091137094193,-0.03604105,-0.020158553,0.015882496,294.53387,-28.27526,36.11654,SIT
2722174987000,1.77993,5.19304881489132,4.76209236541581,6.78047975956526,-0.03756821,-0.02443461,0.015882496,294.56448,-28.290857,36.106434,SIT
2722180004000,1.784947,5.18482879169571,4.75552966782856,6.7708025,-0.032986723,-0.02443461,0.016493361,294.58774,-28.301968,36.097256,SIT
2722204959000,1.809902,5.13083525356313,4.71696314252517,6.7708025,-0.030543262,-0.015577064,0.01863139,294.70563,-28.361877,36.042458,SIT
2722209924000,1.814867,5.11739275436806,4.70714005622936,6.77545147613329,-0.04153884,-0.01985312,0.020463986,294.7336,-28.374437,36.032276,SIT
2722215099000,1.820042,5.0975547882918,4.6922617111378,6.79032992479736,-0.028405234,-0.016798794,0.011301007,294.76154,-28.391907,36.017796,SIT
2722219926000,1.824869,5.08065738021194,4.67997422776072,6.80261744003169,-0.018325957,-0.017715093,0.01160644,294.7841,-28.397125,36.01051,SIT
2722224991000,1.829934,5.06624543111815,4.67036607776567,6.81222548969991,-0.03145956,-0.009468411,0.009773844,294.807,-28.40237,35.998558,SIT
2722229970000,1.834913,5.05801609762205,4.66536715869164,6.81722437184315,-0.02107485,-0.012217305,0.005192355,294.82898,-28.41299,35.986835,SIT
2722235049000,1.839992,5.06273700914297,4.67008826739785,6.81250336172959,-0.023518313,-0.02076942,0.007330383,294.84885,-28.417183,35.975597,SIT
2722239960000,1.844903,5.06728135033378,4.67808497730307,6.80680818731642,-0.019242255,-0.014049901,0.0061086523,294.86362,-28.425406,35.954506,SIT
2722245060000,1.850003,5.07193914930383,4.69671607591074,6.79749254074003,-0.03023783,-0.022907447,0.0070249503,294.88208,-28.429035,35.940067,SIT
2722250153000,1.855096,5.07661194831022,4.71133673056749,6.78905145641238,-0.027488936,-0.03481932,0.004276057,294.90237,-28.438227,35.924877,SIT
2722255131000,1.860074,5.08126845450283,4.70900850178257,6.78439497453116,-0.021991149,-0.03023783,-0.0061086523,294.92285,-28.446978,35.907066,SIT
2722259977000,1.86492,5.08580148564173,4.70674200987986,6.779861967059,-0.022602014,-0.032375857,0.007330383,294.9467,-28.454685,35.899296,SIT
2722265100000,1.870043,5.09059362731002,4.70434596406525,6.77506985041024,-0.02565634,-0.040011674,0.003970624,294.97815,-28.468113,35.88732,SIT
2722270090000,1.875033,5.09404652003974,4.70547021984103,6.76795182439146,-0.029932396,-0.04550946,0.00580322,295.004,-28.477497,35.87859,SIT
2722274951000,1.879894,5.08479608292101,4.74247196831595,6.73557534277198,-0.04062254,-0.04184427,-0.0027488936,295.0331,-28.48742,35.86723,SIT
2722280132000,1.885075,5.0743434952967,4.77984962496703,6.70308304408791,-0.034208454,-0.034208454,0.0015271631,295.062,-28.496342,35.871254,SIT
2722284988000,1.889931,5.05799010952088,4.79211462160879,6.69490630850989,-0.03726278,-0.03145956,0.0009162979,295.0945,-28.503569,35.87293,SIT
2722289920000,1.894863,5.04138078113407,4.80457157454066,6.68660160095824,-0.039095376,-0.027794369,0.0009162979,295.1351,-28.522125,35.873783,SIT
2722295061000,1.900004,5.04488809317666,4.81504485408314,6.65465988366742,-0.05131268,-0.021380283,-0.0067195175,295.17633,-28.539156,35.87162,SIT
2722300058000,1.905001,5.05433921775452,4.82449592931767,6.61685558272934,-0.04917465,-0.020463986,-0.0067195175,295.2152,-28.557194,35.870865,SIT
2722305051000,1.909994,5.06026313713012,4.83783830504662,6.59315964162951,-0.04917465,-0.007941248,-0.005192355,295.2574,-28.576416,35.85954,SIT
2722309953000,1.914896,5.0650203820835,4.85211028828537,6.57413026441021,-0.050701816,-0.00580322,-0.009773844,295.30273,-28.59673,35.849323,SIT
2722315133000,1.920076,5.1011099565812,4.84766789532428,6.55802962269482,-0.047036625,-0.0012217305,-0.008246681,295.34784,-28.620127,35.839146,SIT
2722319966000,1.924909,5.14299678273504,4.83835981432881,6.54406747690297,-0.049785517,-0.0033597588,-0.006414085,295.3946,-28.642363,35.82933,SIT
2722324985000,1.929928,5.17861325452556,4.82314204234633,6.54659275636065,-0.04550946,0.0033597588,-0.004886922,295.44012,-28.670809,35.815323,SIT
2722330057000,1.935,5.21243210346131,4.80623264310225,6.55383962733738,-0.043066,0.004276057,-0.004276057,295.48654,-28.697706,35.80339,SIT
2722334992000,1.939935,5.24533747008156,4.78977998433459,6.56089075278496,-0.048563786,-0.0012217305,0.0012217305,295.53415,-28.716002,35.804363,SIT
2722339995000,1.944938,5.27869624398249,4.77310062226477,6.56803903659737,-0.03848451,-0.0061086523,0.0012217305,295.58218,-28.738832,35.80385,SIT
2722345042000,1.949985,5.30333353587786,4.76586271501272,6.57646376386768,-0.026267206,-0.0027488936,0.0070249503,295.62463,-28.758339,35.800743,SIT
2722350748000,1.955691,5.32816319176663,4.76089666975645,6.58639569881861,-0.026572637,-0.0036651916,0.01282817,295.66837,-28.777098,35.79949,SIT
2722354970000,1.959913,5.34571693922946,4.75640572013569,6.5986449248849,-0.009468411,-0.0061086523,0.007330383,295.70023,-28.791777,35.805595,SIT
2722359977000,1.96492,5.36604994523867,4.7505963201781,6.61607327641144,-0.011301007,-0.011301007,0.011301007,295.72803,-28.799364,35.814648,SIT
2722365055000,1.969998,5.38667127627817,4.74470454207051,6.6337487645384,-0.007330383,0.0009162979,0.018936822,295.7479,-28.809267,35.819744,SIT
2722370061000,1.975004,5.39921174249764,4.73911466899969,6.64700643383664,0.00030543262,-0.00061086525,0.026572637,295.77017,-28.81866,35.82939,SIT
2722374970000,1.979913,5.39181751299151,4.73418520839887,6.64947122847856,0.0033597588,0.005192355,0.023823744,295.78873,-28.82832,35.83366,SIT
2722379981000,1.984924,5.3842696449827,4.72915332266436,6.65198723702422,0.009162978,0.01038471,0.018020526,295.80225,-28.831644,35.843006,SIT
2722385167000,1.99011,5.37645818150362,4.72394570753382,6.6545911125616,-0.0030543262,-0.00061086525,0.022602014,295.81552,-28.830322,35.85561,SIT
2722389928000,1.994871,5.35848219516175,4.72942676067966,6.65789617964865,0.009468411,0.01282817,0.014966198,295.8274,-28.838888,35.85796,SIT
2722394966000,1.999909,5.32606063148699,4.7479532717673,6.66252778323894,0.004581489,0.020463986,0.0143553335,295.83923,-28.838964,35.865704,SIT
2722399974000,2.004917,5.30199993875993,4.76855069945021,6.65480438649969,0.009468411,0.026267206,0.015577064,295.84967,-28.842234,35.866096,SIT
2722404991000,2.009934,5.29221648228467,4.79300946833639,6.62545365951945,-0.0015271631,0.029932396,0.008246681,295.86136,-28.842865,35.86352,SIT
2722409920000,2.014863,5.27375075533463,4.80936371823472,6.59896309747818,-0.0027488936,0.028405234,0.0036651916,295.87708,-28.85101,35.8562,SIT
2722415058000,2.020001,5.24034254243453,4.81413642686712,6.57510005266731,-0.004276057,0.032375857,0.006414085,295.89066,-28.856695,35.846878,SIT
2722420594000,2.025537,5.21319698211631,4.81918831069305,6.56422114283724,0.00061086525,0.032070424,0.008552114,295.91528,-28.871088,35.83667,SIT
2722424987000,2.02993,5.20147150027871,4.82309675022297,6.57203806270903,0.008857546,0.032986723,0.008857546,295.9383,-28.885517,35.82557,SIT
2722429932000,2.034875,5.18708052742629,4.82937242016577,6.58192773869478,0.0030543262,0.03604105,0.0143553335,295.96393,-28.90102,35.812523,SIT
2722435058000,2.040001,5.16647799807995,4.84482426339314,6.59737968948694,-0.0036651916,0.031154128,0.0143553335,295.99216,-28.918728,35.800407,SIT
2722439944000,2.044887,5.14783751696994,4.85480033008975,6.60927787995978,0.011301007,0.0290161,0.016798794,296.00977,-28.945152,35.789238,SIT
2722445062000,2.050005,5.1310097167149,4.85239640882829,6.61408587309333,0.013744468,0.034513887,0.018325957,296.02676,-28.967123,35.777412,SIT
2722450125000,2.055068,5.11436275448526,4.85001832103095,6.61884219768012,0.013744468,0.022296581,0.010079277,296.040249199121,-28.9792197982824,35.7726928026763,SIT
2722455076000,2.060019,5.09808404423464,4.84769283956055,6.62349330631713,0.011911872,0.022907447,0.019242255,296.05344,-28.991049,35.768078,SIT
2722459956000,2.064899,5.08100824019903,4.84538921447527,6.62572522358263,0.012217305,0.02321288,0.016493361,296.07675,-29.015802,35.754547,SIT
2722465105000,2.070048,5.05870237675915,4.84291077945316,6.61828981499799,0.0106901415,0.02321288,0.011301007,296.10645,-29.037449,35.744946,SIT
2722469979000,2.074922,5.03758783443908,4.84056471375151,6.6112515199035,0.0076358155,0.019547688,0.004886922,296.13748,-29.059917,35.73174,SIT
2722474944000,2.079887,5.01607907313028,4.83817484583836,6.60408181634499,0.008857546,0.014660766,0.007330383,296.16742,-29.081856,35.719604,SIT
2722479991000,2.084934,4.99811287236866,4.83922792383203,6.59743957236866,0.004886922,0.010995574,-0.009773844,296.2048,-29.10736,35.70631,SIT
2722484998000,2.089941,4.99375452507726,4.85230314774586,6.59308122507726,-0.003970624,0.007941248,-0.007330383,296.23645,-29.127457,35.697773,SIT
2722490267000,2.09521,4.99031196102399,4.8652169136982,6.59063324820854,0.0070249503,0.014660766,-0.0067195175,296.2747,-29.157148,35.68094,SIT
2722495052000,2.099995,4.99983005602347,4.86759641881296,6.61204909240316,0.0070249503,0.0015271631,-0.013439035,296.297780874428,-29.1691433406202,35.675570193696,SIT
2722500102000,2.105045,5.00987527645134,4.87010770425278,6.63465097603593,-0.003970624,-0.0076358155,-0.01863139,296.32214,-29.181803,35.669903,SIT
2722505117000,2.11006,5.01985087653962,4.872601584744,6.65709621295046,-0.0036651916,-0.0125227375,-0.024129177,296.36508,-29.212433,35.651363,SIT
2722510036000,2.114979,5.02952639918017,4.87714918987898,6.67418300040992,-0.005192355,-0.011301007,-0.029626964,296.41428,-29.242168,35.634686,SIT
2722515053000,2.119996,5.03890504559828,4.8912171105407,6.66949367720086,0.008246681,-0.011301007,-0.02687807,296.4634,-29.274174,35.62004,SIT
2722520056000,2.124999,5.04763099710896,4.90397899710896,6.6661116834513,-0.00061086525,-0.01863139,-0.035430185,296.50427,-29.3065,35.603687,SIT
2722524989000,2.129932,5.0523407310338,4.9086887310338,6.67082131902104,-0.006414085,-0.021685716,-0.027183503,296.53833,-29.337852,35.58993,SIT
2722530053000,2.134996,5.05577116309957,4.91368483076971,6.67229457187029,-0.006414085,-0.027183503,-0.03604105,296.58655,-29.373913,35.576504,SIT
2722535047000,2.13999,5.04976580598631,4.91969014085259,6.65127582981228,-0.006414085,-0.025045475,-0.030543262,296.6077279659,-29.3898073653846,35.5724822656622,SIT
2722540141000,2.145084,5.04364019742906,4.92581570143772,6.62983620785723,0.0036651916,-0.03604105,-0.030848695,296.62933,-29.40602,35.56838,SIT
2722545063000,2.150006,5.03772142135547,4.93173443115897,6.60912049932509,-0.0030543262,-0.041233405,-0.040011674,296.67346,-29.440975,35.55302,SIT
2722550209000,2.155152,5.03153328204734,4.93792252200527,6.58746201982358,0.0061086523,-0.03604105,-0.031154128,296.71027,-29.47628,35.541374,SIT
2722555063000,2.160006,5.02569627695568,4.94375948138498,6.56703250962142,0.004276057,-0.030848695,-0.03359759,296.75336,-29.511011,35.527397,SIT
2722559922000,2.164865,5.01985325929181,4.9496024532898,6.54658195542441,0.003970624,-0.036651913,-0.045814894,296.79745,-29.547466,35.51461,SIT
2722565102000,2.170045,5.0182467,4.94202681422728,6.54646829228774,0.00030543262,-0.03848451,-0.04734206,296.83533,-29.581594,35.501514,SIT
2722569930000,2.174873,5.0182467,4.93049414177392,6.55338787167515,-0.0027488936,-0.03359759,-0.046120327,296.87512,-29.616825,35.48668,SIT
2722574939000,2.179882,5.0182467,4.91852911353886,6.56056686362865,0.0027488936,-0.040927973,-0.043676864,296.92963,-29.66161,35.474518,SIT
2722579943000,2.184886,5.0182467,4.90657602883368,6.56773868948917,0.01282817,-0.04520403,-0.038789943,296.9808,-29.705154,35.46128,SIT
2722585050000,2.189993,5.02516693640046,4.88948452719907,6.58352984506173,0.014049901,-0.043982297,-0.0421497,297.03333,-29.748217,35.4475,SIT
2722589991000,2.194934,5.03429477624421,4.87122884751157,6.60178562006173,0.012217305,-0.043066,-0.04520403,297.08478,-29.790907,35.435642,SIT
2722595041000,2.199984,5.04699693979774,4.87141579312909,6.61119541326591,0.01038471,-0.044593163,-0.052534413,297.12762,-29.829473,35.415443,SIT
2722600247000,2.20519,5.06182645223081,4.88130208313504,6.61613858407694,-0.0021380284,-0.046120327,-0.056199603,297.16965,-29.864475,35.39543,SIT
2722604992000,2.209935,5.08820241541359,4.88890117355561,6.62703268003563,-0.005192355,-0.037873644,-0.052839845,297.204,-29.893156,35.371136,SIT
2722609995000,2.214938,5.12234752750827,4.89621798147111,6.64166634680071,-0.025350908,-0.038789943,-0.05375614,297.24243,-29.916553,35.3483,SIT
2722615056000,2.219999,5.15688848539577,4.90361961346399,6.65646966231102,-0.03726278,-0.03756821,-0.049785517,297.2766,-29.93934,35.325714,SIT
2722620002000,2.224945,5.1906445766251,4.91085305978621,6.67093660530924,-0.04642576,-0.038179077,-0.048563786,297.31204,-29.958784,35.30356,SIT
2722624985000,2.229928,5.22093172819454,4.91981045201893,6.69575996426342,-0.055588737,-0.04428773,-0.03848451,297.34006,-29.977324,35.289337,SIT
2722630097000,2.23504,5.25050972622092,4.92966975037761,6.72533801376498,-0.069027774,-0.044898596,-0.044593163,297.37088,-29.995514,35.271667,SIT
2722634995000,2.239938,5.26465262419805,4.92856270613668,6.73948092419805,-0.071776666,-0.03970624,-0.04153884,297.39426,-30.004951,35.264442,SIT
2722640153000,2.245096,5.27449470275951,4.92364169254832,6.74932300275951,-0.077579886,-0.04184427,-0.043982297,297.4222,-30.013063,35.25704,SIT
2722645038000,2.249981,5.283693274885,4.91904244843888,6.73446756278751,-0.081855945,-0.040011674,-0.038179077,297.44147,-30.018353,35.255894,SIT
2722650149000,2.255092,5.29327476158364,4.91425175511402,6.71051384604091,-0.08674286,-0.03726278,-0.043982297,297.4646,-30.024948,35.25247,SIT
2722654996000,2.259939,5.31213481979198,4.90643774483408,6.68760444645864,-0.090713486,-0.03604105,-0.03848451,297.47806,-30.025896,35.24994,SIT
2722659990000,2.264933,5.33582300172363,4.89696240280337,6.66391621505696,-0.08582657,-0.024740042,-0.04428773,297.49332,-30.03103,35.241554,SIT
2722665077000,2.27002,5.34956698807098,4.89660263442551,6.67015282115249,-0.077579886,-0.028405234,-0.03359759,297.50623,-30.032146,35.242577,SIT
2722669993000,2.274936,5.35783825307449,4.90073818056044,6.6908307677442,-0.08124508,-0.03573562,-0.03726278,297.5229,-30.035633,35.2384,SIT
2722675649000,2.280592,5.36575530794673,4.88960817380688,6.6982782408768,-0.08155051,-0.03359759,-0.02443461,297.5298,-30.033777,35.2388,SIT
2722680068000,2.285011,5.37045219977802,4.86612322419534,6.68888421198668,-0.079107046,-0.027794369,-0.022296581,297.54126,-30.034575,35.23742,SIT
2722684986000,2.289929,5.37812243876801,4.83883933923497,6.67077655861898,-0.09468412,-0.0290161,-0.006414085,297.55127,-30.02061,35.242783,SIT
2722689983000,2.294926,5.38763158330849,4.81031165737705,6.6470034490313,-0.07941248,-0.01863139,-0.004276057,297.5606,-30.016327,35.242027,SIT
2722695004000,2.299947,5.39988447118375,4.78983791383853,6.63401316183259,-0.08155051,-0.017715093,0.0030543262,297.56046,-29.998392,35.24829,SIT
2722700242000,2.305185,5.41479193852402,4.77493060215949,6.62904404064388,-0.08124508,-0.006414085,0.015271631,297.55386,-29.983305,35.250954,SIT
2722705082000,2.310025,5.41779348821562,4.75853330108204,6.61107538168404,-0.06658431,-0.010995574,0.015271631,297.55566,-29.963577,35.261623,SIT
2722710068000,2.315011,5.41309656439111,4.73974516437143,6.58289305400354,-0.070554934,-0.0033597588,0.021380283,297.54736,-29.93718,35.269867,SIT
2722715068000,2.320011,5.38266627120332,4.72623772473029,6.57674672605809,-0.06627888,-0.0033597588,0.01863139,297.5429344638,-29.9267248595308,35.2744652277716,SIT
2722719999000,2.324942,5.33041372139235,4.7175289285385,6.58980985214385,-0.060170226,0.008246681,0.017715093,297.53857,-29.916414,35.279,SIT
2722724982000,2.329925,5.29426225188777,4.71264504193315,6.60612395225913,-0.06291912,0.018936822,0.02443461,297.52383,-29.889542,35.28912,SIT
2722730097000,2.33504,5.28920909199505,4.71517167464411,6.62886327730555,-0.055588737,0.034208454,0.025045475,297.5073,-29.870556,35.300613,SIT
2722734983000,2.339926,5.2843821635032,4.71758518929235,6.6505845563235,-0.052839845,0.03634648,0.02565634,297.48944,-29.850494,35.307194,SIT
2722739990000,2.344933,5.27943569789561,4.72005847374665,6.67284375485868,-0.06291912,0.035124753,0.02321288,297.46994,-29.830128,35.31052,SIT
2722745663000,2.350606,5.28243633268094,4.7382128394051,6.68180349098925,-0.053450707,0.030848695,0.022602014,297.44583,-29.81508,35.307186,SIT
2722750214000,2.355157,5.2908820512305,4.76354990686465,6.67758064273811,-0.056199603,0.04642576,0.02321288,297.4184,-29.795887,35.29956,SIT
2722754971000,2.359914,5.29971006334658,4.79003385103188,6.67316664820269,-0.06352998,0.04337143,0.028099801,297.39282,-29.77466,35.29226,SIT
2722759990000,2.364933,5.30902429349385,4.81797644421568,6.66850954528631,-0.048563786,0.0421497,0.027183503,297.36545,-29.759008,35.280506,SIT
2722765000000,2.369943,5.31006656172587,4.83797464021906,6.65870913912376,-0.052534413,0.03390302,0.030543262,297.3381,-29.736467,35.273,SIT
2722769957000,2.3749,5.29548809018323,4.84283411381922,6.6392712447231,-0.051923547,0.03726278,0.035124753,297.3089,-29.718395,35.263515,SIT
2722774916000,2.379859,5.27221356679881,4.8476372708226,6.62183145793855,-0.05497787,0.03390302,0.039095376,297.2956,-29.70697,35.258125,SIT
2722779963000,2.384906,5.23389113057483,4.8524275190783,6.60746036303271,-0.044593163,0.041233405,0.045814894,297.27753,-29.697386,35.251038,SIT
2722784927000,2.38987,5.20812613565592,4.85047038966684,6.5959343905082,-0.04153884,0.048258353,0.043676864,297.2656,-29.689844,35.24302,SIT
2722789955000,2.394898,5.2034695040617,4.83650044625985,6.58894940664861,-0.044593163,0.044898596,0.039095376,297.2533,-29.682535,35.236618,SIT
2722794957000,2.3999,5.1988369521058,4.82260274201924,6.58200054243509,-0.03634648,0.04642576,0.043066,297.24158,-29.681498,35.22496,SIT
2722799997000,2.40494,5.19416920683236,4.80859945745854,6.57499888796963,-0.04734206,0.05009095,0.040927973,297.23328,-29.677738,35.21204,SIT
2722804959000,2.409902,5.18530435659936,4.79851280599941,6.56809177088089,-0.036651913,0.05222898,0.040011674,297.22366,-29.679373,35.200325,SIT
2722809939000,2.414882,5.1620418880597,4.80083901641791,6.56111309104478,-0.03726278,0.063224554,0.03023783,297.21466,-29.678356,35.184177,SIT
2722815458000,2.420401,5.1362616543508,4.80341699940981,6.55337908823042,-0.027183503,0.057726767,0.025961773,297.21564,-29.671835,35.1809,SIT
2722819950000,2.424893,5.11527872088089,4.80551525989172,6.54708426296459,-0.015271631,0.064446285,0.022907447,297.21408,-29.667469,35.171005,SIT
2722824957000,2.4299,5.09312719846285,4.80697907218901,6.54500453088528,-0.005497787,0.06994407,0.015271631,297.21713,-29.667063,35.163918,SIT
2722829967000,2.43491,5.07946942220325,4.80242652764019,6.57687262795332,-0.007330383,0.06169739,0.008552114,297.22226,-29.667181,35.15815,SIT
2722835261000,2.440204,5.06472608439243,4.79973594450946,6.60764537109811,-0.015577064,0.05100725,0.002443461,297.23386,-29.674273,35.145683,SIT
2722839943000,2.444886,5.04832722635092,4.82023451706135,6.60354565658773,-0.01160644,0.049480084,0.015577064,297.2417,-29.681084,35.135498,SIT
2722844969000,2.449912,5.03072349706501,4.84223917866874,6.59914472426625,-0.008246681,0.04734206,0.0027488936,297.25092,-29.692808,35.115463,SIT
2722850122000,2.455065,5.02353702646176,4.86300997318638,6.63271122540619,-0.009162978,0.05222898,-0.0033597588,297.25354,-29.70055,35.098057,SIT
2722855075000,2.460018,5.01862826157508,4.8826452377626,6.67198195958812,-0.009162978,0.042455133,-0.008857546,297.26312,-29.71132,35.082794,SIT
2722859943000,2.464886,5.01118909965807,4.87711389965807,6.69197272608167,-0.0070249503,0.03970624,-0.0070249503,297.2763,-29.72751,35.061924,SIT
2722865075000,2.470018,5.00310977667017,4.86903457667017,6.71136308437993,-0.020158553,0.029321533,0.0009162979,297.2929,-29.739979,35.0456,SIT
2722869953000,2.474896,4.99543032664387,4.86135512664387,6.72979374840545,-0.015882496,0.029932396,0.005192355,297.3028,-29.760113,35.019684,SIT
2722874921000,2.479864,4.98760918934771,4.85353398934771,6.74856446158272,-0.023823744,0.032986723,0.0076358155,297.3126,-29.773306,34.99719,SIT
2722879969000,2.484912,4.97966210781168,4.84558690781168,6.76763744067267,-0.021991149,0.020158553,0.0033597588,297.3263,-29.789637,34.97826,SIT
2722885120000,2.490063,4.97155287306681,4.83747767306681,6.7870995871252,-0.016798794,0.01863139,0.009773844,297.33334,-29.80222,34.95885,SIT
2722889940000,2.494883,4.98161667004337,4.84003883640482,6.80496138479036,-0.021685716,0.01985312,0.010079277,297.3403,-29.816858,34.93618,SIT
2722894946000,2.499889,4.99547921286747,4.84465970009639,6.82344488780723,-0.024740042,0.017104227,0.015577064,297.34525,-29.830427,34.917282,SIT
2722900000000,2.504943,5.00665802542141,4.85342932542141,6.82069831407501,-0.026267206,0.016187929,0.018325957,297.34894,-29.833456,34.900436,SIT
2722904925000,2.509868,5.01659607562158,4.86336737562158,6.81076031576064,-0.022296581,0.01282817,0.0061086523,297.35638,-29.838814,34.88347,SIT
2722909944000,2.514887,5.01428077296072,4.86303500542166,6.7991949341663,-0.027794369,0.007330383,0.0070249503,297.35965,-29.837347,34.87356,SIT
2722914970000,2.519913,5.00953600997585,4.86066258677116,6.78733308863424,-0.028405234,0.0009162979,0.0036651916,297.36832,-29.840902,34.862003,SIT
2722919947000,2.52489,5.00483750512593,4.8583132975504,6.77558688783577,-0.025961773,-0.004886922,0.0030543262,297.3816,-29.843884,34.854824,SIT
2722924944000,2.529887,5.0001201194046,4.85595456774607,6.76379348510523,-0.021991149,-0.0076358155,0.0061086523,297.3953,-29.847063,34.848495,SIT
2722929972000,2.534915,4.98842708254028,4.86966230990295,6.73633843551305,-0.018936822,-0.02107485,0.0036651916,297.4158,-29.85138,34.84756,SIT
2722934953000,2.539896,4.97494308891925,4.88764107757467,6.70487562728729,-0.007330383,-0.016493361,-0.004886922,297.43372,-29.859016,34.84249,SIT
2722939937000,2.54488,4.97366428399832,4.90035150247146,6.68758486647817,-0.0067195175,-0.021685716,-0.015271631,297.4553,-29.868895,34.838203,SIT
2722944993000,2.549936,4.97873500352916,4.9104929944811,6.67744348036444,-0.009468411,-0.021991149,-0.01740966,297.47473,-29.880405,34.831684,SIT
2722949993000,2.554936,4.98530668968824,4.91648009532356,6.66072196925649,-0.014660766,-0.026267206,-0.00580322,297.50314,-29.897152,34.8266,SIT
2722954964000,2.559907,4.99232966940401,4.92116204106019,6.64199399075531,-0.01863139,-0.035430185,-0.0067195175,297.53635,-29.916004,34.820145,SIT
2722959934000,2.564877,4.99935123632966,4.92584304494492,6.62326977970102,-0.005192355,-0.03726278,-0.007941248,297.5594,-29.939695,34.804893,SIT
2722965254000,2.570197,5.00686727979937,4.93085369699056,6.60322696223446,-0.015271631,-0.02687807,-0.014966198,297.58337,-29.958359,34.787968,SIT
2722969950000,2.574893,5.01541609969104,4.92868241493306,6.59504665015448,-0.015271631,-0.027794369,-0.008246681,297.6064,-29.979254,34.776375,SIT
2722974941000,2.579884,5.02526106564367,4.92375988055613,6.59012416717817,-0.03176499,-0.0290161,-0.007330383,297.6306,-29.99643,34.760544,SIT
2722979971000,2.584914,5.02428606036036,4.91894136036036,6.56054395045045,-0.03176499,-0.040927973,-0.015577064,297.6607,-30.020927,34.746674,SIT
2722984949000,2.589892,5.01956644719335,4.91422174719335,6.5227866015741,-0.031154128,-0.029932396,-0.015271631,297.6833,-30.039871,34.729763,SIT
2722989943000,2.594886,5.0283805171367,4.91965786633372,6.49196079518214,-0.03359759,-0.022602014,-0.014660766,297.70975,-30.056875,34.712307,SIT
2722994974000,2.599917,5.04253466317078,4.92909394726792,6.46365240458284,-0.046731193,-0.0290161,-0.024129177,297.7392,-30.07327,34.69414,SIT
2723000883000,2.605826,5.05104891771406,4.95241466339356,6.46698315551846,-0.050396383,-0.034208454,-0.01740966,297.76523,-30.089924,34.67877,SIT
2723004986000,2.609929,5.05490736537706,4.97170649882168,6.47855821648665,-0.051923547,-0.026267206,-0.018325957,297.79422,-30.107197,34.65926,SIT
2723009978000,2.614921,5.0596366920296,4.987646294453,6.4788739297661,-0.059864793,-0.020158553,-0.021380283,297.84094,-30.11912,34.659218,SIT
2723015056000,2.619999,5.06446665504296,4.99972130285544,6.47162893481154,-0.051618114,-0.027794369,-0.022907447,297.8881,-30.134092,34.66034,SIT
2723019990000,2.624933,5.0691596517952,5.0114538927447,6.46458939067885,-0.05497787,-0.023823744,-0.015882496,297.9321,-30.148266,34.660744,SIT
2723024989000,2.629932,5.07391447359587,5.02334104654616,6.45745710832795,-0.07391469,-0.021380283,-0.015271631,297.97958,-30.162207,34.661438,SIT
2723030041000,2.634984,5.08876061333206,5.02202201392024,6.46492015214231,-0.06872234,-0.018325957,-0.01038471,298.0223,-30.178375,34.66268,SIT
2723035170000,2.640113,5.10990047161438,5.01262658947972,6.48136218783474,-0.07269296,-0.017715093,0.0009162979,298.0625,-30.187181,34.66482,SIT
2723039982000,2.644925,5.12973377207345,5.00381185319434,6.49678801660291,-0.07788532,-0.013744468,0.008857546,298.106,-30.200897,34.66537,SIT
2723045047000,2.64999,5.15060984581102,4.99453366547915,6.51302488749044,-0.079107046,-0.016493361,0.013439035,298.14795,-30.21307,34.668324,SIT
2723050110000,2.655053,5.16972320725191,4.98504531942547,6.52851174168341,-0.08002335,-0.013133603,0.00580322,298.18912,-30.225426,34.67054,SIT
2723054990000,2.659933,5.18615269580153,4.9756570297509,6.54259411492567,-0.07666359,-0.01740966,0.016493361,298.22565,-30.234129,34.678658,SIT
2723059974000,2.664917,5.20293232099237,4.9660686617718,6.556976604319,-0.080634214,-0.020463986,0.023518313,298.2538,-30.234688,34.688126,SIT
2723065054000,2.669997,5.22003514923664,4.95629560612696,6.57163612400562,-0.082161374,-0.01863139,0.0290161,298.2789,-30.23493,34.698494,SIT
2723070427000,2.67537,5.2365113293788,4.941109511738,6.60199009905323,-0.07666359,-0.016493361,0.032070424,298.30283,-30.235172,34.709682,SIT
2723074948000,2.679891,5.24905984510675,4.92437818655202,6.63963599565259,-0.07819075,-0.005497787,0.036957346,298.32202,-30.232407,34.719154,SIT
2723079964000,2.684907,5.25578766647026,4.90914330350464,6.66639737167085,-0.08674286,0.005192355,0.035430185,298.33167,-30.22137,34.725765,SIT
2723084959000,2.689902,5.25088569728954,4.89933928836399,6.66884836905774,-0.08399397,0.021685716,0.030543262,298.3371,-30.212536,34.728474,SIT
2723089938000,2.694881,5.24599943011221,4.88956667747605,6.67129151540196,-0.092240654,0.015577064,0.03481932,298.3338,-30.191307,34.736164,SIT
2723094988000,2.699931,5.24104348529487,4.87965471021673,6.67376950074807,-0.09254608,0.024740042,0.0421497,298.32425,-30.173222,34.736305,SIT
2723099966000,2.704909,5.23169117883645,4.86095012891066,6.68185682116355,-0.090713486,0.025045475,0.036651913,298.32578,-30.152893,34.740517,SIT
2723104975000,2.709918,5.21745242604136,4.8324727719996,6.69609557395864,-0.1020145,0.032986723,0.03756821,298.31998,-30.12778,34.743168,SIT
2723109945000,2.714888,5.21122082483315,4.80994491336814,6.71239189645146,-0.10567969,0.03023783,0.044898596,298.31378,-30.102337,34.751118,SIT
2723115000000,2.719943,5.21441985851781,4.79394982845437,6.73158598164607,-0.10567969,0.038789943,0.043982297,298.3056,-30.077404,34.753235,SIT
2723119938000,2.724881,5.21754484928633,4.77832495618846,6.75033581204982,-0.1001819,0.04795292,0.042760566,298.2906,-30.045023,34.751923,SIT
2723124948000,2.729891,5.22071540492632,4.76247226075464,6.76935903001718,-0.11301007,0.04337143,0.03726278,298.27835,-30.01063,34.750896,SIT
2723129961000,2.734904,5.22388785910262,4.74661007268883,6.78839363913302,-0.112704635,0.040927973,0.043066,298.26117,-29.979227,34.749138,SIT
2723134961000,2.739904,5.22705208628824,4.73078901936166,6.80737888660543,-0.11728613,0.03604105,0.046120327,298.24792,-29.946482,34.74761,SIT
2723140421000,2.745364,5.22564891113007,4.71259849435198,6.81649465219697,-0.11026118,0.052839845,0.04642576,298.23416,-29.914434,34.744343,SIT
2723144975000,2.749918,5.21961644114067,4.69651178173268,6.81247302653419,-0.113926366,0.04550946,0.047036625,298.22568,-29.879494,34.74814,SIT
2723149960000,2.754903,5.21301304568675,4.67890258928489,6.80807078588224,-0.12034045,0.044593163,0.05009095,298.19586,-29.833357,34.749184,SIT
2723154959000,2.759902,5.20639110509014,4.66124394273595,6.80365618186638,-0.11484267,0.038789943,0.056505036,298.1679,-29.789476,34.753696,SIT
2723160059000,2.765002,5.19979407581145,4.64433878011585,6.79912076720264,-0.12614368,0.03604105,0.05681047,298.13562,-29.745697,34.756195,SIT
2723164972000,2.769915,5.19509510263657,4.63963985600719,6.79442169589534,-0.11178834,0.030543262,0.052534413,298.10504,-29.709328,34.760925,SIT
2723170094000,2.775037,5.1899472215582,4.63585657701695,6.78968309289781,-0.11453723,0.04184427,0.050396383,298.05725,-29.665277,34.755836,SIT
2723174957000,2.7799,5.18262289470953,4.64318088856981,6.7867534080458,-0.11911872,0.04153884,0.05131268,298.01395,-29.625063,34.75458,SIT
2723180091000,2.785034,5.17489040570251,4.65091336142862,6.78366046088762,-0.12217305,0.04153884,0.045814894,297.971,-29.586899,34.749435,SIT
2723184982000,2.789925,5.16752390711792,4.65827984462932,6.78071390760545,-0.11484267,0.03940081,0.05009095,297.92618,-29.54886,34.746906,SIT
2723194971000,2.799914,5.15247914032963,4.67332457999874,6.77469609514673,-0.099571034,0.04795292,0.040927973,297.85245,-29.472853,34.73404,SIT
2723200086000,2.805029,5.1447752678577,4.68102843638222,6.7716145944233,-0.09590584,0.044898596,0.03726278,297.8188,-29.440056,34.72827,SIT
2723204880000,2.809823,5.14629833503445,4.67595236384582,6.75303675236865,-0.092240654,0.033292156,0.030543262,297.7875,-29.4091,34.72283,SIT
2723209856000,2.814799,5.15142932607666,4.66569086393196,6.72738313652024,-0.084910266,0.036651913,0.034513887,297.7523,-29.379148,34.716125,SIT
2723214903000,2.819846,5.1483764297497,4.67574203394758,6.70713584300355,-0.08032878,0.035430185,0.0290161,297.7429,-29.352158,34.70756,SIT
2723219864000,2.824807,5.1436944248916,4.68978736411115,6.68840880130075,-0.086132,0.024129177,0.030848695,297.73193,-29.3232,34.70269,SIT
2723224888000,2.829831,5.13897979589041,4.71522625287671,6.67331596287671,-0.07819075,0.024129177,0.028405234,297.72195,-29.300484,34.69626,SIT
2723229910000,2.834853,5.1342737592955,4.74346188277887,6.65919819706458,-0.067500606,0.026267206,0.02107485,297.71484,-29.278452,34.691467,SIT
2723234889000,2.839832,5.13681176795193,4.76102737557336,6.64859357823736,-0.06566802,0.02687807,0.027488936,297.71005,-29.258802,34.688313,SIT
2723239892000,2.844835,5.14161033890836,4.77542278781172,6.63899658663996,-0.061391957,0.020158553,0.008552114,297.71548,-29.2486,34.680885,SIT
2723244905000,2.849848,5.13938603388278,4.78554449194139,6.63000936776557,-0.05375614,0.018325957,0.017104227,297.71777,-29.239744,34.676147,SIT
2723249923000,2.854866,5.13498517435897,4.79434602717949,6.62120764871795,-0.063224554,0.021380283,0.016187929,297.7283,-29.233673,34.667114,SIT
2723254983000,2.859926,5.13023404318671,4.80678235426023,6.6058371970163,-0.0580322,0.018936822,0.014660766,297.74155,-29.233921,34.661133,SIT
2723259984000,2.864927,5.12532349498616,4.82151430652107,6.58619454272532,-0.052839845,0.01985312,0.016187929,297.75272,-29.23194,34.65412,SIT
2723265084000,2.870027,5.12465479372233,4.82458385703492,6.57607576331259,-0.05375614,0.018325957,0.014049901,297.76703,-29.234486,34.64496,SIT
2723270002000,2.874945,5.12622247067869,4.82144842127284,6.57137265059415,-0.05100725,0.019547688,0.01863139,297.77814,-29.237452,34.63649,SIT
2723274946000,2.879889,5.12779843547582,4.81829640939653,6.56664467392071,-0.047036625,0.022602014,0.015577064,297.79498,-29.249659,34.630974,SIT
2723280056000,2.884999,5.12942731494857,4.81503856540625,6.56175795045768,-0.044898596,0.021685716,0.01985312,297.80887,-29.259647,34.628067,SIT
2723284987000,2.88993,5.13099913582532,4.81189484158706,6.55704240576174,-0.03848451,0.024740042,0.017715093,297.82373,-29.27296,34.621914,SIT
2723289983000,2.894926,5.13259167630396,4.80870967748228,6.55226470117831,-0.028405234,0.020463986,0.009773844,297.84055,-29.287594,34.61737,SIT
2723295057000,2.9,5.13606872169155,4.8046563691737,6.57374111007141,-0.034208454,0.018936822,0.01038471,297.85098,-29.301004,34.6125,SIT
2723300083000,2.905026,5.14053260020402,4.80019263049244,6.60945157884633,-0.03604105,0.021685716,0.014660766,297.86243,-29.3178,34.60692,SIT
2723304981000,2.909924,5.14622609921474,4.79565961565489,6.62947117222893,-0.03481932,0.0290161,0.018325957,297.87546,-29.33173,34.60615,SIT
2723309985000,2.914928,5.15346308320749,4.79083506041478,6.63429570228028,-0.0290161,0.022907447,0.0125227375,297.8919,-29.346916,34.60679,SIT
2723315077000,2.92002,5.16082733630323,4.78592566087788,6.63920507618544,-0.027488936,0.025350908,0.009773844,297.90036,-29.355148,34.605705,SIT
2723319997000,2.92494,5.16794283615222,4.78118209337562,6.64394861892178,-0.02076942,0.03573562,0.016187929,297.9073,-29.364914,34.604614,SIT
2723324965000,2.929908,5.17640642996228,4.77389621855439,6.6487692793353,-0.022602014,0.033292156,0.01863139,297.91803,-29.374166,34.604626,SIT
2723330057000,2.935,5.18634930099908,4.76395324369457,6.65374084463248,-0.024740042,0.030848695,0.021380283,297.92465,-29.383278,34.603333,SIT
2723335054000,2.939997,5.1919498049248,4.76099333249779,6.662482524624,-0.030543262,0.028405234,0.01863139,297.92883,-29.388334,34.603825,SIT
2723339987000,2.94493,5.19427175294407,4.76331532900816,6.67409226472034,-0.028099801,0.037873644,0.018020526,297.92957,-29.39365,34.602814,SIT
2723345050000,2.949993,5.19665489156591,4.765698517399,6.68600795782955,-0.032375857,0.023518313,0.015577064,297.93857,-29.39095,34.608143,SIT
2723350082000,2.955025,5.19902343858252,4.76806711387988,6.69785069291261,-0.027183503,0.029626964,0.019242255,297.93976,-29.389881,34.607403,SIT
2723354968000,2.959911,5.20249348891908,4.76010112490942,6.72206267853261,-0.028099801,0.020463986,0.020158553,297.94836,-29.387634,34.612366,SIT
2723359984000,2.964927,5.20732810317029,4.74076241548913,6.76073994592391,-0.025045475,0.02443461,0.011911872,297.9544,-29.38848,34.611786,SIT
2723365078000,2.970021,5.20751925476566,4.73547023774478,6.78490686138283,-0.023823744,0.021380283,0.01038471,297.9626,-29.386614,34.62128,SIT
2723369989000,2.974932,5.20315441265893,4.74420001311369,6.79363668232947,-0.02687807,0.021991149,0.01740966,297.96884,-29.384464,34.62871,SIT
2723374946000,2.979889,5.19366077259846,4.75173266049177,6.80116936049177,-0.030848695,0.027488936,0.013744468,297.97012,-29.378633,34.633488,SIT
2723380075000,2.985018,5.17319003476766,4.7568502781517,6.8062869781517,-0.030543262,0.03145956,0.016493361,297.96777,-29.370764,34.640457,SIT
2723384960000,2.989903,5.16587597507574,4.75768454360735,6.80712124360735,-0.030848695,0.026267206,0.013744468,297.96506,-29.368082,34.64321,SIT
2723389985000,2.994928,5.17559596522925,4.75282462465159,6.80226132465159,-0.03390302,0.027183503,0.0143553335,297.9586,-29.363781,34.64461,SIT
2723395513000,3.000456,5.17337973307025,4.75265392893646,6.80209062893646,-0.028710667,0.025350908,0.014966198,297.95694,-29.364866,34.649803,SIT
2723400076000,3.005019,5.16044595098658,4.75696514461326,6.80640184461326,-0.027183503,0.026267206,0.01160644,297.9554,-29.365093,34.65333,SIT
2723404925000,3.009868,5.14862772439084,4.75597849190214,6.8100333318467,-0.03848451,0.018325957,0.01282817,297.95358,-29.361534,34.661522,SIT
2723409984000,3.014927,5.13920217824522,4.74655311799037,6.81238968762706,-0.028405234,0.018020526,0.014966198,297.95056,-29.363335,34.66704,SIT
2723414979000,3.019922,5.12989587205875,4.73724698185886,6.81471623380672,-0.02687807,0.025961773,0.016798794,297.94498,-29.36394,34.6682,SIT
2723419997000,3.02494,5.12054671401197,4.72789799465007,6.81705349281163,-0.022907447,0.022907447,0.014660766,297.94223,-29.367466,34.671432,SIT
2723424949000,3.029892,5.11333150195343,4.71999976824191,6.8159540507498,-0.027488936,0.016493361,0.020158553,297.93048,-29.370384,34.672157,SIT
2723430083000,3.035026,5.11090617320442,4.71514898411602,6.80625253314917,-0.018936822,0.016798794,0.015271631,297.92157,-29.379047,34.669853,SIT
2723434995000,3.039938,5.10858571842936,4.71050795341358,6.79697052020521,-0.015882496,0.008857546,0.01038471,297.91144,-29.378983,34.66331,SIT
2723439988000,3.044931,5.10622699882597,4.70579039105663,6.78753544475138,-0.011911872,0.0027488936,0.004276057,297.90277,-29.381985,34.655437,SIT
2723445062000,3.050005,5.10626647937889,4.70160279838789,6.77733179193947,0.0061086523,0.012217305,0.0125227375,297.8933,-29.38321,34.64448,SIT
2723450115000,3.055058,5.11344542755415,4.69920978234596,6.7653667117298,0.013744468,0.007941248,0.009468411,297.89288,-29.386274,34.635326,SIT
2723455071000,3.060014,5.12048656492929,4.69686270387697,6.75363131938483,0.013744468,-0.0033597588,0.0027488936,297.89468,-29.39052,34.634632,SIT
2723459983000,3.064926,5.1274651901889,4.69453646306992,6.74200011534962,0.025961773,0.008552114,0.005497787,297.89075,-29.397696,34.630604,SIT
2723465355000,3.070298,5.13188545337278,4.69648323362919,6.73121272658777,0.021685716,0.005497787,-0.004886922,297.89685,-29.402597,34.621372,SIT
2723469990000,3.074933,5.12750798384615,4.70961596217949,6.72683516564103,0.028710667,-0.0021380284,-0.002443461,297.89716,-29.409515,34.613327,SIT
2723474945000,3.079888,5.12208785903041,4.72061420596522,6.72442204881959,0.036651913,-0.004276057,-0.008552114,297.8991,-29.421127,34.60331,SIT
2723480065000,3.085008,5.11256047070825,4.71585036257651,6.73394948688429,0.05467244,0.005192355,-0.0030543262,297.8963,-29.433538,34.594906,SIT
2723484984000,3.089927,5.10391307712095,4.71415110636656,6.74102218164729,0.04337143,0.002443461,-0.005192355,297.90387,-29.446543,34.586243,SIT
2723489985000,3.094928,5.09917455849617,4.73547401961415,6.73154539178828,0.048258353,0.007941248,0.00030543262,297.90414,-29.463993,34.575954,SIT
2723495064000,3.100007,5.09436213376206,4.75712950379421,6.72192079356913,0.043066,-0.00030543262,0.0027488936,297.9068,-29.47818,34.56988,SIT
2723500082000,3.105025,5.0896075073955,4.77852490045016,6.71241178906752,0.054061573,-0.004276057,-0.0021380284,297.908,-29.496786,34.561424,SIT
2723505085000,3.110028,5.08597661669954,4.79901920335306,6.70515019723866,0.05589417,0.00061086525,-0.0067195175,297.90826,-29.51132,34.55337,SIT
2723509981000,3.114924,5.09368355161078,4.8105793642998,6.72056366469428,0.048563786,-0.004276057,-0.008552114,297.91196,-29.52614,34.548172,SIT
2723514966000,3.119909,5.1015305839908,4.82234966706114,6.73625731977318,0.048258353,-0.011301007,-0.0067195175,297.92636,-29.551645,34.539017,SIT
2723519991000,3.124934,5.0883262634198,4.83315539463208,6.72918267803071,0.048258353,-0.011301007,-0.0027488936,297.94003,-29.574924,34.529556,SIT
2723524989000,3.129932,5.06298754113287,4.84329088354685,6.70891180603494,0.049785517,-0.006414085,-0.013744468,297.95764,-29.600327,34.518402,SIT
2723530053000,3.134996,5.04970433254806,4.85956349185827,6.69691536830946,0.035124753,-0.007941248,-0.011911872,297.96982,-29.618313,34.504116,SIT
2723535216000,3.140159,5.04038553595929,4.87820089042593,6.68759662037316,0.03176499,-0.0106901415,-0.011911872,297.98468,-29.64088,34.487186,SIT
2723539982000,3.144925,5.04335669301489,4.89310617732587,6.67567668487059,0.028710667,-0.009162978,-0.008857546,298.00272,-29.663437,34.468315,SIT
2723545044000,3.149987,5.05304556436495,4.90763938318177,6.66114358018387,0.02687807,-0.014049901,-0.0012217305,298.0212,-29.68416,34.45273,SIT
2723550218000,3.155161,5.04365881719899,4.92257332819144,6.67199993642317,0.015577064,-0.005497787,-0.0070249503,298.04465,-29.708107,34.430275,SIT
2723555036000,3.159979,5.02506289060957,4.93652018818136,6.69524478397985,0.012217305,-0.011301007,0.0033597588,298.06525,-29.728434,34.41667,SIT
2723559979000,3.164922,5.00946927132417,4.9445580790076,6.69791335033176,0.0106901415,-0.0070249503,0.0018325958,298.08167,-29.757004,34.391956,SIT
2723565051000,3.169994,4.99545632884893,4.94922901105876,6.68857133990768,0.0030543262,-0.005192355,-0.0018325958,298.0974,-29.78133,34.371033,SIT
2723569989000,3.174932,4.99501074547793,4.96219786226978,6.68735847970985,-0.0061086523,0.0009162979,-0.00030543262,298.11462,-29.80483,34.348145,SIT
2723574945000,3.179888,5.0047777726618,4.98173186564461,6.69224191681243,-0.015882496,0.013133603,0.018020526,298.1264,-29.823534,34.32624,SIT
2723580064000,3.185007,5.01065681215481,4.98554262382461,6.69518143719687,-0.028710667,0.01282817,0.021685716,298.14578,-29.843943,34.302563,SIT
2723584987000,3.18993,5.01376784149263,4.97932048393546,6.69673700059388,-0.03970624,0.007941248,0.02687807,298.158,-29.858517,34.281185,SIT
2723589975000,3.194918,5.01691994678148,4.97301619107196,6.69831310260979,-0.04337143,0.0033597588,0.025961773,298.1752,-29.875683,34.266724,SIT
2723595069000,3.200012,5.02013903746742,4.96657792566564,6.69992269837342,-0.050396383,0.0027488936,0.025045475,298.19098,-29.888468,34.253616,SIT
2723600048000,3.204991,5.0232854553169,4.96028500782936,6.70149595658055,-0.04337143,-0.008552114,0.027794369,298.2113,-29.901688,34.246365,SIT
2723604982000,3.209925,5.02640343596951,4.95404896512917,6.70305499574384,-0.03481932,-0.006414085,0.027794369,298.22968,-29.914234,34.235695,SIT
2723609981000,3.214924,5.03036907309958,4.94357200728291,6.69612795411958,-0.0421497,-0.0033597588,0.022907447,298.25058,-29.92507,34.227043,SIT
2723615075000,3.220018,5.03508115840819,4.92943580056022,6.68199164899063,-0.042455133,-0.008246681,0.022296581,298.27127,-29.938269,34.2205,SIT
2723619945000,3.224888,5.03518267713213,4.89882492720889,6.6691210336469,-0.037873644,-0.009162978,0.025350908,298.28577,-29.946802,34.21445,SIT
2723624942000,3.229885,5.03049331540095,4.84880465525069,6.65661591669116,-0.03268129,-0.014049901,0.022296581,298.30377,-29.956554,34.209255,SIT
2723629926000,3.234869,5.02581615333007,4.79891451407807,6.6441433325592,-0.045814894,-0.025961773,0.025961773,298.31122,-29.96497,34.208782,SIT
2723634969000,3.239912,5.02108362357015,4.74843377934019,6.63152309945778,-0.03604105,-0.035124753,0.026572637,298.32068,-29.980282,34.207687,SIT
2723639917000,3.24486,5.01644024517393,4.69890400034297,6.61914060622244,-0.032375857,-0.03481932,0.028710667,298.32904,-29.990189,34.20789,SIT
2723644971000,3.249914,5.01169739262453,4.64831315494039,6.60649284534705,-0.02107485,-0.03726278,0.026267206,298.34082,-30.004337,34.209896,SIT
2723650902000,3.255845,5.00642259954889,4.63624697552702,6.60516185442006,-0.03145956,-0.043982297,0.010995574,298.3592,-30.014433,34.211914,SIT
2723655104000,3.260047,5.00293144365403,4.66766686823111,6.61563524919754,-0.022907447,-0.03940081,0.009162978,298.37244,-30.028772,34.21354,SIT
2723660126000,3.265069,4.99989501522837,4.70421733807093,6.62835352284256,-0.017104227,-0.03481932,-0.0070249503,298.37042,-30.02196,34.219852,SIT
2723665080000,3.270023,5.00977855612729,4.72892619031821,6.64317883419093,-0.020463986,-0.03359759,-0.013744468,298.36603,-30.013775,34.226933,SIT
2723669968000,3.274911,5.01953042288423,4.75330585721056,6.65780663432634,-0.015882496,-0.02687807,-0.024740042,298.37262,-30.019003,34.22383,SIT
2723674946000,3.279889,5.02946184528931,4.77813441322327,6.67270376793396,-0.022296581,-0.026572637,-0.028099801,298.37988,-30.020903,34.222046,SIT
2723680002000,3.284945,5.04461367892896,4.80519376816865,6.68667229859127,-0.03176499,-0.021991149,-0.03268129,298.3804,-30.032492,34.2191,SIT
2723685132000,3.290075,5.07897314680787,4.83955318479369,6.69648931137976,-0.028405234,-0.022602014,-0.03634648,298.38257,-30.045559,34.21685,SIT
2723689985000,3.294928,5.11695456147886,4.86886922029845,6.70087655964224,-0.031154128,-0.024740042,-0.03023783,298.3889,-30.059134,34.215088,SIT
2723695049000,3.299992,5.17726271307633,4.88742543303998,6.68695927898412,-0.031154128,-0.017715093,-0.02687807,298.39502,-30.074772,34.210213,SIT
2723700071000,3.305014,5.23286913751503,4.90266960059118,6.67175746873748,-0.027183503,-0.024129177,-0.03268129,298.4088,-30.093502,34.209232,SIT
2723704982000,3.309925,5.26114468749499,4.89795705813627,6.64819451042084,-0.04642576,-0.026267206,-0.02687807,298.41595,-30.10393,34.20819,SIT
2723709987000,3.31493,5.28933464165882,4.89404201140564,6.6265630587871,-0.04337143,-0.032375857,-0.01985312,298.42776,-30.120428,34.214783,SIT
2723715064000,3.320007,5.3134248972353,4.89645101432394,6.6217449020215,-0.032986723,-0.03481932,-0.018936822,298.43915,-30.134089,34.22069,SIT
2723720611000,3.325554,5.33974529268196,4.89908302913343,6.61648070750136,-0.034513887,-0.025350908,-0.015882496,298.44516,-30.143196,34.23017,SIT
2723724993000,3.329936,5.36053778823763,4.90116225914879,6.6123221172026,-0.03756821,-0.03390302,-0.013133603,298.45508,-30.153767,34.243942,SIT
2723730070000,3.335013,5.38265765070813,4.90381727126869,6.60602745604635,-0.038789943,-0.029321533,-0.0018325958,298.4551,-30.162897,34.253227,SIT
2723734995000,3.339938,5.38732881590571,4.90848863157373,6.5873424050411,-0.04337143,-0.032986723,0.0027488936,298.45956,-30.171038,34.265194,SIT
2723740070000,3.345013,5.3885375584023,4.91310227590069,6.56848763204817,-0.029321533,-0.032070424,0.004886922,298.45856,-30.179256,34.281532,SIT
2723745062000,3.350005,5.35063098860201,4.9154714164131,6.55427264054215,-0.029626964,-0.03390302,0.002443461,298.45877,-30.183165,34.298706,SIT
2723750113000,3.355056,5.31227640445513,4.91786855758462,6.53988964332722,-0.025961773,-0.022907447,0.0030543262,298.45706,-30.191523,34.31405,SIT
2723755048000,3.359991,5.27480266207443,4.92021064661282,6.52583696242133,-0.021991149,-0.020158553,0.0033597588,298.45807,-30.200083,34.330574,SIT
2723760226000,3.365169,5.23710048596653,4.92106568596653,6.51187524649163,-0.0106901415,-0.015271631,0.0106901415,298.45413,-30.209263,34.344925,SIT
2723765000000,3.369943,5.22019389700471,4.90415909700471,6.50764859925118,-0.008552114,-0.013439035,0.0030543262,298.45416,-30.219692,34.356293,SIT
2723769926000,3.374869,5.20274901698253,4.88671421698253,6.50328737924563,-0.0143553335,-0.005497787,0.0030543262,298.45438800966,-30.2283598367881,34.3569259746428,SIT
2723774938000,3.379881,5.18026314810863,4.89214871910766,6.51461754948594,-0.007941248,0.0027488936,0.0018325958,298.45462,-30.237179,34.35757,SIT
2723779976000,3.384919,5.15686454558681,4.90150811125121,6.52865666213385,-0.004886922,0.009162978,0.005497787,298.45737,-30.255575,34.359947,SIT
2723784951000,3.389894,5.15420199308093,4.903325,6.52198343645649,-0.013133603,-0.00061086525,-0.00061086525,298.46097,-30.271568,34.359756,SIT
2723790593000,3.395536,5.15685529014437,4.903325,6.50871681261049,-0.009162978,0.0018325958,-0.005192355,298.45917,-30.28933,34.356266,SIT
2723794971000,3.399914,5.15891415837262,4.903325,6.49842236397564,-0.007330383,0.0018325958,-0.0018325958,298.45963123051,-30.2980804652339,34.3561064142436,SIT
2723800085000,3.405028,5.16131914972009,4.903325,6.48639728167354,-0.0076358155,0.00580322,-0.0018325958,298.46017,-30.308302,34.35592,SIT
2723804943000,3.409886,5.1585412731889,4.90668283199536,6.50364464135796,-0.015577064,0.0021380284,-0.0012217305,298.46417,-30.326796,34.3554,SIT
2723809923000,3.414866,5.15392845125254,4.91129579843312,6.53132195831318,-0.014966198,0.00061086525,-0.006414085,298.4675,-30.347279,34.352997,SIT
2723815002000,3.419945,5.15904448303431,4.90954085583884,6.5476811128423,-0.020463986,0.004276057,-0.0012217305,298.46576,-30.366007,34.352833,SIT
2723819968000,3.424911,5.16902426209212,4.90455088815444,6.55766078769279,-0.01985312,0.008857546,-0.0061086523,298.46832,-30.38834,34.35004,SIT
2723824943000,3.429886,5.16421407113288,4.88880129392165,6.57826722738288,-0.01985312,0.017104227,-0.010995574,298.46066,-30.4095,34.34009,SIT
2723829992000,3.434935,5.15444962936187,4.86927261429725,6.60267820436187,-0.032070424,0.018020526,-0.009773844,298.45337,-30.42718,34.331203,SIT
2723834951000,3.439894,5.14865028800795,4.86868978194734,6.59330921884749,-0.03940081,0.025350908,-0.010995574,298.44113,-30.44357,34.31371,SIT
2723839956000,3.444899,5.14388780549429,4.87345196610035,6.57426028332837,-0.03481932,0.031154128,-0.011301007,298.42865,-30.45895,34.297203,SIT
2723844970000,3.449913,5.15304117509398,4.86086675323308,6.58684923345865,-0.05131268,0.04337143,-0.0067195175,298.40695,-30.462833,34.278057,SIT
2723850177000,3.45512,5.16710154323308,4.84211998721805,6.61028269097744,-0.04550946,0.04428773,-0.011911872,298.3895,-30.473995,34.25898,SIT
2723854938000,3.459881,5.16448754499582,4.83209446494285,6.63853846069139,-0.06047566,0.035430185,-0.0106901415,298.37402,-30.475557,34.24163,SIT
2723860235000,3.465178,5.15270217531828,4.82502330712759,6.67389422515565,-0.064751714,0.03604105,-0.012217305,298.35883,-30.481869,34.221188,SIT
2723864983000,3.469926,5.14213828344949,4.8186850293653,6.70558559190596,-0.057421334,0.034208454,-0.018325957,298.34027,-30.482105,34.205235,SIT
2723869951000,3.474894,5.13108491049159,4.81205306560729,6.73874538761268,-0.051923547,0.037873644,-0.013439035,298.31818,-30.479206,34.190075,SIT
2723874941000,3.479884,5.11889658750755,4.80286220384848,6.76592049615152,-0.06047566,0.028710667,-0.013133603,298.30246,-30.476732,34.176865,SIT
2723879975000,3.484918,5.1043258809188,4.78829154797501,6.78049115202499,-0.055283304,0.022602014,-0.013133603,298.2844,-30.47746,34.163433,SIT
2723884950000,3.489893,5.09169352012609,4.77803483416586,6.79629100109117,-0.055283304,0.018020526,-0.005192355,298.25748,-30.467861,34.149006,SIT
2723889942000,3.494885,5.08241958491756,4.77571636246848,6.81483899255577,-0.05131268,0.005497787,-0.003970624,298.23578,-30.461554,34.137093,SIT
2723894968000,3.499911,5.07308248588749,4.77338209989816,6.83351331248788,-0.043676864,0.004581489,-0.004581489,298.20795,-30.45257,34.1239,SIT
2723900004000,3.504947,5.06372680926285,4.77104319295344,6.8522247878516,-0.035430185,0.0012217305,-0.004581489,298.18314,-30.444351,34.11477,SIT
2723904915000,3.509858,5.05390944918999,4.77030781480118,6.86551268519882,-0.032375857,-0.00061086525,-0.006414085,298.1591,-30.4375,34.106003,SIT
2723909942000,3.514885,5.04124834735956,4.77537222909215,6.86044827090785,-0.020158553,-0.0027488936,-0.009468411,298.1365,-30.434652,34.098114,SIT
2723914955000,3.519898,5.02862250620661,4.78042253918578,6.85539796081422,-0.018325957,-0.004276057,-0.0018325958,298.10846,-30.426342,34.088955,SIT
2723919948000,3.524891,5.01604703745003,4.78545270042605,6.85036779957395,-0.033292156,-0.01160644,-0.005192355,298.0863,-30.419573,34.079475,SIT
2723924930000,3.529873,5.00677673269138,4.80354934193548,6.83984406914781,-0.025961773,-0.01160644,0.00030543262,298.05875,-30.414925,34.07186,SIT
2723929985000,3.534928,5.00211503456909,4.84084219677419,6.82119761739047,-0.021685716,-0.016798794,0.004276057,298.0355,-30.407305,34.066463,SIT
2723934922000,3.539865,5.00553118487395,4.86984662184874,6.79784285966386,-0.025961773,-0.01863139,0.009162978,298.0143,-30.402073,34.058697,SIT
2723939941000,3.544884,5.02499699805609,4.88444593092032,6.7637776357801,-0.025961773,-0.01282817,0.0143553335,297.99167,-30.397821,34.051315,SIT
2723944972000,3.549915,5.04206847614573,4.89530437580002,6.72962327985994,-0.024740042,-0.009468411,0.015577064,297.9829,-30.397068,34.039696,SIT
2723950072000,3.555015,5.05505713317968,4.89963388293591,6.6949869063115,-0.03176499,-0.016493361,0.0143553335,297.97452,-30.393988,34.0299,SIT
2723955059000,3.560002,5.06831704847897,4.90270030183238,6.66295888449878,-0.04734206,-0.011911872,0.017104227,297.96674,-30.391747,34.02041,SIT
2723959937000,3.56488,5.08500796503675,4.89793147920069,6.64388341968661,-0.04795292,-0.0067195175,0.022907447,297.95987,-30.390865,34.012856,SIT
2723964985000,3.569928,5.10228056585341,4.89299646143834,6.62414316827787,-0.04550946,0.0027488936,0.024740042,297.96075,-30.384863,34.002743,SIT
2723969948000,3.574891,5.11926232454063,4.88814454124132,6.60473531016742,-0.04184427,0.010079277,0.02107485,297.9609,-30.379196,33.99218,SIT
2723974940000,3.579883,5.13480760077484,4.88171215019832,6.58802321245273,-0.05589417,0.019242255,0.027794369,297.9554,-30.368174,33.981445,SIT
2723979971000,3.584914,5.14369642782031,4.86837918807306,6.58357886854072,-0.062308256,0.022602014,0.03023783,297.95187,-30.361269,33.969288,SIT
2723985002000,3.589945,5.15258525486579,4.85504622594779,6.57913452462872,-0.070249505,0.02565634,0.02565634,297.94666,-30.350166,33.96136,SIT
2723989942000,3.594885,5.1613133020939,4.84195442851213,6.5747705693663,-0.06780604,0.014049901,0.033292156,297.93988,-30.337545,33.958748,SIT
2723994975000,3.599918,5.17020566276174,4.82861616606402,6.57032445867079,-0.064751714,0.015577064,0.02107485,297.9381,-30.328793,33.953136,SIT
2724000001000,3.604944,5.15404598140714,4.83106811364885,6.59147636824424,-0.056199603,0.015271631,0.019242255,297.93427,-30.31878,33.953655,SIT
2724005305000,3.610248,5.13330628570006,4.83642578281219,6.61826471983669,-0.049785517,0.01160644,0.019547688,297.93356,-30.311129,33.95281,SIT
2724010085000,3.615028,5.13786494532962,4.84098434724159,6.64105773238399,-0.061086524,0.012217305,0.015882496,297.92786,-30.297426,33.95455,SIT
2724015317000,3.62026,5.14252382678984,4.8464172330254,6.66612121963049,-0.06414085,0.003970624,0.01038471,297.93057,-30.284935,33.958973,SIT
2724019945000,3.624888,5.13362304751481,4.86866918121297,6.69282355745557,-0.04795292,0.0009162979,0.012217305,297.93097,-30.273958,33.96255,SIT
2724025324000,3.630267,5.12343852384683,4.89359542384683,6.72337713005582,-0.048563786,-0.008246681,0.009468411,297.9354,-30.259785,33.966656,SIT
2724030049000,3.634992,5.11900699118597,4.88916389118598,6.73667177431201,-0.04184427,-0.013439035,0.0030543262,297.94003,-30.25146,33.970036,SIT
2724034946000,3.639889,5.11441414135736,4.88457104135736,6.75045037175595,-0.055588737,-0.008857546,-0.0015271631,297.94507,-30.243244,33.969166,SIT
2724039986000,3.644929,5.09797999773201,4.880162849433,6.75565760870906,-0.05955936,-0.014660766,0.0033597588,297.95242,-30.238234,33.972214,SIT
2724045643000,3.650586,5.07832075520276,4.87524803880069,6.76057236802141,-0.05375614,-0.015882496,-0.0018325958,297.96176,-30.235327,33.97052,SIT
2724050052000,3.654995,5.086278554754,4.86402352684878,6.75770195108663,-0.046731193,-0.015882496,0.0012217305,297.96625,-30.228195,33.971222,SIT
2724054924000,3.659867,5.10036186510715,4.84994019198612,6.75300747345306,-0.04734206,-0.009773844,-0.00030543262,297.9723,-30.222721,33.968994,SIT
2724059976000,3.664919,5.11496549480833,4.83533653686991,6.74813955452762,-0.053450707,-0.023823744,0.009162978,297.97827,-30.215334,33.97169,SIT
2724065084000,3.670027,5.12973100164,4.82057100434148,6.74321767608914,-0.058643065,-0.031154128,-0.0009162979,297.98734,-30.2121,33.967804,SIT
2724069949000,3.674892,5.13490626356589,4.81539573643411,6.72295151823434,-0.055588737,-0.025045475,-0.0021380284,297.9984,-30.202087,33.970417,SIT
2724074944000,3.679887,5.13726824031008,4.81303375968992,6.69697034129759,-0.04917465,-0.022296581,0.00030543262,298.0132,-30.193325,33.974045,SIT
2724080070000,3.685013,5.1396921627907,4.8106098372093,6.67030777613687,-0.040317107,-0.015577064,-0.0076358155,298.0225,-30.182354,33.978687,SIT
2724084970000,3.689913,5.14200921705426,4.80829278294574,6.64482073569842,-0.047036625,-0.021991149,-0.007330383,298.03085,-30.167875,33.98719,SIT
2724089942000,3.694885,5.14914590628057,4.80115626081002,6.61432446219918,-0.030543262,-0.02076942,-0.0061086523,298.03796,-30.162071,33.99094,SIT
2724094993000,3.699936,5.15861047818431,4.79169193597143,6.58119895466641,-0.02687807,-0.005192355,-0.0033597588,298.04276,-30.152063,33.99289,SIT
2724100123000,3.705066,5.17062900227894,4.79276849544211,6.56641556481313,-0.025350908,-0.015882496,-0.0030543262,298.05884,-30.147837,34.006,SIT
2724104964000,3.709907,5.18315105888112,4.79902951557109,6.56171981606064,-0.0143553335,-0.01282817,-0.007330383,298.06903,-30.147018,34.011734,SIT
2724109934000,3.714877,5.19600679557041,4.80545737552585,6.55689893787434,-0.011911872,-0.022907447,-0.004886922,298.0829,-30.143639,34.026752,SIT
2724115750000,3.720693,5.21105085283095,4.81297939433809,6.55125744340119,-0.009773844,-0.028405234,0.0061086523,298.0937,-30.141882,34.040337,SIT
2724119945000,3.724888,5.22190192233026,4.81840492200614,6.54718831181336,-0.0021380284,-0.015882496,0.0036651916,298.10556,-30.143978,34.049667,SIT
2724124955000,3.729898,5.23486112571322,4.82488451524022,6.54232863380263,0.0009162979,-0.018020526,0.014049901,298.11478,-30.141216,34.0671,SIT
2724129976000,3.734919,5.25130501413768,4.83310645706884,6.5569483926721,0.0009162979,-0.020158553,0.01282817,298.12207,-30.14626,34.083744,SIT
2724134965000,3.739908,5.26898771406366,4.84194780703183,6.57905176757957,-0.004886922,-0.024740042,0.01863139,298.12527,-30.147316,34.103737,SIT
2724139952000,3.744895,5.28472872290614,4.84322828318961,6.59147898928536,0.004581489,-0.006414085,0.01985312,298.1273,-30.155928,34.123062,SIT
2724144947000,3.74989,5.29895291246903,4.83848687016553,6.59622035280008,0.0030543262,-0.015577064,0.018020526,298.13498,-30.160166,34.149235,SIT
2724149957000,3.7549,5.2978867406736,4.83373273799901,6.61630314071322,0.0009162979,-0.022602014,0.007330383,298.13864,-30.16614,34.16914,SIT
2724154958000,3.759901,5.28365392935116,4.82898845104507,6.64951334754829,-0.00580322,-0.020158553,0.023518313,298.13516,-30.165895,34.19252,SIT
2724159948000,3.764891,5.28060234191261,4.82292903834363,6.67113014312514,-0.0021380284,-0.016493361,0.028099801,298.14197,-30.16666,34.21858,SIT
2724164963000,3.769906,5.28792753858766,4.81560380342408,6.68211789989324,-0.01740966,-0.013133603,0.025045475,298.14566,-30.160282,34.244617,SIT
2724170084000,3.775027,5.29540756494319,4.80812373801571,6.69333790037367,-0.011911872,0.00061086525,0.025350908,298.14056,-30.155636,34.265224,SIT
2724174983000,3.779926,5.29701592833824,4.80026553637218,6.68481321443555,-0.01985312,-0.0027488936,0.031154128,298.1375,-30.14446,34.288574,SIT
2724180003000,3.784946,5.29817508911366,4.79215133832039,6.67438062220909,-0.01282817,-0.010995574,0.022296581,298.13647,-30.140524,34.30674,SIT
2724185452000,3.790395,5.2994333096446,4.78334371577374,6.66305647977046,-0.01863139,0.0070249503,0.029626964,298.12122038774,-30.1306468562282,34.3266453882198,SIT
2724204994000,3.809937,5.303945723962,4.75175653283985,6.6224441854897,-0.013744468,0.00580322,0.027794369,298.06653,-30.095224,34.398033,SIT
2724210063000,3.815006,5.30511619925495,4.74356313245648,6.61190976118773,-0.01282817,-0.0012217305,0.027794369,298.06406,-30.081385,34.420525,SIT
2724215169000,3.820112,5.2870517655479,4.72818665556887,6.55249866786535,-0.00061086525,-0.024129177,0.03268129,298.05515,-30.066854,34.445545,SIT
2724220044000,3.824987,5.25907045374089,4.70953241523324,6.46855453765858,0.034513887,-0.01985312,0.03634648,298.04227,-30.058062,34.465065,SIT
2724225062000,3.830005,5.25654121815082,4.68812734817166,6.40462732952823,0.05131268,-0.035124753,0.03634648,298.04013,-30.050917,34.499905,SIT
2724230056000,3.834999,5.27013345172414,4.66547348362069,6.35478918706897,0.08277224,-0.040317107,0.0290161,298.03577,-30.055159,34.52977,SIT
2724234986000,3.839929,5.30099730439975,4.65191028654553,6.33752228889343,0.10873401,-0.03940081,0.036957346,298.02704,-30.067545,34.558857,SIT
2724240052000,3.844995,5.35052366019804,4.64695754236423,6.35238021114741,0.13225232,-0.03359759,0.035430185,298.02286,-30.088655,34.58417,SIT
2724245054000,3.849997,5.37789181595723,4.65270607312891,6.38286444868872,0.14355333,-0.02565634,0.03176499,298.0159,-30.10948,34.61437,SIT
2724250076000,3.855019,5.38759409301997,4.66725994462376,6.42652520202744,0.14508049,-0.0106901415,0.03023783,298.00583,-30.132168,34.640778,SIT
2724255115000,3.860058,5.41078845800177,4.71701647297377,6.46423731594459,0.15485434,0.016493361,0.03359759,297.98578,-30.152819,34.666985,SIT
2724259938000,3.864881,5.4425523124079,4.78961908817173,6.4960009334414,0.13072516,0.03359759,0.03023783,297.96692,-30.16709,34.68979,SIT
2724264978000,3.869921,5.44975990288848,4.85377085005484,6.51673850146252,0.13103059,0.052534413,0.03359759,297.94006,-30.182793,34.706734,SIT
2724269993000,3.874936,5.43219942656307,4.90645200398538,6.52551864794333,0.106595986,0.0720821,0.037873644,297.91022,-30.18772,34.7188,SIT
2724274939000,3.879882,5.40899296808921,4.96623145986489,6.52154233262921,0.10751228,0.06719518,0.040317107,297.88974,-30.20764,34.73235,SIT
2724280055000,3.884998,5.3722178917864,5.04503503022732,6.49002089351276,0.10873401,0.06841691,0.038179077,297.8641,-30.221657,34.739822,SIT
2724284984000,3.889927,5.33786708162038,5.11419603088338,6.48504125828738,0.100792766,0.057726767,0.03634648,297.84973,-30.24362,34.73965,SIT
2724289983000,3.894926,5.30426430788128,5.17660157595508,6.5090432753334,0.1133155,0.05467244,0.04062254,297.83255,-30.268536,34.73831,SIT
2724294928000,3.899871,5.26768838132118,5.21186183437737,6.53012046385725,0.12675454,0.043982297,0.035124753,297.84158,-30.30934,34.7315,SIT
2724300069000,3.905012,5.22563172232346,5.21653489407745,6.54881231230068,0.13744467,0.050701816,0.029321533,297.8463,-30.350246,34.7223,SIT
2724304953000,3.909896,5.19503973329283,5.21247120243013,6.57044566938032,0.13255776,0.05100725,0.027794369,297.86917,-30.397667,34.70503,SIT
2724309983000,3.914926,5.18040694582827,5.19296070030377,6.59971134617254,0.14263703,0.04153884,0.020158553,297.8957,-30.451406,34.68684,SIT
2724314941000,3.919884,5.16517909731343,5.16845892280597,6.62566931639801,0.13591751,0.05681047,0.0290161,297.91876,-30.495546,34.661865,SIT
2724320002000,3.924945,5.14829952925373,5.13469986222388,6.64737161459204,0.11942416,0.055283304,0.04184427,297.94815,-30.539137,34.642693,SIT
2724324917000,3.92986,5.1319069038806,5.10191468483582,6.66844784372139,0.0870483,0.05497787,0.05497787,297.96085,-30.573935,34.61899,SIT
2724330052000,3.934995,5.11478052925373,5.06766201222388,6.69046746459204,0.07819075,0.050701816,0.06688975,297.9715,-30.606985,34.59924,SIT
2724335181000,3.940124,5.09129231653452,5.03195342618449,6.69061933614388,0.04795292,0.050701816,0.086132,297.97568,-30.623837,34.582806,SIT
2724340085000,3.945028,5.05950413521563,4.99562423190872,6.65883120224328,0.03359759,0.0421497,0.093767814,297.98254,-30.641504,34.56979,SIT
2724344943000,3.949886,5.00691065412752,4.94957436340196,6.62425424015591,0.021685716,0.038179077,0.096516706,297.96866,-30.638182,34.555332,SIT
2724350054000,3.954997,4.89929182197681,4.87619785210873,6.58022812906256,0.018936822,0.026572637,0.084910266,297.96033,-30.63507,34.54373,SIT
2724354954000,3.959897,4.80230773204404,4.82399924967849,6.54782424967849,0.021685716,0.023823744,0.08277224,297.94232,-30.629002,34.532528,SIT
2724359984000,3.964927,4.71782946031761,4.81461274237139,6.53843774237139,0.014049901,0.029932396,0.052839845,297.93588,-30.62762,34.515293,SIT
2724364992000,3.969935,4.65083870736415,4.81686176012076,6.52789273165396,0.022296581,0.038179077,0.040011674,297.92236,-30.625872,34.496334,SIT
2724370619000,3.975562,4.63483687389884,4.85953322320103,6.51189100958131,0.020463986,0.058948494,0.030848695,297.9123,-30.625307,34.46924,SIT
2724374946000,3.979889,4.63565580504677,4.89523557778644,6.50566916525721,0.015882496,0.06780604,0.016187929,297.90875,-30.638292,34.43503,SIT
2724380037000,3.98498,4.68315750355612,4.94748717334373,6.51991955080865,0.011911872,0.06994407,-0.0067195175,297.9073,-30.653929,34.39574,SIT
2724385071000,3.990014,4.7316640887685,5.00060655007928,6.5345506535148,-0.008857546,0.061391957,-0.0067195175,297.91428,-30.669939,34.352127,SIT
2724389981000,3.994924,4.78551245495948,5.05859710161205,6.55111943813425,-0.019242255,0.064446285,-0.00580322,297.9246,-30.690968,34.303036,SIT
2724394998000,3.999941,4.84053429878435,5.11785139836152,6.56804929402748,-0.03359759,0.05589417,-0.00061086525,297.94412,-30.709887,34.26164,SIT
2724400074000,4.005017,4.87979340387033,5.15752070631823,6.54545426195832,-0.03970624,0.0421497,0.00580322,297.96365,-30.727589,34.22242,SIT
2724405057000,4.01,4.91552274775655,5.19110599755664,6.52085229742337,-0.050396383,0.030543262,0.012217305,297.9832,-30.739988,34.186737,SIT
2724409982000,4.014925,4.94113223724271,5.19576224848216,6.51153972264179,-0.054367006,0.015577064,0.01282817,298.01358,-30.757698,34.157436,SIT
2724415095000,4.020038,4.96771930724123,5.20059624055975,6.5018716627721,-0.05467244,0.008552114,0.01863139,298.04828,-30.77645,34.134113,SIT
2724419945000,4.024888,4.9929388045017,5.20518158411077,6.49270090385014,-0.06352998,-0.0021380284,0.025961773,298.08606,-30.791878,34.11587,SIT
2724425203000,4.030146,5.01860216703057,5.20800564628821,6.48314253296943,-0.06291912,-0.009773844,0.025045475,298.11383,-30.81756,34.096764,SIT
2724429973000,4.034916,5.02293868297892,5.1863228401367,6.47880601702107,-0.06688975,-0.01282817,0.02565634,298.14023,-30.83823,34.08097,SIT
2724434931000,4.039874,5.02744611402126,5.1637854495918,6.47429858597874,-0.071776666,-0.0061086523,0.027183503,298.16513,-30.857798,34.068134,SIT
2724440635000,4.045578,5.00867889920627,5.08053445932155,6.48349362536143,-0.06047566,-0.00580322,0.013744468,298.19565,-30.882317,34.05501,SIT
2724444980000,4.049923,4.99295137870169,5.01369215846168,6.49135744719834,-0.063224554,-0.003970624,0.008552114,298.22147,-30.900562,34.04195,SIT
2724450095000,4.055038,5.00561999191726,4.9850022721998,6.51119163501514,-0.06688975,-0.013744468,0.004276057,298.24597,-30.919573,34.02817,SIT
2724454953000,4.059896,5.02439861297679,4.96857098183653,6.53231756226034,-0.06291912,-0.01740966,0.0061086523,298.26828,-30.939087,34.013123,SIT
2724459936000,4.064879,5.04366042210393,4.95171690199294,6.55398707552977,-0.06780604,-0.013439035,0.0030543262,298.2777,-30.94453,34.00046,SIT
2724465072000,4.070015,5.06351365342583,4.93434532782543,6.57632193809284,-0.06352998,-0.008857546,-0.013744468,298.29095,-30.954958,33.98662,SIT
2724469950000,4.074893,5.08238281040194,4.91580337444961,6.60770738941628,-0.06994407,-0.015577064,-0.004581489,298.29816,-30.959948,33.982273,SIT
2724474922000,4.079865,5.10161775211068,4.89656853316502,6.64136856251262,-0.07788532,-0.024740042,-0.015577064,298.31485,-30.97218,33.97116,SIT
2724479975000,4.084918,5.11693458183281,4.88958271472689,6.63380711369078,-0.06872234,-0.018936822,-0.019547688,298.30872,-30.974344,33.964214,SIT
2724484930000,4.089873,5.13125478603762,4.88480924686651,6.61948656057741,-0.08093964,-0.02321288,-0.02565634,298.31027,-30.972586,33.959324,SIT
2724489944000,4.094887,5.15599941130284,4.8879766888615,6.62137864779513,-0.080634214,-0.024129177,-0.028710667,298.3019,-30.96882,33.954494,SIT
2724494965000,4.099908,5.1823405225509,4.89236682058797,6.62576896288688,-0.08552113,-0.027183503,-0.027488936,298.2955,-30.96174,33.950874,SIT
2724500200000,4.105143,5.20530128203919,4.88641240898041,6.64915817305879,-0.08277224,-0.028099801,-0.028710667,298.29004,-30.95679,33.94861,SIT
2724504944000,4.109887,5.22434449243424,4.87689080378288,6.67772298865137,-0.081855945,-0.027794369,-0.029321533,298.28455,-30.95021,33.94706,SIT
2724510403000,4.115346,5.23716201844646,4.87870734848726,6.68255497575637,-0.0852157,-0.01985312,-0.03145956,298.282,-30.939053,33.947205,SIT
2724515130000,4.120073,5.2461726975418,4.88321267627389,6.68030231186306,-0.09682214,-0.028405234,-0.02687807,298.28128,-30.925484,33.951927,SIT
2724519956000,4.124899,5.25537209193869,4.88781236146497,6.67800246926752,-0.09285152,-0.029626964,-0.035430185,298.2798,-30.909882,33.953022,SIT
2724524943000,4.129886,5.26487838697751,4.89256549657643,6.67562590171178,-0.10293079,-0.01863139,-0.03604105,298.27414,-30.88701,33.95531,SIT
2724529973000,4.134916,5.26369170585903,4.88664373026432,6.66082532343612,-0.09254608,-0.01985312,-0.03756821,298.27457,-30.872517,33.961998,SIT
2724534956000,4.139899,5.25902000311307,4.877300349163,6.64213851245228,-0.10323623,-0.014660766,-0.03940081,298.2715,-30.852007,33.964397,SIT
2724539940000,4.144883,5.25434736283896,4.86795509301028,6.62344795135585,-0.110872045,-0.02321288,-0.041233405,298.27325,-30.835812,33.971348,SIT
2724544987000,4.14993,5.24961565829173,4.85849170861968,6.60452113316691,-0.11026118,-0.029626964,-0.043066,298.2739,-30.819962,33.976116,SIT
2724550091000,4.155034,5.23565384042017,4.86787745957983,6.5704377389916,-0.10781772,-0.015882496,-0.039095376,298.27094,-30.802671,33.978725,SIT
