timestamp,rel_time,acc_x,acc_y,acc_z,gyro_x,gyro_y,gyro_z,azimuth,pitch,roll,label
2491732337000,0,5.28887777478231,0.911932628242952,7.89445749893956,-0.035124753,0.012217305,0.017715093,297.2482,-4.5612583,23.288824,SIT
2491738815000,0.006478,5.29155207904992,0.903909718232606,7.91852626527287,-0.04184427,0.0061086523,0.013744468,297.18472,-4.574784,23.357744,SIT
2491742336000,0.009999,5.2930056488749,0.899549010275455,7.93160840887577,-0.039095376,0.0125227375,0.012217305,297.11884,-4.587866,23.420174,SIT
2491747318000,0.014981,5.29506236141909,0.893378874790499,7.95011884324942,-0.043066,0.013133603,0.013439035,297.05414,-4.596699,23.484524,SIT
2491752388000,0.020051,5.29873545476167,0.893404243593671,7.95004277805099,-0.034513887,0.01863139,0.010995574,296.9986,-4.62549,23.57514,SIT
2491757342000,0.025005,5.30351656650207,0.89818540525849,7.93569934298095,-0.032070424,0.016493361,0.018325957,296.94003,-4.648784,23.665577,SIT
2491762339000,0.030002,5.30326067828642,0.902510205629139,7.93417666734272,-0.042760566,0.016493361,0.016798794,296.88467,-4.6785345,23.766031,SIT
2491767324000,0.034987,5.29930870399007,0.906462221192053,7.94208065720199,-0.046120327,0.011911872,0.013744468,296.8279,-4.708043,23.865484,SIT
2491772329000,0.039992,5.29529449694385,0.907757246572495,7.95010909901386,-0.033292156,0.011911872,0.010995574,296.7756,-4.7475567,23.979362,SIT
2491777340000,0.045003,5.29103105124378,0.894966882761194,7.95863594589552,-0.034208454,0.010079277,0.009773844,296.72397,-4.780404,24.091305,SIT
2491783147000,0.05081,5.28758087010953,0.881362045153175,7.96760715978949,-0.029932396,0.014049901,0.016187929,296.67422,-4.8327622,24.222622,SIT
2491787313000,0.054976,5.30123715785555,0.884776147391751,7.96419311459011,-0.03481932,0.007330383,0.013133603,296.62802,-4.8805156,24.352547,SIT
2491792951000,0.060614,5.31971871097895,0.889396576681499,7.95957276249358,-0.034513887,0.014660766,0.009468411,296.57733,-4.924999,24.472595,SIT
2491797317000,0.06498,5.32734484381026,0.891963181905131,7.9583263,-0.029932396,0.014049901,0.013744468,296.52545,-4.965851,24.592667,SIT
2491802466000,0.070129,5.33212326749358,0.89435239374679,7.9583263,-0.033292156,0.008552114,0.019547688,296.47415,-5.0022473,24.707973,SIT
2491807373000,0.075036,5.33667710804787,0.896629314023935,7.9583263,-0.038789943,0.012217305,0.007330383,296.441,-5.0523376,24.857574,SIT
2491812342000,0.080005,5.34128848642861,0.898935003214303,7.9583263,-0.03726278,0.007330383,0.013133603,296.4003,-5.097513,25.006578,SIT
2491817327000,0.08499,5.34486935822375,0.896175220769964,7.95731514177625,-0.03481932,0.01160644,0.0143553335,296.37402,-5.1471386,25.169584,SIT
2491822363000,0.090026,5.34716727916905,0.886983522591957,7.95501722083095,-0.032375857,0.011911872,0.0125227375,296.34637,-5.193954,25.329504,SIT
2491827268000,0.094931,5.34940542496665,0.878030925379264,7.95277907503335,-0.029321533,0.010079277,0.013439035,296.3197,-5.247137,25.499348,SIT
2491832330000,0.099993,5.35171520968172,0.868791772047837,7.95046929031828,-0.03481932,0.0015271631,0.008552114,296.2949,-5.2967052,25.665058,SIT
2491837325000,0.104988,5.35223250544859,0.859507610897173,7.93912953103236,-0.043982297,0.0067195175,0.006414085,296.27313,-5.3491216,25.838215,SIT
2491842344000,0.110007,5.34730973207702,0.849662064154035,7.8997472926567,-0.030543262,0.018020526,0.016187929,296.24832,-5.4021015,26.006275,SIT
2491847343000,0.115006,5.34578035747647,0.841990132192357,7.86483077910982,-0.03481932,0.0125227375,0.014966198,296.22406,-5.4438486,26.172863,SIT
2491852384000,0.120047,5.35232738169194,0.839371306098891,7.83995201052375,-0.034513887,0.0106901415,0.013133603,296.1956,-5.4864354,26.330069,SIT
2491857356000,0.125019,5.35878479180884,0.83678832586943,7.81541377656025,-0.03481932,0.0106901415,0.017104227,296.1762,-5.5399127,26.5255,SIT
2491862791000,0.130454,5.36584352551466,0.833964814697442,7.78859050592639,-0.031154128,0.013439035,0.013744468,296.15863,-5.5926757,26.713837,SIT
2491867358000,0.135021,5.37177493983563,0.831592234104532,7.76605106213892,-0.037873644,0.016493361,0.010079277,296.13882,-5.6393957,26.895893,SIT
2491872326000,0.139989,5.37822715493233,0.829011331896173,7.74153256931297,-0.03573562,0.014660766,0.008857546,296.11838,-5.6866784,27.07249,SIT
2491877339000,0.145002,5.38473781400635,0.826407051950419,7.71679198868969,-0.041233405,0.009773844,0.0070249503,296.09833,-5.7282977,27.243156,SIT
2491882302000,0.149965,5.39118353532778,0.823828747268437,7.69229817228566,-0.03359759,0.016493361,0.01038471,296.0911,-5.7824273,27.44365,SIT
2491887365000,0.155028,5.33577916807862,0.842259705482447,7.96999089005676,-0.038789943,0.015271631,0.012217305,296.0841,-5.829634,27.64092,SIT
2491892613000,0.160276,5.2784052462017,0.861437235643118,8.25591052869573,-0.033292156,0.018325957,0.0125227375,296.0749,-5.878575,27.828672,SIT
2491897319000,0.164982,5.29872370512601,0.85534169160092,8.14212699747532,-0.035124753,0.017715093,0.010079277,296.0711,-5.9243073,28.038113,SIT
2491902385000,0.170048,5.32059648729994,0.84877985009693,8.01963924372211,-0.040317107,0.007330383,0.017104227,296.06976,-5.969928,28.2203,SIT
2491907401000,0.175064,5.34225339124476,0.8422827721293,7.89836040976511,-0.03145956,0.014660766,0.01282817,296.07095,-6.018069,28.39109,SIT
2491912274000,0.179937,5.36329288345431,0.835970917875659,7.78053908642532,-0.03756821,0.013439035,0.0125227375,296.06815,-6.0573583,28.561699,SIT
2491917327000,0.18499,5.34087147583057,0.844715721594684,7.78038390739203,-0.03756821,0.0061086523,0.013744468,296.06757,-6.0962796,28.7268,SIT
2491922356000,0.190019,5.28586960774502,0.864716438870432,7.87038723955565,-0.03481932,0.01038471,0.013439035,296.06607,-6.1326213,28.883434,SIT
2491927339000,0.195002,5.2643262441018,0.880242503176667,7.784157618577,-0.036957346,0.014966198,0.013439035,296.05673,-6.160498,29.052319,SIT
2491932775000,0.200438,5.25949059743637,0.894749170514583,7.59073548838937,-0.034208454,0.008246681,0.010995574,296.04752,-6.1889005,29.217754,SIT
2491938848000,0.206511,5.26145151267149,0.902742858348777,7.47994804452703,-0.036651913,0.008246681,0.007941248,296.04462,-6.211824,29.357548,SIT
2491942344000,0.210007,5.26474026641236,0.90493535206673,7.4470606559281,-0.03573562,0.016493361,0.009468411,296.03998,-6.2345524,29.492453,SIT
2491947334000,0.214997,5.26943445438918,0.908064798191611,7.40011898856292,-0.032986723,0.0027488936,0.005192355,296.03998,-6.2619805,29.640879,SIT
2491952358000,0.220021,5.27416062681314,0.911215567195901,7.3528574781736,-0.029321533,0.015882496,0.009162978,296.03442,-6.2870107,29.775263,SIT
2491957327000,0.22499,5.27883505969025,0.91433184330703,7.30611336091156,-0.035124753,0.0143553335,0.018020526,296.02887,-6.3088365,29.91333,SIT
2491962343000,0.230006,5.28355370636194,0.917477595163223,7.2589271077044,-0.034513887,0.01038471,0.0125227375,296.0254,-6.3332443,30.043827,SIT
2491967289000,0.234952,5.28719415122637,0.921763403679111,7.22491274141541,-0.0290161,0.013439035,0.0067195175,296.01804,-6.354899,30.16903,SIT
2491972359000,0.240022,5.28929452653458,0.928064529603755,7.21021011425791,-0.023823744,0.005192355,0.013133603,296.00833,-6.374388,30.294851,SIT
2491977270000,0.244933,5.29132903208461,0.934168046253839,7.19596857540771,-0.037873644,0.016493361,0.01160644,296.00183,-6.393116,30.419735,SIT
2491982457000,0.25012,5.29347787759225,0.940614582776744,7.18092665685426,-0.025045475,0.0030543262,0.01740966,295.99136,-6.416397,30.550484,SIT
2491988917000,0.25658,5.29635554085489,0.94734136032838,7.16497668332416,-0.029932396,0.004276057,0.013744468,295.9863,-6.4305997,30.672602,SIT
2491992346000,0.260009,5.29936769498257,0.941316989167125,7.17702545709962,-0.0290161,0.007330383,0.018020526,295.97635,-6.4461827,30.794584,SIT
2491997376000,0.265039,5.30378622378463,0.932479839286369,7.19469980299945,-0.027488936,0.009162978,0.017715093,295.97052,-6.4632664,30.914518,SIT
2492002458000,0.270121,5.29353411443446,0.922941778984279,7.2378097821764,-0.030848695,0.014966198,0.022296581,295.9606,-6.476905,31.029072,SIT
2492007348000,0.275011,5.27441189822376,0.91338062595243,7.29517663048183,-0.038179077,0.005192355,0.014049901,295.9549,-6.4908156,31.143433,SIT
2492012337000,0.28,5.27599366967094,0.915629790371514,7.33417973934189,-0.029932396,0.0061086523,0.007941248,295.9436,-6.5038743,31.24959,SIT
2492017320000,0.284983,5.28980849982631,0.924839704389655,7.36180939965261,-0.026572637,0.014049901,0.009468411,295.93198,-6.5131564,31.353092,SIT
2492022347000,0.29001,5.29510784086698,0.92895025,7.4157310926697,-0.04184427,0.020158553,0.014660766,295.92465,-6.515991,31.452484,SIT
2492027368000,0.295031,5.29355575691876,0.92895025,7.49023121942481,-0.042760566,0.02107485,0.011301007,295.91888,-6.523458,31.547695,SIT
2492032318000,0.299981,5.29202562038346,0.92895025,7.56367786898422,-0.03145956,0.013439035,0.004886922,295.9131,-6.5303597,31.640137,SIT
2492037364000,0.305027,5.29046580847294,0.92895025,7.63854893841387,-0.035124753,0.010995574,0.014049901,295.90234,-6.5309877,31.728443,SIT
2492042339000,0.310002,5.28892794397534,0.92895025,7.71236653064782,-0.03573562,0.015882496,0.009773844,295.89767,-6.5359526,31.811228,SIT
2492047341000,0.315004,5.28738173327846,0.92895025,7.78658474097027,-0.03940081,0.018325957,0.011301007,295.88763,-6.5364943,31.893244,SIT
2492052354000,0.320017,5.28094814974593,0.925317364372083,7.86834039354973,-0.036957346,0.016798794,0.009773844,295.87946,-6.5389905,31.972132,SIT
2492057350000,0.325013,5.26606299180753,0.915393965467178,7.96261262874624,-0.03756821,0.01038471,0.014049901,295.86847,-6.538306,32.04952,SIT
2492062324000,0.329987,5.26789566382641,0.899567983356782,8.03010721480234,-0.040011674,0.015882496,0.013439035,295.8647,-6.5372734,32.1129,SIT
2492067326000,0.334989,5.29162654344595,0.875837074001783,8.06333064450609,-0.03756821,0.014966198,0.009468411,295.86075,-6.5368733,32.177734,SIT
2492072343000,0.340006,5.30245539473684,0.871199472356777,8.09520742105263,-0.034208454,0.015577064,0.008857546,295.85443,-6.5338655,32.231613,SIT
2492077339000,0.345002,5.29502713157895,0.893484397570253,8.12492047368421,-0.03756821,0.018325957,0.0143553335,295.847,-6.5293255,32.28341,SIT
2492082333000,0.349996,5.28760184210526,0.915760401676758,8.15462163157895,-0.037873644,0.012217305,0.0125227375,295.83908,-6.52097,32.338425,SIT
2492087321000,0.354984,5.2907915116846,0.923767461684604,8.17701495497474,-0.044898596,0.020463986,0.0106901415,295.82828,-6.50938,32.38705,SIT
2492092629000,0.360292,5.29566181640048,0.927700315928216,8.19680856225314,-0.043066,0.021991149,0.009773844,295.81805,-6.500045,32.43754,SIT
2492097366000,0.365029,5.2917664616349,0.912118900933368,8.18512266065602,-0.044898596,0.028099801,0.008857546,295.8139,-6.493562,32.47823,SIT
2492102406000,0.370069,5.28762194231496,0.895540827981281,8.17268927580285,-0.057421334,0.020463986,0.01160644,295.80722,-6.4919586,32.52555,SIT
2492107433000,0.375096,5.28322822505846,0.881135215319428,8.13415390945655,-0.04917465,0.026267206,0.012217305,295.80045,-6.4951086,32.565746,SIT
2492112339000,0.380002,5.27883352102703,0.867951075691703,8.08581207333271,-0.043676864,0.032070424,0.016187929,295.7917,-6.4934688,32.606853,SIT
2492118061000,0.385724,5.28366938382467,0.860200433513402,8.04654933513402,-0.04886922,0.023518313,0.005497787,295.78427,-6.490143,32.649574,SIT
2492122353000,0.390016,5.29212824741473,0.858085723136287,8.02540223136286,-0.05009095,0.022907447,0.0106901415,295.76935,-6.4858217,32.687866,SIT
2492127334000,0.394997,5.30194502270412,0.855631535720533,8.00086035720533,-0.044593163,0.016493361,0.01282817,295.75662,-6.4817405,32.731754,SIT
2492132332000,0.399995,5.31179530234604,0.853168972238514,7.97623472238514,-0.05100725,0.019242255,0.0143553335,295.7418,-6.4736857,32.772007,SIT
2492138838000,0.406501,5.3107400225521,0.839172124236369,7.94596357093919,-0.03756821,0.018020526,0.014660766,295.72974,-6.464692,32.808514,SIT
2492142347000,0.41001,5.30754222133409,0.829578907568751,7.92997489875345,-0.044898596,0.027794369,0.015271631,295.71625,-6.4490857,32.84005,SIT
2492147358000,0.415021,5.30294870235577,0.831412299126923,7.87057505944231,-0.035430185,0.02076942,0.015577064,295.6989,-6.4404097,32.87856,SIT
2492152388000,0.420051,5.29831687038462,0.845307877261538,7.78256974415385,-0.03726278,0.020158553,0.01282817,295.68158,-6.4277573,32.91133,SIT
2492157370000,0.425033,5.29372923879808,0.859070853457692,7.69540424101923,-0.035124753,0.016187929,0.015271631,295.65512,-6.4189515,32.945824,SIT
2492162376000,0.430039,5.28911950701923,0.872900130623077,7.60781883180769,-0.03573562,0.01863139,0.008552114,295.63245,-6.410837,32.977215,SIT
2492167360000,0.435023,5.2926085067157,0.88520686970259,7.50848284758555,-0.027794369,0.008857546,0.008552114,295.60767,-6.401105,33.009285,SIT
2492172357000,0.44002,5.3079124517642,0.895409496183776,7.39115301059589,-0.028710667,0.0143553335,0.014049901,295.58258,-6.389315,33.03545,SIT
2492177357000,0.44502,5.31989202536218,0.895455769968015,7.29533938645343,-0.03726278,0.006414085,0.014049901,295.5655,-6.3842034,33.07678,SIT
2492182347000,0.45001,5.32888313222954,0.886464541049859,7.21891422699906,-0.03848451,0.0061086523,0.01160644,295.54675,-6.3799562,33.11339,SIT
2492188072000,0.455735,5.32344486264124,0.88377535838499,7.18386506564735,-0.03634648,0.0021380284,0.010079277,295.52838,-6.3769135,33.1617,SIT
2492192343000,0.460006,5.30648522502332,0.888015305421375,7.2008247475381,-0.033292156,0.0027488936,0.007330383,295.51093,-6.37414,33.207245,SIT
2492197391000,0.465054,5.29824641628129,0.889885680525033,7.20982094263175,-0.029932396,-0.003970624,0.0125227375,295.4887,-6.3689933,33.261482,SIT
2492202372000,0.470035,5.30296004027009,0.888314457216074,7.20667849929513,-0.025045475,0.0018325958,0.014966198,295.46762,-6.3655376,33.310238,SIT
2492207326000,0.474989,5.30764811359684,0.88675175087747,7.20355308988142,-0.023518313,0.0036651916,0.0143553335,295.44708,-6.3651967,33.358738,SIT
2492212335000,0.479998,5.31238823456851,0.885171695154809,7.20039298173584,-0.026267206,-0.00030543262,0.010079277,295.4269,-6.364812,33.405792,SIT
2492217304000,0.484967,5.31709050270751,0.883604257166008,7.19725810903162,-0.032375857,-0.003970624,0.009162978,295.4056,-6.363173,33.451008,SIT
2492222314000,0.489977,5.32183157,0.882023886,7.19409737,-0.03176499,-0.006414085,0.010079277,295.3852,-6.362515,33.495567,SIT
2492227282000,0.494945,5.32291714070138,0.886428701083953,7.21541945616849,-0.031154128,-0.0018325958,0.0076358155,295.37097,-6.3576655,33.540802,SIT
2492232301000,0.499964,5.31827363230606,0.90035954629118,7.27578632599749,-0.021685716,-0.0018325958,0.01038471,295.3548,-6.353947,33.58684,SIT
2492237279000,0.504942,5.31663813038873,0.911306820349755,7.31819053038873,-0.03726278,-0.0015271631,0.005192355,295.3363,-6.3475547,33.630558,SIT
2492242357000,0.51002,5.32149772615169,0.916166512527231,7.32305012615169,-0.025350908,-0.009468411,0.004886922,295.31552,-6.3484263,33.67561,SIT
2492247340000,0.515003,5.323223878901,0.922334954045476,7.3588336063477,-0.022602014,-0.004276057,0.002443461,295.30017,-6.3468986,33.710125,SIT
2492252228000,0.519891,5.31878897404074,0.931204949005211,7.45640373614401,-0.032986723,0.009773844,0.007941248,295.2821,-6.3435636,33.743507,SIT
2492257266000,0.524929,5.3171745388516,0.934433930625333,7.55229620166187,-0.030543262,0.0061086523,0.0012217305,295.27032,-6.346656,33.77882,SIT
2492262270000,0.529933,5.32738478851603,0.914013223396186,7.62887387376159,-0.028405234,0.0033597588,0.002443461,295.25323,-6.344842,33.809475,SIT
2492267265000,0.534928,5.33281147679148,0.894340157956662,7.70852757165938,-0.03573562,0.002443461,0.005497787,295.24457,-6.336955,33.82849,SIT
2492272260000,0.539923,5.32826518179053,0.876154949469683,7.79490727162136,-0.039095376,0.00580322,0.005497787,295.2364,-6.3308477,33.84641,SIT
2492277260000,0.544923,5.32315299837189,0.86036099297131,7.87652286325822,-0.030848695,0.00580322,0.0030543262,295.22412,-6.3218846,33.861916,SIT
2492282251000,0.549914,5.3160353111238,0.853243280949072,7.94058227145835,-0.0421497,0.009773844,0.0012217305,295.21143,-6.3076215,33.874947,SIT
2492287259000,0.554922,5.30889338010027,0.846101325067011,8.0048598743969,-0.03359759,0.0021380284,0.004886922,295.1916,-6.2967496,33.880623,SIT
2492292258000,0.559921,5.30176428401668,0.838972204169562,8.06902196247394,-0.035124753,0.015271631,0.003970624,295.17303,-6.2821493,33.879036,SIT
2492297253000,0.564916,5.294657300907,0.836255211330098,8.12332700612835,-0.03573562,0.015882496,0.0030543262,295.15433,-6.269447,33.883244,SIT
2492302330000,0.569993,5.28750606625974,0.852941498520371,8.1352457720253,-0.03176499,0.01740966,0.007330383,295.1338,-6.2570353,33.883675,SIT
2492307311000,0.574974,5.28049005290974,0.869312267969799,8.14693916830906,-0.03634648,0.0106901415,0.013439035,295.10974,-6.236454,33.868233,SIT
2492312315000,0.579978,5.27344164279061,0.885758630211306,8.15868655939599,-0.03268129,0.018936822,0.003970624,295.08923,-6.221052,33.848377,SIT
2492317308000,0.584971,5.26674973011314,0.902196897743255,8.16802746022628,-0.043982297,0.014660766,0.008552114,295.06317,-6.1982684,33.83536,SIT
2492322320000,0.589983,5.26257219103568,0.918906700726719,8.15967238207137,-0.036957346,0.0125227375,0.004276057,295.0433,-6.1840796,33.81937,SIT
2492327281000,0.594944,5.25843716083551,0.935446471796345,8.15140232167102,-0.03359759,0.0143553335,0.006414085,295.0341,-6.1676745,33.803974,SIT
2492332303000,0.599966,5.26093645568144,0.945065841877707,8.14005397434189,-0.032375857,0.01160644,0.01160644,295.02582,-6.15311,33.790943,SIT
2492338706000,0.606369,5.26604488045651,0.955282504735921,8.12472923342219,-0.03848451,0.0061086523,0.011301007,295.01892,-6.1385856,33.778564,SIT
2492342315000,0.609978,5.26923930373961,0.95369004043332,8.10716464463791,-0.03176499,0.013744468,0.01740966,295.01205,-6.129497,33.763554,SIT
2492347379000,0.615042,5.27403712811634,0.944094266432529,8.07357932291254,-0.025350908,0.016187929,0.013439035,295.00937,-6.12093,33.751595,SIT
2492352404000,0.620067,5.27338711711905,0.943677406394949,8.02662555207009,-0.032986723,0.0033597588,0.01160644,295.006,-6.111189,33.743664,SIT
2492357380000,0.625043,5.26520048155815,0.955957316994503,7.96113298048445,-0.03023783,0.0021380284,0.016493361,295.00125,-6.1052203,33.73226,SIT
2492362352000,0.630015,5.2578356877465,0.9672575,7.90154033513356,-0.033292156,0.0015271631,0.01863139,294.99634,-6.094722,33.726933,SIT
2492367323000,0.634986,5.25996939458587,0.9672575,7.91007496197562,-0.025961773,0.009773844,0.023518313,294.9886,-6.0864024,33.719887,SIT
2492372316000,0.639979,5.2621125445052,0.9672575,7.91864736025009,-0.03023783,0.009773844,0.020158553,294.988834272736,-6.08373298678247,33.7212826673655,SIT
2492377340000,0.645003,5.26426900058265,0.9672575,7.9272729819066,-0.025045475,-0.004581489,0.014049901,294.98907,-6.081047,33.722687,SIT
2492382327000,0.64999,5.26640957511653,0.9672575,7.93583507888132,-0.03176499,0.0027488936,0.017104227,294.9824,-6.072999,33.717728,SIT
2492387362000,0.655025,5.27584167231097,0.98158700372737,7.91624552396166,-0.02687807,0.007330383,0.011911872,294.98218,-6.0735116,33.720177,SIT
2492392343000,0.660006,5.2896964137477,1.00467831982767,7.87929946642463,-0.03359759,0.008246681,0.019547688,294.9764,-6.067207,33.722103,SIT
2492397338000,0.665001,5.29227613999812,1.01760694858258,7.8305075684265,-0.035124753,0.01038471,0.02107485,294.97034,-6.0665755,33.71789,SIT
2492402368000,0.670031,5.28548222297494,1.02213624236284,7.77162674928306,-0.037873644,0.017715093,0.025350908,294.96057,-6.062427,33.71247,SIT
2492407333000,0.674996,5.27877610010813,1.02660700650181,7.71350681547647,-0.033292156,0.008857546,0.02443461,294.9568,-6.064122,33.71423,SIT
2492412340000,0.680003,5.27201324870951,1.03111558979362,7.654895232683,-0.032986723,0.015882496,0.017104227,294.95285,-6.06447,33.709435,SIT
2492417315000,0.684978,5.27020235426249,1.02837836058402,7.60320724424002,-0.032986723,0.019547688,0.02107485,294.94592,-6.0641146,33.70852,SIT
2492422354000,0.690017,5.28052586335437,1.00773123460263,7.56707455817735,-0.04337143,0.008857546,0.016493361,294.94482,-6.0638285,33.709194,SIT
2492427283000,0.694946,5.28084517948478,0.988584831747073,7.53171742484309,-0.038179077,0.020158553,0.02107485,294.93256,-6.0713205,33.704136,SIT
2492432323000,0.699986,5.26728061555035,0.970498809451991,7.4955452858267,-0.037873644,0.024129177,0.02443461,294.92316,-6.075867,33.70399,SIT
2492437329000,0.704992,5.25630162042155,0.953584511364088,7.46581287552197,-0.04062254,0.028099801,0.021991149,294.909,-6.077265,33.704628,SIT
2492443088000,0.710751,5.25081820271426,0.937134057839531,7.44936267965798,-0.03634648,0.02687807,0.021991149,294.89316,-6.0792913,33.705853,SIT
2492447353000,0.715016,5.24749859162805,0.925991705050973,7.45123806703738,-0.038179077,0.023518313,0.023518313,294.8687,-6.084997,33.71251,SIT
2492452435000,0.720098,5.24535069023788,0.915252186886006,7.48775248038307,-0.040011674,0.02565634,0.019242255,294.8463,-6.092165,33.717636,SIT
2492457792000,0.725455,5.24308656041749,0.903931525963193,7.52624278189682,-0.047036625,0.0290161,0.021685716,294.81857,-6.0935383,33.724506,SIT
2492462342000,0.730005,5.24116350820866,0.894316254878856,7.5589347497683,-0.042455133,0.032070424,0.020158553,294.79382,-6.0981774,33.73043,SIT
2492467300000,0.734963,5.23906801527428,0.883838779266517,7.5945582171764,-0.04337143,0.029626964,0.02321288,294.76706,-6.0984135,33.73713,SIT
2492472328000,0.739991,5.23488916057643,0.884690562130563,7.62935530027498,-0.03848451,0.028710667,0.02076942,294.74277,-6.101914,33.74221,SIT
2492477279000,0.744942,5.23006028423465,0.88951946872594,7.66315733382218,-0.055588737,0.02687807,0.015882496,294.7187,-6.099572,33.748188,SIT
2492482325000,0.749988,5.23260320862255,0.894309568622554,7.7516855896962,-0.05222898,0.032070424,0.01740966,294.68896,-6.0980167,33.74749,SIT
2492487287000,0.75495,5.23727532361616,0.898981683616164,7.8544721195556,-0.04184427,0.028710667,0.02076942,294.66107,-6.094469,33.74971,SIT
2492492324000,0.759987,5.24194121897298,0.893364400578902,7.93312778459467,-0.04795292,0.019242255,0.01160644,294.63702,-6.0967584,33.75531,SIT
2492497335000,0.764998,5.24655602278104,0.884134764050389,8.00234984171555,-0.042760566,0.026572637,0.015271631,294.60715,-6.1011653,33.757656,SIT
2492502371000,0.770034,5.26418054628577,0.874630101485692,8.05754449257154,-0.049785517,0.021685716,0.014660766,294.58435,-6.10576,33.761856,SIT
2492507365000,0.775028,5.28802466793299,0.865092452826802,8.10523273586599,-0.056199603,0.018936822,0.010995574,294.56113,-6.111138,33.763443,SIT
2492513129000,0.780792,5.30578467167491,0.856026364702354,8.15056317648823,-0.057421334,0.014660766,0.011301007,294.53552,-6.11311,33.76313,SIT
2492517366000,0.785029,5.31592532666067,0.849941959004348,8.18098520497826,-0.052534413,0.017104227,0.009773844,294.51184,-6.11558,33.7616,SIT
2492527362000,0.795025,5.33984932648073,0.835587529134803,8.25275735432599,-0.044898596,0.0067195175,0.010079277,294.4599,-6.1103406,33.759247,SIT
2492532323000,0.799986,5.34676879607843,0.824450399607843,8.27933698039216,-0.048563786,0.004886922,0.0067195175,294.43573,-6.107311,33.757835,SIT
2492538834000,0.806497,5.35253595708472,0.807148892500925,8.3081727854236,-0.052839845,0.002443461,0.010995574,294.4095,-6.104096,33.75897,SIT
2492542344000,0.810007,5.353435,0.808054255115087,8.30065969966831,-0.05222898,0.0027488936,0.003970624,294.38464,-6.0999136,33.757706,SIT
2492547338000,0.815001,5.353435,0.815265020888531,8.27662384722083,-0.049785517,0.0033597588,0.005497787,294.35583,-6.0930495,33.757633,SIT
2492552290000,0.819953,5.353435,0.822415143457634,8.25279013850638,-0.052534413,-0.006414085,-0.0033597588,294.33057,-6.085104,33.759365,SIT
2492557262000,0.824925,5.353435,0.82959414374309,8.22886017087144,-0.050701816,-0.01038471,0.0033597588,294.2995,-6.0760856,33.76006,SIT
2492562261000,0.829924,5.35094831592646,0.831938852770089,8.21565663199752,-0.03756821,-0.009773844,-0.0009162979,294.2674,-6.074893,33.753216,SIT
2492567267000,0.83493,5.34599670873786,0.829463038834951,8.21318077669903,-0.043982297,-0.005497787,0.00061086525,294.23148,-6.067342,33.747242,SIT
2492572258000,0.839921,5.34105993856641,0.826994643439372,8.21071234006404,-0.03848451,-0.0015271631,0.0027488936,294.20108,-6.070243,33.747818,SIT
2492577255000,0.844918,5.3361172335881,0.824523280627969,8.20824093596364,-0.045814894,-0.003970624,0.0030543262,294.17117,-6.068315,33.749084,SIT
2492582495000,0.850158,5.33322840941612,0.822552369416122,8.18626318832245,-0.04795292,-0.0009162979,0.004886922,294.13995,-6.068013,33.747925,SIT
2492587267000,0.85493,5.33174351843909,0.821067478439094,8.15656536878188,-0.029626964,-0.004886922,0.004886922,294.11002,-6.070824,33.749496,SIT
2492592255000,0.859918,5.33019141529714,0.819515375297137,8.12552330594275,-0.03359759,0.007330383,0.0076358155,294.0774,-6.0663295,33.74539,SIT
2492597237000,0.8649,5.32864117915976,0.817965139159762,8.09451858319524,-0.03848451,0.004276057,0.015577064,294.0442,-6.064797,33.74704,SIT
2492602359000,0.870022,5.32704737958216,0.816371339582155,8.06264259164311,-0.032375857,0.005192355,0.009468411,294.0196,-6.062359,33.745197,SIT
2492607346000,0.875009,5.32549558760763,0.814819547607629,8.03160675215258,-0.038789943,0.014660766,0.011911872,293.9895,-6.0531063,33.74251,SIT
2492612341000,0.880004,5.32243380253262,0.820841104158531,8.01351610768487,-0.028405234,0.020463986,0.01740966,293.96082,-6.0496945,33.740604,SIT
2492617327000,0.88499,5.31781814979217,0.834688370841953,8.00890026215563,-0.03268129,0.020158553,0.011911872,293.93527,-6.042628,33.73763,SIT
2492622343000,0.890006,5.32333219914738,0.840707939504669,7.98775049837596,-0.03023783,0.016187929,0.019547688,293.9026,-6.033591,33.73764,SIT
2492627335000,0.894998,5.34274232338611,0.835855383110028,7.94407759216403,-0.019547688,0.010079277,0.014966198,293.87643,-6.0283513,33.73783,SIT
2492632321000,0.899984,5.34715654276779,0.831089372181392,7.90955490461298,-0.020463986,0.01038471,0.01282817,293.85034,-6.0220113,33.737103,SIT
2492637371000,0.905034,5.33297666395622,0.826362726168882,7.88592177326036,-0.017104227,0.004581489,0.013439035,293.82568,-6.0193825,33.73982,SIT
2492642269000,0.909932,5.32351617574062,0.828359063242212,7.87094658815003,-0.016798794,0.0125227375,0.01038471,293.80045,-6.015319,33.743294,SIT
2492647347000,0.91501,5.32042456795931,0.840725510508582,7.86785501265099,-0.022602014,0.0070249503,0.016798794,293.77283,-6.008853,33.752438,SIT
2492652720000,0.920383,5.31715335712651,0.853810370918627,7.86458383597584,-0.017104227,0.0076358155,0.02107485,293.7471,-6.009644,33.765217,SIT
2492657345000,0.925008,5.31433754657343,0.865073627832168,7.86176805482518,-0.023518313,0.008246681,0.0143553335,293.72336,-6.006746,33.779015,SIT
2492662335000,0.929998,5.31129951529561,0.877225768804832,7.85873005527018,-0.021991149,0.0033597588,0.020158553,293.6943,-6.0041065,33.794437,SIT
2492667331000,0.934994,5.30825783107438,0.889392521570248,7.85568840280992,-0.018325957,0.009773844,0.019242255,293.66953,-6.0024056,33.80563,SIT
2492672316000,0.939979,5.30456638040057,0.900712172370052,7.85347391237005,-0.017104227,0.0036651916,0.014660766,293.6441,-5.997658,33.81669,SIT
2492677345000,0.945008,5.29537964206009,0.905305565522175,7.85806730552217,-0.020158553,0.0070249503,0.020463986,293.61502,-5.991127,33.823418,SIT
2492682636000,0.950299,5.28672733913804,0.91045633793167,7.86288823224975,-0.029321533,0.009162978,0.018020526,293.5995,-5.9924088,33.82984,SIT
2492687352000,0.955015,5.29088648719956,0.91877462971176,7.86704729345244,-0.028405234,0.009773844,0.018325957,293.58115,-5.9937515,33.83589,SIT
2492692275000,0.959938,5.29522819328667,0.927458037352426,7.87138890886822,-0.03023783,0.018325957,0.013133603,293.56134,-6.0008607,33.838787,SIT
2492697316000,0.964979,5.2900327861474,0.934891794873059,7.89392066798127,-0.032375857,0.020463986,0.009468411,293.54135,-6.0073752,33.84328,SIT
2492702315000,0.969978,5.28295254115356,0.941972076832635,7.91988170594035,-0.022602014,0.018936822,0.008857546,293.5221,-6.0162086,33.84628,SIT
2492707344000,0.975007,5.27582980619177,0.949094848982006,7.94599854128666,-0.023823744,0.02565634,0.011911872,293.5044,-6.02307,33.846153,SIT
2492712273000,0.979936,5.2688487044565,0.956075987165393,7.97159605200887,-0.031154128,0.032986723,0.021685716,293.48483,-6.0293317,33.846485,SIT
2492717326000,0.984989,5.27071035863343,0.968079884487535,7.98094635863343,-0.03756821,0.03023783,0.014966198,293.4743,-6.0416694,33.860355,SIT
2492722381000,0.990044,5.27518036957525,0.98149005734072,7.98541636957525,-0.047647487,0.01863139,0.010079277,293.45993,-6.0490203,33.874733,SIT
2492727339000,0.995002,5.27077762721911,0.987921868195221,7.98101362721911,-0.03359759,0.017104227,0.008857546,293.45038,-6.062709,33.879944,SIT
2492732318000,0.999981,5.26108105635994,0.990346010910015,7.97131705635994,-0.03176499,0.027488936,0.008552114,293.44223,-6.071339,33.884647,SIT
2492737353000,1.005016,5.25127542585663,0.992797418535841,7.96151142585663,-0.033292156,0.025045475,0.009162978,293.43765,-6.0844364,33.8928,SIT
2492742341000,1.010004,5.24156132755465,0.995225943111337,7.95179732755465,-0.03756821,0.01740966,0.0106901415,293.43265,-6.096671,33.89932,SIT
2492747350000,1.015013,5.22907101102204,0.980250456713427,7.93930701102204,-0.040011674,0.023823744,0.013744468,293.4213,-6.111279,33.89961,SIT
2492752362000,1.020025,5.21532950267201,0.957347998597194,7.92556550267201,-0.04184427,0.01038471,0.0067195175,293.41412,-6.125779,33.907238,SIT
2492757338000,1.025001,5.20835030355641,0.94667113859618,7.92431714917169,-0.03359759,0.01740966,0.009468411,293.4025,-6.1386566,33.90194,SIT
2492762338000,1.030001,5.20592447144739,0.944245281156593,7.93159474682101,-0.043982297,0.009162978,0.011301007,293.39496,-6.147474,33.904476,SIT
2492767316000,1.034979,5.20350931299965,0.941830097489741,7.93884032304068,-0.034208454,0.019242255,0.016187929,293.38058,-6.1603127,33.90546,SIT
2492772351000,1.040014,5.20106650006586,0.939387259048077,7.94616886387355,-0.04642576,0.018020526,0.01863139,293.36737,-6.165132,33.91177,SIT
2492777340000,1.045003,5.19718323474676,0.935503984746761,7.96084177679623,-0.04795292,0.008857546,0.011911872,293.35568,-6.1750007,33.91722,SIT
2492782325000,1.049988,5.19249729560267,0.93081804560267,7.97958555783765,-0.04184427,0.0076358155,0.0143553335,293.33984,-6.1815467,33.92108,SIT
2492787401000,1.055064,5.18772581574401,0.926046565744013,7.99867150218394,-0.035430185,0.0143553335,0.011911872,293.3222,-6.1929035,33.922356,SIT
2492792350000,1.060013,5.18307371688261,0.921394466882607,8.01727992191794,-0.039095376,0.01740966,0.016493361,293.30173,-6.201228,33.925262,SIT
2492797341000,1.065004,5.18369217310827,0.911455033431316,8.01744555311409,-0.033292156,0.0125227375,0.015577064,293.28418,-6.213998,33.92818,SIT
2492802408000,1.070071,5.18839974447031,0.897332324260768,8.00332278987194,-0.038789943,0.013744468,0.011911872,293.2658,-6.2223897,33.928562,SIT
2492807430000,1.075093,5.19960069314041,0.897371452513398,7.99887622802787,-0.04062254,0.01282817,0.020158553,293.24307,-6.22599,33.923786,SIT
2492812343000,1.080006,5.21641056037871,0.909978848553948,8.00307856319221,-0.042455133,0.01282817,0.01038471,293.2279,-6.2314296,33.917805,SIT
2492817302000,1.084965,5.231585471873,0.916724679509908,8.00091248391221,-0.04184427,0.011301007,0.017715093,293.201,-6.2300076,33.915596,SIT
2492822369000,1.090032,5.24192547732794,0.906384679453441,7.98023258097166,-0.04062254,0.01160644,0.005497787,293.18427,-6.2327642,33.9119,SIT
2492827269000,1.094932,5.25128454996894,0.897824167520192,7.97029869581521,-0.040927973,0.01038471,0.0106901415,293.15652,-6.2373977,33.910225,SIT
2492832322000,1.099985,5.25987451542558,0.891381679973374,7.97674119233159,-0.035430185,0.014049901,0.0061086523,293.13632,-6.24675,33.906372,SIT
2492837697000,1.10536,5.26901187230851,0.884528647999467,7.98359423384663,-0.040317107,0.007330383,0.013439035,293.1084,-6.2484465,33.90913,SIT
2492842344000,1.110007,5.27691164857549,0.878603803425934,7.98951908666903,-0.040317107,0.016493361,0.01282817,293.08417,-6.2541695,33.905933,SIT
2492847319000,1.114982,5.28536901610899,0.872260764529156,7.99586213439691,-0.04153884,0.01160644,0.01160644,293.05887,-6.2569866,33.908894,SIT
2492852353000,1.120016,5.28418165801902,0.8714894,7.98998595091944,-0.042455133,0.003970624,0.002443461,293.03647,-6.2608833,33.9098,SIT
2492857374000,1.125037,5.28166963666284,0.8714894,7.98244986062062,-0.046731193,-0.005497787,0.010079277,293.0093,-6.2608447,33.913235,SIT
2492862344000,1.130007,5.27918313075959,0.8714894,7.97499031694703,-0.036651913,0.005497787,0.01282817,292.9826,-6.2627497,33.914,SIT
2492867454000,1.135117,5.27755708493856,0.870753015061435,7.96679842643678,-0.038789943,0.013133603,0.013133603,292.96164,-6.252326,33.916992,SIT
2492872356000,1.140019,5.28686058743559,0.861449512564407,7.95284322126437,-0.03940081,0.002443461,0.007330383,292.94238,-6.24523,33.921913,SIT
2492877530000,1.145193,5.29531155800391,0.853661286068273,7.93950407099805,-0.046120327,-0.0027488936,0.005497787,292.9178,-6.2384324,33.922245,SIT
2492882322000,1.149985,5.28677430089294,0.870735827033764,7.94377269955353,-0.04062254,0.0018325958,0.004276057,292.8952,-6.2351403,33.922634,SIT
2492887380000,1.155043,5.27776314762348,0.888758161800763,7.94827827618826,-0.04337143,-0.009162978,0.00580322,292.87463,-6.224265,33.93384,SIT
2492892396000,1.160059,5.27887870295019,0.886527041205939,7.94463351558908,-0.03726278,0.004581489,0.009773844,292.8525,-6.2166576,33.93659,SIT
2492897343000,1.165006,5.28114768904214,0.881989054806513,7.9400955670977,-0.04734206,-0.0030543262,0.0070249503,292.8338,-6.2054734,33.94807,SIT
2492902363000,1.170026,5.28345015724138,0.877384103982759,7.93549065474138,-0.03848451,-0.0012217305,0.012217305,292.81485,-6.2020245,33.951305,SIT
2492907777000,1.17544,5.28593333708812,0.872417728731801,7.93052432097701,-0.038789943,0.008552114,0.007941248,292.80023,-6.1960263,33.953842,SIT
2492912345000,1.180008,5.28463990809249,0.873246991907514,7.92783837138728,-0.0290161,0.00580322,0.007941248,292.783,-6.1929765,33.95963,SIT
2492917325000,1.184988,5.28217848860446,0.875708411395541,7.92537690049546,-0.03268129,0.011301007,0.0125227375,292.765,-6.1866107,33.96027,SIT
2492922357000,1.19002,5.27969136754748,0.878195532452519,7.92288972749794,-0.039095376,0.0036651916,0.008857546,292.75204,-6.1791105,33.968586,SIT
2492927273000,1.194936,5.2772615807597,0.880625319240297,7.92045988996697,-0.035124753,0.0030543262,0.008552114,292.73593,-6.172018,33.97351,SIT
2492932327000,1.19999,5.27013577761845,0.867696425039832,7.92336151354298,-0.03940081,0.01038471,0.014049901,292.71918,-6.161236,33.978233,SIT
2492938229000,1.205892,5.26065610152621,0.848737171840671,7.92810142582809,-0.03970624,0.0012217305,0.01038471,292.7066,-6.1539536,33.987267,SIT
2492942342000,1.210005,5.26950266765448,0.840391866469103,7.93433024234442,-0.034208454,0.0015271631,0.016187929,292.69592,-6.1403227,33.992786,SIT
2492947352000,1.215015,5.29583334924816,0.835125730150368,7.94486245999341,-0.040011674,0.0033597588,0.0125227375,292.69012,-6.1263995,33.99973,SIT
2492952342000,1.220005,5.3025803882382,0.84506477112384,7.93686695989532,-0.032375857,-0.0012217305,0.014049901,292.6772,-6.11235,34.00796,SIT
2492957344000,1.225007,5.29784972920205,0.863987604858779,7.91794417555797,-0.028099801,0.009162978,0.013439035,292.6656,-6.097471,34.01101,SIT
2492962341000,1.230004,5.30026023962582,0.868632096970897,7.9104424,-0.02321288,0.009773844,0.01160644,292.65247,-6.0832467,34.019913,SIT
2492967328000,1.234991,5.30735180595427,0.863904369629776,7.9104424,-0.028099801,0.004581489,0.015577064,292.63745,-6.067206,34.027527,SIT
2492972345000,1.240008,5.31448603259751,0.859148201979806,7.9104424,-0.03268129,0.0067195175,0.018020526,292.63354,-6.054953,34.038803,SIT
2492977383000,1.245046,5.3216501214611,0.854372126113641,7.9104424,-0.03268129,0.01160644,0.016493361,292.62973,-6.042957,34.05032,SIT
2492982357000,1.25002,5.32724654015216,0.854877740152156,7.91298428706678,-0.028099801,0.013744468,0.013133603,292.62573,-6.0312176,34.061615,SIT
2492987368000,1.255031,5.33175385158261,0.859385051582605,7.91749150436743,-0.034513887,0.009162978,0.011301007,292.62177,-6.0172215,34.07307,SIT
2492992316000,1.259979,5.33130145553777,0.86489255068549,7.91902570592345,-0.036651913,0.0036651916,0.0067195175,292.6232,-6.000705,34.08896,SIT
2492997341000,1.265004,5.3242976103915,0.871896410458449,7.91669113963033,-0.03176499,0.008552114,0.017104227,292.61975,-5.9827514,34.103127,SIT
2493002300000,1.269963,5.31738575604716,0.878808279237374,7.91438723629748,-0.036957346,0.0143553335,0.011301007,292.6244,-5.9664884,34.117275,SIT
2493007347000,1.27501,5.31035124730025,0.885842802675011,7.91204244901761,-0.03268129,0.012217305,0.008857546,292.62433,-5.951888,34.13227,SIT
2493012273000,1.279936,5.30143277728987,0.886524814355354,7.91181511701325,-0.03023783,0.004581489,0.016493361,292.6223,-5.938559,34.151283,SIT
2493017324000,1.284987,5.28739691837702,0.872488877276332,7.91649365522778,-0.032070424,0.0009162979,0.015882496,292.62378,-5.9272785,34.16879,SIT
2493022295000,1.289958,5.27577271432463,0.859816606763104,7.92211500417997,-0.020158553,0.015271631,0.016798794,292.6302,-5.9192357,34.185066,SIT
2493027338000,1.295001,5.27123624071013,0.850743564794289,7.93118809351869,-0.021991149,0.010995574,0.02107485,292.6364,-5.907423,34.20701,SIT
2493032325000,1.299988,5.26797287868299,0.843244920813309,7.93868677664972,-0.029626964,0.013133603,0.016187929,292.64197,-5.896502,34.220875,SIT
2493037417000,1.30508,5.27473326165897,0.847751858484288,7.93417981544824,-0.02687807,0.006414085,0.01282817,292.64597,-5.886987,34.23811,SIT
2493042535000,1.310198,5.28152816347967,0.852281808798521,7.92964984148336,-0.030848695,0.0125227375,0.0143553335,292.64117,-5.8768706,34.246502,SIT
2493047364000,1.315027,5.28793937506469,0.856555964731978,7.92537566323475,-0.028710667,0.01282817,0.0125227375,292.63916,-5.8701205,34.257793,SIT
2493052765000,1.320428,5.29511000123383,0.861336398817006,7.92059520419131,-0.028710667,0.02076942,0.015577064,292.63434,-5.861097,34.26504,SIT
2493057342000,1.325005,5.29053681649634,0.865537601619746,7.93089404271115,-0.03848451,0.0125227375,0.014660766,292.63217,-5.851398,34.27626,SIT
2493062288000,1.329951,5.28368663987659,0.870104401928268,7.94459449132279,-0.035430185,0.01038471,0.018936822,292.62656,-5.843583,34.283524,SIT
2493067328000,1.334991,5.27670627389125,0.874757995449287,7.95855532047821,-0.03970624,0.015271631,0.013439035,292.626,-5.835026,34.292183,SIT
2493072382000,1.340045,5.26970651800039,0.879424515618974,7.97255492971462,-0.032986723,0.018020526,0.007330383,292.62433,-5.829389,34.301804,SIT
2493077337000,1.345,5.2765049743405,0.88724022372362,7.99291501095779,-0.03573562,0.017715093,0.020463986,292.61438,-5.8202405,34.308403,SIT
2493082321000,1.349984,5.29103336468141,0.896925881337256,8.01712907913961,-0.029932396,0.019547688,0.016798794,292.61206,-5.818478,34.31262,SIT
2493087369000,1.355032,5.2959743,0.898167113660423,8.0212585094643,-0.02321288,0.01160644,0.016493361,292.60315,-5.8160167,34.309788,SIT
2493092341000,1.360004,5.2959743,0.895123196332545,8.01517067798696,-0.032375857,0.010079277,0.015271631,292.59552,-5.8119125,34.304634,SIT
2493097369000,1.365032,5.2959743,0.892044995140958,8.009014278818,-0.03481932,0.018020526,0.014049901,292.586,-5.8144383,34.29659,SIT
2493102442000,1.370105,5.2959743,0.888939244416033,8.00280278061114,-0.04062254,0.014966198,0.010079277,292.5785,-5.814536,34.29214,SIT
2493107360000,1.375023,5.2959743,0.88592838652816,7.99678106797929,-0.03604105,0.005497787,0.009773844,292.5702,-5.816028,34.287586,SIT
2493112338000,1.380001,5.2959743,0.88288079592917,7.99068588996356,-0.03023783,0.013133603,0.01282817,292.56165,-5.816488,34.279224,SIT
2493117299000,1.384962,5.29417701876703,0.88645805495912,7.9942458436989,-0.029932396,0.017104227,0.015271631,292.55228,-5.8140264,34.267418,SIT
2493122359000,1.390022,5.28962306631895,0.900119940834508,8.01246170104313,-0.03940081,0.014966198,0.011911872,292.544,-5.811054,34.25551,SIT
2493127273000,1.394936,5.28703321291675,0.911068085169695,8.0215497092234,-0.0421497,0.011301007,0.010995574,292.53186,-5.8072696,34.24512,SIT
2493132316000,1.399979,5.2894436642244,0.915888985268018,8.00708695103813,-0.038179077,0.01160644,0.0106901415,292.5208,-5.8033643,34.23448,SIT
2493137344000,1.405007,5.29184694583749,0.920695545984727,7.99266721116989,-0.034208454,0.009162978,0.007941248,292.5149,-5.8021092,34.22363,SIT
2493142334000,1.409997,5.2942320642244,0.925465780268018,7.97835645103813,-0.033292156,0.007941248,0.003970624,292.50952,-5.8013277,34.212666,SIT
2493147390000,1.415053,5.29276383081492,0.930876534863388,7.9653346380613,-0.037873644,0.006414085,0.015271631,292.49942,-5.8022227,34.208786,SIT
2493152370000,1.420033,5.28143276310287,0.937675187322404,7.95626983121882,-0.039095376,0.00030543262,0.008552114,292.49713,-5.8074846,34.205917,SIT
2493157360000,1.425023,5.27007894224281,0.944487491693989,7.94718682195296,-0.034513887,0.0033597588,0.015577064,292.48773,-5.81048,34.203907,SIT
2493162982000,1.430645,5.25728712242813,0.952162596939891,7.93695341952958,-0.03726278,0.007330383,0.01038471,292.4851,-5.8143425,34.202682,SIT
2493167388000,1.435051,5.24878004542936,0.956646085457064,7.93028573822715,-0.03390302,0.008857546,0.011301007,292.4781,-5.817198,34.19997,SIT
2493172357000,1.44002,5.25819582850218,0.942522460006925,7.9397014229818,-0.032375857,0.010079277,0.010995574,292.47327,-5.819889,34.1961,SIT
2493177522000,1.445185,5.26692165340468,0.927660890882023,7.94778247704324,-0.03390302,0.013744468,0.010995574,292.47208,-5.825596,34.189564,SIT
2493182322000,1.449985,5.26295431069302,0.911791855583844,7.93588065603694,-0.03756821,0.01160644,0.014660766,292.46997,-5.8304005,34.18462,SIT
2493187322000,1.454985,5.25882166203504,0.895261610481574,7.92348292582204,-0.03573562,0.015577064,0.013744468,292.46848,-5.8291435,34.174812,SIT
2493192340000,1.460003,5.2593039278735,0.885732368677838,7.92329280447014,-0.042455133,0.010995574,0.013439035,292.46606,-5.824402,34.168438,SIT
2493197328000,1.464991,5.26155882879396,0.87896779305924,7.92780253567619,-0.043066,0.014049901,0.016493361,292.46237,-5.821225,34.159126,SIT
2493202439000,1.470102,5.26386933372669,0.872036408539061,7.93242347316498,-0.035124753,0.0143553335,0.011911872,292.45407,-5.8188896,34.150852,SIT
2493207375000,1.475038,5.26610072725985,0.865342353756903,7.93688619033278,-0.029932396,0.02076942,0.005192355,292.44525,-5.8157024,34.14031,SIT
2493212343000,1.480006,5.27205902643785,0.859505074211503,7.9415802257885,-0.038789943,0.021685716,0.013744468,292.4367,-5.807372,34.134323,SIT
2493217323000,1.484986,5.28189044573284,0.854589338899196,7.9464959611008,-0.04153884,0.014660766,0.01740966,292.43234,-5.8036704,34.128616,SIT
2493222349000,1.490012,5.28128726512012,0.849780682560062,7.95258218950005,-0.040011674,0.007330383,0.01985312,292.42218,-5.795116,34.12362,SIT
2493227336000,1.494999,5.27199643706838,0.845135268534189,7.95955033479234,-0.03176499,0.018936822,0.01038471,292.41452,-5.7890677,34.11513,SIT
2493233116000,1.500779,5.26122824253477,0.839751171267386,7.96762650880265,-0.029932396,0.022296581,0.008246681,292.40475,-5.7806726,34.117546,SIT
2493237356000,1.505019,5.25332908253088,0.835801591265441,7.97355089942613,-0.03390302,0.01282817,0.0106901415,292.3968,-5.7737556,34.120144,SIT
2493242321000,1.509984,5.25830473099178,0.835225086198355,7.97135132007332,-0.035124753,0.009162978,0.010995574,292.39,-5.768698,34.120018,SIT
2493247395000,1.515058,5.28237719864262,0.840039579728525,7.95690778921034,-0.03390302,0.003970624,0.009468411,292.38354,-5.763297,34.12298,SIT
2493252354000,1.520017,5.2920157254172,0.840779712708601,7.94479094608472,-0.024740042,0.010995574,0.0125227375,292.37402,-5.7576313,34.121025,SIT
2493257353000,1.525016,5.28256091684606,0.836052308423028,7.93533618687667,-0.03634648,0.0012217305,0.0070249503,292.36893,-5.749106,34.124924,SIT
2493262272000,1.529935,5.27799707758435,0.8325940087511,7.93077237144254,-0.035124753,0.0018325958,0.013439035,292.35788,-5.7436414,34.127617,SIT
2493267329000,1.534992,5.28115468981581,0.831015196041076,7.93392996718826,-0.042760566,0.01740966,0.011301007,292.3515,-5.735735,34.128162,SIT
2493272272000,1.539935,5.28424111996414,0.829471974521271,7.93701638122249,-0.04184427,0.010995574,0.011911872,292.34927,-5.7254615,34.14132,SIT
2493277337000,1.545,5.2874037274295,0.827890664183863,7.94017897217604,-0.04428773,0.011301007,0.013439035,292.34656,-5.7131267,34.147835,SIT
2493282283000,1.549946,5.29049203079055,0.82634650605379,7.9432672594132,-0.04428773,0.009773844,0.013744468,292.34433,-5.7020082,34.156372,SIT
2493287381000,1.555044,5.29367524359576,0.824754893003423,7.94645045559902,-0.046120327,0.0070249503,0.0143553335,292.3415,-5.689915,34.164932,SIT
2493292294000,1.559957,5.29481866677232,0.825531423692328,7.94682344193896,-0.042760566,0.01038471,0.015577064,292.33093,-5.683433,34.16743,SIT
2493297381000,1.565044,5.29004311337734,0.833490713702784,7.93886417519932,-0.036651913,0.008857546,0.015882496,292.32086,-5.6773458,34.171947,SIT
2493302882000,1.570545,5.28487890672788,0.842097761933081,7.93025715213371,-0.03634648,0.003970624,0.014966198,292.307,-5.6709623,34.175163,SIT
2493307345000,1.575008,5.28068914954254,0.849080720713632,7.92327421376944,-0.03573562,0.008857546,0.013133603,292.29315,-5.6662126,34.17595,SIT
2493312337000,1.58,5.27600277986538,0.856891370552869,7.91546358676644,-0.04734206,0.0061086523,0.016493361,292.2785,-5.6579695,34.180344,SIT
2493317367000,1.58503,5.27128073670109,0.864761476460593,7.90759350386878,-0.03848451,0.006414085,0.008246681,292.26825,-5.656894,34.18197,SIT
2493322354000,1.590017,5.26789618010508,0.872141586915147,7.90282216074544,-0.030543262,0.016187929,0.011301007,292.25214,-5.648368,34.17731,SIT
2493327378000,1.595041,5.27266554378469,0.876911000396511,7.91713040118953,-0.032070424,-0.0012217305,0.0143553335,292.2401,-5.6411395,34.180115,SIT
2493332331000,1.599994,5.27787866639816,0.878950267203682,7.93065396087457,-0.03023783,0.0033597588,0.010079277,292.23422,-5.642042,34.173203,SIT
2493337289000,1.604952,5.28698525911009,0.860737081779824,7.93976050604143,-0.026267206,0.0070249503,0.0125227375,292.22583,-5.6414695,34.17186,SIT
2493342436000,1.610099,5.29644245632306,0.843461230818279,7.9496858077577,-0.034513887,0.0076358155,0.014660766,292.2214,-5.6442523,34.178936,SIT
2493347417000,1.61508,5.30565939958458,0.857286573529128,7.96811959803884,-0.028710667,0.009468411,0.0125227375,292.21735,-5.651329,34.184334,SIT
2493352454000,1.620117,5.31497996638006,0.871267350729398,7.98676063430586,-0.035124753,0.003970624,0.01282817,292.2074,-5.648935,34.19259,SIT
2493357348000,1.625011,5.32876238316246,0.903303205904968,7.96433256987382,-0.034513887,0.00580322,0.008246681,292.1996,-5.650558,34.19779,SIT
2493362299000,1.629962,5.34278478263013,0.936022390166601,7.94096174140379,-0.034208454,0.0125227375,0.0076358155,292.1903,-5.649808,34.203056,SIT
2493367372000,1.635035,5.33087151186865,0.932033696893929,7.94133715178872,-0.030848695,0.004886922,0.01740966,292.1825,-5.651134,34.211082,SIT
2493372404000,1.640067,5.31694969365882,0.925072778097646,7.94365745886177,-0.028405234,0.00030543262,0.011911872,292.17972,-5.654739,34.21565,SIT
2493377339000,1.645002,5.30329624118157,0.918246042354471,7.94593303823487,-0.031154128,0.0030543262,0.0125227375,292.17685,-5.6619563,34.222393,SIT
2493382290000,1.649953,5.28959852219173,0.911397173324185,7.94821599537291,-0.026267206,0.00580322,0.01863139,292.17413,-5.6711974,34.23013,SIT
2493387368000,1.655031,5.29013574119462,0.91353489729119,7.9412730566451,-0.040317107,0.004581489,0.014660766,292.1714,-5.6768475,34.232883,SIT
2493392277000,1.65994,5.29481593145844,0.918215082667994,7.93191272498756,-0.029626964,-0.0076358155,0.004581489,292.169,-5.689145,34.23791,SIT
2493397328000,1.664991,5.29927435580309,0.916073363183615,7.92299581947539,-0.03145956,-0.0021380284,0.007941248,292.16095,-5.6916313,34.23576,SIT
2493402367000,1.67003,5.30360933525871,0.911738342988681,7.91432577003234,-0.03023783,0.0106901415,0.015882496,292.15497,-5.6979623,34.2347,SIT
2493407344000,1.675007,5.30005258100264,0.904298212295515,7.9186900428496,-0.033292156,0.004581489,0.01282817,292.16077,-5.6982384,34.24011,SIT
2493412339000,1.680002,5.2899553005277,0.894200879102902,7.93383598992085,-0.026267206,0.009773844,0.0143553335,292.16125,-5.69917,34.23904,SIT
2493417355000,1.685018,5.28945486452593,0.896757789051868,7.94223006452593,-0.029626964,0.017104227,0.011301007,292.16312,-5.6972256,34.240013,SIT
2493422353000,1.690016,5.294147956633,0.906143973266006,7.946923156633,-0.041233405,0.009162978,0.016798794,292.16193,-5.693356,34.24412,SIT
2493427443000,1.695106,5.30043746589281,0.902358014966658,7.94428630303779,-0.040011674,0.015271631,0.0143553335,292.1595,-5.6936088,34.238712,SIT
2493432366000,1.700029,5.30742384608051,0.890713992868363,7.93729987421586,-0.032070424,0.014966198,0.0125227375,292.15564,-5.6918054,34.23762,SIT
2493437432000,1.705095,5.3146131619511,0.878731743030872,7.93011050829834,-0.035124753,0.016187929,0.008246681,292.15515,-5.690113,34.23412,SIT
2493442376000,1.710039,5.32162934388244,0.867038051124722,7.92309427752532,-0.028405234,0.010079277,0.012217305,292.15277,-5.69154,34.233078,SIT
2493447334000,1.714997,5.32219678515669,0.864420467217114,7.92503476062113,-0.042455133,0.007941248,0.022296581,292.14954,-5.687028,34.230713,SIT
2493452395000,1.720058,5.31764929288797,0.868968054456746,7.93412998258585,-0.034208454,0.012217305,0.011301007,292.15222,-5.69208,34.227684,SIT
2493457321000,1.724984,5.31891721313923,0.869594773646883,7.93727809343038,-0.03573562,0.018020526,0.010995574,292.14172,-5.683568,34.22878,SIT
2493462343000,1.730006,5.32789335860396,0.865106654050019,7.93279002069802,-0.034208454,0.009162978,0.009773844,292.13586,-5.679726,34.232384,SIT
2493467307000,1.73497,5.3329110322833,0.867394079452337,7.93096635340745,-0.03176499,0.01282817,0.0125227375,292.1294,-5.6762047,34.229633,SIT
2493472331000,1.739994,5.32795799098209,0.887206275688697,7.9359193429895,-0.03604105,0.019242255,0.01863139,292.1225,-5.6711564,34.228664,SIT
2493477290000,1.744953,5.31687805910345,0.8939586044,7.93604206075862,-0.03634648,0.016187929,0.011301007,292.12735,-5.6653733,34.240562,SIT
2493482327000,1.74999,5.29311537887685,0.874948390742857,7.92653691919212,-0.03176499,0.017104227,0.011301007,292.12708,-5.6578135,34.249615,SIT
2493488039000,1.755702,5.28049675854654,0.865588658546536,7.92553310701232,-0.0290161,0.010079277,0.01282817,292.1337,-5.6544633,34.259773,SIT
2493492356000,1.760019,5.28752490059498,0.872616800594985,7.93607535677858,-0.035124753,0.015271631,0.016493361,292.1389,-5.6498694,34.265953,SIT
2493497744000,1.765407,5.29650798978328,0.881244098328173,7.94857160278638,-0.04428773,0.015882496,0.01282817,292.1448,-5.640676,34.27146,SIT
2493502356000,1.770019,5.30893918816962,0.885387871507646,7.94442785556807,-0.036651913,0.02321288,0.014049901,292.14722,-5.632941,34.273685,SIT
2493507342000,1.775005,5.32237846725772,0.889867674862557,7.93994808027958,-0.03604105,0.015882496,0.019547688,292.1517,-5.623077,34.27944,SIT
2493512372000,1.780035,5.31274344902588,0.878681842413828,7.93518567743031,-0.034208454,0.02076942,0.017104227,292.15765,-5.6166763,34.27931,SIT
2493517293000,1.784956,5.29861798131681,0.864556296039564,7.93047722097113,-0.03970624,0.009162978,0.016187929,292.16205,-5.6078267,34.286034,SIT
2493522383000,1.790046,5.2959743,0.860717506633142,7.93557146683429,-0.032070424,0.013439035,0.018020526,292.16583,-5.60317,34.288357,SIT
2493532369000,1.800032,5.2959743,0.857854901125479,7.94988449437261,-0.03359759,0.013439035,0.0125227375,292.1748,-5.589161,34.29909,SIT
2493538850000,1.806513,5.2959743,0.855997045498084,7.95917377250958,-0.030543262,0.009773844,0.014660766,292.17847,-5.583248,34.30388,SIT
2493542398000,1.810061,5.2959743,0.854979969157088,7.96425915421456,-0.035124753,0.0061086523,0.021685716,292.17755,-5.572667,34.30892,SIT
2493547384000,1.815047,5.2959743,0.853550673036398,7.97140563481801,-0.03481932,0.01282817,0.0106901415,292.18176,-5.5667806,34.311325,SIT
2493552271000,1.819934,5.29566413765657,0.85202563765657,7.97592918828285,-0.029932396,0.010079277,0.01038471,292.1829,-5.5569863,34.31957,SIT
2493557292000,1.824955,5.29326456119068,0.849626061190678,7.96393130595339,-0.024129177,0.003970624,0.011301007,292.18716,-5.5493827,34.32631,SIT
2493562255000,1.829918,5.29089270339338,0.847254203393383,7.95207201696691,-0.029321533,0.011911872,0.0143553335,292.19315,-5.538425,34.326107,SIT
2493567272000,1.834935,5.28849503855981,0.844856538559808,7.94008369279904,-0.027488936,0.0125227375,0.010079277,292.20178,-5.5318546,34.32934,SIT
2493572255000,1.839918,5.28475544121043,0.844401053074185,7.9290486375445,-0.028405234,0.009162978,0.014049901,292.2058,-5.524318,34.33489,SIT
2493577258000,1.844921,5.27092510430097,0.858231341845473,7.92443844501107,-0.032070424,0.002443461,0.011911872,292.21338,-5.5184727,34.34066,SIT
2493582430000,1.850093,5.25755196823947,0.872064565409066,7.91990396944063,-0.021991149,0.009773844,0.018020526,292.21558,-5.5112824,34.342194,SIT
2493587264000,1.854927,5.25607307587132,0.879459112184136,7.91842509251509,-0.022296581,0.008552114,0.009773844,292.22403,-5.5037704,34.347305,SIT
2493592507000,1.86017,5.25446905587004,0.887479304311088,7.91682108926301,-0.028710667,0.014966198,0.018325957,292.2277,-5.496686,34.347122,SIT
2493597245000,1.864908,5.2530195333131,0.894727000343418,7.915371581842,-0.034208454,0.010995574,0.012217305,292.23965,-5.493644,34.349358,SIT
2493602337000,1.87,5.25146170957736,0.902516208489602,7.91381377437306,-0.035430185,0.009468411,0.018020526,292.24512,-5.486567,34.35062,SIT
2493607344000,1.875007,5.24992989036195,0.910175392540651,7.91228197115292,-0.03970624,0.008857546,0.020158553,292.25394,-5.479343,34.352303,SIT
2493612271000,1.879934,5.2484225459892,0.91771220097275,7.91077464251989,-0.039095376,0.01863139,0.015577064,292.26263,-5.473419,34.351303,SIT
2493617368000,1.885031,5.25181096482952,0.90821134284289,7.93276654438202,-0.036957346,0.01863139,0.015882496,292.26923,-5.4660263,34.353363,SIT
2493622286000,1.889949,5.25637297670477,0.894525169071097,7.96013880617977,-0.03359759,0.006414085,0.012217305,292.27878,-5.4607506,34.355793,SIT
2493627345000,1.895008,5.26459280250666,0.894105943173789,7.9644401529853,-0.034513887,0.015882496,0.009773844,292.2924,-5.4584417,34.34955,SIT
2493632353000,1.900016,5.27405907405507,0.898839054236652,7.95970709134511,-0.03573562,0.003970624,0.015882496,292.30548,-5.4562216,34.352936,SIT
2493637371000,1.905034,5.28016463615392,0.898547891923039,7.96334220423088,-0.03604105,0.0106901415,0.014966198,292.31512,-5.4535756,34.344566,SIT
2493642303000,1.909966,5.28480120998331,0.896229605008344,7.97029706497497,-0.032375857,0.015882496,0.0106901415,292.32425,-5.451335,34.340134,SIT
2493647372000,1.915035,5.28956657753019,0.893846921234907,7.97744511629528,-0.03023783,0.0067195175,0.013439035,292.3321,-5.4484615,34.339302,SIT
2493652424000,1.920087,5.29431596337489,0.891472228312555,7.98456919506233,-0.04184427,0.003970624,0.015882496,292.34094,-5.4440928,34.33512,SIT
2493657386000,1.925049,5.29304380469812,0.88185155573438,7.98412623529806,-0.04428773,0.01038471,0.013744468,292.34735,-5.4474993,34.33383,SIT
2493662695000,1.930358,5.28817888926419,0.86725677895321,7.97926137066309,-0.03359759,0.011911872,0.01160644,292.35315,-5.450884,34.334698,SIT
2493667373000,1.935036,5.28235336742522,0.868652805943469,7.97478390692478,-0.029932396,0.0106901415,0.010079277,292.35785,-5.451174,34.33462,SIT
2493672396000,1.940059,5.27492334623899,0.881036147002008,7.96983055084693,-0.03573562,0.010995574,0.013744468,292.3613,-5.451223,34.333744,SIT
2493677380000,1.945043,5.26755101384956,0.89332334028008,7.96491565403388,-0.029321533,0.0021380284,0.01038471,292.3684,-5.4534006,34.340267,SIT
2493682372000,1.950035,5.26016684786078,0.905630256179787,7.95999286814086,-0.026572637,0.0106901415,0.008857546,292.3728,-5.4525247,34.341732,SIT
2493687390000,1.955053,5.25149992879257,0.915963760185759,7.96449343560372,-0.038789943,0.010995574,0.011911872,292.37738,-5.4494443,34.34782,SIT
2493692382000,1.960045,5.24224932198142,0.925214410464396,7.97374413900929,-0.03634648,0.00580322,0.015577064,292.38202,-5.4506116,34.35283,SIT
2493697356000,1.965019,5.24681195944732,0.919268706757153,7.97333075583439,-0.040011674,0.005497787,0.014660766,292.39145,-5.4550467,34.35644,SIT
2493702393000,1.970056,5.26094290611268,0.902782590018065,7.96626525790938,-0.03940081,0.009773844,0.018936822,292.3977,-5.459501,34.360268,SIT
2493707365000,1.975028,5.27489149988282,0.886509218482082,7.95929093674934,-0.03023783,0.006414085,0.015577064,292.40973,-5.4683666,34.363895,SIT
2493712378000,1.980041,5.28895511624841,0.870101653817987,7.9522591040914,-0.03268129,0.007330383,0.0125227375,292.41974,-5.4737697,34.3651,SIT
2493717361000,1.985024,5.28872599063453,0.871577061262965,7.95358169783405,-0.027183503,0.0021380284,0.014660766,292.42932,-5.4827094,34.368877,SIT
2493722392000,1.990055,5.27402778651617,0.891174765661989,7.96338048352654,-0.037873644,0.0021380284,0.013439035,292.4407,-5.4881177,34.370556,SIT
2493727341000,1.995004,5.27207142439797,0.897806135199079,7.97273047480572,-0.03481932,0.004886922,0.016187929,292.4408,-5.491531,34.380016,SIT
2493732413000,2.000076,5.28139182658544,0.893145909774537,7.98205097431642,-0.03726278,0.0061086523,0.0070249503,292.44537,-5.493205,34.389088,SIT
2493738648000,2.006311,5.28971185631345,0.900586125479547,7.97379927474618,-0.034513887,0.0027488936,0.01282817,292.4489,-5.4976735,34.39617,SIT
2493742357000,2.01002,5.29321312306555,0.911089922079842,7.9597942077378,-0.032986723,0.0030543262,0.013439035,292.45703,-5.5034714,34.401127,SIT
2493747335000,2.014998,5.29961325484916,0.91391504812419,7.95420792277438,-0.034513887,0.0036651916,0.013744468,292.45703,-5.509154,34.403366,SIT
2493752389000,2.020052,5.30857150024986,0.900477754855636,7.96764526749028,-0.032375857,0.014966198,0.02076942,292.45404,-5.514637,34.402596,SIT
2493757272000,2.024935,5.31031417669285,0.889439599774995,7.97266617669285,-0.043066,0.020158553,0.022602014,292.45834,-5.5179653,34.405563,SIT
2493762380000,2.030043,5.28954643222246,0.884247644682658,7.95189843222246,-0.038789943,0.011911872,0.0106901415,292.46503,-5.526244,34.408825,SIT
2493767285000,2.034948,5.27627292214166,0.884900687907644,7.94026826715648,-0.031154128,0.010079277,0.010079277,292.463,-5.5289297,34.41151,SIT
2493772401000,2.040064,5.27469408748067,0.895952654181168,7.94342596945089,-0.032375857,0.01740966,0.014660766,292.4632,-5.531497,34.413525,SIT
2493777268000,2.044931,5.27319209602346,0.906466712010183,7.94642998373292,-0.03848451,0.008246681,0.018325957,292.46432,-5.5344915,34.419975,SIT
2493782378000,2.050041,5.27161511300593,0.917505716634442,7.94958398270173,-0.03940081,0.015271631,0.01282817,292.46603,-5.539017,34.419483,SIT
2493787331000,2.054994,5.27008658132573,0.928205558102926,7.95264107798402,-0.03726278,0.004886922,0.014049901,292.46127,-5.5461473,34.42876,SIT
2493792386000,2.060049,5.26852657170663,0.93912574760892,7.9557611298015,-0.03848451,0.016187929,0.010079277,292.45898,-5.553705,34.429344,SIT
2493797368000,2.065031,5.26647140482469,0.945013534643032,7.95678114191816,-0.036957346,0.0070249503,0.014049901,292.45477,-5.560613,34.43874,SIT
2493802400000,2.070063,5.26176474753394,0.926187303557965,7.94736802391835,-0.028405234,0.008246681,0.010079277,292.45377,-5.570535,34.441418,SIT
2493807315000,2.074978,5.25842028163205,0.908792286413316,7.93942379300339,-0.032986723,0.0027488936,0.008857546,292.45636,-5.5817914,34.441483,SIT
2493812426000,2.080089,5.26563006144744,0.89917926506211,7.94182704457701,-0.032986723,0.0027488936,0.00580322,292.46066,-5.5966167,34.43944,SIT
2493817324000,2.084987,5.27253937499386,0.889966864635931,7.94413014107625,-0.01985312,0.014660766,0.01038471,292.4583,-5.6087255,34.436546,SIT
2493822349000,2.090012,5.27962783978986,0.880515596334266,7.94649295445083,-0.036957346,0.01038471,0.01160644,292.45877,-5.6144004,34.43798,SIT
2493827545000,2.095208,5.28707733366115,0.869789805553867,7.94840958139473,-0.029321533,0.014660766,0.0106901415,292.45758,-5.62818,34.43373,SIT
2493832340000,2.100003,5.29528842284309,0.849261958276263,7.9443040153688,-0.032375857,0.013439035,0.014966198,292.45456,-5.6340823,34.432495,SIT
2493837370000,2.105033,5.30390193245418,0.827728053832812,7.93999723807778,-0.033292156,0.0036651916,0.011301007,292.4499,-5.639575,34.43404,SIT
2493842343000,2.110006,5.29873474733759,0.816789071750089,7.94939709678736,-0.039095376,0.013744468,0.009162978,292.44247,-5.6420355,34.43049,SIT
2493847940000,2.115603,5.28922089044196,0.807275165182819,7.96366790696663,-0.03481932,0.016798794,0.01038471,292.4359,-5.6465015,34.431614,SIT
2493852363000,2.120026,5.29190697375547,0.812716025286399,7.95963877498438,-0.031154128,0.016187929,0.01038471,292.41937,-5.648409,34.42997,SIT
2493857347000,2.12501,5.30184876129973,0.827628805223912,7.94472606771506,-0.037873644,0.016187929,0.0125227375,292.40173,-5.6481004,34.42751,SIT
2493862340000,2.130003,5.30124981878878,0.836049664121409,7.94777509236423,-0.032986723,0.010995574,0.0125227375,292.38138,-5.650868,34.422863,SIT
2493867327000,2.13499,5.29441207868665,0.840608173389329,7.96145062016799,-0.03176499,0.007330383,0.014049901,292.35995,-5.6504016,34.41815,SIT
2493872330000,2.139993,5.28755240077789,0.84518130791257,7.97517002373771,-0.033292156,0.013439035,0.00580322,292.34714,-5.652583,34.414875,SIT
2493877336000,2.144999,5.2806886095304,0.849757184671184,7.98889765401355,-0.034208454,0.005497787,0.007941248,292.33112,-5.6530585,34.41707,SIT
2493882374000,2.150037,5.27881983051175,0.857333632541782,7.99763303394379,-0.029321533,0.004276057,0.005192355,292.3143,-5.659099,34.41177,SIT
2493887381000,2.155044,5.28333478155925,0.86862102430394,7.99989043875053,-0.03481932,0.0027488936,0.009162978,292.29498,-5.660726,34.409245,SIT
2493892301000,2.159964,5.28777128228897,0.879712290025893,8.00210861962714,-0.036957346,0.01160644,0.010079277,292.28055,-5.6669736,34.40036,SIT
2493897361000,2.165024,5.29233402490937,0.891119160870016,8.00438991947178,-0.03573562,0.0070249503,0.010995574,292.2655,-5.6717596,34.396065,SIT
2493902385000,2.170048,5.29768080856653,0.901073109828489,8.00194377758621,-0.036651913,0.009162978,0.018325957,292.24753,-5.674069,34.387875,SIT
2493907417000,2.17508,5.30638106298068,0.905423214323885,7.98019339137931,-0.04062254,0.006414085,0.01160644,292.23465,-5.677812,34.382153,SIT
2493912685000,2.180348,5.31499881698399,0.909667477658448,7.95813252716213,-0.030848695,0.006414085,0.011911872,292.22684,-5.6819324,34.37701,SIT
2493918018000,2.185681,5.31170248672389,0.906371164608236,7.9531880747967,-0.03359759,0.0067195175,0.0061086523,292.22363,-5.6841335,34.372257,SIT
2493922335000,2.189998,5.30903414662773,0.903702838443268,7.94918559948044,-0.036957346,0.012217305,0.014049901,292.21542,-5.6890273,34.37214,SIT
2493927335000,2.194998,5.30594364385246,0.900612351803279,7.94454988565574,-0.03268129,0.008246681,0.014966198,292.21198,-5.6968718,34.374134,SIT
2493932291000,2.199954,5.30288033750161,0.897549061445721,7.93995496611269,-0.038179077,0.013133603,0.008552114,292.20786,-5.701283,34.372063,SIT
2493938878000,2.206541,5.29880890914548,0.893477654346199,7.93384787672002,-0.03359759,0.0143553335,0.0125227375,292.20013,-5.706986,34.372513,SIT
2493942280000,2.209943,5.29670613105718,0.89137488723635,7.93069373703369,-0.03726278,0.005192355,0.011911872,292.19653,-5.711017,34.37416,SIT
2493947352000,2.215015,5.28578052317941,0.894040997433838,7.93299390195291,-0.03359759,0.01038471,0.009773844,292.19147,-5.7172227,34.371483,SIT
2493952362000,2.220025,5.27264502372696,0.898419512491331,7.93737237129038,-0.034208454,0.01282817,0.010079277,292.1863,-5.721052,34.372177,SIT
2493957439000,2.225102,5.27003640888663,0.897427427786798,7.94196512346574,-0.03726278,0.021685716,0.011301007,292.1789,-5.7260985,34.372948,SIT
2493962340000,2.230003,5.27457256929545,0.892891229484875,7.94650130755775,-0.031154128,0.014966198,0.014660766,292.1712,-5.7324815,34.37744,SIT
2493967310000,2.234973,5.27917259321542,0.888291167138301,7.95110135549435,-0.03573562,0.010995574,0.01038471,292.16483,-5.7385244,34.37419,SIT
2493972353000,2.240016,5.2838401828791,0.883623538483619,7.9557689695274,-0.028405234,0.011301007,0.008857546,292.15652,-5.7474847,34.37192,SIT
2493977339000,2.245002,5.2801420738002,0.885236482681685,7.95624116519099,-0.028710667,0.017715093,0.0106901415,292.1485,-5.7534146,34.36903,SIT
2493982323000,2.249986,5.2661173125857,0.894586320237023,7.95156626105779,-0.040011674,0.008857546,0.008857546,292.143,-5.7589746,34.37024,SIT
2493987828000,2.255491,5.26498713350305,0.897779823991853,7.94386945346232,-0.040317107,0.0106901415,0.01282817,292.13422,-5.7617297,34.368805,SIT
2493992344000,2.260007,5.27819965264766,0.893375666272912,7.93506118401222,-0.036957346,0.01282817,0.0070249503,292.12988,-5.7644563,34.369328,SIT
2493997345000,2.265008,5.2863975,0.893667094444285,7.929596,-0.034513887,0.008246681,0.01038471,292.12405,-5.7667847,34.37018,SIT
2494002364000,2.270027,5.2863975,0.900569153960368,7.929596,-0.039095376,0.01985312,0.013744468,292.1195,-5.7690215,34.36563,SIT
2494007388000,2.275051,5.2863975,0.907478089407429,7.929596,-0.03390302,0.013744468,0.01282817,292.11328,-5.7727947,34.3677,SIT
2494012347000,2.28001,5.2863975,0.914297637751771,7.929596,-0.03390302,0.0125227375,0.007330383,292.10687,-5.774356,34.365112,SIT
2494017284000,2.284947,5.29012376241282,0.92185761629541,7.9320801533257,-0.032070424,0.009468411,0.018020526,292.09564,-5.774939,34.365345,SIT
2494022355000,2.290018,5.30528899250546,0.931967734500885,7.94219021874675,-0.038179077,0.014049901,0.01282817,292.09158,-5.776967,34.363018,SIT
2494027273000,2.294936,5.31364013321882,0.935551378580972,7.95618867854757,-0.03573562,0.009162978,0.010079277,292.0868,-5.781734,34.364197,SIT
2494032323000,2.299986,5.30902482164329,0.926320948196393,7.97926475450902,-0.029626964,0.011911872,0.010995574,292.08206,-5.7860126,34.361874,SIT
2494037340000,2.305003,5.30776012241298,0.916059767533909,7.98890158308831,-0.040317107,0.011301007,0.012217305,292.08255,-5.7868757,34.36377,SIT
2494042342000,2.310005,5.31684731839135,0.902428978310728,7.9570964446078,-0.03481932,0.01740966,0.015882496,292.08145,-5.7922893,34.363014,SIT
2494047328000,2.314991,5.32387700910359,0.891194789184643,7.9315270492657,-0.042455133,0.0067195175,0.01740966,292.07962,-5.7905116,34.365402,SIT
2494052368000,2.320031,5.31756678502201,0.895401619881466,7.94625093474093,-0.029321533,0.00580322,0.01740966,292.07645,-5.794527,34.36338,SIT
2494057333000,2.324996,5.3113504630845,0.899545848931015,7.96075571477753,-0.04062254,0.010079277,0.015577064,292.06995,-5.7868047,34.36444,SIT
2494062337000,2.33,5.30508531203207,0.903722630837147,7.97537442964222,-0.033292156,0.014049901,0.01740966,292.06232,-5.7859898,34.365883,SIT
2494067297000,2.33496,5.2988752502375,0.907862686443544,7.98986460264958,-0.033292156,0.0067195175,0.0143553335,292.05737,-5.7819457,34.36904,SIT
2494072347000,2.34001,5.29216468814711,0.904717151893649,7.99790333525787,-0.032986723,0.0033597588,0.018325957,292.0491,-5.7782936,34.370235,SIT
2494077338000,2.345001,5.28520758139343,0.895440962739314,8.0002223062685,-0.034208454,0.009773844,0.011911872,292.0454,-5.776481,34.370182,SIT
2494082335000,2.349998,5.2782421110572,0.886153622085294,8.00254406506235,-0.04550946,0.01160644,0.010995574,292.0371,-5.77527,34.364906,SIT
2494087408000,2.355071,5.27117070200864,0.876725029101936,8.00490113577701,-0.034208454,0.006414085,0.0106901415,292.03094,-5.77993,34.35981,SIT
2494092343000,2.360006,5.26829104989676,0.873583528220111,8.00306886124303,-0.033292156,0.011301007,0.01160644,292.02368,-5.776747,34.346268,SIT
2494097363000,2.365026,5.27077272623374,0.878546948269668,7.99562385814578,-0.048258353,0.0067195175,0.009468411,292.0183,-5.7730155,34.33713,SIT
2494102349000,2.370012,5.27323759440429,0.883476751530043,7.98822927937229,-0.038179077,0.007941248,0.014660766,292.00626,-5.7710366,34.32451,SIT
2494107345000,2.375008,5.27570740615321,0.888416442081355,7.98081986991534,-0.03756821,0.005192355,0.014966198,291.99713,-5.764578,34.314445,SIT
2494112340000,2.380003,5.27421849103021,0.891944157691927,7.97357669333829,-0.03145956,0.013744468,0.011301007,291.98727,-5.7616973,34.301224,SIT
2494117325000,2.384988,5.26948935806835,0.894308711827637,7.96648300624071,-0.025961773,0.01282817,0.008246681,291.97778,-5.758739,34.291847,SIT
2494122343000,2.390006,5.26472891891035,0.896688918979693,7.95934235993066,-0.03176499,0.011301007,0.010995574,291.96924,-5.755848,34.281773,SIT
2494127343000,2.395006,5.25998555585934,0.899060588122833,7.9522273277365,-0.03573562,0.009468411,0.014049901,291.9618,-5.7550645,34.272285,SIT
2494132298000,2.399961,5.26105237238386,0.901348313533552,7.95213487238386,-0.026572637,0.01038471,0.011301007,291.96304,-5.750898,34.265526,SIT
2494137755000,2.405418,5.26840959145941,0.903800711356171,7.95949209145941,-0.026267206,0.008552114,0.01282817,291.962,-5.742786,34.260483,SIT
2494142268000,2.409931,5.27449409387611,0.905828871769123,7.96557659387611,-0.038789943,0.016187929,0.008857546,291.96484,-5.7364836,34.252174,SIT
2494147352000,2.415015,5.2813484280854,0.908113641886438,7.97243092808541,-0.034513887,0.016493361,0.008857546,291.9662,-5.733485,34.2468,SIT
2494152334000,2.419997,5.28522932726063,0.90746029866384,7.97864817273938,-0.028405234,0.017715093,0.011911872,291.9648,-5.731338,34.23978,SIT
2494157352000,2.425015,5.28049053113598,0.897982642087565,7.98338696886402,-0.028710667,0.017715093,0.0143553335,291.9637,-5.7288594,34.233185,SIT
2494162268000,2.429931,5.27584805968346,0.8886976361631,7.98802944031654,-0.032070424,0.017104227,0.008246681,291.96497,-5.7284384,34.226788,SIT
2494167362000,2.435025,5.27103749223449,0.879076435963909,7.99284000776551,-0.040927973,0.010079277,0.010995574,291.9627,-5.7248464,34.222786,SIT
2494172317000,2.43998,5.26867407108175,0.874349561576057,7.99305830362971,-0.03970624,0.015882496,0.017104227,291.96088,-5.7240973,34.21665,SIT
2494177386000,2.445049,5.27640224838812,0.88980602109528,7.97373775949216,-0.043676864,0.010995574,0.01038471,291.96326,-5.721742,34.21525,SIT
2494182317000,2.44998,5.28392003144153,0.904841689252567,7.95494320373318,-0.03756821,0.009468411,0.011911872,291.9566,-5.71665,34.21091,SIT
2494187380000,2.455043,5.28285221751911,0.899160790345645,7.94165897205772,-0.032986723,0.009162978,0.008552114,291.9542,-5.7123,34.207306,SIT
2494192414000,2.460077,5.27766113200172,0.883587501270593,7.93127685522774,-0.037873644,0.0030543262,0.0036651916,291.95212,-5.707275,34.205864,SIT
2494197357000,2.46502,5.27489865519253,0.8810662,7.9372842193699,-0.03848451,0.0076358155,0.014660766,291.95245,-5.7047906,34.208042,SIT
2494202355000,2.470018,5.27257152826721,0.8810662,7.94659277567095,-0.037873644,0.007330383,0.012217305,291.9594,-5.704465,34.212498,SIT
2494207473000,2.475136,5.27018852794632,0.8810662,7.95612482672112,-0.034513887,0.007330383,0.009468411,291.9594,-5.7006025,34.216408,SIT
2494212312000,2.479975,5.26793543327013,0.8810662,7.96513725247958,-0.034513887,0.0070249503,0.01038471,291.959,-5.6960154,34.220367,SIT
2494217319000,2.484982,5.27048113359566,0.877829049503335,7.96142873280868,-0.03848451,0.01038471,0.010079277,291.95227,-5.6974316,34.219837,SIT
2494222361000,2.490024,5.27511532655118,0.8731948323528,7.95216034689764,-0.032986723,0.004276057,0.018325957,291.94275,-5.6994047,34.22238,SIT
2494227332000,2.494995,5.2796842621287,0.868625872920966,7.9430224757426,-0.026267206,0.008857546,0.009468411,291.93903,-5.703524,34.2186,SIT
2494232335000,2.499998,5.28428260948222,0.864027501559576,7.93382578103556,-0.038179077,0.008552114,0.016187929,291.92767,-5.7005496,34.21876,SIT
2494237384000,2.505047,5.28511380425833,0.867047391009219,7.92831227744988,-0.033292156,0.0009162979,0.009162978,291.92676,-5.705053,34.220444,SIT
2494242962000,2.510625,5.28250810744354,0.877470194593434,7.92570652621823,-0.046731193,0.008246681,0.011911872,291.91962,-5.6997232,34.218502,SIT
2494247334000,2.514997,5.28046577928394,0.885639520027316,7.92366415540705,-0.039095376,0.0106901415,0.007941248,291.91507,-5.700754,34.222103,SIT
2494252350000,2.520013,5.27812261413102,0.895012195319253,7.92132094131994,-0.032375857,0.0061086523,0.009162978,291.90784,-5.697195,34.225807,SIT
2494257309000,2.524972,5.27877774107132,0.90021986,7.92132370540049,-0.037873644,0.006414085,0.017715093,291.89917,-5.6920176,34.227474,SIT
2494262313000,2.529976,5.28328650420247,0.90021986,7.9243295736436,-0.035124753,0.017104227,0.013744468,291.89417,-5.692168,34.227,SIT
2494267308000,2.534971,5.28778715804742,0.90021986,7.92733003564887,-0.036651913,0.007941248,0.014966198,291.88666,-5.6972966,34.236393,SIT
2494272335000,2.539998,5.29231664490999,0.90021986,7.93034971983316,-0.024740042,0.015271631,0.009162978,291.88184,-5.7077184,34.23755,SIT
2494277334000,2.544997,5.29682090288214,0.90021986,7.9333525846108,-0.029321533,0.013133603,0.0106901415,291.8742,-5.7099986,34.239273,SIT
2494282335000,2.549998,5.3013269629179,0.90021986,7.93635665077464,-0.039095376,0.0143553335,0.01740966,291.86633,-5.713667,34.237957,SIT
2494287474000,2.555137,5.30426490915136,0.898933761989082,7.93788660915136,-0.03604105,0.01160644,0.018020526,291.8579,-5.7210984,34.236477,SIT
2494292357000,2.56002,5.29034033794541,0.885009113236725,7.92396203794541,-0.032375857,0.013439035,0.015882496,291.84802,-5.7255,34.233562,SIT
2494297512000,2.565175,5.27762565283728,0.872294355358847,7.91205230147193,-0.03176499,0.014966198,0.0143553335,291.8373,-5.7290545,34.23245,SIT
2494302250000,2.569913,5.28683789086387,0.881506622243427,7.93047672942848,-0.033292156,0.0125227375,0.019242255,291.82532,-5.7320247,34.232136,SIT
2494307320000,2.574983,5.29562143548515,0.889937328759559,7.94980809722912,-0.042455133,0.006414085,0.013439035,291.8141,-5.7326465,34.229847,SIT
2494312377000,2.58004,5.29081163534611,0.880317698347403,7.9642375478697,-0.04337143,0.013744468,0.0106901415,291.79987,-5.7334104,34.22482,SIT
2494317388000,2.585051,5.2857467348944,0.871001326170799,7.97764268957759,-0.028710667,0.006414085,0.013133603,291.7886,-5.737084,34.22514,SIT
2494322264000,2.589927,5.27717070609734,0.864569304573003,7.97978667438935,-0.03481932,0.0125227375,0.017104227,291.77704,-5.735711,34.219635,SIT
2494327457000,2.59512,5.26803712989899,0.857719122424242,7.98207004459596,-0.036651913,0.018936822,0.016493361,291.76727,-5.735198,34.215504,SIT
2494332244000,2.599907,5.25961763649219,0.851404502369146,7.98417489596878,-0.037873644,0.009468411,0.01038471,291.75858,-5.7336,34.214226,SIT
2494338359000,2.606022,5.24886242400367,0.843338093002755,7.98686367101469,-0.038179077,0.009468411,0.011911872,291.74695,-5.7306356,34.20888,SIT
2494342262000,2.609925,5.26265149179195,0.868241108442884,7.9797760660924,-0.034513887,0.013133603,0.017104227,291.7365,-5.7287006,34.205185,SIT
2494347217000,2.61488,5.28348021734884,0.904691410791177,7.96936164894107,-0.03176499,0.013133603,0.01740966,291.7275,-5.7270083,34.20251,SIT
2494352283000,2.619946,5.28215150369131,0.914042651875064,7.94667301845655,-0.03634648,0.01160644,0.011301007,291.71545,-5.722948,34.196156,SIT
2494357232000,2.624895,5.27734513687253,0.918849013675084,7.92264118436264,-0.03604105,0.01863139,0.0125227375,291.70065,-5.719445,34.187866,SIT
2494362286000,2.629949,5.28539421143835,0.91294333544499,7.91573230023303,-0.036651913,0.01863139,0.011911872,291.6956,-5.7214136,34.183384,SIT
2494367240000,2.634903,5.29480342182062,0.905886448536368,7.91102775644801,-0.035430185,0.008552114,0.016493361,291.68854,-5.722743,34.18021,SIT
2494372298000,2.639961,5.30441016104418,0.898681415435074,7.90622444953146,-0.03573562,0.007330383,0.01038471,291.69113,-5.7229047,34.177452,SIT
2494377226000,2.644889,5.31376998921612,0.891661565074619,7.90154459652933,-0.038789943,0.014049901,0.015577064,291.6884,-5.7201624,34.175835,SIT
2494382262000,2.649925,5.31110679535516,0.882600793470022,7.90488672066854,-0.043066,0.018020526,0.010079277,291.69153,-5.719787,34.17472,SIT
2494387297000,2.65496,5.30642112875328,0.873229626615489,7.90957228941794,-0.029321533,0.018325957,0.013439035,291.68976,-5.720728,34.173252,SIT
2494392283000,2.659946,5.29899772056588,0.874766056824324,7.92027233625845,-0.034208454,0.020158553,0.009773844,291.6887,-5.711258,34.16739,SIT
2494397279000,2.664942,5.29091572005912,0.878807078175676,7.93239535811655,-0.03359759,0.01160644,0.010995574,291.68527,-5.7051897,34.164852,SIT
2494402333000,2.669996,5.28088779394402,0.878862317577608,7.94358047635115,-0.03359759,0.008552114,0.008246681,291.68503,-5.7006636,34.169113,SIT
2494407352000,2.675015,5.26865726997455,0.873970107989822,7.9533649210687,-0.03634648,0.020158553,0.012217305,291.6818,-5.6944757,34.17169,SIT
2494412327000,2.67999,5.25653396717557,0.869120786870229,7.96306358862595,-0.032986723,0.014660766,0.0143553335,291.68253,-5.691679,34.177525,SIT
2494417322000,2.684985,5.24436192748092,0.864251970992366,7.97280124580153,-0.03268129,0.007330383,0.013439035,291.68253,-5.6874895,34.18055,SIT
2494422348000,2.690011,5.25126379243561,0.856812483025756,7.9723798563983,-0.049480084,0.0125227375,0.0076358155,291.68063,-5.6823645,34.180157,SIT
2494427337000,2.695,5.27548740590144,0.847123037639424,7.96269036042385,-0.036651913,0.015271631,0.011301007,291.6762,-5.6829476,34.182713,SIT
2494432321000,2.699984,5.28877735305974,0.852278412238969,7.96546585917923,-0.029321533,0.01038471,0.01160644,291.67413,-5.678784,34.18221,SIT
2494437394000,2.705057,5.29318838505538,0.869922540221536,7.97869895516615,-0.03756821,0.013439035,0.0125227375,291.6702,-5.6733522,34.178875,SIT
2494442341000,2.710004,5.29771579067293,0.882807719768388,7.98357366410016,-0.036957346,0.015882496,0.014966198,291.6626,-5.669118,34.18054,SIT
2494447340000,2.715003,5.30271046185707,0.887802474399583,7.97358416526865,-0.028710667,0.004581489,0.010079277,291.65768,-5.6658955,34.184967,SIT
2494452349000,2.720012,5.30360993037945,0.891613599877416,7.96596193037945,-0.028405234,-0.0021380284,0.0070249503,291.6552,-5.663612,34.186417,SIT
2494457346000,2.725009,5.29913184871099,0.893852652401628,7.96148384871099,-0.028710667,0.007330383,0.01160644,291.6516,-5.6626596,34.18645,SIT
2494462320000,2.729983,5.29467437858513,0.896081399100735,7.95702637858513,-0.03145956,0.007330383,0.012217305,291.652696472946,-5.66344293024048,34.1904546182365,SIT
2494467326000,2.734989,5.29018823153044,0.898324484339119,7.95254023153043,-0.029321533,0.004581489,0.009773844,291.6538,-5.6642313,34.194485,SIT
2494472325000,2.739988,5.28707043121345,0.89820106214364,7.94538485095943,-0.030848695,0.004276057,0.01038471,291.65308,-5.664323,34.19918,SIT
2494477627000,2.74529,5.29171006878655,0.88428212035636,7.92218671154057,-0.0290161,0.018020526,0.009468411,291.65295,-5.665562,34.200333,SIT
2494482707000,2.75037,5.2961936380062,0.871928081967249,7.90064625970347,-0.027183503,0.017715093,0.01160644,291.65363,-5.6669555,34.20497,SIT
2494487349000,2.755012,5.30111231928524,0.881765578063731,7.89572752706351,-0.033292156,0.011911872,0.0125227375,291.65463,-5.667183,34.20714,SIT
2494492310000,2.759973,5.30482159861878,0.889913646432518,7.8898299667719,-0.029626964,0.007941248,0.0106901415,291.65424,-5.668903,34.21693,SIT
2494497354000,2.765017,5.30005592430939,0.885147892501973,7.88029841910024,-0.032986723,0.009773844,0.014049901,291.65167,-5.6665063,34.226555,SIT
2494502341000,2.770004,5.29537981646347,0.880471716463471,7.8733239732806,-0.03848451,0.0143553335,0.0076358155,291.65497,-5.6678853,34.2362,SIT
2494507347000,2.77501,5.29091807046068,0.876009970460679,7.88224751187529,-0.038179077,0.013439035,0.009162978,291.65448,-5.6679606,34.246887,SIT
2494512308000,2.779971,5.28649643204281,0.871588332042811,7.89109083488134,-0.04153884,0.0076358155,0.006414085,291.65668,-5.666885,34.257263,SIT
2494517377000,2.78504,5.28197853542113,0.867070435421126,7.90012667530014,-0.03359759,0.005497787,0.01160644,291.65546,-5.6670175,34.266846,SIT
2494522294000,2.789957,5.27759611330852,0.862688013308516,7.90889156528618,-0.0290161,0.011911872,0.008246681,291.6579,-5.667407,34.274876,SIT
2494527370000,2.795033,5.28081713028078,0.877898346161325,7.9264280793928,-0.036651913,0.014966198,0.0067195175,291.6581,-5.6656113,34.284325,SIT
2494532361000,2.800024,5.28555944685981,0.896867642188709,7.9453972961901,-0.04062254,0.012217305,0.014049901,291.6563,-5.6647964,34.29347,SIT
2494538916000,2.806579,5.29189807572137,0.894719284278627,7.93774840599372,-0.03634648,0.017715093,0.014049901,291.65076,-5.6670456,34.294186,SIT
2494542315000,2.809978,5.29519376704465,0.891423592955351,7.93115705776045,-0.035124753,0.015882496,0.014049901,291.64316,-5.6663837,34.297897,SIT
2494547378000,2.815041,5.29977995455903,0.894448754297714,7.92579022622492,-0.038789943,0.016493361,0.01282817,291.63983,-5.6689224,34.297832,SIT
2494552275000,2.819938,5.30415672543164,0.898825570872609,7.92141331824545,-0.044898596,0.014049901,0.0070249503,291.63837,-5.6717567,34.298954,SIT
2494557275000,2.824938,5.30446007185906,0.90021986,7.92438276952116,-0.03390302,0.0125227375,0.008552114,291.63675,-5.674866,34.30528,SIT
2494562261000,2.829924,5.30287886031525,0.90021986,7.93070769825154,-0.036957346,0.0067195175,0.015882496,291.63535,-5.6731787,34.313255,SIT
2494567634000,2.835297,5.30117491935559,0.90021986,7.93752355105305,-0.03848451,0.0125227375,0.009162978,291.6386,-5.677102,34.318325,SIT
2494572620000,2.840283,5.29959370781178,0.90021986,7.94384847978343,-0.035124753,0.005192355,0.009162978,291.63776,-5.6790915,34.32893,SIT
2494577294000,2.844957,5.29811144091331,0.90021986,7.94977762476654,-0.03176499,0.005497787,0.013439035,291.63712,-5.681027,34.335365,SIT
2494582269000,2.849932,5.2965337178025,0.90021986,7.95608859958275,-0.03268129,0.0143553335,0.010995574,291.63806,-5.6813235,34.335846,SIT
2494587288000,2.854951,5.29040877884306,0.894654321408677,7.96667458173541,-0.031154128,0.013133603,0.011911872,291.63678,-5.681712,34.339226,SIT
2494592264000,2.859927,5.2819006272987,0.886146143211926,7.97943680905196,-0.038179077,0.013439035,0.010079277,291.63687,-5.680684,34.339443,SIT
2494597279000,2.864942,5.2768207,0.880100059177731,7.98222599588865,-0.031154128,0.010079277,0.01160644,291.63602,-5.682682,34.339397,SIT
2494602368000,2.870031,5.2768207,0.877694633226396,7.97019886613198,-0.029626964,0.0067195175,0.0076358155,291.63763,-5.6829314,34.339012,SIT
2494607242000,2.874905,5.2768207,0.87539083167662,7.9586798583831,-0.035430185,0.0143553335,0.011301007,291.6342,-5.6800976,34.335155,SIT
2494612562000,2.880225,5.2768207,0.872876218577563,7.94610679288781,-0.03940081,0.010995574,0.011301007,291.63397,-5.6792827,34.33511,SIT
2494617225000,2.884888,5.27180708861526,0.869818196205087,7.94752871897457,-0.026572637,0.015577064,0.0125227375,291.6395,-5.6723065,34.33065,SIT
2494622228000,2.889891,5.25729980246266,0.864982434154219,7.97170752922891,-0.040317107,0.01282817,0.01038471,291.6466,-5.6590633,34.329136,SIT
2494627221000,2.894884,5.25141766604946,0.860803476053286,7.99038407184014,-0.029932396,0.0106901415,0.0106901415,291.651,-5.6534514,34.32806,SIT
2494632248000,2.899911,5.26062331774492,0.857734920147874,7.99958973955638,-0.03359759,0.012217305,0.011301007,291.65594,-5.64196,34.326645,SIT
2494637569000,2.905232,5.27036735448085,0.854486902249984,8.00933379325005,-0.03481932,0.016798794,0.013744468,291.65985,-5.6329427,34.322132,SIT
2494642295000,2.909958,5.27902180244439,0.851602081241634,8.0179882562751,-0.03359759,0.0143553335,0.013133603,291.66476,-5.6243715,34.31917,SIT
2494647236000,2.914899,5.2880699673593,0.848586021021098,8.02703643693671,-0.03390302,0.0036651916,0.010079277,291.67575,-5.6073318,34.313274,SIT
2494652283000,2.919946,5.29731224388744,0.845505256816878,8.03627872954937,-0.027183503,0.0030543262,0.013133603,291.6845,-5.5920014,34.305584,SIT
2494657252000,2.924915,5.30408149940146,0.843738670475569,8.04108865845032,-0.028710667,0.008246681,0.007330383,291.69232,-5.581566,34.297813,SIT
2494662245000,2.929908,5.28847040048972,0.854146105974535,8.00466268854065,-0.03481932,0.007330383,0.0061086523,291.69778,-5.5707655,34.292343,SIT
2494667259000,2.934922,5.2816937669037,0.859476072908642,7.97382519664198,-0.041233405,0.0036651916,0.015882496,291.70093,-5.552228,34.285465,SIT
2494672248000,2.939911,5.30056933428148,0.85003831385679,7.95966850879012,-0.02687807,0.003970624,0.014049901,291.70834,-5.5398645,34.277504,SIT
2494677246000,2.944909,5.30969093443918,0.843846413112164,7.94657468513033,-0.030848695,0.0015271631,0.0106901415,291.7153,-5.5205026,34.266888,SIT
2494682223000,2.949886,5.28616026026856,0.848552547946288,7.93716246460308,-0.029321533,0.0036651916,0.0076358155,291.7226,-5.506655,34.25517,SIT
2494687247000,2.95491,5.26909975891462,0.851407915698253,7.92866811569825,-0.035430185,0.007941248,0.01038471,291.72595,-5.48804,34.24713,SIT
2494692242000,2.959905,5.27816086915755,0.846877336922858,7.92413753692286,-0.032986723,0.011301007,0.0070249503,291.73242,-5.473874,34.238678,SIT
2494697239000,2.964902,5.28722560747265,0.842344944101908,7.91960514410191,-0.035124753,0.0036651916,0.015271631,291.73865,-5.456124,34.233196,SIT
2494702282000,2.969945,5.29637379144765,0.837770828233177,7.91503102823318,-0.030543262,0.0061086523,0.012217305,291.7494,-5.443508,34.22365,SIT
2494707576000,2.975239,5.30594260396729,0.833573803967287,7.91102980390639,-0.0290161,0.009162978,0.0061086523,291.75854,-5.42942,34.21645,SIT
2494712272000,2.979935,5.31376801771359,0.84139921771359,7.92276788366974,-0.032986723,0.0067195175,0.010995574,291.76508,-5.414371,34.21056,SIT
2494717263000,2.984926,5.32208501941883,0.849716219418827,7.93524334280494,-0.03634648,0.0076358155,0.008552114,291.77283,-5.400276,34.205532,SIT
2494722294000,2.989957,5.3096592657318,0.863619830157829,7.95045669088225,-0.039095376,0.0009162979,0.008552114,291.77844,-5.384759,34.203712,SIT
2494727216000,2.994879,5.28825043795844,0.879676492903372,7.96651329774043,-0.03023783,0.0143553335,0.005192355,291.7852,-5.372695,34.19581,SIT
2494732274000,2.999937,5.27802225106202,0.889441518901161,7.98046598272444,-0.029932396,0.008246681,0.0027488936,291.7904,-5.3630304,34.194096,SIT
2494737227000,3.00489,5.26906659303314,0.898397251741716,7.993899586661,-0.021380283,0.007330383,0.00580322,291.7942,-5.357371,34.187366,SIT
2494742302000,3.009965,5.27704652769295,0.883882236508389,8.00643609593121,-0.023518313,0.007330383,0.010079277,291.8052,-5.3514614,34.180603,SIT
2494747227000,3.01489,5.28891705852349,0.864097924805369,8.01830670939597,-0.026267206,0.008857546,0.009773844,291.8166,-5.3478947,34.173775,SIT
2494752348000,3.020011,5.29813452455256,0.863137049082493,8.00592175345608,-0.036651913,0.011301007,0.017104227,291.82907,-5.340454,34.1662,SIT
2494757360000,3.025023,5.30307161778441,0.887822803939519,7.96148739883769,-0.04062254,0.010995574,0.0143553335,291.84506,-5.335857,34.15881,SIT
2494762339000,3.030002,5.30074260630162,0.890603007331498,7.93676851570307,-0.032986723,0.008246681,0.009773844,291.84738,-5.3341794,34.156685,SIT
2494767326000,3.034989,5.29100277714898,0.871123216812481,7.93189862655246,-0.033292156,0.007941248,0.01160644,291.8484,-5.329266,34.15412,SIT
2494772325000,3.039988,5.27386661969877,0.864418776060246,7.93711450201149,-0.031154128,0.009773844,0.008552114,291.85547,-5.336392,34.15735,SIT
2494777343000,3.045006,5.2500574726516,0.869180605469679,7.95139994051724,-0.026572637,0.01038471,0.011911872,291.8597,-5.3425303,34.1611,SIT
2494782313000,3.049976,5.25183873305302,0.873710272175503,7.9561054278245,-0.034513887,0.00580322,0.013439035,291.86182,-5.343677,34.165455,SIT
2494787359000,3.055022,5.27834213312614,0.878127505521024,7.95168819447898,-0.033292156,0.0106901415,0.009773844,291.86417,-5.3482385,34.166748,SIT
2494792289000,3.059952,5.29455206563444,0.878221731268882,7.95017173436556,-0.045814894,0.013439035,0.0143553335,291.86316,-5.3488655,34.16476,SIT
2494797408000,3.065071,5.28992370090634,0.868965001812689,7.95480009909366,-0.03268129,0.015577064,0.0106901415,291.8661,-5.3576083,34.161217,SIT
2494802334000,3.069997,5.28735784261838,0.861432426183844,7.95784612618384,-0.035124753,0.008857546,0.01282817,291.8651,-5.359524,34.16503,SIT
2494807390000,3.075053,5.29209029123296,0.859066189522553,7.95547988952255,-0.038179077,0.004886922,0.013744468,291.86563,-5.3649697,34.167225,SIT
2494812333000,3.079996,5.2967169711186,0.856752837501833,7.95316653750183,-0.03268129,0.0027488936,0.0125227375,291.86404,-5.3720217,34.17283,SIT
2494817364000,3.085027,5.30142601957191,0.854398300982261,7.95081200098226,-0.036651913,0.008857546,0.01282817,291.86142,-5.3755107,34.17706,SIT
2494822325000,3.089988,5.30340692261063,0.855015914087695,7.94660541701354,-0.024740042,0.008857546,0.013744468,291.8632,-5.3809137,34.1847,SIT
2494827380000,3.095043,5.28384318397656,0.879470745700141,7.92704162730855,-0.029626964,0.008246681,0.008857546,291.86658,-5.382225,34.19036,SIT
2494832332000,3.099995,5.26912809385757,0.898335755649851,7.90918633305638,-0.03726278,0.01038471,0.02443461,291.85944,-5.383618,34.199154,SIT
2494837436000,3.105099,5.28363249061325,0.883831278118694,7.89951670156281,-0.03848451,0.0030543262,0.01740966,291.86203,-5.389604,34.209595,SIT
2494842401000,3.110064,5.29682619715403,0.871205433293607,7.8912888,-0.03023783,0.005497787,0.017104227,291.8617,-5.4014864,34.221394,SIT
2494847449000,3.115112,5.30373998627544,0.868900828898317,7.8912888,-0.03634648,0.00061086525,0.010079277,291.86652,-5.4115214,34.236385,SIT
2494852732000,3.120395,5.31097563364637,0.866488938046432,7.8912888,-0.034208454,0.00061086525,0.005497787,291.865314590611,-5.41702873415447,34.2427827370015,SIT
2494857354000,3.125017,5.31730596908996,0.864378818887353,7.8912888,-0.030543262,0.011911872,0.010079277,291.86426,-5.421847,34.24838,SIT
2494862344000,3.130007,5.32414032085618,0.862100693702627,7.8912888,-0.039095376,0.016187929,0.01160644,291.8642,-5.427891,34.262993,SIT
2494867335000,3.134998,5.32911495574776,0.866322955747762,7.90893022299105,-0.028099801,0.010079277,0.0018325958,291.86795,-5.441382,34.276512,SIT
2494872305000,3.139968,5.33390191099266,0.871109910992658,7.92807804397063,-0.03573562,0.013744468,0.013439035,291.86316,-5.444455,34.28638,SIT
2494877344000,3.145007,5.33852628153061,0.875734294827997,7.93808571873658,-0.034208454,0.010079277,0.016187929,291.86346,-5.453672,34.30064,SIT
2494882299000,3.149962,5.34305445978339,0.880262487265614,7.94714202795935,-0.036957346,0.01038471,0.015271631,291.86063,-5.458527,34.312546,SIT
2494887401000,3.155064,5.3477169755141,0.884925017601985,7.95646701073524,-0.03390302,0.013744468,0.0143553335,291.85785,-5.4650908,34.32331,SIT
2494892844000,3.160507,5.3526911176392,0.889899175308936,7.96641524304595,-0.033292156,0.0106901415,0.0106901415,291.85648,-5.470781,34.335274,SIT
2494897418000,3.165081,5.34593004626928,0.879385605894123,7.97165555523135,-0.035124753,0.016493361,0.0106901415,291.85364,-5.475904,34.343483,SIT
2494902328000,3.169991,5.33612969445602,0.864685047473947,7.97655583347228,-0.03145956,0.0143553335,0.013133603,291.8516,-5.482403,34.354385,SIT
2494907355000,3.175018,5.33031067340006,0.865883326599939,7.981450685138,-0.030543262,0.0143553335,0.012217305,291.85214,-5.4895334,34.36198,SIT
2494912296000,3.179959,5.32552663045193,0.870667369548074,7.98623467813163,-0.024129177,0.014049901,0.014049901,291.85092,-5.4977,34.370132,SIT
2494917330000,3.184993,5.31134814410854,0.869581334872649,7.98133250461795,-0.0421497,0.0036651916,0.0076358155,291.84653,-5.501632,34.37729,SIT
2494922356000,3.190019,5.29530763101166,0.867289833001666,7.974457999005,-0.03145956,0.0036651916,0.01038471,291.83795,-5.5116825,34.381775,SIT
2494927358000,3.195021,5.2793437140776,0.865009273439657,7.96761632031897,-0.04337143,0.010079277,0.012217305,291.83783,-5.5069137,34.381195,SIT
2494932326000,3.199989,5.2634883083742,0.862744215482028,7.96082114644608,-0.040927973,0.011911872,0.011911872,291.8377,-5.5079265,34.38186,SIT
2494939600000,3.207263,5.26107157470402,0.863614878464499,7.9583263,-0.038789943,0.011911872,0.010079277,291.8377,-5.5039206,34.378338,SIT
2494942344000,3.210007,5.26278573121555,0.864471952245524,7.9583263,-0.02565634,0.006414085,0.010995574,291.83704,-5.502822,34.376045,SIT
2494947392000,3.215055,5.26593917949186,0.866048668151724,7.9583263,-0.03634648,0.0070249503,0.012217305,291.8371,-5.4970636,34.36976,SIT
2494952350000,3.220013,5.26903640543361,0.867597273037409,7.9583263,-0.038179077,0.0125227375,0.008857546,291.83844,-5.4970975,34.363644,SIT
2494957350000,3.225013,5.27215986846483,0.869158996399335,7.9583263,-0.030543262,0.009773844,0.013439035,291.837,-5.495451,34.36012,SIT
2494963022000,3.230685,5.27570312492743,0.870930615381103,7.9583263,-0.035124753,0.004581489,0.012217305,291.83856,-5.4920754,34.35559,SIT
2494967329000,3.234992,5.28653643140612,0.869060473489122,7.95103954582998,-0.030543262,0.005192355,0.016493361,291.8371,-5.4937587,34.35599,SIT
2494972331000,3.239994,5.30583670483481,0.864235417727639,7.93656442892828,-0.024740042,0.01282817,0.009162978,291.83997,-5.4967003,34.355335,SIT
2494977340000,3.245003,5.31265532013103,0.85696734353782,7.92465074353782,-0.028710667,0.0125227375,0.008246681,291.84006,-5.4972177,34.357826,SIT
2494982328000,3.249991,5.30791340271987,0.847483706769903,7.9151671067699,-0.029321533,0.00580322,0.015882496,291.8396,-5.499573,34.359966,SIT
2494987335000,3.254998,5.29876910028079,0.840498358891801,7.9149636822164,-0.04062254,-0.00030543262,0.0070249503,291.83917,-5.5028033,34.3631,SIT
2494992373000,3.260036,5.28522143541745,0.835982454885811,7.92399549022838,-0.03359759,0.004886922,0.0067195175,291.83304,-5.507395,34.365322,SIT
2494997270000,3.264933,5.28018134649184,0.834862523245918,7.93295662894607,-0.037873644,0.013439035,0.013133603,291.82578,-5.5053396,34.36852,SIT
2495002405000,3.270068,5.28991452175161,0.839729110875804,7.94268975338941,-0.0290161,0.01160644,0.014660766,291.8205,-5.5087543,34.37287,SIT
2495007274000,3.274937,5.29832871168456,0.845113419879429,7.95188872650591,-0.035124753,0.009162978,0.011301007,291.81262,-5.5096917,34.37529,SIT
2495012360000,3.280023,5.3054905166054,0.852275249727981,7.96143783297064,-0.0421497,0.00580322,0.01038471,291.80353,-5.5116186,34.378525,SIT
2495017289000,3.284952,5.31243124339558,0.859216000676371,7.97069216756849,-0.028405234,0.015882496,0.009468411,291.7959,-5.5179358,34.378593,SIT
2495022352000,3.290015,5.31956066107435,0.866345443170122,7.9801980908935,-0.03573562,0.014049901,0.010079277,291.78873,-5.517383,34.382877,SIT
2495027273000,3.294936,5.3253119513254,0.872704106455937,7.98401994337301,-0.028099801,0.013133603,0.009162978,291.78198,-5.5237575,34.383904,SIT
2495032675000,3.300338,5.32789942124637,0.877879062508753,7.97108259376813,-0.03573562,0.008552114,0.01160644,291.77417,-5.523981,34.386566,SIT
2495037346000,3.305009,5.33013675408623,0.882353742205662,7.95989592956887,-0.036957346,0.013439035,0.013439035,291.7738,-5.522127,34.381203,SIT
2495042343000,3.310006,5.33253023561068,0.887140720250075,7.94792852194658,-0.03573562,0.008246681,0.011301007,291.77454,-5.5194073,34.380013,SIT
2495047307000,3.31497,5.33305495229843,0.891256290254075,7.94469177868997,-0.03023783,0.0061086523,0.003970624,291.77438,-5.521603,34.37958,SIT
2495052364000,3.320027,5.32831325044304,0.893627165938219,7.96602968460371,-0.027794369,0.0027488936,0.00580322,291.7721,-5.522182,34.381165,SIT
2495057317000,3.32498,5.32366906430704,0.895949283253537,7.98692876468889,-0.029626964,0.010995574,0.008552114,291.77335,-5.525609,34.381493,SIT
2495062337000,3.33,5.31896205554413,0.89830281221031,8.00811054987516,-0.034513887,0.009773844,0.0070249503,291.7759,-5.529134,34.385235,SIT
2495067338000,3.335001,5.31454992817526,0.899641789382487,8.02276268735191,-0.02687807,0.0143553335,0.012217305,291.77954,-5.5306535,34.388485,SIT
2495072367000,3.34003,5.31136229308028,0.89645416094447,8.00841838767291,-0.030848695,0.012217305,0.008552114,291.78696,-5.530013,34.393444,SIT
2495077345000,3.345008,5.30820698437024,0.89329885882388,7.99421955613542,-0.035124753,0.0106901415,0.011301007,291.7919,-5.530249,34.39319,SIT
2495082344000,3.350007,5.30503836479582,0.890130245866702,7.97996082595142,-0.036651913,0.0125227375,0.012217305,291.79858,-5.5310965,34.39235,SIT
2495087416000,3.355079,5.30182347412138,0.886915361906149,7.96549387666292,-0.04062254,0.010079277,0.009162978,291.8092,-5.53081,34.398823,SIT
2495092344000,3.360007,5.2986998579456,0.883791752253624,7.95143766095043,-0.036957346,0.0036651916,0.01160644,291.81754,-5.530986,34.405857,SIT
2495097366000,3.365029,5.2959743,0.880635500510776,7.93852665301483,-0.025045475,0.0125227375,0.008857546,291.8274,-5.536406,34.412304,SIT
2495102352000,3.370015,5.2959743,0.877661168581039,7.93406517064906,-0.037873644,0.011301007,0.008857546,291.83594,-5.535955,34.423164,SIT
2495107277000,3.37494,5.2959743,0.874723225389311,7.92965827120032,-0.03390302,-0.004886922,0.0070249503,291.84988,-5.5398498,34.443882,SIT
2495112337000,3.38,5.2959743,0.871704749744612,7.92513057349259,-0.030848695,0.009162978,0.014049901,291.8593,-5.5391283,34.45599,SIT
2495117296000,3.384959,5.2959743,0.868746524305469,7.92069325077862,-0.030848695,0.00580322,0.008246681,291.87488,-5.5410323,34.476383,SIT
2495122342000,3.390005,5.2959743,0.865736400174411,7.91617808029774,-0.035124753,0.009162978,0.008552114,291.8849,-5.5405297,34.490677,SIT
2495127324000,3.394987,5.2959743,0.862764454391429,7.91172017713965,-0.03023783,0.007941248,0.008246681,291.89713,-5.5432277,34.506382,SIT
2495132360000,3.400023,5.29378960763783,0.8619126,7.91481177331816,-0.03023783,0.010995574,0.010995574,291.9085,-5.538226,34.512424,SIT
2495138905000,3.406568,5.28982652240769,0.8619126,7.92273792308738,-0.04153884,0.016187929,0.014660766,291.91946,-5.53181,34.517895,SIT
2495142301000,3.409964,5.2877701988872,0.8619126,7.92685055939239,-0.03940081,0.01282817,0.017715093,291.9275,-5.5267262,34.525978,SIT
2495147338000,3.415001,5.28472022787051,0.8619126,7.93295048550202,-0.040927973,0.009468411,0.01160644,291.93707,-5.5193305,34.53215,SIT
2495152297000,3.41996,5.28171748689934,0.8619126,7.9389559517672,-0.03176499,0.008246681,0.0061086523,291.9485,-5.509535,34.535103,SIT
2495157346000,3.425009,5.2786602497218,0.8619126,7.9450704101606,-0.031154128,0.006414085,0.009773844,291.9588,-5.497353,34.53909,SIT
2495162271000,3.429934,5.27359824708452,0.863523818045649,7.94713828195435,-0.03573562,0.010079277,0.016798794,291.96954,-5.4868445,34.541595,SIT
2495167323000,3.434986,5.26497088506598,0.867837476533524,7.94282462346648,-0.03726278,0.013439035,0.008552114,291.98425,-5.479469,34.544117,SIT
2495172343000,3.440006,5.25836812434723,0.87219050970539,7.93706937820475,-0.03481932,0.012217305,0.013744468,291.99237,-5.4692674,34.545174,SIT
2495177336000,3.444999,5.26307971770618,0.876902004670411,7.92293494250665,-0.028710667,0.009773844,0.013133603,292.00513,-5.462264,34.545097,SIT
2495182386000,3.450049,5.26785227180177,0.882282760117659,7.91165895630671,-0.032375857,0.008246681,0.01160644,292.0163,-5.449393,34.53373,SIT
2495187371000,3.455034,5.27261245222854,0.891803250206402,7.92117941657194,-0.03359759,0.013439035,0.009773844,292.02756,-5.439166,34.521416,SIT
2495192317000,3.45998,5.27781836045613,0.898723366190568,7.92809950931581,-0.03390302,0.01160644,0.0125227375,292.0355,-5.4295726,34.508755,SIT
2495197338000,3.465001,5.28711196555856,0.884782929424043,7.91415910166216,-0.034513887,0.0070249503,0.018325957,292.04285,-5.4198427,34.49588,SIT
2495202535000,3.470198,5.29499790374913,0.871294120749825,7.90223255067305,-0.03848451,0.0061086523,0.018020526,292.05328,-5.4117675,34.48231,SIT
2495207350000,3.475013,5.28350316549008,0.868995173098016,7.91832513622495,-0.03481932,0.013133603,0.013744468,292.06293,-5.4054265,34.468212,SIT
2495212481000,3.480144,5.27125404773158,0.866545349546316,7.93547384992522,-0.034513887,0.0061086523,0.014966198,292.06754,-5.3941016,34.46129,SIT
2495217907000,3.48557,5.25830068328846,0.863954676657693,7.95360850604248,-0.03848451,0.008246681,0.01740966,292.07257,-5.383529,34.44998,SIT
2495222563000,3.490226,5.24826282444624,0.862430179824128,7.96755794930602,-0.031154128,0.007330383,0.018936822,292.08157,-5.372573,34.442078,SIT
2495227376000,3.495039,5.2504537483506,0.869003033896758,7.96317607861964,-0.03940081,0.012217305,0.013744468,292.09167,-5.3582544,34.432022,SIT
2495232753000,3.500416,5.25290141048103,0.876346112298698,7.95828072880027,-0.03604105,0.014049901,0.013133603,292.10016,-5.3476877,34.41906,SIT
2495237424000,3.505087,5.25502769461926,0.882725044643027,7.95402813832113,-0.039095376,0.0027488936,0.014966198,292.10992,-5.334654,34.408768,SIT
2495242363000,3.510026,5.25727597493583,0.889469970108375,7.94953155421143,-0.035430185,0.015882496,0.012217305,292.11713,-5.325893,34.386806,SIT
2495247402000,3.515065,5.27715250623053,0.886745934338006,7.94095533820093,-0.03390302,0.017715093,0.01282817,292.1234,-5.315527,34.3719,SIT
2495252418000,3.520081,5.30053511370717,0.882069383543614,7.93160234404206,-0.0421497,0.013744468,0.01160644,292.13104,-5.304885,34.355324,SIT
2495257348000,3.525011,5.3037867264914,0.875773324206501,7.93312456543977,-0.035124753,0.0143553335,0.0106901415,292.14063,-5.303039,34.34097,SIT
2495262291000,3.529954,5.30152393356119,0.868984874531549,7.9376501749283,-0.036651913,0.01985312,0.015882496,292.14844,-5.29674,34.326893,SIT
2495267326000,3.534989,5.29921902512428,0.862070077017208,7.94226001586998,-0.030543262,0.016798794,0.010079277,292.15833,-5.294553,34.318283,SIT
2495272354000,3.540017,5.29691732112811,0.85516489292543,7.94686344789675,-0.033292156,0.01160644,0.011301007,292.16385,-5.288204,34.309433,SIT
2495277340000,3.545003,5.30153860959095,0.857900080540111,7.93483882770056,-0.038789943,0.014049901,0.010079277,292.17,-5.2833476,34.294704,SIT
2495282353000,3.550016,5.31107172099881,0.86743314217633,7.91100622338165,-0.028099801,0.008857546,0.008857546,292.17627,-5.281703,34.284065,SIT
2495288079000,3.555742,5.31173013676311,0.868091607721931,7.89067215220697,-0.03940081,0.014660766,0.0143553335,292.17725,-5.270522,34.269547,SIT
2495292344000,3.560007,5.30769677002074,0.864058325209835,7.87857222044041,-0.03359759,0.010079277,0.013439035,292.1815,-5.2673697,34.259583,SIT
2495297341000,3.565004,5.30308727178423,0.8619126,7.88322184771784,-0.029626964,0.016493361,0.013744468,292.18427,-5.2617946,34.24766,SIT
2495302417000,3.57008,5.29850300330064,0.8619126,7.90385118753301,-0.03145956,0.0061086523,0.008246681,292.1902,-5.257519,34.241905,SIT
2495307339000,3.575002,5.29405781624859,0.8619126,7.92385465691249,-0.040317107,0.0033597588,0.009162978,292.20074,-5.245775,34.238636,SIT
2495312345000,3.580008,5.28953676659751,0.8619126,7.94419951016598,-0.035430185,0.00580322,0.0125227375,292.2124,-5.237759,34.23675,SIT
2495317312000,3.584975,5.28327505647277,0.860351370085283,7.95676507008528,-0.034513887,0.007330383,0.015577064,292.22388,-5.2270794,34.235886,SIT
2495322353000,3.590016,5.27271822359501,0.855072926087907,7.95148662608791,-0.032070424,0.016493361,0.012217305,292.23587,-5.218832,34.232044,SIT
2495327343000,3.595006,5.27383120378269,0.858923026710412,7.95314096154588,-0.038789943,0.009468411,0.011301007,292.24313,-5.2145147,34.231827,SIT
2495332354000,3.600017,5.28772366091865,0.8728155322011,7.96240258351829,-0.03176499,0.012217305,0.017104227,292.24844,-5.213614,34.22643,SIT
2495338492000,3.606155,5.29853402319527,0.883625965961116,7.97046280338123,-0.03268129,0.010995574,0.015271631,292.2564,-5.21023,34.22344,SIT
2495342344000,3.610007,5.30165231976331,0.886744314627219,7.97358119763314,-0.043066,0.008552114,0.01740966,292.26093,-5.204824,34.220398,SIT
2495347547000,3.61521,5.30589181765598,0.89064306,7.97696877173663,-0.038789943,0.0015271631,0.016187929,292.26996,-5.2057886,34.219265,SIT
2495352350000,3.620013,5.31012165538646,0.89064306,7.97062399305715,-0.044593163,0.009773844,0.01160644,292.27887,-5.2022862,34.214462,SIT
2495357620000,3.625283,5.31476276403513,0.89064306,7.96366230585314,-0.036957346,0.009773844,0.0070249503,292.282444581705,-5.20439530880673,34.213962508967,SIT
2495362331000,3.629994,5.31891158051405,0.89064306,7.957439059474,-0.03268129,0.018020526,0.013744468,292.28564,-5.2062807,34.213516,SIT
2495367300000,3.634963,5.32328760876362,0.89064306,7.95087499425261,-0.029932396,0.012217305,0.012217305,292.29535,-5.2081184,34.213943,SIT
2495372327000,3.63999,5.3146327881641,0.887285756668718,7.95210678229744,-0.03390302,0.010995574,0.0143553335,292.3025,-5.210206,34.210957,SIT
2495377311000,3.644974,5.29994644814359,0.882390262285128,7.95700224601026,-0.036651913,0.014660766,0.017715093,292.3097,-5.213214,34.20822,SIT
2495382336000,3.649999,5.30931791564039,0.884402133518378,7.94164677174119,-0.033292156,0.014049901,0.013744468,292.31262,-5.218905,34.202362,SIT
2495387471000,3.655134,5.3279525270936,0.889060827730201,7.91835349526336,-0.0290161,0.009468411,0.014049901,292.31296,-5.222845,34.197037,SIT
2495392376000,3.660039,5.34040690886281,0.887580286380008,7.9073796455686,-0.03176499,0.015882496,0.015271631,292.31363,-5.225838,34.18725,SIT
2495397342000,3.665005,5.35003021699717,0.882768602167139,7.90256799150142,-0.03726278,0.004886922,0.008552114,292.31775,-5.230296,34.18367,SIT
2495402373000,3.670036,5.34710779927353,0.874738999273535,7.9198471691454,-0.034208454,0.008857546,0.0143553335,292.31622,-5.235337,34.17986,SIT
2495407386000,3.675049,5.33741987708607,0.865051077086066,7.94891088512764,-0.0421497,0.0106901415,0.01863139,292.31796,-5.237669,34.17949,SIT
2495412377000,3.68004,5.3311148394972,0.865079160502799,7.96465945407051,-0.031154128,0.010079277,0.0143553335,292.31903,-5.244394,34.180065,SIT
2495417399000,3.685062,5.32639180212118,0.869802197878818,7.97410557814004,-0.034208454,0.015271631,0.014049901,292.31696,-5.2445297,34.178715,SIT
2495422394000,3.690057,5.31712041573973,0.876039929562593,7.96989579990104,-0.03604105,0.011911872,0.015271631,292.31158,-5.246706,34.17265,SIT
2495427383000,3.695046,5.30529989238001,0.883132273201385,7.95807525185552,-0.03481932,0.013133603,0.014966198,292.30658,-5.2490854,34.164032,SIT
2495432394000,3.700057,5.29342724404255,0.890255891957447,7.9462025787234,-0.03970624,0.0061086523,0.015577064,292.29922,-5.252382,34.155643,SIT
2495437462000,3.705125,5.28141954462642,0.897460541699159,7.93419485423058,-0.03970624,0.010995574,0.0143553335,292.2922,-5.2572675,34.143814,SIT
2495442392000,3.710055,5.27972915917496,0.8958571621266,7.93395867357752,-0.034208454,0.009773844,0.0125227375,292.28583,-5.262139,34.13601,SIT
2495447382000,3.715045,5.28458469991872,0.88857383580065,7.94124195934261,-0.036651913,0.015271631,0.011911872,292.27905,-5.2649746,34.125225,SIT
2495452406000,3.720069,5.28947332450721,0.881240883603942,7.94857487070209,-0.031154128,0.006414085,0.007330383,292.27072,-5.280144,34.112274,SIT
2495457398000,3.725061,5.29433081135948,0.873954638109124,7.95586107561979,-0.025961773,0.00580322,0.015271631,292.25793,-5.2922797,34.09637,SIT
2495462358000,3.730021,5.2990520545392,0.883800565991354,7.9614040545392,-0.03634648,0.016493361,0.016493361,292.24905,-5.3033442,34.079884,SIT
2495467368000,3.735031,5.30376607173315,0.902656861196699,7.96611807173315,-0.040011674,0.013439035,0.017104227,292.23837,-5.3155346,34.068172,SIT
2495472351000,3.740014,5.29702337608926,0.904111557605078,7.97358813207656,-0.037873644,0.018325957,0.011911872,292.22525,-5.3241425,34.052067,SIT
2495477365000,3.745028,5.28316805972877,0.89487464788112,7.98282509002597,-0.03268129,0.01740966,0.014660766,292.20975,-5.330918,34.039246,SIT
2495482319000,3.749982,5.28188247791924,0.885581266224388,7.98452583746768,-0.036957346,0.015882496,0.016798794,292.19196,-5.344784,34.019455,SIT
2495487399000,3.755062,5.29156024676746,0.875903467059877,7.97968700357072,-0.037873644,0.005497787,0.009773844,292.177,-5.3610735,34.002956,SIT
2495492315000,3.759978,5.28835723892686,0.863872312414567,7.96986288590228,-0.029321533,0.007941248,0.009162978,292.16006,-5.3739724,33.984177,SIT
2495497319000,3.764982,5.27369168540243,0.849206707844537,7.95519723028665,-0.032070424,0.011911872,0.0143553335,292.14407,-5.383692,33.968422,SIT
2495502319000,3.769982,5.27785325816024,0.840106671612265,7.95670651285856,-0.035430185,0.009468411,0.01282817,292.12836,-5.393994,33.955715,SIT
2495507452000,3.775115,5.29730230178042,0.835244385321464,7.97129342250247,-0.028405234,0.01160644,0.010079277,292.11124,-5.405024,33.94123,SIT
2495512317000,3.77998,5.30318107092616,0.840292061461978,7.98221988289449,-0.028710667,0.01038471,0.008552114,292.09213,-5.4110394,33.928814,SIT
2495517328000,3.784991,5.29876302234395,0.853546345608543,7.99105602619223,-0.03145956,0.005497787,0.007941248,292.07397,-5.4180326,33.917267,SIT
2495522315000,3.789978,5.29562224866379,0.8619126,7.99522529465516,-0.0290161,0.01038471,0.013439035,292.05234,-5.423662,33.905075,SIT
2495527319000,3.794982,5.29465642361643,0.8619126,7.99136199446572,-0.027183503,0.011301007,0.010995574,292.03424,-5.4295406,33.895504,SIT
2495532312000,3.799975,5.29369272168568,0.8619126,7.98750718674271,-0.03848451,0.01038471,0.014966198,292.01135,-5.4397144,33.88763,SIT
2495538841000,3.806504,5.2924325554718,0.8619126,7.98246652188722,-0.03176499,0.0106901415,0.014049901,291.98756156155,-5.45172157120893,33.8805892681574,SIT
2495562231000,3.829894,5.28791803751461,0.8619126,7.96440845005845,-0.032986723,0.0076358155,0.021685716,291.90234,-5.494737,33.855366,SIT
2495567256000,3.834919,5.28694815924463,0.8619126,7.96052893697852,-0.04062254,0.010995574,0.016187929,291.8908,-5.498115,33.8527,SIT
2495572217000,3.83988,5.28235711392975,0.859892396417492,7.96034648248774,-0.032375857,0.013133603,0.016187929,291.87372,-5.503377,33.85424,SIT
2495577356000,3.845019,5.27250723536476,0.854967431421995,7.96527139605724,-0.04184427,0.008857546,0.013744468,291.85968,-5.503663,33.856384,SIT
2495582222000,3.849885,5.26822813010179,0.855288221134271,7.9580615962191,-0.035124753,0.006414085,0.011301007,291.8477,-5.5069485,33.85165,SIT
2495587259000,3.854922,5.27056636751818,0.86230300663112,7.93467897789627,-0.028710667,0.00030543262,0.010995574,291.83627,-5.5078797,33.849335,SIT
2495592211000,3.859874,5.27286514688803,0.869199416752303,7.91169094415899,-0.03481932,0.00580322,0.009468411,291.82285,-5.508856,33.841824,SIT
2495597259000,3.864922,5.27520849063984,0.876229521415414,7.88825726194862,-0.035124753,0.012217305,0.007330383,291.8101,-5.5126376,33.835926,SIT
2495602240000,3.869903,5.28266937959907,0.878141867834363,7.87798369486686,-0.03970624,0.010995574,0.014660766,291.7949,-5.5124927,33.831112,SIT
2495607287000,3.87495,5.30224383976916,0.868354663298572,7.89755820613547,-0.029321533,0.0106901415,0.009468411,291.7846,-5.517999,33.823997,SIT
2495612598000,3.880261,5.31424086079545,0.863686841356185,7.91221664135619,-0.03390302,0.011301007,0.013439035,291.77887,-5.513126,33.824043,SIT
2495617276000,3.884939,5.31215436647727,0.867859742846498,7.9163895428465,-0.027488936,0.01038471,0.0061086523,291.77893,-5.5159407,33.824066,SIT
2495622283000,3.889946,5.30992113068182,0.872326121162444,7.92085592116244,-0.035124753,0.008857546,0.011301007,291.7705,-5.5094414,33.825672,SIT
2495627285000,3.894948,5.307690125,0.876788039344262,7.92531783934426,-0.03573562,0.0143553335,0.013439035,291.7654,-5.50779,33.82517,SIT
2495632456000,3.900119,5.3047881149761,0.881447646893255,7.9288331109931,-0.03634648,0.009468411,0.007941248,291.7617,-5.504783,33.827934,SIT
2495637302000,3.904965,5.29492960610728,0.886376957945831,7.91897455065321,-0.030848695,0.010995574,0.016187929,291.75217,-5.500612,33.827858,SIT
2495642288000,3.909951,5.28767311150353,0.889367437840565,7.90980459091826,-0.042760566,0.008552114,0.010079277,291.75122,-5.4959154,33.82448,SIT
2495647315000,3.914978,5.29576970118567,0.881270780523041,7.90575627494114,-0.040927973,0.0033597588,0.014966198,291.7439,-5.4927635,33.822247,SIT
2495652327000,3.91999,5.30384213155903,0.873198282716112,7.90172003868147,-0.03604105,0.0070249503,0.010995574,291.7429,-5.4911613,33.8173,SIT
2495657338000,3.925001,5.30184709664154,0.867785457965338,7.91568132946245,-0.032070424,0.016187929,0.01282817,291.73828,-5.488159,33.8127,SIT
2495662270000,3.929933,5.29722237477724,0.863160687809654,7.93418036179379,-0.03176499,0.013744468,0.014660766,291.7354,-5.4861326,33.81034,SIT
2495667322000,3.934985,5.2993664847406,0.878873722061875,7.94256492016183,-0.04520403,0.0125227375,0.01160644,291.73474,-5.474657,33.804184,SIT
2495672352000,3.940015,5.30395199649691,0.901801548982389,7.9471504798001,-0.032375857,0.004886922,0.010995574,291.7331,-5.469107,33.800888,SIT
2495677337000,3.945,5.29669509470521,0.897988726680023,7.95760546694333,-0.02565634,0.007941248,0.015577064,291.72684,-5.4624777,33.79597,SIT
2495682926000,3.950589,5.28137610532341,0.877563304419004,7.97292456296508,-0.04184427,0.013133603,0.011301007,291.72412,-5.4550834,33.79238,SIT
2495687364000,3.955027,5.28238594948713,0.874272024743563,7.96634947196986,-0.036651913,0.009162978,0.009468411,291.72784,-5.456114,33.79391,SIT
2495692344000,3.960007,5.29236971837974,0.879263909189868,7.94638188205987,-0.03848451,0.0076358155,0.01038471,291.73172,-5.452037,33.79323,SIT
2495697339000,3.965002,5.290420190322,0.883843272237642,7.93361856132426,-0.040317107,0.013439035,0.015577064,291.73114,-5.4458785,33.789898,SIT
2495702356000,3.970019,5.28170421651701,0.888201286443537,7.92490254201361,-0.03268129,0.01038471,0.015577064,291.73245,-5.4424076,33.789406,SIT
2495707347000,3.97501,5.27876568080865,0.886753086197131,7.92779894354388,-0.03359759,0.013133603,0.008246681,291.7328,-5.4353776,33.780983,SIT
2495712339000,3.980002,5.28321950842184,0.87784540306689,7.94561430050307,-0.038179077,0.005192355,0.01160644,291.7301,-5.4277883,33.777046,SIT
2495717312000,3.984975,5.28784133639278,0.870045563607223,7.95977012131638,-0.028710667,0.01282817,0.009773844,291.73242,-5.4266415,33.767212,SIT
2495722321000,3.989984,5.29296690442355,0.86491999557645,7.96489563582648,-0.04153884,0.014049901,0.008246681,291.73407,-5.4187155,33.76176,SIT
2495727282000,3.994945,5.2959743,0.862722380855602,7.96628344674445,-0.034208454,0.018020526,0.01038471,291.73254,-5.415803,33.753216,SIT
2495732326000,3.999989,5.2959743,0.864742427658596,7.96224337423159,-0.040317107,0.014660766,0.012217305,291.73193,-5.407183,33.74661,SIT
2495738921000,4.006584,5.2959743,0.867383626838958,7.95696100345001,-0.03756821,0.013439035,0.010995574,291.7334,-5.4021735,33.74485,SIT
2495742340000,4.010003,5.2959743,0.868752885367791,7.95422250069,-0.03573562,0.0076358155,0.010995574,291.73416,-5.3952546,33.745483,SIT
2495747279000,4.014942,5.2959743,0.870730881236148,7.95026652960733,-0.041233405,0.0125227375,0.015271631,291.7328,-5.390852,33.74875,SIT
2495752509000,4.020172,5.28951881307335,0.874717143463326,7.94229404677713,-0.0421497,0.011301007,0.018936822,291.7321,-5.388124,33.755165,SIT
2495757308000,4.024971,5.28023227777329,0.879360411113356,7.93300755996161,-0.036651913,0.002443461,0.007330383,291.7352,-5.3874702,33.76183,SIT
2495762336000,4.029999,5.26794691738719,0.878108272462397,7.93551182418882,-0.03390302,0.007941248,0.0125227375,291.74017,-5.3784165,33.77106,SIT
2495767348000,4.035011,5.25432504956012,0.873567649853372,7.94459302199413,-0.024740042,0.01282817,0.010079277,291.7519,-5.375533,33.781883,SIT
2495772347000,4.04001,5.25610140524688,0.868819031584373,7.93806805422121,-0.032070424,0.009468411,0.0070249503,291.75876,-5.373239,33.790188,SIT
2495777344000,4.045007,5.2709004784146,0.863886007195135,7.91833600817442,-0.027183503,0.007330383,0.0070249503,291.76505,-5.3759084,33.796528,SIT
2495782323000,4.049986,5.27184006945899,0.856931995462478,7.91791328080279,-0.03145956,0.0076358155,0.010995574,291.7706,-5.374072,33.800976,SIT
2495787365000,4.055028,5.26341311,0.84850508,7.93055361,-0.036651913,0.0076358155,0.009162978,291.77817,-5.374119,33.805714,SIT
2495792319000,4.059982,5.25910479225075,0.843477894248719,7.93953214712436,-0.030848695,0.007941248,0.015882496,291.7841,-5.371122,33.818645,SIT
2495797341000,4.065004,5.2638677161843,0.845859349998762,7.94072287499938,-0.026267206,0.009162978,0.016187929,291.79266,-5.368098,33.83058,SIT
2495802292000,4.069955,5.26856330288183,0.848207137218687,7.94189676860934,-0.026572637,0.007330383,0.0125227375,291.7987,-5.3635254,33.841343,SIT
2495807351000,4.075014,5.27336131805105,0.850606138540764,7.94309626927038,-0.04062254,0.010995574,0.007941248,291.8046,-5.3570156,33.849804,SIT
2495812262000,4.079925,5.27801896827759,0.852934957574707,7.94426067878735,-0.03573562,0.017104227,0.01160644,291.80878,-5.354324,33.857857,SIT
2495817332000,4.084995,5.28282741597633,0.855339175147929,7.94546278757396,-0.03145956,0.011911872,0.015882496,291.8145,-5.3490105,33.86763,SIT
2495822292000,4.089955,5.28753153837984,0.8576912302097,7.94663881510485,-0.03145956,0.008857546,0.01038471,291.8204,-5.3478966,33.87683,SIT
2495827343000,4.095006,5.29232196625486,0.860086437894581,7.94783641894729,-0.03970624,0.008857546,0.013133603,291.822,-5.3438725,33.88668,SIT
2495832321000,4.099984,5.29663894129257,0.862244918911263,7.94841718108874,-0.03756821,0.016798794,0.015271631,291.8218,-5.344861,33.891132,SIT
2495837358000,4.105021,5.2996094809471,0.863730180984051,7.94693191901595,-0.035124753,0.01282817,0.004886922,291.82538,-5.345554,33.898403,SIT
2495842283000,4.109946,5.30251396929306,0.865182417574974,7.94547968242503,-0.032070424,0.00580322,0.0125227375,291.82306,-5.3448486,33.9061,SIT
2495847340000,4.115003,5.30549630382413,0.866673577055237,7.94398852294476,-0.030848695,0.017715093,0.014660766,291.82556,-5.346777,33.908787,SIT
2495852294000,4.119957,5.30841789474106,0.868134364887,7.942527735113,-0.032070424,0.0106901415,0.0125227375,291.82782,-5.3482447,33.91866,SIT
2495857344000,4.125007,5.31139610106534,0.869623460274647,7.94103863972535,-0.02321288,0.00580322,0.01160644,291.8272,-5.35173,33.92254,SIT
2495862311000,4.129974,5.31432535865201,0.87108808142127,7.93957401857873,-0.026267206,0.0030543262,0.012217305,291.82703,-5.3521314,33.927616,SIT
2495868033000,4.135696,5.33557469773818,0.879668104715559,7.94735137909527,-0.029626964,0.0070249503,0.01160644,291.8274,-5.354772,33.931896,SIT
2495872380000,4.140043,5.35595575599726,0.887820553557231,7.9555038023989,-0.03726278,0.005497787,0.014049901,291.8268,-5.3549733,33.9384,SIT
2495877378000,4.145041,5.34948655531689,0.895715093370565,7.95325428251794,-0.039095376,0.010079277,0.011301007,291.82837,-5.3572125,33.94281,SIT
2495882337000,4.15,5.33028452835338,0.902915841576873,7.94605355686849,-0.032986723,0.0106901415,0.014049901,291.82733,-5.358219,33.948807,SIT
2495887426000,4.155089,5.31057912096937,0.910305357128778,7.93866406446477,-0.03359759,0.008552114,0.009773844,291.8272,-5.3616176,33.952618,SIT
